Time (s),Accel X,Accel Y,Accel Z,Gyro X,Gyro Y,Gyro Z,Temperature (C)
0.0020720600000458944,-0.30406361083984373,-9.440337145996093,1.2976572998046874,0,0,0,0
0.00329429200019149,-0.34715924072265625,-9.53131680908203,1.2282254516601563,0,0,0,0
0.00439246899986756,-0.3687070556640625,-10.050858569335936,1.2641384765625,0,0,0,0
0.005472979999922245,-0.3184288208007812,-10.110713610839843,1.2713210815429687,0,0,0,0
0.0065540830000827555,-0.4525041137695312,-10.050858569335936,1.3024457031249999,0,0,0,0
0.007632261000253493,-0.229843359375,-9.809044201660155,1.3623007446289062,0,0,0,0
0.008875529999841092,-0.086191259765625,-9.595960253906249,1.429338391113281,0,0,0,0
0.01006672499988781,-0.07900865478515624,-9.433154541015625,1.6424223388671875,0,0,0,0
0.011182772000211116,-0.12449848632812499,-9.275137231445312,1.3623007446289062,0,0,0,0
0.012296338999931322,-0.22026655273437498,-9.215282189941405,1.369483349609375,0,0,0,0
0.013377756999943813,-0.2705447875976562,-9.68454571533203,1.2210428466796874,0,0,0,0
0.01459004400021513,-0.5386953735351562,-9.81862100830078,1.1324573852539062,0,0,0,0
0.015885423999861814,-0.4860229370117187,-9.801861596679688,1.1827356201171875,0,0,0,0
0.017119952000030025,-0.5434837768554687,-9.81862100830078,1.2210428466796874,0,0,0,0
0.01834185100005925,-0.5051765502929687,-9.629479077148437,1.2425906616210938,0,0,0,0
0.019596768000155862,-0.488417138671875,-9.583989245605467,1.1563994018554686,0,0,0,0
0.020735407999836752,-0.4261678955078125,-9.605537060546874,1.2234370483398436,0,0,0,0
0.021912843999871257,-0.3447650390625,-9.572018237304688,1.2713210815429687,0,0,0,0
0.023033077000036428,-0.23702596435546874,-9.610325463867188,1.20667763671875,0,0,0,0
0.0241257359998599,-0.2442085693359375,-9.758765966796874,1.3192051147460937,0,0,0,0
0.025382745000115392,-0.19632453613281248,-9.986215124511718,1.3120225097656248,0,0,0,0
0.02652003399998648,-0.2609679809570312,-9.904812268066406,1.3862427612304686,0,0,0,0
0.02779378400009591,-0.1149216796875,-9.81862100830078,1.458068811035156,0,0,0,0
0.028924923999966268,-0.09576806640624999,-9.600748657226562,1.4700398193359374,0,0,0,0
0.030174674000136292,0.19871873779296872,-9.56962403564453,1.5179238525390624,0,0,0,0
0.03142738799988365,0.35194764404296874,-9.945513696289062,1.4628572143554686,0,0,0,0
0.033027746000243496,0.20829554443359374,-10.050858569335936,1.465251416015625,0,0,0,0
0.03428151500020249,0.13168109130859373,-9.459490759277344,1.2928688964843749,0,0,0,0
0.03584252300015578,-0.38786066894531246,-8.963891015625,1.2042834350585936,0,0,0,0
0.037182254000072135,-0.6823474731445313,-8.70771143798828,1.1109095703125,0,0,0,0
0.03848696700015353,-0.6368576416015624,-8.836998327636719,1.0989385620117187,0,0,0,0
0.04009428900008061,-1.0534487304687499,-9.200916979980468,1.1133037719726562,0,0,0,0
0.04137729800004308,-1.1276689819335937,-9.76116016845703,1.0797849487304687,0,0,0,0
0.042716769999969983,-1.158793603515625,-10.034099157714843,1.218648645019531,0,0,0,0
0.04429390699988289,-1.0773907470703123,-10.263942517089843,1.2904746948242187,0,0,0,0
0.04587619199992332,-0.6081272216796875,-10.232817895507813,1.2785036865234374,0,0,0,0
0.0473906629999874,-0.41419688720703124,-10.259154113769531,1.3000515014648437,0,0,0,0
0.048903578000135894,-0.15562310791015624,-10.345345373535155,1.24498486328125,0,0,0,0
0.05039204900003824,-0.143652099609375,-10.443507641601562,1.2832920898437499,0,0,0,0
0.051799668000057864,0.1197100830078125,-10.249577307128906,1.3910311645507811,0,0,0,0
0.05297302999997555,0.19871873779296872,-9.916783276367187,1.4724340209960938,0,0,0,0
0.05406567099998938,0.2657563842773437,-9.574412438964844,1.5705962890624998,0,0,0,0
0.05531390299984196,0.354341845703125,-9.102754711914063,1.675941162109375,0,0,0,0
0.056584522999855835,0.4525041137695312,-8.990227233886719,1.7693150268554687,0,0,0,0
0.057712237000032474,0.3902548706054687,-8.832209924316405,1.6735469604492186,0,0,0,0
0.05879950700000336,0.24899697265624998,-8.832209924316405,1.5969325073242187,0,0,0,0
0.06001838800011683,0.028730419921875,-8.82263311767578,1.2976572998046874,0,0,0,0
0.0612030830002368,-0.1484405029296875,-8.80347950439453,1.1061211669921875,0,0,0,0
0.062310056000114855,-0.3232172241210937,-8.932766394042968,1.0486603271484374,0,0,0,0
0.06339706700009629,-0.5219359619140624,-9.085995300292968,0.9145850341796874,0,0,0,0
0.06451779999997598,-0.6631938598632812,-9.291896643066405,0.7565677246093749,0,0,0,0
0.06575142100018638,-0.7805097412109374,-9.574412438964844,0.6536170532226562,0,0,0,0
0.0669304490002105,-0.74699091796875,-9.80665,0.7900865478515624,0,0,0,0
0.06802829300022495,-0.7350199096679687,-9.916783276367187,0.8044517578125,0,0,0,0
0.06911463799997364,-0.6655880615234374,-10.036493359375,1.1563994018554686,0,0,0,0
0.07019418500021857,-0.5434837768554687,-10.137049829101562,1.3168109130859373,0,0,0,0
0.07142802899988965,-0.3687070556640625,-10.455478649902343,1.5251064575195312,0,0,0,0
0.07256666900002529,-0.06464344482421874,-10.500968481445312,1.7334020019531249,0,0,0,0
0.07368940100013788,-0.00718260498046875,-10.43871923828125,1.695094775390625,0,0,0,0
0.07487509700013106,-0.02633621826171875,-10.295067138671874,1.8028338500976562,0,0,0,0
0.07618654999987484,-0.16759411621093748,-9.962273107910155,1.7669208251953124,0,0,0,0
0.07745122599999377,-0.43574470214843747,-9.91438907470703,1.6543933471679686,0,0,0,0
0.07862190300011207,-0.2657563842773437,-9.86411083984375,1.5275006591796874,0,0,0,0
0.07971324700019977,-0.34715924072265625,-9.658209497070311,1.39821376953125,0,0,0,0
0.0814792529999977,-0.45489831542968745,-9.33978067626953,1.0558429321289062,0,0,0,0
0.08281131800004005,-0.6775590698242188,-9.205705383300781,0.8379705810546875,0,0,0,0
0.08408051300011721,-0.7876923461914062,-9.150638745117186,0.6847416748046875,0,0,0,0
0.08525926299989806,-0.7350199096679687,-9.222464794921875,0.6560112548828124,0,0,0,0
0.08676186399998187,-0.5698199951171875,-9.512163195800781,0.7445967163085937,0,0,0,0
0.0881095390000155,-0.5506663818359374,-9.574412438964844,0.8930372192382812,0,0,0,0
0.08936303000018597,-0.5267243652343749,-9.536105212402344,1.1420341918945311,0,0,0,0
0.09053854100011449,-0.2753331909179687,-9.536105212402344,1.20667763671875,0,0,0,0
0.09204069699990214,-0.06703764648437499,-9.509768994140625,1.5251064575195312,0,0,0,0
0.09335270600013246,0.15562310791015624,-9.588777648925781,1.6543933471679686,0,0,0,0
0.0945934380001745,0.28490999755859375,-9.588777648925781,1.7118541870117185,0,0,0,0
0.09577178100016681,0.2657563842773437,-9.651026892089844,1.7693150268554687,0,0,0,0
0.0972107339998729,0.2059013427734375,-9.586383447265625,1.7381904052734374,0,0,0,0
0.09858042799987743,0.15083470458984374,-9.665392102050781,1.8315642700195311,0,0,0,0
0.10004954700025337,0.0718260498046875,-9.744400756835937,1.618480322265625,0,0,0,0
0.10309072900008687,-0.3806780639648437,-9.670180505371093,1.2880804931640624,0,0,0,0
0.10439066400022057,-0.51714755859375,-9.588777648925781,1.1516109985351561,0,0,0,0
0.10569163599984677,-0.5339069702148437,-9.605537060546874,1.0534487304687499,0,0,0,0
0.10688144300002023,-0.584185205078125,-9.516951599121093,1.0366893188476562,0,0,0,0
0.10844819100020686,-0.7326257080078125,-9.557653027343749,0.9576806640625,0,0,0,0
0.1097124600000825,-0.7613561279296874,-9.550470422363281,0.9888052856445312,0,0,0,0
0.11111752399983743,-0.7637503295898437,-9.701305126953125,1.0103531005859374,0,0,0,0
0.11257753200015941,-0.7110778930664062,-9.873687646484374,0.9361328491210937,0,0,0,0
0.11387061499999618,-0.718260498046875,-9.758765966796874,0.9864110839843749,0,0,0,0
0.11511551400008102,-0.612915625,-9.744400756835937,1.0079588989257813,0,0,0,0
0.1162972649999574,-0.5530605834960938,-9.76116016845703,1.0271125122070313,0,0,0,0
0.11773681000022407,-0.2154781494140625,-9.813832604980469,1.1923124267578125,0,0,0,0
0.11904270800005179,-0.02154781494140625,-9.883264453125,1.2904746948242187,0,0,0,0
0.12032549500008827,0.009576806640625,-9.830592016601562,1.3311761230468748,0,0,0,0
0.12150169000005917,-0.1484405029296875,-9.809044201660155,1.3862427612304686,0,0,0,0
0.12312578999990365,0.009576806640625,-9.873687646484374,1.5346832641601562,0,0,0,0
0.124450318000072,0.14125789794921875,-9.871293444824218,1.5179238525390624,0,0,0,0
0.12569495700017796,0.15562310791015624,-9.842563024902343,1.5298948608398437,0,0,0,0
0.12687048599991613,0.05027823486328125,-9.713276135253906,1.448492004394531,0,0,0,0
0.12831282700017255,0.011971008300781249,-9.478644372558593,1.5705962890624998,0,0,0,0
0.12961372500012658,-0.06943184814453125,-9.485826977539062,1.4796166259765624,0,0,0,0
0.13085377200013681,-0.033518823242187495,-9.562441430664062,1.407790576171875,0,0,0,0
0.13203439300013997,-0.1149216796875,-9.502586389160156,1.2737152832031249,0,0,0,0
0.13346175300011964,-0.37828386230468747,-9.327809667968749,1.2856862915039062,0,0,0,0
0.13476730000002135,-0.48123453369140623,-9.315838659667968,1.177947216796875,0,0,0,0
0.13603545700016184,-0.5865794067382812,-9.34696328125,1.1109095703125,0,0,0,0
0.13721061600017492,-0.5865794067382812,-9.447519750976562,1.0941501586914062,0,0,0,0
0.13865360499994495,-0.6584054565429687,-9.497797985839844,1.0821791503906248,0,0,0,0
0.140198817000055,-0.5698199951171875,-9.540893615722656,1.0510545288085937,0,0,0,0
0.14142419700010578,-0.354341845703125,-9.555258825683593,1.2138602416992186,0,0,0,0
0.14259365099997012,-0.277727392578125,-9.665392102050781,1.2856862915039062,0,0,0,0
0.14413593700010097,-0.28969840087890625,-9.794678991699218,1.4245499877929686,0,0,0,0
0.14589760900025794,-0.4070142822265625,-9.89523546142578,1.4101847778320311,0,0,0,0
0.14719198900002084,-0.47165772705078124,-10.096348400878906,1.465251416015625,0,0,0,0
0.14838173999987703,-0.4381389038085937,-9.988609326171874,1.4700398193359374,0,0,0,0
0.14956882400019822,-0.25139117431640623,-9.852139831542969,1.599326708984375,0,0,0,0
0.15119842300009623,-0.33518823242187495,-9.907206469726562,1.4508862060546874,0,0,0,0
0.15247556199983592,-0.354341845703125,-9.679757312011718,1.3718775512695311,0,0,0,0
0.15365933200018844,-0.36631285400390623,-9.651026892089844,1.3335703247070312,0,0,0,0
0.15517634000025282,-0.3399766357421875,-9.655815295410155,1.2210428466796874,0,0,0,0
0.15667582900005073,-0.3806780639648437,-9.718064538574218,1.2018892333984375,0,0,0,0
0.15792150500010393,-0.30885201416015623,-9.662997900390625,1.197100830078125,0,0,0,0
0.15909786700012774,-0.36152445068359373,-9.557653027343749,1.254561669921875,0,0,0,0
0.16062000400006582,-0.2920926025390625,-9.459490759277344,1.2593500732421874,0,0,0,0
0.16212575300005483,-0.2705447875976562,-9.476250170898437,1.2904746948242187,0,0,0,0
0.16337665099990772,-0.29927520751953124,-9.483432775878907,1.350329736328125,0,0,0,0
0.16601789200012718,-0.00239420166015625,-9.430760339355468,1.37906015625,0,0,0,0
0.16731738299995413,-0.00239420166015625,-9.579200842285156,1.3383587280273437,0,0,0,0
0.16850994800006447,-0.17477672119140625,-9.662997900390625,1.37906015625,0,0,0,0
0.16969901399988885,-0.19153613281249998,-9.775525378417969,1.369483349609375,0,0,0,0
0.17116403999989416,-0.2059013427734375,-9.900023864746093,1.3024457031249999,0,0,0,0
0.17265582600020934,-0.20829554443359374,-9.6917283203125,1.3000515014648437,0,0,0,0
0.17466016400021545,-0.26336218261718747,-9.677363110351562,1.1755530151367186,0,0,0,0
0.17587482199996884,-0.30406361083984373,-9.696516723632811,1.1156979736328125,0,0,0,0
0.1774522360001356,-0.430956298828125,-9.713276135253906,1.1228805786132812,0,0,0,0
0.17870733900008418,-0.4836287353515625,-9.758765966796874,1.0582371337890624,0,0,0,0
0.17990264499985642,-0.5506663818359374,-9.730035546875,1.1444283935546875,0,0,0,0
0.18135291199996573,-0.4860229370117187,-9.773131176757811,1.1563994018554686,0,0,0,0
0.18283519800024806,-0.5315127685546874,-9.674968908691406,1.1755530151367186,0,0,0,0
0.18406141200011916,-0.603338818359375,-9.68454571533203,1.2569558715820313,0,0,0,0
0.18523466199985705,-0.5674257934570313,-9.65342109375,1.2497732666015624,0,0,0,0
0.1866740780001237,-0.36152445068359373,-9.667786303710937,1.3263877197265623,0,0,0,0
0.18819904900010442,-0.2825157958984375,-9.672574707031249,1.3287819213867187,0,0,0,0
0.18942791000017678,-0.181959326171875,-9.648632690429688,1.388636962890625,0,0,0,0
0.19060292099993603,-0.201112939453125,-9.648632690429688,1.39821376953125,0,0,0,0
0.19211839099989447,-0.2920926025390625,-9.555258825683593,1.5035586425781249,0,0,0,0
0.1935903620001227,-0.32561142578124996,-9.715670336914062,1.3934253662109375,0,0,0,0
0.19480524200025684,-0.2920926025390625,-9.7683427734375,1.4508862060546874,0,0,0,0
0.19601019699985045,-0.22026655273437498,-9.651026892089844,1.4772224243164063,0,0,0,0
0.19748222299995177,-0.06943184814453125,-9.536105212402344,1.5179238525390624,0,0,0,0
0.19896400900006483,-0.07422025146484375,-9.473855969238281,1.4125789794921875,0,0,0,0
0.20019079700023212,-0.028730419921875,-9.516951599121093,1.407790576171875,0,0,0,0
0.20136471400019218,-0.1484405029296875,-9.526528405761718,1.350329736328125,0,0,0,0
0.20280077799998253,-0.24181436767578124,-9.550470422363281,1.3192051147460937,0,0,0,0
0.20431267499998285,-0.3758896606445312,-9.557653027343749,1.149216796875,0,0,0,0
0.2055362400001286,-0.33518823242187495,-9.519345800781249,1.177947216796875,0,0,0,0
0.20671054700005698,-0.3854664672851562,-9.548076220703125,1.2641384765625,0,0,0,0
0.20817975799991473,-0.39743747558593745,-9.560047229003906,1.177947216796875,0,0,0,0
0.20967882200011445,-0.4525041137695312,-9.528922607421874,1.2521674682617188,0,0,0,0
0.2109042940001018,-0.411802685546875,-9.591171850585937,1.2282254516601563,0,0,0,0
0.2121235820000038,-0.4070142822265625,-9.715670336914062,1.2138602416992186,0,0,0,0
0.21357314600027166,-0.33039982910156246,-9.763554370117188,1.2497732666015624,0,0,0,0
0.21505596899987722,-0.36152445068359373,-9.866505041503906,1.2114660400390624,0,0,0,0
0.2163235339999119,-0.3327940307617187,-9.904812268066406,1.2401964599609374,0,0,0,0
0.21753302500019345,-0.45010991210937495,-9.943119494628906,1.189918225097656,0,0,0,0
0.21903897699985464,-0.4740519287109375,-10.084377392578125,1.218648645019531,0,0,0,0
0.22055296700000326,-0.33039982910156246,-9.87608184814453,1.3479355346679687,0,0,0,0
0.22179529100003492,-0.25139117431640623,-9.777919580078125,1.3814543579101561,0,0,0,0
0.22296844899983626,-0.2753331909179687,-9.720458740234374,1.3575123413085937,0,0,0,0
0.22446832800005723,-0.19871873779296872,-9.749189160156249,1.3958195678710936,0,0,0,0
0.22658233099991776,-0.21308394775390624,-9.6917283203125,1.35990654296875,0,0,0,0
0.22773243400024512,-0.3112462158203125,-9.610325463867188,1.3455413330078123,0,0,0,0
0.22887214799993671,-0.35673604736328124,-9.6151138671875,1.2880804931640624,0,0,0,0
0.23014682400025777,-0.277727392578125,-9.519345800781249,1.2425906616210938,0,0,0,0
0.23136048200012738,-0.4070142822265625,-9.469067565917967,1.3742717529296875,0,0,0,0
0.2350952699998743,-0.143652099609375,-9.3852705078125,1.209071838378906,0,0,0,0
0.23628044699989914,-0.181959326171875,-9.4618849609375,1.2641384765625,0,0,0,0
0.23744151300024896,-0.22026655273437498,-9.516951599121093,1.218648645019531,0,0,0,0
0.2385397269999885,-0.22505495605468748,-9.550470422363281,1.1731588134765625,0,0,0,0
0.23962603400013904,-0.28969840087890625,-9.639055883789062,1.2713210815429687,0,0,0,0
0.24071982299983574,-0.3806780639648437,-9.662997900390625,1.3239935180664062,0,0,0,0
0.24180542600015542,-0.43574470214843747,-9.6917283203125,1.3215993164062498,0,0,0,0
0.24297236200027328,-0.4285620971679687,-9.64623848876953,1.3024457031249999,0,0,0,0
0.2441441690002648,-0.3687070556640625,-9.6917283203125,1.2785036865234374,0,0,0,0
0.2452387540001837,-0.2657563842773437,-9.574412438964844,1.3000515014648437,0,0,0,0
0.24632309800017538,-0.1580173095703125,-9.70369932861328,1.254561669921875,0,0,0,0
0.2474079419998816,-0.29927520751953124,-9.65342109375,1.3215993164062498,0,0,0,0
0.2486054700002569,-0.33518823242187495,-9.686939916992188,1.3359645263671873,0,0,0,0
0.2498273880000852,-0.4381389038085937,-9.78031378173828,1.3575123413085937,0,0,0,0
0.2509357130002172,-0.4740519287109375,-9.78031378173828,1.3455413330078123,0,0,0,0
0.2520301869999457,-0.4381389038085937,-9.81862100830078,1.3024457031249999,0,0,0,0
0.2533489739998913,-0.32082302246093747,-9.76116016845703,1.3215993164062498,0,0,0,0
0.25453494700013835,-0.4333505004882812,-9.72285294189453,1.3479355346679687,0,0,0,0
0.25563434600007895,-0.32082302246093747,-9.648632690429688,1.3192051147460937,0,0,0,0
0.2567267270001139,-0.3064578125,-9.567229833984374,1.3575123413085937,0,0,0,0
0.25781547899987345,-0.19393033447265623,-9.583989245605467,1.3335703247070312,0,0,0,0
0.25897839700019176,-0.22744915771484372,-9.641450085449218,1.2569558715820313,0,0,0,0
0.26014044400017156,-0.28969840087890625,-9.64623848876953,1.3096283081054687,0,0,0,0
0.26123075099985726,-0.30406361083984373,-9.624690673828125,1.35990654296875,0,0,0,0
0.2623137800001132,-0.2442085693359375,-9.689334118652344,1.3455413330078123,0,0,0,0
0.26340227199989386,-0.2154781494140625,-9.674968908691406,1.3072341064453123,0,0,0,0
0.2646014860001742,-0.22266075439453123,-9.6917283203125,1.2785036865234374,0,0,0,0
0.2657535150001422,-0.19871873779296872,-9.658209497070311,1.3742717529296875,0,0,0,0
0.2668453410001348,-0.16519991455078123,-9.593566052246093,1.3455413330078123,0,0,0,0
0.267937184999937,-0.09337386474609374,-9.507374792480467,1.22583125,0,0,0,0
0.2690979909998532,-0.17477672119140625,-9.368511096191405,1.2593500732421874,0,0,0,0
0.27024785300000076,-0.18435352783203124,-9.548076220703125,1.2210428466796874,0,0,0,0
0.2713394010002048,-0.15322890625,-9.576806640625,1.199495031738281,0,0,0,0
0.27245648600001005,-0.20350714111328125,-9.64623848876953,1.2425906616210938,0,0,0,0
0.27354118199991717,-0.25139117431640623,-9.627084875488281,1.2713210815429687,0,0,0,0
0.2747119139999086,-0.3232172241210937,-9.622296472167967,1.2856862915039062,0,0,0,0
0.2760061459998724,-0.4213794921875,-9.655815295410155,1.2521674682617188,0,0,0,0
0.27711658199996236,-0.43574470214843747,-9.588777648925781,1.2521674682617188,0,0,0,0
0.27822103700009393,-0.4070142822265625,-9.70369932861328,1.3311761230468748,0,0,0,0
0.2794347879998895,-0.411802685546875,-9.658209497070311,1.3168109130859373,0,0,0,0
0.28065568700003496,-0.36631285400390623,-9.694122521972655,1.2306196533203124,0,0,0,0
0.28182619700010036,-0.33758243408203126,-9.672574707031249,1.0917559570312498,0,0,0,0
0.2829445410002336,-0.3495534423828125,-9.70369932861328,1.3862427612304686,0,0,0,0
0.2840371629999936,-0.36152445068359373,-9.770736975097655,1.369483349609375,0,0,0,0
0.285202376000143,-0.39743747558593745,-9.80665,1.2904746948242187,0,0,0,0
0.28813011500005814,-0.430956298828125,-9.816226806640625,1.2808978881835937,0,0,0,0
0.28933938399995895,-0.4860229370117187,-9.727641345214844,1.3311761230468748,0,0,0,0
0.29055828299988207,-0.4261678955078125,-9.674968908691406,1.2832920898437499,0,0,0,0
0.29174790400020356,-0.35673604736328124,-9.718064538574218,1.369483349609375,0,0,0,0
0.2928508410000177,-0.2537853759765625,-9.574412438964844,1.3096283081054687,0,0,0,0
0.29394312900012665,-0.201112939453125,-9.540893615722656,1.2976572998046874,0,0,0,0
0.29514780599993173,-0.12210428466796874,-9.56962403564453,1.350329736328125,0,0,0,0
0.29636542700018254,-0.16519991455078123,-9.540893615722656,1.3239935180664062,0,0,0,0
0.29745875200023875,-0.22505495605468748,-9.641450085449218,1.3431471313476562,0,0,0,0
0.2985404109999763,-0.3064578125,-9.660603698730467,1.2737152832031249,0,0,0,0
0.2996232179998515,-0.3280056274414062,-9.617508068847656,1.1851298217773436,0,0,0,0
0.300859617000242,-0.40940848388671874,-9.521740002441407,1.3335703247070312,0,0,0,0
0.3020935519998602,-0.30406361083984373,-9.5001921875,1.2473790649414063,0,0,0,0
0.3031820629998947,-0.2059013427734375,-9.437942944335937,1.2880804931640624,0,0,0,0
0.3043643700002576,-0.143652099609375,-9.495403784179686,1.369483349609375,0,0,0,0
0.30545843600020817,-0.26336218261718747,-9.478644372558593,1.3144167114257812,0,0,0,0
0.30666011299990714,-0.29448680419921874,-9.519345800781249,1.3096283081054687,0,0,0,0
0.30788925200022277,-0.258573779296875,-9.648632690429688,1.2401964599609374,0,0,0,0
0.30898422600012054,-0.35673604736328124,-9.636661682128906,1.2761094848632812,0,0,0,0
0.3100721069999963,-0.35673604736328124,-9.744400756835937,1.3287819213867187,0,0,0,0
0.3112738760000866,-0.3495534423828125,-9.689334118652344,1.2138602416992186,0,0,0,0
0.3124617749999743,-0.41898529052734373,-9.794678991699218,1.2569558715820313,0,0,0,0
0.31355184099993494,-0.3950432739257812,-9.718064538574218,1.2785036865234374,0,0,0,0
0.3146341480000956,-0.3711012573242187,-9.749189160156249,1.22583125,0,0,0,0
0.3157186040002671,-0.3136404174804687,-9.674968908691406,1.3096283081054687,0,0,0,0
0.3170734089999314,-0.33518823242187495,-9.730035546875,1.3575123413085937,0,0,0,0
0.31842047300006016,-0.27293898925781246,-9.732429748535155,1.3311761230468748,0,0,0,0
0.31960253900024327,-0.354341845703125,-9.801861596679688,1.2737152832031249,0,0,0,0
0.32078404899993984,-0.3854664672851562,-9.854534033203125,1.235408056640625,0,0,0,0
0.3220979289999377,-0.3902548706054687,-9.811438403320311,1.2138602416992186,0,0,0,0
0.32340695599987157,-0.43574470214843747,-9.801861596679688,1.2665326782226562,0,0,0,0
0.32460905900006765,-0.4525041137695312,-9.670180505371093,1.3168109130859373,0,0,0,0
0.32576986499998384,-0.30885201416015623,-9.631873278808593,1.3766659545898436,0,0,0,0
0.32693398699984755,-0.2442085693359375,-9.564835632324218,1.3287819213867187,0,0,0,0
0.3285767339998529,-0.20350714111328125,-9.622296472167967,1.2473790649414063,0,0,0,0
0.33015168600013567,-0.25139117431640623,-9.560047229003906,1.1923124267578125,0,0,0,0
0.3313449180000134,-0.24660277099609373,-9.651026892089844,1.218648645019531,0,0,0,0
0.33252991000017573,-0.32561142578124996,-9.651026892089844,1.3120225097656248,0,0,0,0
0.3339545110002291,-0.277727392578125,-9.636661682128906,1.3048399047851562,0,0,0,0
0.3358198490000177,-0.27293898925781246,-9.588777648925781,1.3024457031249999,0,0,0,0
0.33713876599995274,-0.2537853759765625,-9.572018237304688,1.3215993164062498,0,0,0,0
0.3387755690000631,-0.14604630126953125,-9.545682019042967,1.2904746948242187,0,0,0,0
0.3406007230000796,-0.181959326171875,-9.658209497070311,1.3096283081054687,0,0,0,0
0.34200528700012,-0.22266075439453123,-9.560047229003906,1.3431471313476562,0,0,0,0
0.34342810999987705,-0.3327940307617187,-9.677363110351562,1.2856862915039062,0,0,0,0
0.34480123000003005,-0.3184288208007812,-9.648632690429688,1.3215993164062498,0,0,0,0
0.34625966400017205,-0.32082302246093747,-9.7683427734375,1.3048399047851562,0,0,0,0
0.34793318899983205,-0.316034619140625,-9.900023864746093,1.3383587280273437,0,0,0,0
0.34933538299992506,-0.36631285400390623,-9.68454571533203,1.2880804931640624,0,0,0,0
0.35065970699997706,-0.3495534423828125,-9.64623848876953,1.3192051147460937,0,0,0,0
0.35187517900021703,-0.3016694091796875,-9.581595043945311,1.2282254516601563,0,0,0,0
0.35305604099994525,-0.30885201416015623,-9.789890588378906,1.254561669921875,0,0,0,0
0.35431145800021113,-0.4572925170898437,-9.756371765136718,1.2880804931640624,0,0,0,0
0.35557182000002285,-0.36631285400390623,-9.746794958496093,1.2880804931640624,0,0,0,0
0.3567495150000468,-0.3758896606445312,-9.804255798339844,1.2832920898437499,0,0,0,0
0.3579188769999746,-0.3854664672851562,-9.744400756835937,1.2569558715820313,0,0,0,0
0.35916731299994353,-0.3711012573242187,-9.643844287109374,1.3527239379882812,0,0,0,0
0.36043610000024273,-0.3184288208007812,-9.548076220703125,1.3120225097656248,0,0,0,0
0.3616099989999384,-0.27293898925781246,-9.629479077148437,1.2808978881835937,0,0,0,0
0.3627786759998344,-0.2920926025390625,-9.639055883789062,1.2282254516601563,0,0,0,0
0.36405877800007147,-0.21068974609375,-9.670180505371093,1.2928688964843749,0,0,0,0
0.3653276579998419,-0.1771709228515625,-9.627084875488281,1.2976572998046874,0,0,0,0
0.36649803799991787,-0.11731588134765625,-9.619902270507811,1.2689268798828124,0,0,0,0
0.36760869699992327,-0.1197100830078125,-9.610325463867188,1.3096283081054687,0,0,0,0
0.3687103739998747,-0.17956512451171874,-9.631873278808593,1.37906015625,0,0,0,0
0.3698026810002375,-0.24899697265624998,-9.600748657226562,1.2880804931640624,0,0,0,0
0.37096576600015396,-0.33758243408203126,-9.528922607421874,1.2114660400390624,0,0,0,0
0.37227694200009864,-0.4165910888671875,-9.641450085449218,1.3000515014648437,0,0,0,0
0.3733962300002531,-0.3280056274414062,-9.677363110351562,1.2832920898437499,0,0,0,0
0.374482240999896,-0.22026655273437498,-9.64623848876953,1.350329736328125,0,0,0,0
0.3755663070000992,-0.19393033447265623,-9.555258825683593,1.3168109130859373,0,0,0,0
0.3767512800000077,-0.15083470458984374,-9.619902270507811,1.3168109130859373,0,0,0,0
0.3779027529999439,-0.15562310791015624,-9.619902270507811,1.3144167114257812,0,0,0,0
0.3790768560002107,-0.239420166015625,-9.672574707031249,1.2282254516601563,0,0,0,0
0.38023075499995684,-0.373495458984375,-9.76116016845703,1.2832920898437499,0,0,0,0
0.3813252840000132,-0.3902548706054687,-9.792284790039062,1.2737152832031249,0,0,0,0
0.3825160720002714,-0.45489831542968745,-9.732429748535155,1.3263877197265623,0,0,0,0
0.3836269349999384,-0.40940848388671874,-9.785102185058593,1.2928688964843749,0,0,0,0
0.3847178900000472,-0.34237083740234375,-9.801861596679688,1.2713210815429687,0,0,0,0
0.3858042709998699,-0.38786066894531246,-9.672574707031249,1.3479355346679687,0,0,0,0
0.3869644300002619,-0.3184288208007812,-9.619902270507811,1.3527239379882812,0,0,0,0
0.38812873599999875,-0.26336218261718747,-9.56962403564453,1.3383587280273437,0,0,0,0
0.3892194129998643,-0.16519991455078123,-9.679757312011718,1.2952630981445312,0,0,0,0
0.39029968400018333,-0.41898529052734373,-9.76116016845703,1.3407529296874998,0,0,0,0
0.3913831569998365,-0.3232172241210937,-9.749189160156249,1.3144167114257812,0,0,0,0
0.3926273890001539,-0.3591302490234375,-9.758765966796874,1.3431471313476562,0,0,0,0
0.3940107500002341,-0.36391865234375,-9.689334118652344,1.3455413330078123,0,0,0,0
0.39522263000026214,-0.3232172241210937,-9.648632690429688,1.3718775512695311,0,0,0,0
0.39642858400020486,-0.28490999755859375,-9.507374792480467,1.3168109130859373,0,0,0,0
0.39768363099983617,-0.21068974609375,-9.440337145996093,1.235408056640625,0,0,0,0
0.3990546949999043,-0.16519991455078123,-9.49300958251953,1.2497732666015624,0,0,0,0
0.40040557500014984,-0.21068974609375,-9.603142858886718,1.3263877197265623,0,0,0,0
0.40161713999987114,-0.21068974609375,-9.665392102050781,1.158793603515625,0,0,0,0
0.4032224799998403,-0.22266075439453123,-9.710881933593749,1.2904746948242187,0,0,0,0
0.40469697000025917,-0.45489831542968745,-9.648632690429688,1.3120225097656248,0,0,0,0
0.4059329980000257,-0.3711012573242187,-9.509768994140625,1.369483349609375,0,0,0,0
0.4070931940000264,-0.3495534423828125,-9.662997900390625,1.3239935180664062,0,0,0,0
0.40826338900023984,-0.4477157104492187,-9.665392102050781,1.3048399047851562,0,0,0,0
0.4094297699998606,-0.2657563842773437,-9.600748657226562,1.3646949462890625,0,0,0,0
0.41052500200021314,-0.28012159423828126,-9.576806640625,1.2856862915039062,0,0,0,0
0.41161301300007835,-0.22505495605468748,-9.567229833984374,1.2593500732421874,0,0,0,0
0.41269443100009084,-0.21787235107421873,-9.624690673828125,1.2737152832031249,0,0,0,0
0.4138602749999336,-0.22266075439453123,-9.667786303710937,1.2832920898437499,0,0,0,0
0.41498908199992,-0.28969840087890625,-9.746794958496093,1.3359645263671873,0,0,0,0
0.41607825900018724,-0.36152445068359373,-9.749189160156249,1.2928688964843749,0,0,0,0
0.4171637140002531,-0.3806780639648437,-9.641450085449218,1.180341418457031,0,0,0,0
0.4182481140001073,-0.3687070556640625,-9.60793126220703,1.2928688964843749,0,0,0,0
0.41940005000014935,-0.29927520751953124,-9.679757312011718,1.3096283081054687,0,0,0,0
0.4205666900002143,-0.2920926025390625,-9.727641345214844,1.2665326782226562,0,0,0,0
0.42166542299992216,-0.316034619140625,-9.639055883789062,1.2952630981445312,0,0,0,0
0.4227486559998397,-0.36631285400390623,-9.665392102050781,1.2665326782226562,0,0,0,0
0.4238558329998341,-0.29927520751953124,-9.662997900390625,1.350329736328125,0,0,0,0
0.42502954700012197,-0.30885201416015623,-9.667786303710937,1.3096283081054687,0,0,0,0
0.4261867430000166,-0.3280056274414062,-9.624690673828125,1.3263877197265623,0,0,0,0
0.42728151300025274,-0.2705447875976562,-9.674968908691406,1.2904746948242187,0,0,0,0
0.4283685240002342,-0.3495534423828125,-9.756371765136718,1.2569558715820313,0,0,0,0
0.42945233099999314,-0.4740519287109375,-9.689334118652344,1.2521674682617188,0,0,0,0
0.43061384100019495,-0.42377369384765623,-9.600748657226562,1.2282254516601563,0,0,0,0
0.4317746840001746,-0.28730419921875,-9.65342109375,1.3359645263671873,0,0,0,0
0.4328705100001571,-0.24899697265624998,-9.612719665527344,1.3263877197265623,0,0,0,0
0.4339592989999801,-0.239420166015625,-9.548076220703125,1.3718775512695311,0,0,0,0
0.43511721599998054,-0.21068974609375,-9.5384994140625,1.2976572998046874,0,0,0,0
0.4362740970000232,-0.2537853759765625,-9.598354455566406,1.2425906616210938,0,0,0,0
0.4373635340002693,-0.26815058593749996,-9.655815295410155,1.3287819213867187,0,0,0,0
0.4384445999999116,-0.258573779296875,-9.677363110351562,1.3383587280273437,0,0,0,0
0.43952561100013554,-0.277727392578125,-9.710881933593749,1.3335703247070312,0,0,0,0
0.4407061580000118,-0.36391865234375,-9.641450085449218,1.0773907470703123,0,0,0,0
0.4418492240001797,-0.40222587890625,-9.64623848876953,1.3000515014648437,0,0,0,0
0.44292740099990624,-0.354341845703125,-9.579200842285156,1.35990654296875,0,0,0,0
0.44429426199985755,-0.3327940307617187,-9.598354455566406,1.3311761230468748,0,0,0,0
0.4454916240001694,-0.29927520751953124,-9.6151138671875,1.3335703247070312,0,0,0,0
0.44667217100004564,-0.2154781494140625,-9.627084875488281,1.4604630126953124,0,0,0,0
0.4477923109998301,-0.201112939453125,-9.56962403564453,1.2282254516601563,0,0,0,0
0.44887108100010664,-0.19632453613281248,-9.574412438964844,1.24498486328125,0,0,0,0
0.4500393690000237,-0.277727392578125,-9.639055883789062,1.2569558715820313,0,0,0,0
0.4512356010000076,-0.36631285400390623,-9.548076220703125,1.3670891479492187,0,0,0,0
0.4523328710001806,-0.8690952026367187,-9.624690673828125,1.4437036010742186,0,0,0,0
0.4534157339999183,-0.40222587890625,-10.058041174316406,1.4030021728515625,0,0,0,0
0.45449867100023766,0.20829554443359374,-9.730035546875,1.5179238525390624,0,0,0,0
0.4556702180002503,0.565031591796875,-9.660603698730467,1.4532804077148436,0,0,0,0
0.45689915399998426,0.39264907226562495,-9.631873278808593,1.2042834350585936,0,0,0,0
0.45828466200009643,-0.8786720092773437,-9.5384994140625,1.0199299072265624,0,0,0,0
0.45969955999999,-1.1156979736328125,-9.6917283203125,0.8092401611328125,0,0,0,0
0.4609611060000134,-1.177947216796875,-9.907206469726562,0.8307879760742187,0,0,0,0
0.4624006889998782,-0.19153613281249998,-9.739612353515625,1.0438719238281249,0,0,0,0
0.46357992100001866,0.21308394775390624,-9.459490759277344,1.3718775512695311,0,0,0,0
0.46476052400021217,0.39264907226562495,-9.478644372558593,1.2617442749023438,0,0,0,0
0.4660280150001199,0.430956298828125,-9.988609326171874,0.9696516723632812,0,0,0,0
0.467446819000088,-0.27293898925781246,-9.234435803222656,1.16837041015625,0,0,0,0
0.4686315700000705,-1.1013327636718748,-9.677363110351562,0.8116343627929687,0,0,0,0
0.4698045430000093,-1.956062756347656,-9.87608184814453,0.9050082275390624,0,0,0,0
0.4710531450000417,-1.5251064575195312,-9.390058911132812,1.3072341064453123,0,0,0,0
0.4724495609998485,0.5506663818359374,-9.303867651367186,1.7788918334960937,0,0,0,0
0.47362720099999933,1.0390835205078124,-9.521740002441407,1.838746875,0,0,0,0
0.47479387800012773,0.7805097412109374,-9.10993731689453,1.7501614135742187,0,0,0,0
0.47599253599992153,0.4836287353515625,-9.521740002441407,1.4173673828125,0,0,0,0
0.47724339800015514,-0.8068459594726562,-9.85692823486328,1.1611878051757811,0,0,0,0
0.4786803870001677,-1.369483349609375,-10.041281762695311,0.8858546142578124,0,0,0,0
0.47988117500017324,-1.4891934326171874,-10.070012182617187,0.8834604125976562,0,0,0,0
0.4810606480000388,-0.9193734375,-9.694122521972655,1.0941501586914062,0,0,0,0
0.48230780599988066,0.32082302246093747,-9.30147344970703,1.3215993164062498,0,0,0,0
0.4850121570002557,0.5386953735351562,-9.543287817382812,1.20667763671875,0,0,0,0
0.48613140799989196,-0.29448680419921874,-9.986215124511718,1.0510545288085937,0,0,0,0
0.48752626900022733,-1.3239935180664062,-10.204087475585936,0.8834604125976562,0,0,0,0
0.4886815569998362,-1.2330138549804688,-10.053252770996092,1.0702081420898437,0,0,0,0
0.48975093800027025,-0.8164227661132812,-9.897629663085937,1.2018892333984375,0,0,0,0
0.49082743100007065,-0.17477672119140625,-9.555258825683593,1.6256629272460936,0,0,0,0
0.4920358849999502,0.6919242797851562,-9.3086560546875,1.8219874633789062,0,0,0,0
0.4932255799999439,1.0654197387695312,-9.17458076171875,1.6711527587890624,0,0,0,0
0.4943195350001588,-0.3950432739257812,-9.516951599121093,1.3910311645507811,0,0,0,0
0.4954018610001185,-1.0630255371093749,-9.545682019042967,1.1923124267578125,0,0,0,0
0.4964783529999295,-1.0989385620117187,-9.83777462158203,0.9265560424804687,0,0,0,0
0.497700659000202,-0.7733271362304687,-10.031704956054687,0.8643067993164062,0,0,0,0
0.49886242899992794,-0.39743747558593745,-9.974244116210937,1.1875240234375,0,0,0,0
0.49997477299984894,0.0143652099609375,-9.4618849609375,1.2976572998046874,0,0,0,0
0.5012193190000289,0.105344873046875,-9.368511096191405,1.235408056640625,0,0,0,0
0.5024716249999983,-0.2705447875976562,-9.476250170898437,1.1923124267578125,0,0,0,0
0.5039665590002187,-0.4836287353515625,-9.76116016845703,1.158793603515625,0,0,0,0
0.5053312899999582,-0.5291185668945312,-9.679757312011718,1.197100830078125,0,0,0,0
0.5065321709998898,-0.3136404174804687,-9.686939916992188,1.3168109130859373,0,0,0,0
0.5077991990001465,-0.1484405029296875,-9.488221179199218,1.4820108276367188,0,0,0,0
0.5090886150001097,0.02633621826171875,-9.509768994140625,1.4796166259765624,0,0,0,0
0.5103656989999763,-0.11013327636718749,-9.595960253906249,1.448492004394531,0,0,0,0
0.5114646540000649,-0.5746083984375,-9.770736975097655,1.2401964599609374,0,0,0,0
0.5127608299999338,-0.6775590698242188,-9.950302099609374,1.0941501586914062,0,0,0,0
0.5141195979999793,-0.47165772705078124,-9.713276135253906,1.177947216796875,0,0,0,0
0.5154631069999596,-0.08858546142578125,-9.679757312011718,1.1851298217773436,0,0,0,0
0.5165817840002092,-0.06703764648437499,-9.555258825683593,1.2042834350585936,0,0,0,0
0.517674776000149,-0.14604630126953125,-9.473855969238281,1.149216796875,0,0,0,0
0.5187649539998347,-0.2059013427734375,-9.572018237304688,1.2042834350585936,0,0,0,0
0.5200549629998932,-0.4955997436523437,-9.753977563476562,1.0726023437499999,0,0,0,0
0.521248843000194,-0.603338818359375,-9.801861596679688,1.2042834350585936,0,0,0,0
0.5223484839998491,-0.39264907226562495,-9.83777462158203,1.209071838378906,0,0,0,0
0.5234362350001902,-0.2609679809570312,-9.804255798339844,1.3120225097656248,0,0,0,0
0.5245186540000759,-0.08379705810546874,-9.679757312011718,1.4245499877929686,0,0,0,0
0.5255877200002033,-0.05027823486328125,-9.641450085449218,1.3910311645507811,0,0,0,0
0.5267400080001607,-0.24181436767578124,-9.490615380859374,1.3670891479492187,0,0,0,0
0.5278945740001291,-0.277727392578125,-9.574412438964844,1.2952630981445312,0,0,0,0
0.5289932880000379,-0.36152445068359373,-9.639055883789062,1.216254443359375,0,0,0,0
0.5305013699999108,-0.22026655273437498,-9.682151513671874,1.3742717529296875,0,0,0,0
0.5315899180000088,-0.105344873046875,-9.682151513671874,1.3335703247070312,0,0,0,0
0.5327586130001691,-0.10773907470703124,-9.562441430664062,1.2641384765625,0,0,0,0
0.5338881980001133,-0.21068974609375,-9.624690673828125,1.1348515869140625,0,0,0,0
0.534979635000127,-0.38786066894531246,-9.737218151855469,1.0821791503906248,0,0,0,0
0.5360688680002568,-0.565031591796875,-9.622296472167967,1.1037269653320312,0,0,0,0
0.537151675000132,-0.5865794067382812,-9.651026892089844,1.0702081420898437,0,0,0,0
0.5383558879998418,-0.46686932373046874,-9.65342109375,1.180341418457031,0,0,0,0
0.5395101019998947,-0.28490999755859375,-9.512163195800781,1.2306196533203124,0,0,0,0
0.5406030389999614,-0.16519991455078123,-9.502586389160156,1.3072341064453123,0,0,0,0
0.5416731800000889,-0.09576806640624999,-9.521740002441407,1.3431471313476562,0,0,0,0
0.5427483570001641,-0.0383072265625,-9.598354455566406,1.4987702392578124,0,0,0,0
0.5439466450002328,-0.22026655273437498,-9.445125549316407,1.35990654296875,0,0,0,0
0.5450768589998916,-0.33518823242187495,-9.744400756835937,1.3144167114257812,0,0,0,0
0.5461683140001696,-0.4333505004882812,-9.732429748535155,1.3096283081054687,0,0,0,0
0.54725426899995,-0.3854664672851562,-9.7683427734375,1.35990654296875,0,0,0,0
0.5483429280002383,-0.277727392578125,-9.758765966796874,1.2737152832031249,0,0,0,0
0.5494972159999634,-0.1771709228515625,-9.710881933593749,1.3359645263671873,0,0,0,0
0.5506427820000681,-0.229843359375,-9.600748657226562,1.2976572998046874,0,0,0,0
0.5517380520000188,-0.2609679809570312,-9.598354455566406,1.22583125,0,0,0,0
0.5528156370000943,-0.3184288208007812,-9.593566052246093,1.2018892333984375,0,0,0,0
0.5539507960002084,-0.3711012573242187,-9.617508068847656,1.1156979736328125,0,0,0,0
0.5550793249999515,-0.3687070556640625,-9.70369932861328,1.1540052001953125,0,0,0,0
0.5563523340001666,-0.35194764404296874,-9.892841259765625,1.2282254516601563,0,0,0,0
0.5574569370000972,-0.3184288208007812,-9.897629663085937,1.2401964599609374,0,0,0,0
0.5585458740001741,-0.3280056274414062,-9.811438403320311,1.2641384765625,0,0,0,0
0.5599949010002092,-0.34237083740234375,-9.591171850585937,1.419761584472656,0,0,0,0
0.5617185370001607,-0.3447650390625,-9.557653027343749,1.3048399047851562,0,0,0,0
0.5629136950001339,-0.33039982910156246,-9.643844287109374,1.235408056640625,0,0,0,0
0.5641302049998558,-0.22505495605468748,-9.598354455566406,1.2904746948242187,0,0,0,0
0.5653182330001982,-0.16280571289062498,-9.655815295410155,1.2306196533203124,0,0,0,0
0.56684524100001,-0.1771709228515625,-9.651026892089844,1.218648645019531,0,0,0,0
0.5680708620002406,-0.2059013427734375,-9.603142858886718,1.1947066284179686,0,0,0,0
0.569207206000101,-0.5123591552734374,-9.557653027343749,1.1372457885742187,0,0,0,0
0.5705271960000573,-0.6081272216796875,-9.662997900390625,1.120486376953125,0,0,0,0
0.5716740399998343,-0.4908113403320312,-9.627084875488281,1.2617442749023438,0,0,0,0
0.5728226430001087,-0.296881005859375,-9.624690673828125,1.1731588134765625,0,0,0,0
0.5739182460001757,-0.2705447875976562,-9.509768994140625,1.16837041015625,0,0,0,0
0.5750091089998932,-0.2753331909179687,-9.667786303710937,1.1947066284179686,0,0,0,0
0.5761676010001793,-0.17477672119140625,-9.593566052246093,1.235408056640625,0,0,0,0
0.5773083520002729,-0.24660277099609373,-9.6151138671875,1.1420341918945311,0,0,0,0
0.5784087880001607,-0.28490999755859375,-9.672574707031249,1.189918225097656,0,0,0,0
0.5794971320001423,-0.2705447875976562,-9.634267480468749,1.3335703247070312,0,0,0,0
0.5805764020001334,-0.25139117431640623,-9.715670336914062,1.3742717529296875,0,0,0,0
0.5817295050001121,-0.22505495605468748,-9.787496386718749,1.3575123413085937,0,0,0,0
0.5828428489999169,-0.2657563842773437,-9.79946739501953,1.3646949462890625,0,0,0,0
0.5839602860000923,-0.35673604736328124,-9.737218151855469,1.189918225097656,0,0,0,0
0.5850449630002004,-0.3399766357421875,-9.710881933593749,1.39821376953125,0,0,0,0
0.586114641000222,-0.3184288208007812,-9.686939916992188,1.458068811035156,0,0,0,0
0.5872486140001456,-0.14604630126953125,-9.660603698730467,1.4628572143554686,0,0,0,0
0.5883975320002719,-0.08140285644531249,-9.60793126220703,1.350329736328125,0,0,0,0
0.5898458920000849,-0.028730419921875,-9.775525378417969,1.3263877197265623,0,0,0,0
0.5909951429998728,-0.26815058593749996,-9.749189160156249,1.2593500732421874,0,0,0,0
0.5921811160001198,-0.4285620971679687,-9.751583361816406,1.189918225097656,0,0,0,0
0.5936731050001072,-0.4955997436523437,-9.756371765136718,1.199495031738281,0,0,0,0
0.5948685409998689,-0.45968671875,-9.665392102050781,1.2378022583007813,0,0,0,0
0.5962174760002199,-0.29448680419921874,-9.665392102050781,1.1611878051757811,0,0,0,0
0.5979445010002564,-0.1771709228515625,-9.579200842285156,1.2569558715820313,0,0,0,0
0.599167048000254,-0.09337386474609374,-9.485826977539062,1.2473790649414063,0,0,0,0
0.6006354259998261,-0.32082302246093747,-9.504980590820312,1.1156979736328125,0,0,0,0
0.6021296190001522,-0.3854664672851562,-9.727641345214844,1.2234370483398436,0,0,0,0
0.6034328509999796,-0.3950432739257812,-9.775525378417969,1.2210428466796874,0,0,0,0
0.6046257130001322,-0.35194764404296874,-9.753977563476562,1.2497732666015624,0,0,0,0
0.6057072050002716,-0.3854664672851562,-9.655815295410155,1.2378022583007813,0,0,0,0
0.6067802339998707,-0.33039982910156246,-9.648632690429688,1.189918225097656,0,0,0,0
0.6078992259999723,-0.34237083740234375,-9.576806640625,1.1563994018554686,0,0,0,0
0.6090456810002252,-0.2609679809570312,-9.60793126220703,1.209071838378906,0,0,0,0
0.6102276540000275,-0.28012159423828126,-9.562441430664062,1.1947066284179686,0,0,0,0
0.6114961270000094,-0.28969840087890625,-9.533711010742186,1.2378022583007813,0,0,0,0
0.6127045440002803,-0.1149216796875,-9.605537060546874,1.2330138549804688,0,0,0,0
0.6139478869999948,-0.16519991455078123,-9.758765966796874,1.22583125,0,0,0,0
0.6152047479999965,-0.32082302246093747,-9.730035546875,1.209071838378906,0,0,0,0
0.6164260919999833,-0.3399766357421875,-9.665392102050781,1.189918225097656,0,0,0,0
0.617586491000111,-0.36631285400390623,-9.701305126953125,1.2282254516601563,0,0,0,0
0.6187375200001952,-0.3950432739257812,-9.65342109375,1.2401964599609374,0,0,0,0
0.6199283629998718,-0.33039982910156246,-9.543287817382812,1.216254443359375,0,0,0,0
0.6211799100001372,-0.23702596435546874,-9.543287817382812,1.22583125,0,0,0,0
0.6226346399998874,-0.24181436767578124,-9.562441430664062,1.139639990234375,0,0,0,0
0.6239012790001652,-0.258573779296875,-9.562441430664062,1.3311761230468748,0,0,0,0
0.6250214560000131,-0.1771709228515625,-9.718064538574218,1.35990654296875,0,0,0,0
0.6262569470000017,-0.3447650390625,-9.7683427734375,1.37906015625,0,0,0,0
0.6276012710000032,-0.29448680419921874,-9.727641345214844,1.5227122558593749,0,0,0,0
0.628719263000221,-0.22744915771484372,-9.720458740234374,1.3862427612304686,0,0,0,0
0.6299654949998512,-0.2346317626953125,-9.828197814941406,1.3383587280273437,0,0,0,0
0.6312570039999628,-0.46208092041015625,-9.521740002441407,1.3287819213867187,0,0,0,0
0.632395310999982,-0.4477157104492187,-9.567229833984374,1.2497732666015624,0,0,0,0
0.6334832480001751,-0.4644751220703125,-9.68454571533203,1.24498486328125,0,0,0,0
0.6345642960000077,-0.4261678955078125,-9.713276135253906,1.3024457031249999,0,0,0,0
0.6356730659999812,-0.354341845703125,-9.636661682128906,1.209071838378906,0,0,0,0
0.6369024460000219,-0.2154781494140625,-9.540893615722656,1.2880804931640624,0,0,0,0
0.638076066999929,-0.28969840087890625,-9.68454571533203,1.2497732666015624,0,0,0,0
0.6391724300001442,-0.39264907226562495,-9.682151513671874,1.1659762084960936,0,0,0,0
0.6402651439998408,-0.4381389038085937,-9.725247143554688,1.0702081420898437,0,0,0,0
0.6413558029998967,-0.63206923828125,-9.708487731933593,1.0749965454101562,0,0,0,0
0.6425714980000521,-0.6943184814453125,-9.785102185058593,0.928950244140625,0,0,0,0
0.6437748970001849,-0.55545478515625,-9.720458740234374,1.2234370483398436,0,0,0,0
0.6448767040001258,-0.3016694091796875,-9.636661682128906,1.3192051147460937,0,0,0,0
0.6459678810001606,-0.0383072265625,-9.567229833984374,1.3383587280273437,0,0,0,0
0.6471725020001031,-0.011971008300781249,-9.619902270507811,1.3335703247070312,0,0,0,0
0.6483854379998775,-0.1580173095703125,-9.574412438964844,1.3575123413085937,0,0,0,0
0.6494810039998811,-0.24660277099609373,-9.617508068847656,1.1923124267578125,0,0,0,0
0.650567608000074,-0.3399766357421875,-9.694122521972655,1.3168109130859373,0,0,0,0
0.651675952000005,-0.49320554199218747,-9.634267480468749,1.3024457031249999,0,0,0,0
0.6529518870001993,-0.2825157958984375,-9.583989245605467,1.2737152832031249,0,0,0,0
0.6541733230001228,-0.07422025146484375,-9.452308154296874,1.3455413330078123,0,0,0,0
0.6553042589998768,-0.08140285644531249,-9.41639512939453,1.3359645263671873,0,0,0,0
0.6564254730001267,-0.2154781494140625,-9.476250170898437,1.3766659545898436,0,0,0,0
0.6575171509998654,-0.2609679809570312,-9.490615380859374,1.3527239379882812,0,0,0,0
0.658752419999928,-0.32561142578124996,-9.504980590820312,1.3646949462890625,0,0,0,0
0.6599745409998832,-0.3232172241210937,-9.624690673828125,1.3479355346679687,0,0,0,0
0.6612924199998815,-0.469263525390625,-9.6917283203125,1.2928688964843749,0,0,0,0
0.662484263999886,-0.5051765502929687,-9.775525378417969,1.2665326782226562,0,0,0,0
0.6637725509999655,-0.48123453369140623,-9.8449572265625,1.177947216796875,0,0,0,0
0.6650871520000692,-0.5147533569335937,-9.873687646484374,1.1444283935546875,0,0,0,0
0.6663381060002393,-0.4572925170898437,-9.871293444824218,1.0510545288085937,0,0,0,0
0.6674302840001474,-0.47165772705078124,-9.852139831542969,1.13006318359375,0,0,0,0
0.6685845719998724,-0.41898529052734373,-9.82580361328125,1.2042834350585936,0,0,0,0
0.669775933999972,-0.33039982910156246,-9.686939916992188,1.2114660400390624,0,0,0,0
0.6709520180002073,-0.2657563842773437,-9.847351428222655,1.1851298217773436,0,0,0,0
0.672094288000153,-0.06464344482421874,-9.720458740234374,1.2210428466796874,0,0,0,0
0.6732457050002267,-0.15322890625,-9.720458740234374,1.2617442749023438,0,0,0,0
0.6743398090002302,-0.2705447875976562,-9.756371765136718,1.2665326782226562,0,0,0,0
0.6754109120001885,-0.2825157958984375,-9.612719665527344,1.3311761230468748,0,0,0,0
0.6765003489999799,-0.3280056274414062,-9.483432775878907,1.2665326782226562,0,0,0,0
0.6777171920002729,-0.354341845703125,-9.375693701171874,1.2785036865234374,0,0,0,0
0.6790199790002589,-0.40462008056640625,-9.303867651367186,1.2306196533203124,0,0,0,0
0.680162804000247,-0.16998831787109375,-9.26316622314453,1.2497732666015624,0,0,0,0
0.6812537410000914,-0.16041151123046873,-9.291896643066405,1.24498486328125,0,0,0,0
0.6823360670000511,-0.19632453613281248,-9.366116894531249,1.2282254516601563,0,0,0,0
0.6835045769998942,-0.3447650390625,-9.497797985839844,1.24498486328125,0,0,0,0
0.6850408810000772,-0.3854664672851562,-9.641450085449218,1.235408056640625,0,0,0,0
0.6862244090002605,-0.5410895751953124,-9.832986218261718,1.2593500732421874,0,0,0,0
0.687357289999909,-0.4644751220703125,-9.945513696289062,1.235408056640625,0,0,0,0
0.6885237450001114,-0.3591302490234375,-9.923965881347655,1.3311761230468748,0,0,0,0
0.6896707000000788,-0.2442085693359375,-9.911994873046874,1.3838485595703125,0,0,0,0
0.6907645070000399,-0.18435352783203124,-9.883264453125,1.47482822265625,0,0,0,0
0.6918750730001193,-0.181959326171875,-9.852139831542969,1.350329736328125,0,0,0,0
0.6929671020002388,-0.16519991455078123,-9.87608184814453,1.388636962890625,0,0,0,0
0.6941356490001453,-0.26815058593749996,-9.871293444824218,1.3383587280273437,0,0,0,0
0.695288697000251,-0.22266075439453123,-10.01733974609375,1.2808978881835937,0,0,0,0
0.6963845959999162,-0.14125789794921875,-10.019733947753906,1.1947066284179686,0,0,0,0
0.6974747919998663,-0.08140285644531249,-9.840168823242188,1.1156979736328125,0,0,0,0
0.6985649510002077,-0.09576806640624999,-9.746794958496093,1.16837041015625,0,0,0,0
0.6997407019998718,-0.21068974609375,-9.60793126220703,1.139639990234375,0,0,0,0
0.7008826750002299,-0.30885201416015623,-9.473855969238281,1.0917559570312498,0,0,0,0
0.7019761490000747,-0.4525041137695312,-9.30147344970703,0.9983820922851562,0,0,0,0
0.7030889930001649,-0.488417138671875,-9.244012609863281,1.0678139404296874,0,0,0,0
0.7041846520000945,-0.5722141967773438,-9.227253198242186,1.1348515869140625,0,0,0,0
0.7056369010001617,-0.48123453369140623,-9.179369165039063,1.3239935180664062,0,0,0,0
0.7068652440002552,-0.316034619140625,-9.344569079589844,1.4724340209960938,0,0,0,0
0.7079671249998682,-0.229843359375,-9.469067565917967,1.4030021728515625,0,0,0,0
0.7090498759998809,-0.19632453613281248,-9.64623848876953,1.448492004394531,0,0,0,0
0.7108861040001102,-0.30406361083984373,-9.928754284667969,1.3239935180664062,0,0,0,0
0.7124710190000769,-0.39264907226562495,-10.050858569335936,1.2378022583007813,0,0,0,0
0.7137169359998552,-0.354341845703125,-9.983820922851562,1.1540052001953125,0,0,0,0
0.7149610559999928,-0.3806780639648437,-9.969455712890625,1.1444283935546875,0,0,0,0
0.7161305300001004,-0.07422025146484375,-9.952696301269532,1.216254443359375,0,0,0,0
0.717552371000238,-0.02154781494140625,-9.868899243164062,1.3168109130859373,0,0,0,0
0.7192488589998902,-0.18435352783203124,-9.777919580078125,1.2138602416992186,0,0,0,0
0.7208910140002445,-0.19393033447265623,-9.588777648925781,1.2425906616210938,0,0,0,0
0.7220767280000473,-0.44053310546874996,-9.564835632324218,1.2569558715820313,0,0,0,0
0.7232254240002476,-0.488417138671875,-9.528922607421874,1.2689268798828124,0,0,0,0
0.7243229529999553,-0.4381389038085937,-9.418789331054686,1.2880804931640624,0,0,0,0
0.7254128340000534,-0.39743747558593745,-9.251195214843749,1.4125789794921875,0,0,0,0
0.7268293239999366,-0.4285620971679687,-9.176974963378905,1.3814543579101561,0,0,0,0
0.728173629000139,-0.4381389038085937,-9.258377819824219,1.2713210815429687,0,0,0,0
0.7297583770000529,-0.3280056274414062,-9.672574707031249,1.3192051147460937,0,0,0,0
0.7313175140002386,-0.35194764404296874,-9.828197814941406,1.3072341064453123,0,0,0,0
0.7324317470001915,-0.36152445068359373,-9.854534033203125,1.2138602416992186,0,0,0,0
0.7345188250001229,-0.22744915771484372,-10.084377392578125,1.2282254516601563,0,0,0,0
0.7358899999999267,-0.14604630126953125,-9.8449572265625,1.2497732666015624,0,0,0,0
0.7373368230000779,-0.076614453125,-9.758765966796874,1.2665326782226562,0,0,0,0
0.7386327580002217,-0.1484405029296875,-9.619902270507811,1.455674609375,0,0,0,0
0.7397222130002774,-0.13407529296874998,-9.5384994140625,1.3383587280273437,0,0,0,0
0.7408197979998477,-0.12210428466796874,-9.409212524414063,1.2976572998046874,0,0,0,0
0.7424323240002195,-0.17956512451171874,-9.435548742675781,1.2210428466796874,0,0,0,0
0.7435999640001683,-0.3112462158203125,-9.466673364257812,1.1659762084960936,0,0,0,0
0.7446979930000452,-0.507570751953125,-9.514557397460937,1.0678139404296874,0,0,0,0
0.7457885039998473,-0.7661445312499999,-9.545682019042967,1.0678139404296874,0,0,0,0
0.7474120850001782,-0.6536170532226562,-9.674968908691406,1.1061211669921875,0,0,0,0
0.7485836690002543,-0.5722141967773438,-9.665392102050781,1.1851298217773436,0,0,0,0
0.7496663649999391,-0.411802685546875,-9.756371765136718,1.2880804931640624,0,0,0,0
0.7507358570001088,-0.181959326171875,-9.792284790039062,1.37906015625,0,0,0,0
0.7522709569998369,0.06464344482421874,-9.730035546875,1.3551181396484375,0,0,0,0
0.7534804860001714,-0.00718260498046875,-9.713276135253906,1.407790576171875,0,0,0,0
0.7548630320002303,-0.1005564697265625,-9.878476049804688,1.3670891479492187,0,0,0,0
0.756239392000225,-0.229843359375,-9.840168823242188,1.3144167114257812,0,0,0,0
0.7577521779999188,-0.30885201416015623,-9.931148486328125,1.177947216796875,0,0,0,0
0.7590916869999091,-0.354341845703125,-9.543287817382812,1.22583125,0,0,0,0
0.760632730999987,-0.3447650390625,-9.533711010742186,1.0702081420898437,0,0,0,0
0.7617777969999224,-0.40462008056640625,-9.4618849609375,0.9720458740234375,0,0,0,0
0.7628762889999052,-0.4525041137695312,-9.56962403564453,1.0295067138671874,0,0,0,0
0.7640407250000862,-0.5889736083984375,-9.674968908691406,0.9552864624023437,0,0,0,0
0.7654017529998782,-0.5530605834960938,-9.763554370117188,0.9457096557617187,0,0,0,0
0.766499708000083,-0.4333505004882812,-9.832986218261718,1.0271125122070313,0,0,0,0
0.767588921999959,-0.2920926025390625,-9.907206469726562,1.1827356201171875,0,0,0,0
0.7686806000001525,-0.2537853759765625,-9.85692823486328,1.448492004394531,0,0,0,0
0.7698570359998484,-0.09816226806640624,-9.65342109375,1.6352397338867186,0,0,0,0
0.7711771560002489,0.023942016601562498,-9.660603698730467,1.6256629272460936,0,0,0,0
0.7727323300000535,-0.0047884033203125,-9.734823950195311,1.649604943847656,0,0,0,0
0.7739025810001294,-0.0909796630859375,-9.53131680908203,1.707065783691406,0,0,0,0
0.7750594620001721,-0.01915361328125,-9.504980590820312,1.6065093139648436,0,0,0,0
0.7762379529999635,-0.21068974609375,-9.478644372558593,1.3431471313476562,0,0,0,0
0.777493480999965,-0.258573779296875,-9.512163195800781,1.0869675537109373,0,0,0,0
0.7788911570000892,-0.3136404174804687,-9.677363110351562,1.0295067138671874,0,0,0,0
0.7800754999998389,-0.5243301635742187,-9.686939916992188,0.8451531860351562,0,0,0,0
0.7812499179999577,-0.6536170532226562,-9.749189160156249,0.6416460449218749,0,0,0,0
0.7825003160000961,-0.7398083129882812,-9.756371765136718,0.6751648681640625,0,0,0,0
0.7838616029998775,-0.8714894042968749,-9.689334118652344,0.6847416748046875,0,0,0,0
0.7850466499999129,-0.7852981445312499,-9.706093530273437,0.8762778076171874,0,0,0,0
0.7862219009998626,-0.4333505004882812,-9.696516723632811,1.1228805786132812,0,0,0,0
0.7874656330000107,-0.229843359375,-9.686939916992188,1.4867992309570313,0,0,0,0
0.7889054930001294,-0.016759411621093748,-9.662997900390625,1.7238251953125,0,0,0,0
0.790071836000152,0.181959326171875,-9.732429748535155,1.8818425048828125,0,0,0,0
0.7912302350000573,0.16998831787109375,-9.734823950195311,1.9704279663085937,0,0,0,0
0.7924805410002591,0.076614453125,-9.811438403320311,1.7669208251953124,0,0,0,0
0.7941846769999756,-0.3950432739257812,-9.6917283203125,1.5322890624999999,0,0,0,0
0.7953522430002522,-0.51714755859375,-9.627084875488281,1.37906015625,0,0,0,0
0.796530420000181,-0.48123453369140623,-9.651026892089844,1.1372457885742187,0,0,0,0
0.7977760220001073,-0.354341845703125,-9.662997900390625,0.8379705810546875,0,0,0,0
0.799188494000191,-0.27293898925781246,-9.634267480468749,0.7326257080078125,0,0,0,0
0.8003727069999513,-0.44053310546874996,-9.567229833984374,0.63206923828125,0,0,0,0
0.8015467360000912,-0.6775590698242188,-9.550470422363281,0.6105214233398437,0,0,0,0
0.802790042000197,-0.8020575561523438,-9.545682019042967,0.7829039428710937,0,0,0,0
0.8043798080002489,-0.8643067993164062,-9.600748657226562,0.9911994873046874,0,0,0,0
0.8055802260000746,-0.6200982299804687,-9.56962403564453,1.2832920898437499,0,0,0,0
0.8070684560002519,0.0909796630859375,-9.612719665527344,1.838746875,0,0,0,0
0.8083772059999319,0.3399766357421875,-9.610325463867188,1.9656395629882812,0,0,0,0
0.8097289930001352,0.47884033203125,-9.643844287109374,2.1021090576171875,0,0,0,0
0.8116336460002458,0.23223756103515625,-9.734823950195311,1.707065783691406,0,0,0,0
0.8129908209998575,-0.08858546142578125,-9.883264453125,1.3934253662109375,0,0,0,0
0.8144702180002241,-0.3687070556640625,-9.890447058105469,1.1324573852539062,0,0,0,0
0.8158025420002559,-0.4860229370117187,-9.935936889648437,0.612915625,0,0,0,0
0.8170041439998386,-0.7230489013671875,-9.598354455566406,0.49799394531249996,0,0,0,0
0.8182528020001882,-0.9816226806640624,-9.516951599121093,0.4285620971679687,0,0,0,0
0.8196932360001483,-1.01514150390625,-9.421183532714844,0.679953271484375,0,0,0,0
0.8214181319999625,-0.7445967163085937,-9.445125549316407,0.9528922607421875,0,0,0,0
0.8226007160001245,-0.5458779785156249,-9.552864624023437,1.5131354492187499,0,0,0,0
0.8238840210001399,-0.16519991455078123,-9.792284790039062,1.7022773803710936,0,0,0,0
0.8252927339999587,0.229843359375,-9.859322436523437,1.9129671264648436,0,0,0,0
0.8264710220000779,0.36391865234375,-9.9981861328125,1.9416975463867185,0,0,0,0
0.8276443650001966,0.4213794921875,-10.084377392578125,1.7334020019531249,0,0,0,0
0.828979874000197,0.258573779296875,-9.715670336914062,1.5107412475585937,0,0,0,0
0.8303976050001438,-0.3136404174804687,-9.45470235595703,1.2593500732421874,0,0,0,0
0.8315784110000095,-0.46208092041015625,-9.227253198242186,0.9337386474609375,0,0,0,0
0.8327410689998942,-0.5506663818359374,-9.222464794921875,0.8116343627929687,0,0,0,0
0.833904579999853,-0.5578489868164063,-9.437942944335937,0.7422025146484375,0,0,0,0
0.8351326269998935,-0.5339069702148437,-9.507374792480467,0.7278373046875,0,0,0,0
0.836476617000244,-0.5674257934570313,-9.64623848876953,0.8810662109374999,0,0,0,0
0.837654534000194,-0.51714755859375,-9.698910925292969,1.2330138549804688,0,0,0,0
0.8388280630001645,-0.33518823242187495,-9.708487731933593,1.3646949462890625,0,0,0,0
0.840080295000007,-0.1580173095703125,-9.794678991699218,1.419761584472656,0,0,0,0
0.8415073959999972,-0.14125789794921875,-9.8449572265625,1.5251064575195312,0,0,0,0
0.8426848879998943,-0.08140285644531249,-9.919177478027343,1.7286135986328124,0,0,0,0
0.8438800640001318,0.011971008300781249,-9.627084875488281,1.6639701538085936,0,0,0,0
0.8453187390000494,0.031124621582031248,-9.428366137695312,1.5825672973632812,0,0,0,0
0.8468262470000809,-0.13407529296874998,-9.418789331054686,1.1540052001953125,0,0,0,0
0.8480452009998771,-0.4429273071289062,-9.634267480468749,1.0654197387695312,0,0,0,0
0.8492074519999733,-0.6847416748046875,-9.828197814941406,0.8906430175781249,0,0,0,0
0.8503622030002589,-0.8403647827148437,-9.952696301269532,0.8188169677734375,0,0,0,0
0.8515175100001215,-0.9648632690429687,-10.065223779296874,0.9145850341796874,0,0,0,0
0.852805890000127,-0.8283937744140625,-9.93354268798828,1.1540052001953125,0,0,0,0
0.8542303419999371,-0.14125789794921875,-9.718064538574218,1.24498486328125,0,0,0,0
0.8554071120001936,0.1388636962890625,-9.560047229003906,1.446097802734375,0,0,0,0
0.8565902139998798,0.26815058593749996,-9.435548742675781,1.4891934326171874,0,0,0,0
0.8578502800000933,0.2537853759765625,-9.423577734375,1.3910311645507811,0,0,0,0
0.8592485469998792,-0.3854664672851562,-9.708487731933593,1.2282254516601563,0,0,0,0
0.8604200760000822,-0.6440402465820312,-9.801861596679688,1.1420341918945311,0,0,0,0
0.8615770679998604,-0.70868369140625,-9.744400756835937,1.1923124267578125,0,0,0,0
0.862815855000008,-0.4860229370117187,-9.627084875488281,1.16837041015625,0,0,0,0
0.8643125110002075,-0.09576806640624999,-9.60793126220703,1.1851298217773436,0,0,0,0
0.8655149659998642,-0.09576806640624999,-9.629479077148437,1.2306196533203124,0,0,0,0
0.8666919570000573,-0.06703764648437499,-9.512163195800781,1.199495031738281,0,0,0,0
0.8683042420002494,-0.5626373901367188,-9.540893615722656,1.1563994018554686,0,0,0,0
0.8696389179999642,-0.6296750366210937,-9.509768994140625,1.2737152832031249,0,0,0,0
0.8708134650000829,-0.5434837768554687,-9.574412438964844,1.388636962890625,0,0,0,0
0.8720162899999195,0.016759411621093748,-9.512163195800781,1.5131354492187499,0,0,0,0
0.8732595400001628,0.05027823486328125,-9.576806640625,1.43652099609375,0,0,0,0
0.8747027340000386,-0.105344873046875,-9.56962403564453,1.3623007446289062,0,0,0,0
0.8759045770002558,-0.29927520751953124,-9.82580361328125,1.1540052001953125,0,0,0,0
0.8784649849999369,-0.5123591552734374,-10.144232434082031,1.0917559570312498,0,0,0,0
0.8798872339998525,-0.4213794921875,-9.82580361328125,1.1348515869140625,0,0,0,0
0.8810077260000071,-0.25139117431640623,-9.64623848876953,1.1013327636718748,0,0,0,0
0.8821304950001831,-0.3136404174804687,-9.536105212402344,1.1707646118164061,0,0,0,0
0.8832224689999748,-0.411802685546875,-9.466673364257812,1.22583125,0,0,0,0
0.8844216269999379,-0.4333505004882812,-9.497797985839844,1.3575123413085937,0,0,0,0
0.885675970000193,-0.46208092041015625,-9.636661682128906,1.3431471313476562,0,0,0,0
0.8869038870002441,-0.4572925170898437,-9.94072529296875,1.3646949462890625,0,0,0,0
0.8882154890002312,-0.1197100830078125,-10.070012182617187,1.4101847778320311,0,0,0,0
0.8895166100001006,0.09337386474609374,-9.892841259765625,1.419761584472656,0,0,0,0
0.8907172120002542,0.13168109130859373,-9.792284790039062,1.3479355346679687,0,0,0,0
0.8918604629998299,-0.105344873046875,-9.318232861328125,1.2282254516601563,0,0,0,0
0.8929449370002658,-0.3232172241210937,-9.334992272949219,1.1061211669921875,0,0,0,0
0.894020762999844,-0.7134720947265625,-9.452308154296874,1.0199299072265624,0,0,0,0
0.8951731430001928,-0.7302315063476562,-9.682151513671874,0.9792284790039062,0,0,0,0
0.896419670999876,-0.59376201171875,-9.701305126953125,1.0534487304687499,0,0,0,0
0.8975296270000399,-0.411802685546875,-9.7683427734375,1.2521674682617188,0,0,0,0
0.8986177480001061,-0.32561142578124996,-9.718064538574218,1.438915197753906,0,0,0,0
0.8997065550001935,-0.28730419921875,-9.567229833984374,1.4796166259765624,0,0,0,0
0.9008887879999747,-0.05746083984375,-9.756371765136718,1.5705962890624998,0,0,0,0
0.9020284829998673,0.19871873779296872,-9.823409411621093,1.5514426757812498,0,0,0,0
0.9031229020001774,0.09337386474609374,-9.854534033203125,1.438915197753906,0,0,0,0
0.9042150230002335,-0.047884033203124995,-9.749189160156249,1.4221557861328125,0,0,0,0
0.9053050709999297,-0.23702596435546874,-9.603142858886718,1.180341418457031,0,0,0,0
0.9064898589999757,-0.55545478515625,-9.507374792480467,0.9983820922851562,0,0,0,0
0.907608257999982,-0.7996633544921875,-9.567229833984374,1.0271125122070313,0,0,0,0
0.9086996030000591,-1.0175357055664063,-9.533711010742186,1.1180921752929687,0,0,0,0
0.9097867989999031,-0.8044517578125,-9.81862100830078,1.3239935180664062,0,0,0,0
0.9109797710002567,0.0,-9.880870251464843,1.4915876342773438,0,0,0,0
0.912143763000131,0.4261678955078125,-9.813832604980469,1.5729904907226562,0,0,0,0
0.913241792000008,0.5410895751953124,-9.715670336914062,1.5682020874023437,0,0,0,0
0.9143269880000844,0.316034619140625,-9.507374792480467,1.5107412475585937,0,0,0,0
0.9154376470000898,-0.16998831787109375,-9.409212524414063,1.1707646118164061,0,0,0,0
0.9165947689998575,-0.7038952880859375,-9.3852705078125,0.8954314208984374,0,0,0,0
0.9177421310000682,-0.9840168823242187,-9.627084875488281,0.8738836059570312,0,0,0,0
0.918829604000166,-0.8834604125976562,-9.64623848876953,0.9050082275390624,0,0,0,0
0.9202451679998376,-0.45968671875,-9.715670336914062,1.0726023437499999,0,0,0,0
0.9213745490001202,-0.39983167724609375,-9.804255798339844,1.1563994018554686,0,0,0,0
0.9225419110002804,-0.3447650390625,-9.797073193359374,1.3311761230468748,0,0,0,0
0.9239148830001795,-0.4261678955078125,-9.866505041503906,1.4437036010742186,0,0,0,0
0.9262610330001735,-0.12210428466796874,-9.629479077148437,1.4915876342773438,0,0,0,0
0.9310002209999766,-0.30406361083984373,-9.725247143554688,1.024718310546875,0,0,0,0
0.9333970930001669,-0.7900865478515624,-9.708487731933593,1.0893617553710937,0,0,0,0
0.9357088920000933,-0.488417138671875,-9.562441430664062,1.2880804931640624,0,0,0,0
0.9390338309999606,0.11252747802734374,-9.306261853027344,1.2832920898437499,0,0,0,0
0.9415225170000667,-0.277727392578125,-9.708487731933593,1.0869675537109373,0,0,0,0
0.9439993510000022,-0.6847416748046875,-9.916783276367187,1.0654197387695312,0,0,0,0
0.9464674629998626,-0.47884033203125,-9.610325463867188,1.4053963745117186,0,0,0,0
0.9489417969998613,-0.011971008300781249,-9.521740002441407,1.5921441040039062,0,0,0,0
0.9514191690000189,-0.033518823242187495,-9.919177478027343,1.5658078857421873,0,0,0,0
0.9538193369999135,0.13407529296874998,-10.043675964355469,1.429338391113281,0,0,0,0
0.956152412999927,-0.3950432739257812,-9.773131176757811,1.0702081420898437,0,0,0,0
0.9586187660001997,-1.1180921752929687,-9.354145886230468,1.0606313354492187,0,0,0,0
0.9609778409999308,-0.42377369384765623,-9.41639512939453,1.4053963745117186,0,0,0,0
0.9634350649998851,0.3687070556640625,-9.730035546875,1.467645617675781,0,0,0,0
0.9657628999998451,0.0909796630859375,-9.89523546142578,1.1133037719726562,0,0,0,0
0.9682351040000867,-0.9864110839843749,-9.87608184814453,0.9193734375,0,0,0,0
0.970587051000166,-0.5698199951171875,-9.5001921875,1.2378022583007813,0,0,0,0
0.973082125000019,0.13646949462890623,-9.425971936035156,1.7525556152343749,0,0,0,0
0.9754870900001151,0.26336218261718747,-9.765948571777344,1.5777788940429687,0,0,0,0
0.9777969249998932,0.14604630126953125,-9.660603698730467,1.3072341064453123,0,0,0,0
0.9808942919999026,-0.7948749511718749,-9.600748657226562,0.8906430175781249,0,0,0,0
0.983947826000076,-0.48123453369140623,-9.636661682128906,1.1611878051757811,0,0,0,0
0.9872756539998591,0.11731588134765625,-9.849745629882811,1.3144167114257812,0,0,0,0
0.9905044460001591,-0.5243301635742187,-9.95987890625,1.0797849487304687,0,0,0,0
0.9930005950000123,-0.47884033203125,-9.670180505371093,1.5370774658203123,0,0,0,0
0.995877371000006,0.0,-9.196128576660156,1.6615759521484375,0,0,0,0
0.9983643340001436,0.08858546142578125,-9.540893615722656,1.3910311645507811,0,0,0,0
1.0009481679999226,-0.6536170532226562,-9.828197814941406,1.0366893188476562,0,0,0,0
1.0036232970001038,-0.7110778930664062,-9.852139831542969,0.9600748657226562,0,0,0,0
1.006079131000206,-0.38307226562499996,-9.536105212402344,1.4341267944335936,0,0,0,0
1.0085257989999263,0.30406361083984373,-9.509768994140625,1.3766659545898436,0,0,0,0
1.0113110199999937,-0.105344873046875,-10.134655627441406,0.9696516723632812,0,0,0,0
1.014127204000033,-0.8188169677734375,-9.713276135253906,1.189918225097656,0,0,0,0
1.0167892029999166,-0.7302315063476562,-9.354145886230468,1.3958195678710936,0,0,0,0
1.019186389999959,0.316034619140625,-9.37808790283203,1.5059528442382812,0,0,0,0
1.0216003169998658,0.12689268798828124,-10.031704956054687,1.2114660400390624,0,0,0,0
1.0242471500000647,-0.9074024291992187,-10.031704956054687,0.852335791015625,0,0,0,0
1.0263175979998778,-0.9648632690429687,-9.801861596679688,1.0702081420898437,0,0,0,0
1.0282228249998298,-0.07900865478515624,-9.727641345214844,1.4006079711914061,0,0,0,0
1.030065960000229,0.5530605834960938,-9.636661682128906,1.5083470458984374,0,0,0,0
1.0318219480000153,0.4860229370117187,-9.552864624023437,1.350329736328125,0,0,0,0
1.03368082399993,-0.51714755859375,-9.260772021484375,1.1372457885742187,0,0,0,0
1.0354942919998393,-0.9026140258789062,-9.2320416015625,1.189918225097656,0,0,0,0
1.037166391000028,-0.45010991210937495,-9.564835632324218,1.4413093994140624,0,0,0,0
1.038815434999833,-0.06703764648437499,-9.710881933593749,1.5538368774414062,0,0,0,0
1.040718255000229,0.2561795776367187,-9.593566052246093,1.43652099609375,0,0,0,0
1.042547205000119,-0.05985504150390625,-9.682151513671874,1.120486376953125,0,0,0,0
1.0443295069999294,-0.5602431884765625,-9.70369932861328,0.82360537109375,0,0,0,0
1.0459956250001596,-0.9840168823242187,-10.000580334472655,0.8355763793945312,0,0,0,0
1.047954665999896,-0.5195417602539062,-9.923965881347655,1.3072341064453123,0,0,0,0
1.0498839120000412,0.47644613037109373,-9.481038574218749,1.6927005737304686,0,0,0,0
1.0517810280002777,0.7254431030273437,-9.303867651367186,1.618480322265625,0,0,0,0
1.0536114219999035,-0.3232172241210937,-9.674968908691406,0.9744400756835937,0,0,0,0
1.0554275760000564,-1.1827356201171875,-10.022128149414062,0.737414111328125,0,0,0,0
1.057248730000083,-1.2018892333984375,-10.031704956054687,1.0917559570312498,0,0,0,0
1.0589565690002019,-0.06703764648437499,-9.555258825683593,1.24498486328125,0,0,0,0
1.0608060560002741,0.5147533569335937,-9.315838659667968,1.6400281372070311,0,0,0,0
1.0625749139999243,0.7326257080078125,-9.70369932861328,1.426944189453125,0,0,0,0
1.064356289999978,-0.20829554443359374,-10.077194787597655,0.9169792358398436,0,0,0,0
1.0661282780001784,-1.197100830078125,-9.943119494628906,0.8403647827148437,0,0,0,0
1.0678888209999968,-0.8906430175781249,-9.361328491210937,1.0007762939453124,0,0,0,0
1.0696428270002798,-0.28012159423828126,-9.138667736816405,1.5155296508789062,0,0,0,0
1.071416999000121,0.9409212524414062,-9.315838659667968,1.5394716674804687,0,0,0,0
1.0731961900000897,0.229843359375,-9.765948571777344,1.1348515869140625,0,0,0,0
1.0749521590000768,-1.3239935180664062,-9.964667309570311,0.8068459594726562,0,0,0,0
1.0766689619999852,-1.5538368774414062,-9.801861596679688,0.97683427734375,0,0,0,0
1.0784907080001176,-0.6009446166992187,-9.512163195800781,1.5035586425781249,0,0,0,0
1.0803523620002125,0.8762778076171874,-9.370905297851563,1.7764976318359373,0,0,0,0
1.0821006820001458,0.6560112548828124,-9.481038574218749,1.35990654296875,0,0,0,0
1.083897318000254,-0.9696516723632812,-9.68454571533203,1.1252747802734375,0,0,0,0
1.0857319340002505,-1.6735469604492186,-9.904812268066406,0.967257470703125,0,0,0,0
1.0874982549999004,-1.22583125,-9.797073193359374,1.5658078857421873,0,0,0,0
1.0892909650001457,0.7278373046875,-9.789890588378906,1.8195932617187498,0,0,0,0
1.0910484519999955,0.8068459594726562,-9.275137231445312,1.3239935180664062,0,0,0,0
1.092955087000064,-0.8403647827148437,-9.634267480468749,0.55545478515625,0,0,0,0
1.0950375900001745,-1.6208745239257811,-10.299855541992187,0.33518823242187495,0,0,0,0
1.0968111520001003,-1.4820108276367188,-9.911994873046874,1.0271125122070313,0,0,0,0
1.0986179910000828,0.07422025146484375,-9.057264880371093,1.7980454467773437,0,0,0,0
1.1007653269998627,0.8020575561523438,-9.026140258789061,1.8148048583984373,0,0,0,0
1.1025889249999636,0.19871873779296872,-9.70369932861328,1.1923124267578125,0,0,0,0
1.1044035240001904,-1.0797849487304687,-9.995791931152343,0.8978256225585937,0,0,0,0
1.10623249199989,-0.9145850341796874,-10.04846436767578,1.0941501586914062,0,0,0,0
1.1079943680001634,0.1197100830078125,-9.337386474609374,1.3431471313476562,0,0,0,0
1.1096343200001684,0.6967126831054687,-9.095572106933593,1.4341267944335936,0,0,0,0
1.111301974000071,0.43574470214843747,-9.442731347656249,0.967257470703125,0,0,0,0
1.1130577769999945,-1.2761094848632812,-10.098742602539062,0.8499415893554687,0,0,0,0
1.1146885610000936,-1.7621324218749999,-10.091559997558592,0.8762778076171874,0,0,0,0
1.1163590310002292,-0.9193734375,-9.662997900390625,1.6903063720703124,0,0,0,0
1.117970649000199,0.8595183959960937,-9.117119921875,2.080561242675781,0,0,0,0
1.1197488769998927,1.3168109130859373,-9.267954626464844,2.080561242675781,0,0,0,0
1.1215852720001749,0.143652099609375,-9.943119494628906,1.2737152832031249,0,0,0,0
1.1233367039999393,-1.8052280517578123,-10.266336718749999,0.7661445312499999,0,0,0,0
1.1251452279998375,-1.35990654296875,-10.096348400878906,0.9433154541015625,0,0,0,0
1.1265843099999984,-0.2537853759765625,-9.720458740234374,1.5203180541992187,0,0,0,0
1.1277814499999295,1.0319009155273438,-9.294290844726563,1.6017209106445311,0,0,0,0
1.128955200999826,1.1013327636718748,-9.387664709472656,1.5011644409179687,0,0,0,0
1.1301172849998693,-0.01915361328125,-9.555258825683593,1.1109095703125,0,0,0,0
1.1313469430001533,-1.2210428466796874,-9.65342109375,0.7350199096679687,0,0,0,0
1.1325778969999192,-2.0302830078125,-9.830592016601562,0.6153098266601562,0,0,0,0
1.133743629000037,-2.2744915771484373,-10.263942517089843,0.8307879760742187,0,0,0,0
1.1348985839999841,-0.3711012573242187,-9.97903251953125,1.4245499877929686,0,0,0,0
1.1361310749998665,1.2306196533203124,-9.524134204101562,1.936909143066406,0,0,0,0
1.137395437000123,2.059013427734375,-9.129090930175781,2.068590234375,0,0,0,0
1.138671187,1.898601916503906,-8.920795385742187,1.6352397338867186,0,0,0,0
1.1399235300000328,-0.5243301635742187,-9.315838659667968,1.0845733520507812,0,0,0,0
1.141167464999853,-1.6041151123046875,-9.725247143554688,0.7230489013671875,0,0,0,0
1.142399252999894,-2.0374656127929685,-10.105925207519531,0.5051765502929687,0,0,0,0
1.1437175949999983,-1.6615759521484375,-9.811438403320311,0.9050082275390624,0,0,0,0
1.1449669009998615,0.4429273071289062,-9.246406811523437,1.407790576171875,0,0,0,0
1.1462065040000198,1.3168109130859373,-8.93755479736328,1.7357962036132812,0,0,0,0
1.1474437540000508,1.3048399047851562,-9.03332286376953,1.3814543579101561,0,0,0,0
1.1487583739999536,0.3232172241210937,-9.390058911132812,0.9983820922851562,0,0,0,0
1.1499269030000505,-1.9512743530273435,-9.89523546142578,0.7972691528320313,0,0,0,0
1.1515362430000096,-2.346317626953125,-10.572794531249999,0.7134720947265625,0,0,0,0
1.153385266999976,-0.5434837768554687,-10.283096130371094,1.946485949707031,0,0,0,0
1.1547020910002175,0.8643067993164062,-9.349357482910156,2.1595698974609374,0,0,0,0
1.1561722840001494,1.4915876342773438,-9.26316622314453,2.142810485839844,0,0,0,0
1.1576606809999248,0.5961562133789062,-9.777919580078125,1.2785036865234374,0,0,0,0
1.1589431170000353,-2.0159177978515626,-10.184933862304687,0.9193734375,0,0,0,0
1.1601212010000381,-2.499546533203125,-10.544064111328124,0.737414111328125,0,0,0,0
1.1612902110000505,-1.7357962036132812,-10.388441003417968,1.0223241088867188,0,0,0,0
1.162596257000132,-0.0718260498046875,-9.641450085449218,1.7764976318359373,0,0,0,0
1.163893637000001,1.867477294921875,-9.375693701171874,1.8459294799804686,0,0,0,0
1.165062517000024,1.4532804077148436,-9.22485899658203,1.66636435546875,0,0,0,0
1.1662264910000886,0.14604630126953125,-9.210493786621093,1.3120225097656248,0,0,0,0
1.1674543150002137,-1.3934253662109375,-9.354145886230468,0.354341845703125,0,0,0,0
1.1686844920000112,-2.5330653564453125,-10.194510668945313,0.27293898925781246,0,0,0,0
1.1698474650002026,-1.5131354492187499,-10.158597644042969,0.6775590698242188,0,0,0,0
1.1714045650001026,0.354341845703125,-9.710881933593749,1.89620771484375,0,0,0,0
1.173439124000197,2.269703173828125,-8.798691101074219,1.8459294799804686,0,0,0,0
1.174993910000012,-0.00239420166015625,-8.872911352539061,1.3838485595703125,0,0,0,0
1.1765403990002596,-1.6328455322265625,-9.162609753417968,0.5602431884765625,0,0,0,0
1.1785904030002712,-2.47081611328125,-10.28549033203125,1.0127473022460938,0,0,0,0
1.180338483000014,0.7230489013671875,-9.97903251953125,1.8315642700195311,0,0,0,0
1.1819059160002325,1.8722656982421875,-9.131485131835937,1.8555062866210936,0,0,0,0
1.183858791000148,-0.7733271362304687,-9.251195214843749,1.0079588989257813,0,0,0,0
1.1857336289999694,-2.3151930053710936,-10.283096130371094,0.44532150878906246,0,0,0,0
1.1872995439998704,-2.214636535644531,-10.520122094726561,0.6560112548828124,0,0,0,0
1.1893751779998638,1.1180921752929687,-9.6917283203125,2.128445275878906,0,0,0,0
1.1910590729999058,1.7717092285156248,-9.114725720214842,2.068590234375,0,0,0,0
1.192649450999852,0.3902548706054687,-9.868899243164062,1.4101847778320311,0,0,0,0
1.1946814180000729,-2.5546131713867184,-10.644620581054687,0.9337386474609375,0,0,0,0
1.1963964980000128,-0.9121908325195311,-10.455478649902343,1.5107412475585937,0,0,0,0
1.1979496349999863,1.8650830932617186,-9.495403784179686,1.7717092285156248,0,0,0,0
1.1998866950002594,0.7134720947265625,-8.978256225585938,1.2952630981445312,0,0,0,0
1.2019173290000253,-2.530671154785156,-9.521740002441407,0.41898529052734373,0,0,0,0
1.203768000999844,-2.7844565307617186,-10.261548315429687,0.47644613037109373,0,0,0,0
1.2058444859999327,1.5945383056640625,-9.698910925292969,1.8028338500976562,0,0,0,0
1.2076197510000384,2.123656872558594,-8.827421520996094,1.7597382202148437,0,0,0,0
1.2091858510002567,0.08140285644531249,-8.939948999023438,1.3958195678710936,0,0,0,0
1.2112616330000492,-2.5234885498046875,-9.947907897949218,0.507570751953125,0,0,0,0
1.2131101009999838,-0.612915625,-10.151415039062499,0.967257470703125,0,0,0,0
1.215277937999872,1.5969325073242187,-9.26316622314453,1.6400281372070311,0,0,0,0
1.2174800520001554,0.04548983154296875,-9.196128576660156,1.0558429321289062,0,0,0,0
1.219530425999892,-2.231395947265625,-10.287884533691406,0.7733271362304687,0,0,0,0
1.2211109149998265,-0.8355763793945312,-10.450690246582031,1.0941501586914062,0,0,0,0
1.2229411789999176,1.4796166259765624,-9.686939916992188,1.879448303222656,0,0,0,0
1.2243600950000655,1.407790576171875,-9.246406811523437,1.936909143066406,0,0,0,0
1.2259400100001585,-0.7996633544921875,-9.4618849609375,1.446097802734375,0,0,0,0
1.227247296999849,-1.6352397338867186,-9.83777462158203,1.1228805786132812,0,0,0,0
1.2291613390002567,-0.8714894042968749,-10.271125122070313,0.9433154541015625,0,0,0,0
1.2311134360002143,0.5482721801757812,-9.816226806640625,1.3934253662109375,0,0,0,0
1.23266144299987,0.4955997436523437,-9.1554271484375,1.3407529296874998,0,0,0,0
1.234226746999866,-1.1444283935546875,-9.488221179199218,1.1444283935546875,0,0,0,0
1.2363697320001847,-1.2018892333984375,-10.168174450683592,1.3934253662109375,0,0,0,0
1.2390337500000896,1.0103531005859374,-10.026916552734374,1.4030021728515625,0,0,0,0
1.240529146999961,0.5985504150390625,-9.179369165039063,1.1420341918945311,0,0,0,0
1.2419434879998335,-1.4173673828125,-9.179369165039063,0.8667010009765624,0,0,0,0
1.2433024790002491,-1.7573440185546874,-9.349357482910156,0.9145850341796874,0,0,0,0
1.244662339000115,-1.0749965454101562,-9.445125549316407,1.1851298217773436,0,0,0,0
1.2459474600000249,1.0797849487304687,-9.629479077148437,1.3646949462890625,0,0,0,0
1.2472105619999638,1.2401964599609374,-9.543287817382812,1.4437036010742186,0,0,0,0
1.2484877199999573,0.5458779785156249,-9.205705383300781,1.1659762084960936,0,0,0,0
1.2497772840001744,-1.484405029296875,-9.332598071289063,1.0199299072265624,0,0,0,0
1.2510662939998838,-1.7669208251953124,-9.572018237304688,0.9911994873046874,0,0,0,0
1.2523511740000686,-1.1827356201171875,-9.718064538574218,1.3120225097656248,0,0,0,0
1.2536369049998939,0.055066638183593745,-9.6917283203125,1.5586252807617187,0,0,0,0
1.2549276549998467,1.13006318359375,-9.33978067626953,1.7022773803710936,0,0,0,0
1.256223645999853,0.47165772705078124,-9.129090930175781,1.388636962890625,0,0,0,0
1.2574945259998458,-0.5410895751953124,-9.694122521972655,1.0917559570312498,0,0,0,0
1.2588485350001974,-1.2832920898437499,-9.890447058105469,1.0630255371093749,0,0,0,0
1.2600635449998663,-0.7541735229492187,-10.259154113769531,1.0175357055664063,0,0,0,0
1.2613371649999863,-0.055066638183593745,-10.390835205078124,1.3359645263671873,0,0,0,0
1.2626130449998527,0.22026655273437498,-10.27830772705078,1.3359645263671873,0,0,0,0
1.2639941460001864,-0.3902548706054687,-10.110713610839843,1.2042834350585936,0,0,0,0
1.265377246999833,-1.197100830078125,-9.897629663085937,1.0510545288085937,0,0,0,0
1.2665789430002405,-1.465251416015625,-9.4618849609375,1.1540052001953125,0,0,0,0
1.267745675000242,-0.0909796630859375,-9.476250170898437,1.369483349609375,0,0,0,0
1.2689240559998325,0.612915625,-9.763554370117188,1.4341267944335936,0,0,0,0
1.2701558250000744,0.8116343627929687,-9.811438403320311,1.6256629272460936,0,0,0,0
1.2713160570001492,0.5195417602539062,-9.813832604980469,1.3096283081054687,0,0,0,0
1.2724234749998686,-0.3399766357421875,-9.852139831542969,1.1252747802734375,0,0,0,0
1.2735193930002424,-1.0749965454101562,-9.550470422363281,0.9696516723632812,0,0,0,0
1.2746099219998541,-1.1252747802734375,-9.255983618164063,1.16837041015625,0,0,0,0
1.2756970260002163,-0.5674257934570313,-9.100360510253905,1.3239935180664062,0,0,0,0
1.2769319240001096,0.7278373046875,-9.251195214843749,1.209071838378906,0,0,0,0
1.2781104350001442,0.5913678100585937,-9.196128576660156,1.180341418457031,0,0,0,0
1.2792103709998628,0.09337386474609374,-9.10993731689453,1.1947066284179686,0,0,0,0
1.2803003080002782,-0.7398083129882812,-9.119514123535156,0.679953271484375,0,0,0,0
1.2813913740001226,-1.37906015625,-9.188945971679686,0.7422025146484375,0,0,0,0
1.2825946990001285,-1.6112977172851561,-9.251195214843749,0.86191259765625,0,0,0,0
1.2838195980002638,0.16519991455078123,-9.53131680908203,1.2401964599609374,0,0,0,0
1.2849502190001658,0.679953271484375,-9.595960253906249,1.637633935546875,0,0,0,0
1.286041859999841,0.5123591552734374,-9.787496386718749,1.649604943847656,0,0,0,0
1.287292516999969,-0.09337386474609374,-9.993397729492187,1.4030021728515625,0,0,0,0
1.2885705640001106,-0.7685387329101562,-10.077194787597655,1.3479355346679687,0,0,0,0
1.2897695179999573,-0.737414111328125,-10.237606298828124,1.3168109130859373,0,0,0,0
1.291071749999901,-0.30406361083984373,-10.242394702148436,1.2641384765625,0,0,0,0
1.292493868999827,0.02154781494140625,-9.87608184814453,1.2713210815429687,0,0,0,0
1.2938035259999197,-0.4908113403320312,-9.686939916992188,1.2713210815429687,0,0,0,0
1.2951469800000268,-0.9816226806640624,-9.907206469726562,1.189918225097656,0,0,0,0
1.296420451999893,-0.9026140258789062,-10.182539660644531,1.3479355346679687,0,0,0,0
1.2978200719999222,0.32082302246093747,-9.957484704589843,1.4891934326171874,0,0,0,0
1.2991754700001366,0.565031591796875,-9.811438403320311,1.6711527587890624,0,0,0,0
1.3004203499999676,0.354341845703125,-9.624690673828125,1.3192051147460937,0,0,0,0
1.301692285000172,-0.08379705810546874,-9.612719665527344,1.1468225952148436,0,0,0,0
1.3030108680000012,-1.216254443359375,-9.701305126953125,0.9983820922851562,0,0,0,0
1.304337155000212,-0.9624690673828125,-9.536105212402344,1.1061211669921875,0,0,0,0
1.3055874430001495,-0.07900865478515624,-9.100360510253905,1.1037269653320312,0,0,0,0
1.3068084149999777,0.4525041137695312,-9.035717065429687,1.1611878051757811,0,0,0,0
1.3080664059998526,-0.0909796630859375,-9.09796630859375,1.197100830078125,0,0,0,0
1.3093532860002597,-0.6248866333007812,-9.457096557617186,0.9050082275390624,0,0,0,0
1.3106256659998508,-1.0606313354492187,-9.617508068847656,0.9265560424804687,0,0,0,0
1.3118994720002775,-0.8643067993164062,-9.794678991699218,1.0821791503906248,0,0,0,0
1.3131134630002634,-0.086191259765625,-9.689334118652344,1.5227122558593749,0,0,0,0
1.3144711760000973,0.5865794067382812,-9.442731347656249,1.8746598999023436,0,0,0,0
1.315728351999951,0.17477672119140625,-9.603142858886718,1.7334020019531249,0,0,0,0
1.3170222130002003,-0.24660277099609373,-9.643844287109374,1.5682020874023437,0,0,0,0
1.3183642029998737,-0.36152445068359373,-9.524134204101562,1.39821376953125,0,0,0,0
1.319746471000144,-0.45489831542968745,-10.050858569335936,1.1563994018554686,0,0,0,0
1.3211092390001795,-0.33758243408203126,-10.172962854003906,1.2689268798828124,0,0,0,0
1.3224508970001807,-0.33039982910156246,-9.97903251953125,1.4149731811523436,0,0,0,0
1.3237202579998666,-0.8690952026367187,-10.101136804199218,1.24498486328125,0,0,0,0
1.324940749000234,-0.5722141967773438,-9.938331091308592,1.2330138549804688,0,0,0,0
1.326267592000022,0.076614453125,-9.643844287109374,1.458068811035156,0,0,0,0
1.3275825079999777,0.47644613037109373,-9.528922607421874,1.3718775512695311,0,0,0,0
1.3288550550000764,-0.316034619140625,-9.45470235595703,1.0749965454101562,0,0,0,0
1.3301987300001201,-0.9816226806640624,-9.514557397460937,0.74699091796875,0,0,0,0
1.3314778690000821,-1.4700398193359374,-9.964667309570311,0.7661445312499999,0,0,0,0
1.3327961009999854,-0.5889736083984375,-9.830592016601562,0.9361328491210937,0,0,0,0
1.3340738880001481,0.25139117431640623,-9.588777648925781,1.1348515869140625,0,0,0,0
1.3353226570002334,0.6368576416015624,-9.37808790283203,1.3479355346679687,0,0,0,0
1.3365525180001896,0.2657563842773437,-9.540893615722656,1.0989385620117187,0,0,0,0
1.3378039720000743,-1.0438719238281249,-9.744400756835937,0.8882488159179687,0,0,0,0
1.339140129000043,-1.1348515869140625,-9.770736975097655,1.0582371337890624,0,0,0,0
1.340511916000196,-0.7350199096679687,-9.617508068847656,1.3862427612304686,0,0,0,0
1.3417755549999129,0.6153098266601562,-9.409212524414063,1.637633935546875,0,0,0,0
1.3430282499998611,0.6919242797851562,-9.37808790283203,1.7932570434570312,0,0,0,0
1.3443260369999734,0.16759411621093748,-9.576806640625,1.6424223388671875,0,0,0,0
1.3456366939999498,-0.3711012573242187,-9.782707983398437,1.5586252807617187,0,0,0,0
1.346889463000025,-0.17956512451171874,-9.746794958496093,1.5945383056640625,0,0,0,0
1.3480593439999211,0.0143652099609375,-9.7683427734375,1.465251416015625,0,0,0,0
1.3493046309999954,-0.02633621826171875,-9.533711010742186,1.3120225097656248,0,0,0,0
1.3504912890002743,-0.258573779296875,-9.37808790283203,1.3215993164062498,0,0,0,0
1.3517410580002434,-0.8499415893554687,-9.423577734375,1.189918225097656,0,0,0,0
1.3529749379999885,-0.5363011718749999,-9.349357482910156,1.1707646118164061,0,0,0,0
1.3541243559998293,0.047884033203124995,-9.361328491210937,1.0845733520507812,0,0,0,0
1.3552462930001639,0.3136404174804687,-9.512163195800781,1.0366893188476562,0,0,0,0
1.356395858000269,-0.0718260498046875,-9.643844287109374,0.86191259765625,0,0,0,0
1.3576234050001403,-0.70868369140625,-9.89523546142578,0.7589619262695312,0,0,0,0
1.3588841740001953,-1.4125789794921875,-10.081983190917969,0.6847416748046875,0,0,0,0
1.3601731280000422,-0.9552864624023437,-10.077194787597655,0.699106884765625,0,0,0,0
1.3613072680000187,-0.36391865234375,-9.68454571533203,1.0989385620117187,0,0,0,0
1.36243959300009,0.24660277099609373,-9.414000927734374,1.2401964599609374,0,0,0,0
1.3636478990001706,-0.08379705810546874,-9.471461767578125,1.177947216796875,0,0,0,0
1.3650072599998566,-0.699106884765625,-9.715670336914062,1.149216796875,0,0,0,0
1.366174233000038,-1.1156979736328125,-9.83777462158203,1.0869675537109373,0,0,0,0
1.3672910029999912,-0.9074024291992187,-10.232817895507813,1.426944189453125,0,0,0,0
1.3684258279999995,-0.19393033447265623,-10.026916552734374,1.8363526733398436,0,0,0,0
1.369628726999963,0.5889736083984375,-9.682151513671874,2.0757728393554684,0,0,0,0
1.3709054770001785,0.4836287353515625,-9.588777648925781,2.1308394775390624,0,0,0,0
1.3721915050000462,0.01915361328125,-9.485826977539062,1.66636435546875,0,0,0,0
1.373481718000221,-0.15083470458984374,-9.050082275390624,1.5251064575195312,0,0,0,0
1.37471780199985,0.00239420166015625,-9.165003955078124,1.3551181396484375,0,0,0,0
1.376153069999873,-0.30885201416015623,-9.157821350097656,0.9935936889648437,0,0,0,0
1.3776483000001463,-1.1348515869140625,-9.622296472167967,0.8212111694335937,0,0,0,0
1.3790128460000233,-1.0845733520507812,-9.847351428222655,0.6392518432617187,0,0,0,0
1.3812463849999403,-0.0430956298828125,-9.56962403564453,1.1420341918945311,0,0,0,0
1.3826435229998424,0.011971008300781249,-9.452308154296874,1.1180921752929687,0,0,0,0
1.3841838090002057,-0.45489831542968745,-9.306261853027344,0.93852705078125,0,0,0,0
1.38547126200001,-0.948103857421875,-9.892841259765625,0.8403647827148437,0,0,0,0
1.3867380500000763,-0.7350199096679687,-9.888052856445311,0.9696516723632812,0,0,0,0
1.388026188999902,-0.033518823242187495,-9.974244116210937,1.0941501586914062,0,0,0,0
1.389419622999867,0.4429273071289062,-9.885658654785155,1.3670891479492187,0,0,0,0
1.3907097249998515,-0.12689268798828124,-9.943119494628906,1.3575123413085937,0,0,0,0
1.3919312719999652,-0.7254431030273437,-9.950302099609374,1.22583125,0,0,0,0
1.3933519470001556,-0.8786720092773437,-10.002974536132811,1.429338391113281,0,0,0,0
1.3947348629999397,0.076614453125,-9.682151513671874,1.618480322265625,0,0,0,0
1.396072168000046,0.45968671875,-9.332598071289063,1.8100164550781248,0,0,0,0
1.3973238819999096,0.19153613281249998,-9.246406811523437,1.6472107421875,0,0,0,0
1.398653595000269,-0.3950432739257812,-9.5001921875,1.6041151123046875,0,0,0,0
1.4000674919998346,-0.15562310791015624,-9.447519750976562,1.608903515625,0,0,0,0
1.4014127039999948,0.05746083984375,-9.64623848876953,1.2904746948242187,0,0,0,0
1.402805398000055,-0.59376201171875,-9.516951599121093,1.1540052001953125,0,0,0,0
1.404151352000099,-1.0079588989257813,-9.53131680908203,0.9528922607421875,0,0,0,0
1.405550379000033,-1.3263877197265623,-9.660603698730467,0.928950244140625,0,0,0,0
1.407011293999858,-0.277727392578125,-9.442731347656249,1.0797849487304687,0,0,0,0
1.4083907100002762,0.3687070556640625,-9.574412438964844,1.1061211669921875,0,0,0,0
1.4097962740002004,-0.16998831787109375,-9.6917283203125,0.9935936889648437,0,0,0,0
1.4112159490000522,-0.7805097412109374,-9.983820922851562,0.7709329345703124,0,0,0,0
1.412793198000145,-0.5458779785156249,-10.04846436767578,0.8738836059570312,0,0,0,0
1.4142123910000919,0.1388636962890625,-9.842563024902343,1.254561669921875,0,0,0,0
1.415550696000082,0.3950432739257812,-9.366116894531249,1.458068811035156,0,0,0,0
1.4169244089998756,-0.16519991455078123,-9.37808790283203,1.39821376953125,0,0,0,0
1.4183367690002342,-0.51714755859375,-9.203311181640624,1.4317325927734375,0,0,0,0
1.4197502590000113,-0.3327940307617187,-9.526528405761718,1.3934253662109375,0,0,0,0
1.4210921750000125,-0.06703764648437499,-9.509768994140625,1.7693150268554687,0,0,0,0
1.422407370000201,-0.040701428222656245,-9.56962403564453,1.7477672119140624,0,0,0,0
1.4237259709998398,-0.086191259765625,-9.689334118652344,1.6543933471679686,0,0,0,0
1.42507783200017,-0.105344873046875,-9.593566052246093,1.4724340209960938,0,0,0,0
1.426403971000127,-0.09337386474609374,-9.782707983398437,1.2473790649414063,0,0,0,0
1.4277540719999706,-0.5434837768554687,-9.756371765136718,1.0845733520507812,0,0,0,0
1.4290726369999902,-1.0606313354492187,-9.6917283203125,0.7230489013671875,0,0,0,0
1.4304608120000921,-1.2737152832031249,-10.0748005859375,0.7517793212890624,0,0,0,0
1.4319294319998335,-0.507570751953125,-9.981426721191406,0.8547299926757812,0,0,0,0
1.433264625999982,0.24660277099609373,-10.043675964355469,1.2952630981445312,0,0,0,0
1.434523358000206,0.507570751953125,-9.694122521972655,1.3527239379882812,0,0,0,0
1.4357755710002493,-0.16998831787109375,-9.770736975097655,1.2713210815429687,0,0,0,0
1.4371422089998305,-0.6943184814453125,-10.067617980957031,1.1085153686523437,0,0,0,0
1.438505866000014,-0.9074024291992187,-9.830592016601562,1.1085153686523437,0,0,0,0
1.4397729870001967,0.00239420166015625,-9.701305126953125,1.254561669921875,0,0,0,0
1.441128922000189,-0.1005564697265625,-9.330203869628905,1.458068811035156,0,0,0,0
1.4426316700000825,-0.5434837768554687,-9.193734375,1.467645617675781,0,0,0,0
1.4441014929998346,-0.4908113403320312,-9.05965908203125,1.3359645263671873,0,0,0,0
1.4454725199998393,-0.3064578125,-9.334992272949219,1.4006079711914061,0,0,0,0
1.4470057869998527,-0.0430956298828125,-9.205705383300781,1.446097802734375,0,0,0,0
1.4483864439998797,-0.4477157104492187,-9.849745629882811,1.2234370483398436,0,0,0,0
1.4498362300000736,-0.46208092041015625,-9.823409411621093,1.3287819213867187,0,0,0,0
1.4512800530001186,-0.229843359375,-9.682151513671874,1.2689268798828124,0,0,0,0
1.4528384860000187,0.0047884033203125,-9.804255798339844,1.3215993164062498,0,0,0,0
1.4544054010002583,-0.4165910888671875,-9.81862100830078,1.1037269653320312,0,0,0,0
1.4559096130001308,-0.8379705810546875,-9.892841259765625,0.9864110839843749,0,0,0,0
1.4572522140001638,-0.4070142822265625,-9.751583361816406,1.3646949462890625,0,0,0,0
1.4585836310002378,0.3495534423828125,-9.696516723632811,1.4101847778320311,0,0,0,0
1.459889769000256,0.055066638183593745,-9.533711010742186,1.3718775512695311,0,0,0,0
1.4611516119998669,-0.45010991210937495,-9.583989245605467,1.199495031738281,0,0,0,0
1.462495194999974,-0.814028564453125,-9.900023864746093,1.0965443603515623,0,0,0,0
1.4637949640000443,-0.39743747558593745,-9.789890588378906,1.1444283935546875,0,0,0,0
1.4651935090000734,-0.011971008300781249,-9.701305126953125,1.3144167114257812,0,0,0,0
1.4664526860001388,-0.1580173095703125,-9.65342109375,1.1348515869140625,0,0,0,0
1.467695066000033,-0.8643067993164062,-9.617508068847656,1.1611878051757811,0,0,0,0
1.4689873160000388,-0.9002198242187499,-9.447519750976562,1.177947216796875,0,0,0,0
1.470285566000257,-0.3591302490234375,-9.801861596679688,1.2976572998046874,0,0,0,0
1.4715567050002392,-0.1292868896484375,-9.581595043945311,1.4820108276367188,0,0,0,0
1.4728983059999337,-0.28969840087890625,-9.775525378417969,1.4532804077148436,0,0,0,0
1.4741944269999294,-0.4477157104492187,-9.95987890625,1.5825672973632812,0,0,0,0
1.4755236400001195,-0.040701428222656245,-9.718064538574218,1.6160861206054686,0,0,0,0
1.4769433520000348,0.277727392578125,-9.923965881347655,1.4030021728515625,0,0,0,0
1.4782623420001073,0.1388636962890625,-9.662997900390625,1.4317325927734375,0,0,0,0
1.4795601109999552,-0.689530078125,-9.406818322753905,1.3551181396484375,0,0,0,0
1.480845342000066,-0.7733271362304687,-9.30147344970703,1.2018892333984375,0,0,0,0
1.4822317769999245,-0.40222587890625,-9.100360510253905,1.24498486328125,0,0,0,0
1.4836771559998851,0.33518823242187495,-9.428366137695312,1.2617442749023438,0,0,0,0
1.4849719429998913,0.028730419921875,-9.521740002441407,1.3144167114257812,0,0,0,0
1.486268877999919,-0.45489831542968745,-9.789890588378906,0.9074024291992187,0,0,0,0
1.4878492930001812,-1.0582371337890624,-9.842563024902343,0.7805097412109374,0,0,0,0
1.4893209860001662,-0.6416460449218749,-9.811438403320311,0.8595183959960937,0,0,0,0
1.4906526429999758,-0.17238251953125,-9.617508068847656,1.005564697265625,0,0,0,0
1.4919583930000044,-0.3902548706054687,-9.536105212402344,1.1468225952148436,0,0,0,0
1.4932392360001359,-0.6248866333007812,-9.536105212402344,1.2210428466796874,0,0,0,0
1.4945665969999027,-0.51714755859375,-9.9981861328125,1.20667763671875,0,0,0,0
1.495973031000176,0.076614453125,-10.01733974609375,1.4987702392578124,0,0,0,0
1.497205410999868,0.33758243408203126,-9.880870251464843,1.7693150268554687,0,0,0,0
1.4984037170002011,0.01915361328125,-10.041281762695311,1.707065783691406,0,0,0,0
1.4996386530001473,-0.15562310791015624,-9.708487731933593,1.8076222534179687,0,0,0,0
1.5009456809998483,0.13407529296874998,-9.514557397460937,1.7214309936523438,0,0,0,0
1.5022435229998337,0.09816226806640624,-9.765948571777344,1.4939818359375,0,0,0,0
1.503546070000084,-0.10773907470703124,-9.425971936035156,1.4173673828125,0,0,0,0
1.504806894000012,-0.8307879760742187,-9.521740002441407,1.2330138549804688,0,0,0,0
1.506067977999919,-0.9744400756835937,-9.591171850585937,1.0654197387695312,0,0,0,0
1.5073822280000968,-0.5506663818359374,-9.512163195800781,1.177947216796875,0,0,0,0
1.50870216300018,0.25139117431640623,-9.708487731933593,1.0438719238281249,0,0,0,0
1.5099356169998828,-0.20350714111328125,-9.552864624023437,1.0103531005859374,0,0,0,0
1.5112708110000312,-0.8068459594726562,-9.576806640625,0.8571241943359375,0,0,0,0
1.512567208999826,-0.93852705078125,-9.813832604980469,0.7924807495117187,0,0,0,0
1.5138822919998347,-0.3064578125,-9.639055883789062,0.9816226806640624,0,0,0,0
1.5151551540002401,0.258573779296875,-9.773131176757811,1.197100830078125,0,0,0,0
1.5164195339998514,0.18914193115234373,-9.564835632324218,1.1923124267578125,0,0,0,0
1.517642951000198,-0.49799394531249996,-9.495403784179686,1.24498486328125,0,0,0,0
1.518865979000111,-0.5722141967773438,-9.437942944335937,1.3311761230468748,0,0,0,0
1.5201803400000244,-0.41898529052734373,-9.567229833984374,1.5298948608398437,0,0,0,0
1.5214728119999563,-0.03591302490234375,-9.390058911132812,1.7860744384765623,0,0,0,0
1.5227856920000704,0.13168109130859373,-9.483432775878907,1.8004396484374998,0,0,0,0
1.524039016000188,-0.15083470458984374,-9.629479077148437,1.6112977172851561,0,0,0,0
1.5253087850001066,-0.18914193115234373,-9.409212524414063,1.5634136840820312,0,0,0,0
1.5266186459998607,0.062249243164062495,-9.682151513671874,1.5059528442382812,0,0,0,0
1.5279371740002716,-0.12210428466796874,-9.694122521972655,1.2306196533203124,0,0,0,0
1.5291724610001438,-0.4285620971679687,-9.540893615722656,1.0414777221679687,0,0,0,0
1.5303975080000782,-0.86191259765625,-10.031704956054687,0.8068459594726562,0,0,0,0
1.5316296290002356,-0.9313444458007812,-9.7683427734375,0.9121908325195311,0,0,0,0
1.532943748999969,-0.16998831787109375,-9.866505041503906,0.9696516723632812,0,0,0,0
1.534272516999863,0.2346317626953125,-9.801861596679688,1.1923124267578125,0,0,0,0
1.5355285830000867,-0.05985504150390625,-9.871293444824218,1.1276689819335937,0,0,0,0
1.536795925000206,-0.8906430175781249,-9.988609326171874,1.1372457885742187,0,0,0,0
1.538049841999964,-0.7158662963867187,-10.072406384277343,1.177947216796875,0,0,0,0
1.5393709810000473,-0.2561795776367187,-9.89523546142578,1.2473790649414063,0,0,0,0
1.5406770089998645,0.1197100830078125,-9.718064538574218,1.4006079711914061,0,0,0,0
1.5419356669999615,-0.26815058593749996,-9.483432775878907,1.4221557861328125,0,0,0,0
1.5431891950001955,-0.3711012573242187,-9.251195214843749,1.5442600708007812,0,0,0,0
1.5445763329998954,-0.39743747558593745,-9.437942944335937,1.484405029296875,0,0,0,0
1.5459065089999058,-0.033518823242187495,-9.629479077148437,1.419761584472656,0,0,0,0
1.5472970169998916,0.20350714111328125,-9.481038574218749,1.70467158203125,0,0,0,0
1.5485558049999781,-0.29448680419921874,-9.588777648925781,1.5825672973632812,0,0,0,0
1.5499142389999179,-0.37828386230468747,-9.514557397460937,1.3359645263671873,0,0,0,0
1.5514330800001517,-0.16759411621093748,-9.356540087890625,1.22583125,0,0,0,0
1.5529337729999497,-0.016759411621093748,-9.555258825683593,1.0079588989257813,0,0,0,0
1.5543547450001824,-0.40222587890625,-9.756371765136718,0.7829039428710937,0,0,0,0
1.5557422350002525,-1.3168109130859373,-9.97903251953125,0.7517793212890624,0,0,0,0
1.557085650999852,-0.9911994873046874,-9.821015209960937,1.0821791503906248,0,0,0,0
1.5583855119998589,-0.239420166015625,-9.842563024902343,1.2593500732421874,0,0,0,0
1.5597727429999395,0.3232172241210937,-9.682151513671874,1.4101847778320311,0,0,0,0
1.5611221600001954,0.05985504150390625,-9.696516723632811,1.4724340209960938,0,0,0,0
1.5624493720001738,-0.1771709228515625,-9.90241806640625,1.3335703247070312,0,0,0,0
1.5637394000000313,-0.3112462158203125,-9.809044201660155,1.3048399047851562,0,0,0,0
1.5650485760002084,-0.296881005859375,-9.854534033203125,1.2569558715820313,0,0,0,0
1.5664432140001736,-0.49320554199218747,-9.658209497070311,1.3000515014648437,0,0,0,0
1.5677852600001643,-0.7206546997070312,-9.682151513671874,1.218648645019531,0,0,0,0
1.5691673430001174,-0.70868369140625,-9.593566052246093,1.39821376953125,0,0,0,0
1.5706367769998906,0.16759411621093748,-9.557653027343749,1.4604630126953124,0,0,0,0
1.5723309320001135,0.15322890625,-9.519345800781249,1.4245499877929686,0,0,0,0
1.5737856060000013,-0.7445967163085937,-9.777919580078125,1.3215993164062498,0,0,0,0
1.5752150220000658,-0.6200982299804687,-9.787496386718749,1.426944189453125,0,0,0,0
1.5766282710001178,0.2442085693359375,-9.892841259765625,1.2880804931640624,0,0,0,0
1.5780367610000212,0.258573779296875,-10.005368737792969,1.3479355346679687,0,0,0,0
1.5794771579999178,-0.6105214233398437,-9.744400756835937,1.1923124267578125,0,0,0,0
1.5813593860002584,-1.0103531005859374,-9.698910925292969,1.2138602416992186,0,0,0,0
1.5827651720001086,-0.03591302490234375,-9.536105212402344,1.3000515014648437,0,0,0,0
1.5842177539998374,0.42377369384765623,-9.399635717773437,1.5203180541992187,0,0,0,0
1.5856171330001416,0.023942016601562498,-9.327809667968749,1.3575123413085937,0,0,0,0
1.5871906590000435,-0.6200982299804687,-9.603142858886718,1.0797849487304687,0,0,0,0
1.5886059079998631,-0.6368576416015624,-9.701305126953125,0.9313444458007812,0,0,0,0
1.5901765819999127,-0.258573779296875,-9.885658654785155,1.0414777221679687,0,0,0,0
1.5915902390001975,-0.5985504150390625,-9.698910925292969,0.9241618408203125,0,0,0,0
1.5932364680002138,-0.7996633544921875,-9.361328491210937,1.1755530151367186,0,0,0,0
1.5946314950001579,-0.373495458984375,-9.567229833984374,1.1635820068359375,0,0,0,0
1.5960854109998763,0.143652099609375,-9.552864624023437,1.6615759521484375,0,0,0,0
1.5977442319999682,-0.04548983154296875,-9.787496386718749,1.5490484741210937,0,0,0,0
1.5991876480002247,-0.5578489868164063,-9.969455712890625,1.4987702392578124,0,0,0,0
1.6006818780001595,-0.0047884033203125,-9.801861596679688,1.668758557128906,0,0,0,0
1.6021746629999143,0.4285620971679687,-9.974244116210937,1.6232687255859375,0,0,0,0
1.60359556100002,-0.02633621826171875,-9.49300958251953,1.6352397338867186,0,0,0,0
1.6050474210001084,-0.6536170532226562,-9.45470235595703,1.2114660400390624,0,0,0,0
1.6067915940002422,-0.86191259765625,-9.373299499511718,1.2138602416992186,0,0,0,0
1.608420471000045,-0.3136404174804687,-9.617508068847656,1.1468225952148436,0,0,0,0
1.6098038310001357,0.09337386474609374,-9.56962403564453,1.16837041015625,0,0,0,0
1.6115023560000736,-0.6368576416015624,-9.600748657226562,0.9864110839843749,0,0,0,0
1.6129694940000263,-0.7278373046875,-9.763554370117188,0.8092401611328125,0,0,0,0
1.614394761999847,-0.46686932373046874,-9.739612353515625,0.9433154541015625,0,0,0,0
1.6159015470002487,-0.6177040283203125,-9.730035546875,0.9816226806640624,0,0,0,0
1.61745012900019,-1.0630255371093749,-9.643844287109374,1.0079588989257813,0,0,0,0
1.6187996379999277,-0.5602431884765625,-9.478644372558593,1.254561669921875,0,0,0,0
1.6202014240002427,-0.13646949462890623,-9.732429748535155,1.5059528442382812,0,0,0,0
1.6217435610001303,0.6344634399414062,-9.586383447265625,1.7286135986328124,0,0,0,0
1.6233290499999384,0.15562310791015624,-9.789890588378906,1.7669208251953124,0,0,0,0
1.624995649000084,-0.30406361083984373,-9.7683427734375,1.7645266235351562,0,0,0,0
1.6265186010000434,0.19393033447265623,-9.639055883789062,1.6304513305664061,0,0,0,0
1.628051404999951,0.04548983154296875,-9.567229833984374,1.467645617675781,0,0,0,0
1.629506135000156,-0.8307879760742187,-9.351751684570312,1.2737152832031249,0,0,0,0
1.631003605999922,-1.189918225097656,-9.406818322753905,1.01514150390625,0,0,0,0
1.6324296150000919,-0.9050082275390624,-9.543287817382812,1.0486603271484374,0,0,0,0
1.6339051600002676,-0.13168109130859373,-9.923965881347655,1.0031704956054688,0,0,0,0
1.6353262610000456,-0.1149216796875,-9.655815295410155,1.005564697265625,0,0,0,0
1.6367957319998823,-0.6584054565429687,-9.751583361816406,0.8379705810546875,0,0,0,0
1.6384499050000159,-0.8810662109374999,-10.137049829101562,0.9265560424804687,0,0,0,0
1.6398032659999444,-0.3495534423828125,-10.419565624999999,0.9864110839843749,0,0,0,0
1.6411770889999389,-0.29927520751953124,-9.93354268798828,1.3263877197265623,0,0,0,0
1.6425163580001936,-0.4381389038085937,-9.696516723632811,1.4053963745117186,0,0,0,0
1.6440487170002598,-0.3280056274414062,-9.334992272949219,1.707065783691406,0,0,0,0
1.645361134000268,-0.0526724365234375,-9.370905297851563,1.8459294799804686,0,0,0,0
1.6466792720002559,0.8020575561523438,-9.469067565917967,1.9895815795898437,0,0,0,0
1.6481237440002587,0.4477157104492187,-9.521740002441407,1.7788918334960937,0,0,0,0
1.6495929550001165,-0.814028564453125,-9.976638317871092,1.4125789794921875,0,0,0,0
1.650924778999979,-0.7493851196289062,-9.641450085449218,1.199495031738281,0,0,0,0
1.6522878440000568,-0.2657563842773437,-9.598354455566406,1.0893617553710937,0,0,0,0
1.653624112000216,-0.3950432739257812,-9.303867651367186,1.1611878051757811,0,0,0,0
1.654957695000121,-0.8762778076171874,-9.236830004882812,0.6607996582031249,0,0,0,0
1.6564791659998264,-0.8188169677734375,-9.279925634765624,0.6871358764648438,0,0,0,0
1.6578138230001969,-0.45489831542968745,-9.459490759277344,0.842758984375,0,0,0,0
1.6591184990002148,-0.17477672119140625,-9.950302099609374,1.0390835205078124,0,0,0,0
1.6603849530001753,-0.033518823242187495,-9.962273107910155,1.1109095703125,0,0,0,0
1.6616274809998686,-0.6200982299804687,-10.046070166015625,1.0773907470703123,0,0,0,0
1.6628736940001545,-0.469263525390625,-10.149020837402343,1.3359645263671873,0,0,0,0
1.664061760000095,-0.11013327636718749,-9.792284790039062,1.6831237670898436,0,0,0,0
1.6651858630002607,0.4213794921875,-9.667786303710937,1.7669208251953124,0,0,0,0
1.6663038550000238,0.277727392578125,-9.368511096191405,1.7334020019531249,0,0,0,0
1.6674713279999196,-0.3184288208007812,-9.418789331054686,1.5849614990234373,0,0,0,0
1.6689055960000587,-0.689530078125,-9.212887988281249,1.6807295654296874,0,0,0,0
1.6700701610002398,-0.6248866333007812,-9.3852705078125,1.419761584472656,0,0,0,0
1.671312726999986,-0.1484405029296875,-9.562441430664062,1.5777788940429687,0,0,0,0
1.6724582179999743,0.10295067138671875,-9.658209497070311,1.5538368774414062,0,0,0,0
1.6736283770001137,-0.41419688720703124,-10.01015714111328,1.3263877197265623,0,0,0,0
1.6751557359998515,-0.6847416748046875,-9.658209497070311,1.1563994018554686,0,0,0,0
1.6764918750000106,-0.3136404174804687,-9.593566052246093,1.0702081420898437,0,0,0,0
1.677702384999975,-0.16998831787109375,-9.727641345214844,0.9864110839843749,0,0,0,0
1.679182485000183,-0.3327940307617187,-9.603142858886718,0.9074024291992187,0,0,0,0
1.68048197600001,-1.0079588989257813,-9.868899243164062,0.842758984375,0,0,0,0
1.6820432610002172,-0.928950244140625,-9.952696301269532,1.1731588134765625,0,0,0,0
1.6833330849999584,-0.3112462158203125,-9.983820922851562,1.3934253662109375,0,0,0,0
1.6850344990002668,0.5626373901367188,-9.950302099609374,1.6328455322265625,0,0,0,0
1.6864307860000736,-0.20829554443359374,-9.536105212402344,1.5418658691406248,0,0,0,0
1.6878656640001282,-0.6727706665039062,-9.516951599121093,1.2617442749023438,0,0,0,0
1.689432189999934,-0.2609679809570312,-9.504980590820312,1.2713210815429687,0,0,0,0
1.6906773480000084,-0.1867477294921875,-9.56962403564453,1.3072341064453123,0,0,0,0
1.6921435409999503,-0.30885201416015623,-9.430760339355468,1.3311761230468748,0,0,0,0
1.693699234000178,-0.469263525390625,-9.323021264648437,1.438915197753906,0,0,0,0
1.694916836000175,-0.33518823242187495,-9.402029919433593,1.4628572143554686,0,0,0,0
1.6961880489998293,-0.0430956298828125,-9.540893615722656,1.4532804077148436,0,0,0,0
1.6976741130001756,-0.30406361083984373,-9.509768994140625,1.2018892333984375,0,0,0,0
1.699396101000275,-0.8834604125976562,-9.95987890625,1.216254443359375,0,0,0,0
1.7008369610002774,-0.44053310546874996,-9.880870251464843,1.369483349609375,0,0,0,0
1.7021353770001042,0.055066638183593745,-9.981426721191406,1.218648645019531,0,0,0,0
1.7034400900001856,0.1149216796875,-9.777919580078125,1.3215993164062498,0,0,0,0
1.7048629320001965,-0.28490999755859375,-9.648632690429688,1.1037269653320312,0,0,0,0
1.7064344949999395,-0.8762778076171874,-9.935936889648437,1.0342951171875,0,0,0,0
1.7076890970001841,-0.45010991210937495,-9.636661682128906,1.2593500732421874,0,0,0,0
1.7088951260002432,0.18435352783203124,-9.758765966796874,1.3072341064453123,0,0,0,0
1.710252746000151,0.38307226562499996,-9.457096557617186,1.5035586425781249,0,0,0,0
1.7115999950001424,-0.5099649536132812,-9.662997900390625,1.3479355346679687,0,0,0,0
1.7128548199998477,-0.8762778076171874,-9.574412438964844,1.180341418457031,0,0,0,0
1.7142613099999835,-0.6536170532226562,-9.524134204101562,1.24498486328125,0,0,0,0
1.7155081529999734,-0.0143652099609375,-9.619902270507811,1.216254443359375,0,0,0,0
1.7167699030001131,-0.1771709228515625,-9.540893615722656,1.3024457031249999,0,0,0,0
1.7183189100001073,-0.45489831542968745,-9.358934289550781,1.1755530151367186,0,0,0,0
1.7196926599999642,-0.7613561279296874,-9.37808790283203,1.16837041015625,0,0,0,0
1.7208882989998529,-0.41419688720703124,-9.70369932861328,1.1133037719726562,0,0,0,0
1.7220696059998772,-0.055066638183593745,-9.727641345214844,1.5035586425781249,0,0,0,0
1.7232560789998388,-0.17477672119140625,-9.95987890625,1.419761584472656,0,0,0,0
1.7245857359998809,-0.3232172241210937,-9.919177478027343,1.5634136840820312,0,0,0,0
1.726187095000114,0.23223756103515625,-9.639055883789062,1.6998831787109374,0,0,0,0
1.727578585000174,0.6488286499023437,-9.586383447265625,1.5251064575195312,0,0,0,0
1.7288722429998415,0.14125789794921875,-9.430760339355468,1.2497732666015624,0,0,0,0
1.730188010999882,-0.6703764648437499,-9.651026892089844,1.005564697265625,0,0,0,0
1.731477150000046,-1.2976572998046874,-9.727641345214844,0.9816226806640624,0,0,0,0
1.7327724370002215,-0.63206923828125,-9.732429748535155,1.0199299072265624,0,0,0,0
1.7340672609998364,0.0,-9.744400756835937,1.4030021728515625,0,0,0,0
1.7353524000000107,0.29448680419921874,-9.418789331054686,1.3862427612304686,0,0,0,0
1.736673928000073,-0.44053310546874996,-9.497797985839844,1.2018892333984375,0,0,0,0
1.738110658000096,-0.9313444458007812,-9.629479077148437,0.928950244140625,0,0,0,0
1.7396178879998843,-0.5961562133789062,-9.732429748535155,0.9145850341796874,0,0,0,0
1.741266135999922,-0.32082302246093747,-9.919177478027343,1.0199299072265624,0,0,0,0
1.7426456440002767,-0.4333505004882812,-10.151415039062499,1.216254443359375,0,0,0,0
1.7441203379999024,-0.3806780639648437,-9.842563024902343,1.4628572143554686,0,0,0,0
1.7454088660001617,0.01915361328125,-9.878476049804688,1.5322890624999999,0,0,0,0
1.7466958190002515,0.201112939453125,-9.560047229003906,1.68551796875,0,0,0,0
1.7481259020000834,0.0718260498046875,-9.720458740234374,1.8746598999023436,0,0,0,0
1.74953602100004,-0.239420166015625,-9.732429748535155,1.848323681640625,0,0,0,0
1.7507725870000286,0.26336218261718747,-9.445125549316407,1.915361328125,0,0,0,0
1.75214248400016,0.6871358764648438,-9.552864624023437,1.5466542724609373,0,0,0,0
1.7535794549999082,-0.06703764648437499,-9.342174877929686,1.4820108276367188,0,0,0,0
1.7549702969999998,-0.9576806640625,-9.358934289550781,0.9457096557617187,0,0,0,0
1.7564918240000225,-1.350329736328125,-9.562441430664062,0.8786720092773437,0,0,0,0
1.7577962589998606,-0.8930372192382812,-9.552864624023437,1.0079588989257813,0,0,0,0
1.759349248000035,-0.0526724365234375,-9.497797985839844,1.177947216796875,0,0,0,0
1.7607983110001442,0.17477672119140625,-9.320627062988281,1.2808978881835937,0,0,0,0
1.762266264000118,-0.24181436767578124,-9.775525378417969,0.8188169677734375,0,0,0,0
1.7635961430000862,-0.8164227661132812,-10.002974536132811,0.7757213378906249,0,0,0,0
1.7649248930001704,-0.679953271484375,-10.189722265624999,0.8643067993164062,0,0,0,0
1.7662638470001184,-0.5602431884765625,-10.105925207519531,1.1851298217773436,0,0,0,0
1.7677521509999679,-0.19632453613281248,-9.962273107910155,1.2497732666015624,0,0,0,0
1.7691115860002355,-0.09337386474609374,-9.430760339355468,1.7812860351562498,0,0,0,0
1.7704207609999685,0.18435352783203124,-9.397241516113281,1.7357962036132812,0,0,0,0
1.771704604000206,0.2346317626953125,-9.311050256347656,1.8650830932617186,0,0,0,0
1.7730611130000398,-0.033518823242187495,-9.49300958251953,1.8219874633789062,0,0,0,0
1.7745932130001165,-0.51714755859375,-9.782707983398437,1.7836802368164062,0,0,0,0
1.7759480180002356,-0.16041151123046873,-9.655815295410155,1.6998831787109374,0,0,0,0
1.7772575650001272,0.4572925170898437,-9.70369932861328,1.5275006591796874,0,0,0,0
1.7785905179998736,0.009576806640625,-9.435548742675781,1.3192051147460937,0,0,0,0
1.7800218410002344,-0.9241618408203125,-9.430760339355468,0.6105214233398437,0,0,0,0
1.7815092939999886,-1.7549498168945312,-9.617508068847656,0.5482721801757812,0,0,0,0
1.7828396170002634,-1.0558429321289062,-9.679757312011718,0.7876923461914062,0,0,0,0
1.7843057740001314,-0.1771709228515625,-9.81862100830078,0.9983820922851562,0,0,0,0
1.7856080050000855,0.47165772705078124,-9.533711010742186,1.0965443603515623,0,0,0,0
1.7869991060001666,0.031124621582031248,-9.603142858886718,1.0917559570312498,0,0,0,0
1.7883809109998765,-0.5889736083984375,-9.801861596679688,1.2114660400390624,0,0,0,0
1.7899370109998927,-0.3232172241210937,-10.077194787597655,1.4604630126953124,0,0,0,0
1.7919350900001518,-0.29927520751953124,-9.732429748535155,1.656787548828125,0,0,0,0
1.7934817079999448,-0.0909796630859375,-9.160215551757812,1.8842367065429686,0,0,0,0
1.7949019389998284,-0.00239420166015625,-9.14824454345703,1.7980454467773437,0,0,0,0
1.796586907999881,0.17238251953125,-9.246406811523437,1.8339584716796873,0,0,0,0
1.7978250850001132,-0.22505495605468748,-9.488221179199218,1.637633935546875,0,0,0,0
1.7991347420002057,-0.7350199096679687,-10.022128149414062,1.2330138549804688,0,0,0,0
1.8005597129999842,-0.4572925170898437,-9.892841259765625,1.0845733520507812,0,0,0,0
1.8019067220002398,-0.09337386474609374,-9.718064538574218,0.97683427734375,0,0,0,0
1.8036168580001686,-0.1867477294921875,-9.674968908691406,0.9074024291992187,0,0,0,0
1.8050103479999962,-0.8834604125976562,-9.579200842285156,0.4572925170898437,0,0,0,0
1.8064902270002676,-1.3646949462890625,-9.986215124511718,0.5003881469726562,0,0,0,0
1.8080178459999843,-0.7661445312499999,-9.832986218261718,1.0462661254882812,0,0,0,0
1.8096139079998466,0.507570751953125,-9.868899243164062,1.3646949462890625,0,0,0,0
1.8109418990002268,0.6512228515624999,-9.682151513671874,1.7262193969726563,0,0,0,0
1.8122887780000383,0.39264907226562495,-9.545682019042967,1.6735469604492186,0,0,0,0
1.813670361000277,-0.40222587890625,-9.469067565917967,1.5897499023437498,0,0,0,0
1.815091295000002,-0.34237083740234375,-9.86411083984375,1.3623007446289062,0,0,0,0
1.816553137000028,-0.6607996582031249,-9.576806640625,1.4053963745117186,0,0,0,0
1.8179769600001237,-0.5099649536132812,-9.425971936035156,1.43652099609375,0,0,0,0
1.819332728000063,-0.19871873779296872,-9.0021982421875,1.455674609375,0,0,0,0
1.820753070000137,0.09816226806640624,-9.220070593261719,1.47482822265625,0,0,0,0
1.822118226999919,0.16998831787109375,-9.397241516113281,1.4413093994140624,0,0,0,0
1.8235108829999263,-0.7350199096679687,-9.792284790039062,1.22583125,0,0,0,0
1.8250605570001426,-0.8092401611328125,-10.103531005859374,1.2521674682617188,0,0,0,0
1.826481491999857,0.201112939453125,-10.103531005859374,1.2808978881835937,0,0,0,0
1.8277364639998268,0.316034619140625,-10.230423693847655,1.2808978881835937,0,0,0,0
1.8290189550002651,0.011971008300781249,-9.94072529296875,1.24498486328125,0,0,0,0
1.8303929449998577,-1.1372457885742187,-9.756371765136718,1.0726023437499999,0,0,0,0
1.8317008429999078,-1.199495031738281,-9.809044201660155,0.9696516723632812,0,0,0,0
1.8330379819999507,-0.622492431640625,-9.749189160156249,1.3096283081054687,0,0,0,0
1.8344217500002742,0.7206546997070312,-9.5001921875,1.47482822265625,0,0,0,0
1.8357344440000816,0.39743747558593745,-9.366116894531249,1.4125789794921875,0,0,0,0
1.8371165640000982,-0.277727392578125,-9.552864624023437,1.2832920898437499,0,0,0,0
1.8384490550001829,-0.97683427734375,-9.65342109375,1.1085153686523437,0,0,0,0
1.839698879000025,-0.74699091796875,-9.813832604980469,1.0295067138671874,0,0,0,0
1.8409974619999048,-0.45010991210937495,-9.83777462158203,1.2521674682617188,0,0,0,0
1.842334879000191,-0.411802685546875,-9.437942944335937,1.1923124267578125,0,0,0,0
1.8436855909999394,-0.5339069702148437,-9.342174877929686,1.3479355346679687,0,0,0,0
1.8452804690000448,-0.565031591796875,-9.536105212402344,1.438915197753906,0,0,0,0
1.846622237000247,0.1005564697265625,-9.830592016601562,1.4915876342773438,0,0,0,0
1.8479643569999098,-0.13646949462890623,-9.9215716796875,1.4173673828125,0,0,0,0
1.8494178649998503,-0.488417138671875,-10.187328063964843,1.5298948608398437,0,0,0,0
1.850886576999983,0.01915361328125,-9.81862100830078,1.7094599853515624,0,0,0,0
1.8522110120002253,0.5123591552734374,-9.854534033203125,1.6472107421875,0,0,0,0
1.8534998919999452,0.2537853759765625,-9.598354455566406,1.5370774658203123,0,0,0,0
1.854879826999877,-0.40222587890625,-9.1554271484375,1.13006318359375,0,0,0,0
1.8562598540002,-1.0486603271484374,-9.411606726074218,0.928950244140625,0,0,0,0
1.857682362000105,-0.7278373046875,-9.452308154296874,0.814028564453125,0,0,0,0
1.859016333999989,0.0430956298828125,-9.586383447265625,1.216254443359375,0,0,0,0
1.8603309539998918,0.3184288208007812,-9.555258825683593,1.158793603515625,0,0,0,0
1.8617773139999372,-0.30885201416015623,-9.6151138671875,1.0702081420898437,0,0,0,0
1.8631092860000535,-1.0486603271484374,-9.95987890625,0.6967126831054687,0,0,0,0
1.8645155540002634,-0.7733271362304687,-9.749189160156249,0.7254431030273437,0,0,0,0
1.865828712000166,-0.4644751220703125,-9.830592016601562,1.0127473022460938,0,0,0,0
1.8671949240001595,-0.6057330200195312,-9.679757312011718,1.1228805786132812,0,0,0,0
1.868642932000057,-0.4860229370117187,-9.660603698730467,1.158793603515625,0,0,0,0
1.870081589000165,-0.3016694091796875,-9.859322436523437,1.5035586425781249,0,0,0,0
1.8715370230002009,0.3758896606445312,-9.80665,1.7214309936523438,0,0,0,0
1.8729001430001517,0.17238251953125,-9.679757312011718,1.9823989746093749,0,0,0,0
1.8742831879999358,-0.3064578125,-9.87608184814453,1.898601916503906,0,0,0,0
1.875587975000144,-0.0383072265625,-9.727641345214844,1.8195932617187498,0,0,0,0
1.8769046510001317,0.35194764404296874,-9.497797985839844,1.6639701538085936,0,0,0,0
1.8782299009999406,0.5195417602539062,-9.488221179199218,1.446097802734375,0,0,0,0
1.879681593999976,-0.4908113403320312,-9.253589416503905,1.2114660400390624,0,0,0,0
1.8810577700000977,-1.1252747802734375,-9.72285294189453,0.7613561279296874,0,0,0,0
1.8824019080002472,-1.0127473022460938,-9.744400756835937,0.7254431030273437,0,0,0,0
1.8837134360001073,-0.3687070556640625,-9.792284790039062,0.9145850341796874,0,0,0,0
1.8849907419999,0.07900865478515624,-9.682151513671874,1.1013327636718748,0,0,0,0
1.8862883990000228,-0.16998831787109375,-9.612719665527344,1.0103531005859374,0,0,0,0
1.8875650009999845,-0.55545478515625,-9.744400756835937,0.8475473876953125,0,0,0,0
1.8888362329998927,-0.7062894897460937,-9.801861596679688,0.7302315063476562,0,0,0,0
1.8902830189999804,-0.4429273071289062,-9.93354268798828,0.86191259765625,0,0,0,0
1.8916068610001275,-0.86191259765625,-9.888052856445311,1.0534487304687499,0,0,0,0
1.8928075190001437,-0.7445967163085937,-9.816226806640625,1.5969325073242187,0,0,0,0
1.8939874369998506,-0.19393033447265623,-9.351751684570312,1.8028338500976562,0,0,0,0
1.895164410000234,0.21787235107421873,-9.358934289550781,1.905784521484375,0,0,0,0
1.8964504929999748,0.7398083129882812,-9.275137231445312,2.104503259277344,0,0,0,0
1.8977479099999073,0.4477157104492187,-9.356540087890625,2.0278888061523435,0,0,0,0
1.8989369020000595,-0.3112462158203125,-9.873687646484374,1.5969325073242187,0,0,0,0
1.9001399670000865,-0.8379705810546875,-9.909600671386718,1.5251064575195312,0,0,0,0
1.9013138479999725,-0.076614453125,-9.734823950195311,1.5131354492187499,0,0,0,0
1.9025801719999436,0.11731588134765625,-9.698910925292969,1.388636962890625,0,0,0,0
1.9038526260001163,-0.00718260498046875,-9.478644372558593,1.2282254516601563,0,0,0,0
1.905051303000164,-0.30406361083984373,-9.399635717773437,0.93852705078125,0,0,0,0
1.9062333870001567,-0.7326257080078125,-9.600748657226562,0.6440402465820312,0,0,0,0
1.9074200449999807,-1.0678139404296874,-9.70369932861328,0.6368576416015624,0,0,0,0
1.9087192390002201,-0.7517793212890624,-10.041281762695311,0.5889736083984375,0,0,0,0
1.9100209890002589,-0.4165910888671875,-10.122684619140625,0.8667010009765624,0,0,0,0
1.9112132029999884,-0.3136404174804687,-10.01733974609375,0.9840168823242187,0,0,0,0
1.9124018980000983,-0.51714755859375,-9.87608184814453,1.1156979736328125,0,0,0,0
1.9136303159998533,0.0,-9.732429748535155,1.3383587280273437,0,0,0,0
1.91488680700013,0.47165772705078124,-9.557653027343749,1.608903515625,0,0,0,0
1.9161540939999213,0.5482721801757812,-9.41639512939453,1.6065093139648436,0,0,0,0
1.9174410109999371,-0.30885201416015623,-9.311050256347656,1.6232687255859375,0,0,0,0
