Time (s),Accel X,Accel Y,Accel Z,Gyro X,Gyro Y,Gyro Z,Temperature (C)
0.014916145999450237,0.04548983154296875,-9.85692823486328,1.1013327636718748,0,0,0,0
0.017800784000428393,0.17477672119140625,-9.85692823486328,0.9361328491210937,0,0,0,0
0.02057960699312389,0.086191259765625,-9.890447058105469,1.1085153686523437,0,0,0,0
0.02318500699766446,0.09816226806640624,-9.883264453125,1.189918225097656,0,0,0,0
0.026802433989359997,0.10773907470703124,-9.866505041503906,1.0749965454101562,0,0,0,0
0.03058272899943404,0.055066638183593745,-9.859322436523437,1.350329736328125,0,0,0,0
0.03343268200114835,0.0718260498046875,-9.773131176757811,1.158793603515625,0,0,0,0
0.037474103999556974,0.07422025146484375,-9.823409411621093,1.1755530151367186,0,0,0,0
0.04072529298719019,0.0430956298828125,-9.873687646484374,1.199495031738281,0,0,0,0
0.04393903899472207,0.055066638183593745,-9.904812268066406,1.1659762084960936,0,0,0,0
0.04740361499716528,0.17477672119140625,-9.792284790039062,1.1563994018554686,0,0,0,0
0.05053495398897212,0.11731588134765625,-9.897629663085937,1.0702081420898437,0,0,0,0
0.056076267996104434,0.105344873046875,-9.816226806640625,1.20667763671875,0,0,0,0
0.05942578999383841,0.076614453125,-9.765948571777344,1.1540052001953125,0,0,0,0
0.06243364900001325,0.13168109130859373,-9.694122521972655,1.1324573852539062,0,0,0,0
0.0654713219992118,0.055066638183593745,-9.873687646484374,1.1707646118164061,0,0,0,0
0.06849066200084053,0.076614453125,-9.950302099609374,1.1013327636718748,0,0,0,0
0.07228556799236685,0.105344873046875,-9.789890588378906,1.1444283935546875,0,0,0,0
0.07508292800048366,0.033518823242187495,-9.885658654785155,1.2210428466796874,0,0,0,0
0.07905064799706452,0.08140285644531249,-9.931148486328125,1.0726023437499999,0,0,0,0
0.08449011099583004,0.07422025146484375,-9.804255798339844,1.1013327636718748,0,0,0,0
0.0881209449871676,0.06943184814453125,-9.878476049804688,1.0654197387695312,0,0,0,0
0.0911152849876089,0.02633621826171875,-9.964667309570311,1.1540052001953125,0,0,0,0
0.09389316498709377,0.11731588134765625,-9.85692823486328,1.1635820068359375,0,0,0,0
0.09667121099482756,0.08379705810546874,-9.773131176757811,1.20667763671875,0,0,0,0
0.09987114199611824,0.011971008300781249,-9.811438403320311,1.139639990234375,0,0,0,0
0.10290205499040894,0.033518823242187495,-9.923965881347655,1.1851298217773436,0,0,0,0
0.10474999999860302,-0.01915361328125,-9.720458740234374,1.1516109985351561,0,0,0,0
0.1065614069957519,0.10773907470703124,-9.880870251464843,1.180341418457031,0,0,0,0
0.10836811098852195,0.040701428222656245,-9.797073193359374,1.180341418457031,0,0,0,0
0.11033772099472117,0.06943184814453125,-9.873687646484374,0.9361328491210937,0,0,0,0
0.11210109198873397,0.08140285644531249,-9.897629663085937,1.0702081420898437,0,0,0,0
0.11415583099005744,0.13646949462890623,-9.923965881347655,1.158793603515625,0,0,0,0
0.11637197498930618,0.09337386474609374,-9.840168823242188,1.0893617553710937,0,0,0,0
0.11816284598899074,0.04548983154296875,-9.832986218261718,1.1252747802734375,0,0,0,0
0.11993079099920578,0.04548983154296875,-9.950302099609374,1.2330138549804688,0,0,0,0
0.12188114199670963,0.14125789794921875,-9.8449572265625,1.197100830078125,0,0,0,0
0.12395812099566683,0.11013327636718749,-9.861716638183593,1.235408056640625,0,0,0,0
0.1261038219963666,0.10773907470703124,-9.840168823242188,1.0414777221679687,0,0,0,0
0.12774141599948052,0.07422025146484375,-9.923965881347655,1.149216796875,0,0,0,0
0.12978535899310373,0.05985504150390625,-9.830592016601562,1.1611878051757811,0,0,0,0
0.1320346319989767,0.05746083984375,-9.82580361328125,1.199495031738281,0,0,0,0
0.13432001699402463,0.0526724365234375,-9.830592016601562,1.1180921752929687,0,0,0,0
0.13602123998862226,0.10773907470703124,-9.9215716796875,1.158793603515625,0,0,0,0
0.13789594398986083,0.12689268798828124,-9.892841259765625,1.1228805786132812,0,0,0,0
0.13995438598794863,0.05027823486328125,-9.873687646484374,1.1611878051757811,0,0,0,0
0.14180723699973896,0.09337386474609374,-9.828197814941406,1.1540052001953125,0,0,0,0
0.1436561259906739,0.076614453125,-9.859322436523437,1.16837041015625,0,0,0,0
0.1452873689995613,0.033518823242187495,-9.859322436523437,1.1635820068359375,0,0,0,0
0.14691687098820694,0.07422025146484375,-9.883264453125,1.2114660400390624,0,0,0,0
0.1487430929992115,0.055066638183593745,-9.897629663085937,1.1611878051757811,0,0,0,0
0.15038183599244803,0.040701428222656245,-9.907206469726562,1.149216796875,0,0,0,0
0.15327415899082553,0.14125789794921875,-9.79946739501953,1.16837041015625,0,0,0,0
0.15519421399221756,0.0909796630859375,-9.835380419921874,1.209071838378906,0,0,0,0
0.15683517899014987,0.08140285644531249,-9.696516723632811,1.1947066284179686,0,0,0,0
0.15851040199049748,0.062249243164062495,-9.868899243164062,1.1635820068359375,0,0,0,0
0.16036258699023165,0.023942016601562498,-9.830592016601562,1.16837041015625,0,0,0,0
0.16219429099874105,0.08858546142578125,-9.86411083984375,1.0965443603515623,0,0,0,0
0.16394042198953684,0.011971008300781249,-9.89523546142578,1.20667763671875,0,0,0,0
0.16564675599511247,0.0718260498046875,-9.878476049804688,1.158793603515625,0,0,0,0
0.16731929499655962,0.05985504150390625,-9.830592016601562,1.1013327636718748,0,0,0,0
0.16893416798848193,0.16041151123046873,-9.907206469726562,1.1156979736328125,0,0,0,0
0.17066787199291866,0.0430956298828125,-9.931148486328125,1.1156979736328125,0,0,0,0
0.17234115199244116,0.05985504150390625,-9.909600671386718,1.16837041015625,0,0,0,0
0.17396126499806996,0.009576806640625,-9.823409411621093,1.158793603515625,0,0,0,0
0.1756615069898544,0.06464344482421874,-9.828197814941406,1.0893617553710937,0,0,0,0
0.1774897669965867,0.08140285644531249,-9.83777462158203,1.0773907470703123,0,0,0,0
0.17929371100035496,0.06464344482421874,-9.78031378173828,1.197100830078125,0,0,0,0
0.1810382489929907,0.16041151123046873,-9.835380419921874,1.1276689819335937,0,0,0,0
0.18272597299073823,0.07900865478515624,-9.8449572265625,1.1324573852539062,0,0,0,0
0.18438751199573744,0.06703764648437499,-9.926360083007811,1.0438719238281249,0,0,0,0
0.18608193899854086,0.0430956298828125,-9.854534033203125,1.1468225952148436,0,0,0,0
0.18771971898968332,0.05746083984375,-9.888052856445311,1.2641384765625,0,0,0,0
0.18958132999250665,0.1149216796875,-9.83777462158203,1.120486376953125,0,0,0,0
0.19207395298872143,0.12210428466796874,-9.847351428222655,1.1875240234375,0,0,0,0
0.19392110098851845,0.05985504150390625,-9.849745629882811,1.209071838378906,0,0,0,0
0.19597795099252835,0.08858546142578125,-9.871293444824218,1.139639990234375,0,0,0,0
0.19774811799288727,0.05027823486328125,-9.873687646484374,1.0965443603515623,0,0,0,0
0.19968694999988656,0.07422025146484375,-9.85692823486328,1.1276689819335937,0,0,0,0
0.20155383899691515,0.0526724365234375,-9.866505041503906,1.199495031738281,0,0,0,0
0.20345919000101276,0.09337386474609374,-9.801861596679688,1.197100830078125,0,0,0,0
0.20569168598740362,0.12210428466796874,-9.873687646484374,1.16837041015625,0,0,0,0
0.20755816699238494,0.13646949462890623,-9.81862100830078,1.1540052001953125,0,0,0,0
0.20928063099563587,0.07422025146484375,-9.86411083984375,1.0989385620117187,0,0,0,0
0.21166997798718512,0.06464344482421874,-9.866505041503906,1.197100830078125,0,0,0,0
0.2136604389961576,0.1771709228515625,-9.794678991699218,1.1563994018554686,0,0,0,0
0.2160839329881128,0.086191259765625,-9.8449572265625,1.0965443603515623,0,0,0,0
0.2182340229919646,0.01915361328125,-9.90241806640625,1.1013327636718748,0,0,0,0
0.2199397090007551,0.105344873046875,-9.871293444824218,1.1516109985351561,0,0,0,0
0.2217619500006549,0.09576806640624999,-9.859322436523437,1.2042834350585936,0,0,0,0
0.22408174199517816,0.05027823486328125,-9.859322436523437,1.1827356201171875,0,0,0,0
0.22623338698758744,0.07900865478515624,-9.804255798339844,1.1109095703125,0,0,0,0
0.228382197994506,0.11013327636718749,-9.83777462158203,1.1276689819335937,0,0,0,0
0.2298956089944113,0.011971008300781249,-9.852139831542969,1.1180921752929687,0,0,0,0
0.23145001899683848,0.076614453125,-9.880870251464843,1.1037269653320312,0,0,0,0
0.23328292698715813,0.0430956298828125,-9.85692823486328,1.0797849487304687,0,0,0,0
0.2352794990001712,0.076614453125,-9.8449572265625,1.180341418457031,0,0,0,0
0.23691681599302683,0.09337386474609374,-9.888052856445311,1.0893617553710937,0,0,0,0
0.23850609599321615,0.09337386474609374,-9.80665,1.1516109985351561,0,0,0,0
0.24009559898695443,0.181959326171875,-9.85692823486328,1.16837041015625,0,0,0,0
0.24161617599020246,0.076614453125,-9.871293444824218,1.0630255371093749,0,0,0,0
0.2432134929986205,0.105344873046875,-9.931148486328125,1.1707646118164061,0,0,0,0
0.2448429209907772,0.033518823242187495,-9.928754284667969,1.158793603515625,0,0,0,0
0.2464317939884495,0.02633621826171875,-9.888052856445311,1.120486376953125,0,0,0,0
0.24804101898916997,0.06464344482421874,-9.86411083984375,1.1516109985351561,0,0,0,0
0.24962633599352557,0.08379705810546874,-9.785102185058593,1.1372457885742187,0,0,0,0
0.25119970898958854,0.055066638183593745,-9.832986218261718,1.0797849487304687,0,0,0,0
0.252713378999033,0.11013327636718749,-9.880870251464843,1.13006318359375,0,0,0,0
0.25429384398739785,0.08379705810546874,-9.86411083984375,1.1372457885742187,0,0,0,0
0.2558715509949252,0.09576806640624999,-9.871293444824218,1.1037269653320312,0,0,0,0
0.25747803499689326,0.076614453125,-9.93354268798828,1.0989385620117187,0,0,0,0
0.2591104259918211,0.09337386474609374,-9.955090502929687,1.0941501586914062,0,0,0,0
0.26068909499736037,0.0718260498046875,-9.782707983398437,1.189918225097656,0,0,0,0
0.2621997829992324,0.0718260498046875,-9.8449572265625,1.22583125,0,0,0,0
0.2637100459978683,0.1197100830078125,-9.832986218261718,1.1061211669921875,0,0,0,0
0.2652937709935941,0.086191259765625,-9.854534033203125,1.1252747802734375,0,0,0,0
0.2668691439903341,0.0718260498046875,-9.904812268066406,1.1252747802734375,0,0,0,0
0.268439571998897,0.086191259765625,-9.90241806640625,1.1611878051757811,0,0,0,0
0.27004820399452,0.09337386474609374,-9.809044201660155,1.1348515869140625,0,0,0,0
0.2716727799997898,0.0718260498046875,-9.878476049804688,1.1109095703125,0,0,0,0
0.27323037599853706,0.11013327636718749,-9.794678991699218,1.1037269653320312,0,0,0,0
0.27484843399724923,0.11731588134765625,-9.746794958496093,1.0726023437499999,0,0,0,0
0.2765402309887577,0.016759411621093748,-9.871293444824218,1.1420341918945311,0,0,0,0
0.2781086229952052,0.047884033203124995,-9.909600671386718,1.0630255371093749,0,0,0,0
0.27964603299915325,0.05985504150390625,-9.911994873046874,1.1468225952148436,0,0,0,0
0.281246183993062,0.1005564697265625,-9.832986218261718,1.0654197387695312,0,0,0,0
0.2828844269970432,0.08858546142578125,-9.821015209960937,1.1540052001953125,0,0,0,0
0.2844845399959013,0.016759411621093748,-9.82580361328125,1.1947066284179686,0,0,0,0
0.2860108769964427,0.0,-9.832986218261718,1.13006318359375,0,0,0,0
0.2879682639904786,0.055066638183593745,-9.911994873046874,1.2042834350585936,0,0,0,0
0.2901356309885159,0.076614453125,-9.90241806640625,1.1372457885742187,0,0,0,0
0.2917261339898687,0.0909796630859375,-9.904812268066406,1.1875240234375,0,0,0,0
0.2933447839895962,0.09576806640624999,-9.883264453125,1.120486376953125,0,0,0,0
0.2949068429879844,0.07422025146484375,-9.849745629882811,1.22583125,0,0,0,0
0.29707022799993865,0.086191259765625,-9.888052856445311,1.1252747802734375,0,0,0,0
0.2985937310004374,0.13168109130859373,-9.78031378173828,1.0893617553710937,0,0,0,0
0.3001878449867945,0.076614453125,-9.852139831542969,1.1444283935546875,0,0,0,0
0.30169870000099763,0.16280571289062498,-9.847351428222655,1.0271125122070313,0,0,0,0
0.3043415619904408,0.00718260498046875,-9.900023864746093,1.1635820068359375,0,0,0,0
0.30613695200008806,0.028730419921875,-9.873687646484374,1.0965443603515623,0,0,0,0
0.30837287299800664,0.016759411621093748,-9.76116016845703,1.1563994018554686,0,0,0,0
0.3103965199989034,0.06943184814453125,-9.797073193359374,1.0989385620117187,0,0,0,0
0.3121510579949245,0.0718260498046875,-9.821015209960937,1.1324573852539062,0,0,0,0
0.31446845999744255,0.2753331909179687,-9.897629663085937,1.0773907470703123,0,0,0,0
0.31651769900054205,0.0526724365234375,-9.82580361328125,1.1156979736328125,0,0,0,0
0.31828555099491496,0.023942016601562498,-9.849745629882811,1.1180921752929687,0,0,0,0
0.3205336399987573,0.08379705810546874,-9.897629663085937,1.1755530151367186,0,0,0,0
0.32254097099939827,0.076614453125,-9.79946739501953,1.120486376953125,0,0,0,0
0.3242962129879743,0.10295067138671875,-9.823409411621093,1.1085153686523437,0,0,0,0
0.32677028099715244,0.00239420166015625,-9.880870251464843,1.1516109985351561,0,0,0,0
0.3296698630001629,0.0430956298828125,-9.830592016601562,1.1085153686523437,0,0,0,0
0.33195441399584524,0.09337386474609374,-9.682151513671874,1.0295067138671874,0,0,0,0
0.33395791199291125,0.08379705810546874,-9.667786303710937,1.1516109985351561,0,0,0,0
0.3360399279918056,0.0718260498046875,-9.83777462158203,1.120486376953125,0,0,0,0
0.33803924098901916,0.13407529296874998,-9.880870251464843,1.1085153686523437,0,0,0,0
0.340073905987083,0.09816226806640624,-9.909600671386718,1.1109095703125,0,0,0,0
0.3419136469892692,0.031124621582031248,-9.85692823486328,1.177947216796875,0,0,0,0
0.34368057298706844,0.06464344482421874,-9.861716638183593,1.2761094848632812,0,0,0,0
0.34553240599052515,0.11252747802734374,-9.801861596679688,1.1635820068359375,0,0,0,0
0.3473331469867844,0.1580173095703125,-9.866505041503906,1.2018892333984375,0,0,0,0
0.3490672779880697,0.0383072265625,-9.868899243164062,1.139639990234375,0,0,0,0
0.3511945529899094,0.033518823242187495,-9.909600671386718,1.0486603271484374,0,0,0,0
0.3531642369925976,0.009576806640625,-10.038887561035155,1.0917559570312498,0,0,0,0
0.35566211899276823,0.028730419921875,-9.888052856445311,0.9217676391601562,0,0,0,0
0.35772533899580594,0.07900865478515624,-9.816226806640625,0.9241618408203125,0,0,0,0
0.35967476399673615,0.06703764648437499,-9.859322436523437,1.0869675537109373,0,0,0,0
0.36203114700037986,0.0047884033203125,-9.904812268066406,1.1875240234375,0,0,0,0
0.36412071899394505,0.040701428222656245,-9.904812268066406,1.0941501586914062,0,0,0,0
0.3659310709917918,1.4413093994140624,-10.726023437499999,-0.13646949462890623,0,0,0,0
0.36793988398858346,2.6695348510742187,-10.69968721923828,-2.5378537597656248,0,0,0,0
0.3698953649873147,0.33758243408203126,-10.168174450683592,-4.963180041503906,0,0,0,0
0.37165903199638706,-0.9576806640625,-9.873687646484374,-6.114791040039062,0,0,0,0
0.37375988099665847,-1.5107412475585937,-9.564835632324218,-7.041347082519531,0,0,0,0
0.3762393009965308,-2.4492682983398435,-10.74517705078125,-7.8170684204101555,0,0,0,0
0.3784744629956549,-0.22026655273437498,-10.381258398437499,-7.180210778808593,0,0,0,0
0.3808687349956017,0.16280571289062498,-9.648632690429688,-6.744466076660156,0,0,0,0
0.38293662198702805,0.928950244140625,-10.005368737792969,-5.781997009277344,0,0,0,0
0.3849287689954508,-4.75009609375,-6.9144543945312495,-3.6439749267578123,0,0,0,0
0.3871571719937492,-4.910507604980468,-6.749254479980468,1.24498486328125,0,0,0,0
0.388970246000099,1.1516109985351561,-8.329427575683594,6.904877587890625,0,0,0,0
0.39083198699518107,8.353369592285155,-9.354145886230468,8.875305554199219,0,0,0,0
0.39267328300047666,9.402029919433593,-9.947907897949218,8.798691101074219,0,0,0,0
0.39442611699632835,2.1164742675781247,-11.058817468261719,5.679046337890624,0,0,0,0
0.3961908959900029,-1.177947216796875,-11.125855114746093,4.69263525390625,0,0,0,0
0.39936193799076136,2.0350714111328125,-10.091559997558592,1.8602946899414061,0,0,0,0
0.4026548309921054,-3.071760729980469,-10.395623608398436,-3.7014357666015623,0,0,0,0
0.40508997299184557,-4.015076184082031,-12.581529724121093,-3.5793314819335937,0,0,0,0
0.40790233299776446,0.5793968017578125,-12.727576025390624,-0.05027823486328125,0,0,0,0
0.41128900299372617,-2.2960393920898436,-9.050082275390624,2.2098481323242187,0,0,0,0
0.41361879398755264,-0.0143652099609375,-9.572018237304688,4.44363828125,0,0,0,0
0.41605310299200937,4.201823913574218,-10.907982763671875,4.431667272949219,0,0,0,0
0.4177413819998037,1.8818425048828125,-9.394847314453125,3.469198205566406,0,0,0,0
0.42022983900096733,-0.10773907470703124,-7.244854223632812,1.5179238525390624,0,0,0,0
0.42202039499534294,1.43652099609375,-7.211335400390625,1.2569558715820313,0,0,0,0
0.42383378399244975,0.7254431030273437,-7.5537062377929685,-0.1388636962890625,0,0,0,0
0.42592942899500486,-2.2457611572265623,-8.336610180664062,-1.6112977172851561,0,0,0,0
0.427728077993379,-3.81156904296875,-9.670180505371093,-2.185906115722656,0,0,0,0
0.4298405199951958,0.48123453369140623,-10.137049829101562,-0.5889736083984375,0,0,0,0
0.4317131299903849,1.5777788940429687,-10.034099157714843,0.928950244140625,0,0,0,0
0.4334792239969829,1.2497732666015624,-9.732429748535155,1.4987702392578124,0,0,0,0
0.4352909279987216,-2.31758720703125,-9.821015209960937,2.195482922363281,0,0,0,0
0.4376127750001615,0.03591302490234375,-11.226411584472656,4.13718046875,0,0,0,0
0.4394072939903708,3.191470812988281,-11.429918725585937,3.766079211425781,0,0,0,0
0.4412463679909706,2.068590234375,-10.59194814453125,1.7357962036132812,0,0,0,0
0.4434115119947819,-2.2649147705078123,-11.020510241699219,0.229843359375,0,0,0,0
0.44516967999516055,-0.1867477294921875,-11.37006368408203,0.93852705078125,0,0,0,0
0.44699503199080937,2.051830822753906,-10.9175595703125,0.6871358764648438,0,0,0,0
0.44900732599489857,-1.0654197387695312,-9.789890588378906,-0.6296750366210937,0,0,0,0
0.45088910398771986,-5.128379956054687,-9.789890588378906,-1.889025109863281,0,0,0,0
0.452825694999774,-0.70868369140625,-10.089165795898436,-0.1771709228515625,0,0,0,0
0.45525863399961963,3.2345664428710936,-10.149020837402343,2.0254946044921875,0,0,0,0
0.45735172399145085,1.9536685546875,-8.461108666992187,1.6448165405273436,0,0,0,0
0.459666255992488,-2.674323254394531,-8.884882360839843,1.6400281372070311,0,0,0,0
0.4619458439992741,2.480392919921875,-9.14824454345703,3.4668040039062498,0,0,0,0
0.46372162298939656,3.5003228271484375,-8.365340600585936,3.361459130859375,0,0,0,0
0.4659283229993889,-0.9121908325195311,-8.116343627929687,1.197100830078125,0,0,0,0
0.46772193399374373,-2.4684219116210935,-9.528922607421874,-0.11252747802734374,0,0,0,0
0.4695431009895401,0.277727392578125,-10.24718310546875,0.9433154541015625,0,0,0,0
0.4717071349878097,2.4851813232421875,-10.263942517089843,-0.040701428222656245,0,0,0,0
0.4741393689910183,-3.284844677734375,-9.60793126220703,-1.4221557861328125,0,0,0,0
0.47654227098973934,-4.110844250488281,-10.955866796875,0.1005564697265625,0,0,0,0
0.47832069799187593,1.4413093994140624,-11.528080993652344,2.020706201171875,0,0,0,0
0.4822004359884886,-1.2018892333984375,-9.988609326171874,0.7254431030273437,0,0,0,0
0.48399936300120316,-3.2920272827148436,-10.479420666503906,0.9097966308593749,0,0,0,0
0.4856621049984824,-1.1109095703125,-10.69968721923828,3.0741549316406247,0,0,0,0
0.48751836399605963,2.863465185546875,-10.649408984374999,3.3111808959960936,0,0,0,0
0.48948678899614606,1.9943699829101562,-8.8872765625,1.2378022583007813,0,0,0,0
0.49117764199036174,-3.1483751831054687,-8.904035974121093,-0.35194764404296874,0,0,0,0
0.4930153639870696,-1.0342951171875,-9.873687646484374,0.23702596435546874,0,0,0,0
0.49498788198980037,2.7581203125,-9.986215124511718,1.4915876342773438,0,0,0,0
0.4969364360003965,1.8435352783203125,-8.348581188964843,1.1324573852539062,0,0,0,0
0.4987603619956644,-1.407790576171875,-8.111555224609374,-0.6009446166992187,0,0,0,0
0.5004223819996696,-3.4572271972656248,-9.708487731933593,-0.08379705810546874,0,0,0,0
0.5026732859987533,1.0678139404296874,-10.627861169433594,1.6208745239257811,0,0,0,0
0.5048061159905046,3.833116857910156,-9.342174877929686,1.879448303222656,0,0,0,0
0.5067857260000892,-0.12689268798828124,-8.815450512695312,0.7565677246093749,0,0,0,0
0.5092807559994981,-0.8738836059570312,-10.268730920410155,1.8722656982421875,0,0,0,0
0.5118327300006058,2.863465185546875,-10.50815108642578,2.042254016113281,0,0,0,0
0.5136769519886002,1.5370774658203123,-9.576806640625,0.3591302490234375,0,0,0,0
0.5156564879871439,-3.1124621582031247,-10.352527978515624,-0.5889736083984375,0,0,0,0
0.5175457469886169,-1.4915876342773438,-11.413159313964844,1.01514150390625,0,0,0,0
0.5194078759959666,1.7597382202148437,-11.429918725585937,1.867477294921875,0,0,0,0
0.5212230990000535,1.37906015625,-9.677363110351562,1.1731588134765625,0,0,0,0
0.5232705589878606,-3.0071172851562498,-9.64623848876953,0.5961562133789062,0,0,0,0
0.5253669459925732,-1.2976572998046874,-10.568006127929687,2.250549560546875,0,0,0,0
0.5272771859890781,2.760514514160156,-10.785878479003905,2.829946362304687,0,0,0,0
0.5291128149983706,2.4013842651367185,-9.215282189941405,2.3223756103515623,0,0,0,0
0.530909093999071,-2.389413256835937,-9.006986645507812,0.28969840087890625,0,0,0,0
0.5326306319911964,-2.8730419921875,-9.641450085449218,0.28730419921875,0,0,0,0
0.5343192439904669,0.5578489868164063,-9.821015209960937,1.4245499877929686,0,0,0,0
0.536446944999625,2.5043349365234375,-8.537723120117187,1.2306196533203124,0,0,0,0
0.5383329819887877,-0.23702596435546874,-8.595183959960938,-0.09816226806640624,0,0,0,0
0.5399840579921147,-2.3511060302734372,-8.94473740234375,-0.4860229370117187,0,0,0,0
0.5418801679916214,-1.4963760375976562,-10.244788903808594,0.9337386474609375,0,0,0,0
0.5435482619941467,1.8459294799804686,-10.639832177734375,2.1811177124023438,0,0,0,0
0.5451969679998001,2.214636535644531,-9.1554271484375,1.7621324218749999,0,0,0,0
0.5475300739926752,-1.5179238525390624,-9.749189160156249,0.59376201171875,0,0,0,0
0.5493247229896951,-1.5298948608398437,-9.835380419921874,1.6424223388671875,0,0,0,0
0.5509867619985016,1.3455413330078123,-10.651803186035156,1.944091748046875,0,0,0,0
0.5530130369879771,1.5035586425781249,-10.295067138671874,1.7645266235351562,0,0,0,0
0.5546698729885975,0.07422025146484375,-10.28549033203125,0.8020575561523438,0,0,0,0
0.5564257809892297,-2.061407629394531,-10.675745202636719,0.6296750366210937,0,0,0,0
0.5588829969929066,-0.28969840087890625,-10.893617553710937,1.4772224243164063,0,0,0,0
0.5605109429889126,1.9393033447265624,-10.256759912109374,1.6735469604492186,0,0,0,0
0.5622023519972572,0.086191259765625,-9.258377819824219,0.41898529052734373,0,0,0,0
0.5645100330002606,-2.138022082519531,-9.885658654785155,0.36631285400390623,0,0,0,0
0.5662695149949286,0.5219359619140624,-10.218452685546874,1.2641384765625,0,0,0,0
0.5689055999973789,2.5234885498046875,-9.160215551757812,1.43652099609375,0,0,0,0
0.5708714129868895,0.016759411621093748,-8.734047656249999,0.38786066894531246,0,0,0,0
0.5724930259893881,-1.8602946899414061,-8.968679418945312,0.36152445068359373,0,0,0,0
0.5744081549928524,0.32561142578124996,-9.74200655517578,1.0486603271484374,0,0,0,0
0.57672287299647,2.0350714111328125,-9.090783703613281,1.5658078857421873,0,0,0,0
0.5783776149910409,0.011971008300781249,-9.294290844726563,0.699106884765625,0,0,0,0
0.58003467299568,-1.2641384765625,-9.612719665527344,0.4644751220703125,0,0,0,0
0.5820338379999157,0.34715924072265625,-10.007762939453125,1.5251064575195312,0,0,0,0
0.5855338580004172,0.7278373046875,-9.430760339355468,1.8291700683593748,0,0,0,0
0.587371968998923,-1.0702081420898437,-9.93354268798828,1.446097802734375,0,0,0,0
0.5890644329920178,0.7134720947265625,-10.491391674804687,1.5035586425781249,0,0,0,0
0.5929325059987605,0.6847416748046875,-9.883264453125,0.8786720092773437,0,0,0,0
0.5951365199871361,-2.0063409912109376,-10.28549033203125,0.4740519287109375,0,0,0,0
0.5968293179903412,-1.0271125122070313,-10.20169327392578,1.1875240234375,0,0,0,0
0.5984957829932682,1.3215993164062498,-10.108319409179687,1.3287819213867187,0,0,0,0
0.6011743849958293,-0.4477157104492187,-9.272743029785156,0.689530078125,0,0,0,0
0.6028094989887904,-1.4987702392578124,-9.883264453125,0.36631285400390623,0,0,0,0
0.6045526659872849,-0.5458779785156249,-10.24718310546875,1.6256629272460936,0,0,0,0
0.6067712919902988,2.1212626708984375,-9.447519750976562,1.924938134765625,0,0,0,0
0.6086009219870903,1.5490484741210937,-9.13627353515625,1.1923124267578125,0,0,0,0
0.6103386259928811,-1.6998831787109374,-9.131485131835937,0.21068974609375,0,0,0,0
0.6121489039942389,-0.9409212524414062,-10.137049829101562,0.3280056274414062,0,0,0,0
0.6145039179973537,1.8100164550781248,-10.09395419921875,1.4987702392578124,0,0,0,0
0.6163095849915408,1.7525556152343749,-9.270348828125,0.8978256225585937,0,0,0,0
0.6181071219907608,-1.8124106567382812,-9.64623848876953,0.17238251953125,0,0,0,0
0.6208549829898402,-1.2952630981445312,-10.43153663330078,1.426944189453125,0,0,0,0
0.6230615349923028,1.8435352783203125,-10.199299072265624,2.003946789550781,0,0,0,0
0.6249266649974743,1.6208745239257811,-9.60793126220703,1.3431471313476562,0,0,0,0
0.6267090539913625,-1.4724340209960938,-10.196904870605469,0.7541735229492187,0,0,0,0
0.62849816599919,-1.0726023437499999,-10.594342346191405,1.5777788940429687,0,0,0,0
0.6304899050010135,2.0350714111328125,-10.330980163574218,1.8914193115234375,0,0,0,0
0.6324724029982463,1.4987702392578124,-9.399635717773437,0.6847416748046875,0,0,0,0
0.6352127089921851,-2.887407202148437,-9.880870251464843,0.12689268798828124,0,0,0,0
0.6374998709943611,0.7685387329101562,-10.55364091796875,1.7405846069335937,0,0,0,0
0.6396491829946171,2.195482922363281,-8.975862023925782,1.5394716674804687,0,0,0,0
0.6419069189869333,-0.05746083984375,-9.14824454345703,0.5123591552734374,0,0,0,0
0.6439842319960007,-3.0310593017578125,-10.311826550292968,0.9864110839843749,0,0,0,0
0.6459562859963626,1.1755530151367186,-10.383652600097655,2.3511060302734372,0,0,0,0
0.6482957439875463,2.602497204589844,-8.975862023925782,1.3958195678710936,0,0,0,0
0.6503121119894786,-2.288856787109375,-8.975862023925782,-0.023942016601562498,0,0,0,0
0.6523502769996412,-2.0661960327148434,-10.639832177734375,1.1516109985351561,0,0,0,0
0.654573605992482,2.4133552734375,-10.520122094726561,1.7932570434570312,0,0,0,0
0.6569879529997706,2.2290017456054687,-8.930372192382812,0.8307879760742187,0,0,0,0
0.6597774979891255,-3.373430139160156,-10.620678564453124,0.031124621582031248,0,0,0,0
0.66197310599091,0.4955997436523437,-11.073182678222656,1.8267758666992187,0,0,0,0
0.6638831609889166,2.3582886352539063,-9.514557397460937,2.1164742675781247,0,0,0,0
0.6658750849892385,0.3495534423828125,-9.047688073730468,0.9097966308593749,0,0,0,0
0.6679985079972539,-2.8203695556640622,-10.259154113769531,0.737414111328125,0,0,0,0
0.6699365259992192,0.6679822631835937,-10.536881506347656,2.0446482177734375,0,0,0,0
0.671906190997106,2.839523168945312,-9.916783276367187,1.5945383056640625,0,0,0,0
0.6738915409951005,-0.1005564697265625,-9.172186560058593,-0.033518823242187495,0,0,0,0
0.6757795219891705,-3.4524387939453125,-10.388441003417968,0.0,0,0,0,0
0.6783594779990381,2.080561242675781,-10.479420666503906,2.0566192260742184,0,0,0,0
0.680387382992194,2.829946362304687,-9.390058911132812,1.2808978881835937,0,0,0,0
0.6821068659919547,0.5267243652343749,-9.239224206542968,0.38307226562499996,0,0,0,0
0.6839096439944115,-3.4907460205078125,-10.381258398437499,1.2473790649414063,0,0,0,0
0.6868617809959687,2.1811177124023438,-9.9215716796875,2.511517541503906,0,0,0,0
0.6893319410010008,1.47482822265625,-8.59278975830078,0.49799394531249996,0,0,0,0
0.69159867799317,-3.622427111816406,-10.405200415039062,-0.45489831542968745,0,0,0,0
0.693753025989281,-0.9935936889648437,-10.86009873046875,1.2785036865234374,0,0,0,0
0.6960195589927025,2.6144682128906247,-9.600748657226562,1.9895815795898437,0,0,0,0
0.6978799659991637,1.388636962890625,-9.167398156738281,0.6057330200195312,0,0,0,0
0.7000089079956524,-3.6367923217773437,-10.75714805908203,-0.3016694091796875,0,0,0,0
0.702050016989233,-1.5059528442382812,-10.970232006835937,1.5969325073242187,0,0,0,0
0.7044834549888037,3.9528269409179684,-9.564835632324218,2.5139117431640625,0,0,0,0
0.7065546379890293,-0.6248866333007812,-8.413224633789062,0.6607996582031249,0,0,0,0
0.7082859539950732,-2.906560815429687,-9.974244116210937,0.4213794921875,0,0,0,0
0.7101889899931848,0.4955997436523437,-11.396399902343749,1.2569558715820313,0,0,0,0
0.7118110479932511,2.114080065917969,-10.735600244140624,1.8411410766601561,0,0,0,0
0.7134700309979962,1.6711527587890624,-9.291896643066405,0.7948749511718749,0,0,0,0
0.715840192991891,-3.047818713378906,-9.117119921875,-0.02633621826171875,0,0,0,0
0.7178038399870275,-0.833182177734375,-10.079588989257813,1.2521674682617188,0,0,0,0
0.7197529679979198,1.8842367065429686,-10.572794531249999,1.7477672119140624,0,0,0,0
0.7214463209966198,1.6136919189453125,-9.739612353515625,1.6256629272460936,0,0,0,0
0.7230659159977222,-0.5123591552734374,-9.018957653808593,0.6200982299804687,0,0,0,0
0.7249816010007635,-2.2170307373046874,-9.593566052246093,1.199495031738281,0,0,0,0
0.7268995999911567,0.9050082275390624,-10.117896215820313,2.250549560546875,0,0,0,0
0.7290846329997294,3.1292215698242187,-9.686939916992188,1.7214309936523438,0,0,0,0
0.7309192629909376,-0.5626373901367188,-9.605537060546874,-0.02633621826171875,0,0,0,0
0.732534801994916,-2.4564509033203126,-9.828197814941406,0.4070142822265625,0,0,0,0
0.73418156299158,0.26815058593749996,-10.359710583496094,0.7972691528320313,0,0,0,0
0.7361492659983924,1.1013327636718748,-10.041281762695311,1.4915876342773438,0,0,0,0
0.7377730269945459,1.3335703247070312,-9.909600671386718,0.8906430175781249,0,0,0,0
0.7402550209953915,-2.114080065917969,-9.943119494628906,1.0462661254882812,0,0,0,0
0.7423338149965275,0.2442085693359375,-10.666168395996094,1.3551181396484375,0,0,0,0
0.7441239629988559,1.3000515014648437,-10.129867224121092,2.0973206542968748,0,0,0,0
0.745784131999244,1.6448165405273436,-9.648632690429688,1.599326708984375,0,0,0,0
0.7477260570012731,-1.209071838378906,-9.210493786621093,0.8403647827148437,0,0,0,0
0.7493504289886914,-0.5602431884765625,-9.866505041503906,1.0869675537109373,0,0,0,0
0.7515675920003559,0.6607996582031249,-10.345345373535155,1.0726023437499999,0,0,0,0
0.7534748319885693,0.8379705810546875,-9.514557397460937,0.5722141967773438,0,0,0,0
0.7553273689991329,-1.4245499877929686,-9.126696728515624,0.32082302246093747,0,0,0,0
0.7583006719942205,0.07422025146484375,-10.184933862304687,0.7948749511718749,0,0,0,0
0.7600524139998015,0.699106884765625,-10.096348400878906,1.4149731811523436,0,0,0,0
0.7616908969939686,0.7015010864257812,-9.629479077148437,1.189918225097656,0,0,0,0
0.7635168229899136,-1.4796166259765624,-9.222464794921875,1.2617442749023438,0,0,0,0
0.7654324519971851,0.41898529052734373,-9.564835632324218,1.8650830932617186,0,0,0,0
0.7670813059958164,0.9074024291992187,-10.24718310546875,1.9800047729492187,0,0,0,0
0.7687702889961656,1.9895815795898437,-10.211270080566406,1.4963760375976562,0,0,0,0
0.7706584739935352,-1.1540052001953125,-9.931148486328125,0.46686932373046874,0,0,0,0
0.7724689369933913,-1.0319009155273438,-10.04846436767578,1.0893617553710937,0,0,0,0
0.7742439739959082,0.5051765502929687,-10.031704956054687,1.1707646118164061,0,0,0,0
0.7761191039899131,1.1444283935546875,-10.072406384277343,1.149216796875,0,0,0,0
0.7778513449884485,-0.09576806640624999,-9.821015209960937,0.2442085693359375,0,0,0,0
0.7795367729995633,-2.070984436035156,-10.110713610839843,0.3806780639648437,0,0,0,0
0.7813153479946777,0.229843359375,-10.228029492187499,1.1420341918945311,0,0,0,0
0.7830442929989658,0.8283937744140625,-9.78031378173828,1.7717092285156248,0,0,0,0
0.7847106650006026,1.68551796875,-9.526528405761718,1.7477672119140624,0,0,0,0
0.7864220919873333,-0.7589619262695312,-9.342174877929686,1.3120225097656248,0,0,0,0
0.7881065939873224,-0.8044517578125,-10.115502014160155,1.2330138549804688,0,0,0,0
0.7897209669899894,0.7757213378906249,-9.991003527832031,1.4173673828125,0,0,0,0
0.7914224119886057,0.9888052856445312,-9.955090502929687,1.3215993164062498,0,0,0,0
0.7931542099977378,1.024718310546875,-9.193734375,0.9337386474609375,0,0,0,0
0.7948541739897337,-1.3335703247070312,-9.421183532714844,0.42377369384765623,0,0,0,0
0.7965840089891572,-0.22026655273437498,-10.005368737792969,0.814028564453125,0,0,0,0
0.798279509996064,0.7398083129882812,-10.060435375976562,0.9026140258789062,0,0,0,0
0.7999033449887065,0.6392518432617187,-9.68454571533203,0.8499415893554687,0,0,0,0
0.8016030879953178,-0.45968671875,-9.299079248046874,0.6679822631835937,0,0,0,0
0.8032855889905477,-1.7190367919921874,-9.991003527832031,0.8643067993164062,0,0,0,0
0.8056384359952062,1.2210428466796874,-10.17056865234375,2.4253262817382812,0,0,0,0
0.8078260059992317,2.013523596191406,-10.256759912109374,1.9393033447265624,0,0,0,0
0.8096109879988944,-0.3399766357421875,-9.038111267089842,0.8355763793945312,0,0,0,0
0.8114205439924262,-1.7764976318359373,-9.871293444824218,0.74699091796875,0,0,0,0
0.8134376349917147,0.5027823486328125,-10.527304699707031,1.1420341918945311,0,0,0,0
0.81543700399925,1.177947216796875,-10.01015714111328,1.1324573852539062,0,0,0,0
0.8174012249946827,-0.3591302490234375,-9.064447485351561,0.8068459594726562,0,0,0,0
0.819431871001143,-1.7118541870117185,-9.964667309570311,0.17238251953125,0,0,0,0
0.8212002969958121,-0.38786066894531246,-10.319009155273436,1.189918225097656,0,0,0,0
0.8230100199871231,0.8164227661132812,-10.352527978515624,1.5418658691406248,0,0,0,0
0.8249960179964546,1.254561669921875,-8.700528833007812,1.3766659545898436,0,0,0,0
0.8267795379942982,-1.5418658691406248,-9.289502441406249,1.20667763671875,0,0,0,0
0.8292764379875734,0.3495534423828125,-9.93354268798828,1.6208745239257811,0,0,0,0
0.8311517709953478,1.446097802734375,-10.28549033203125,1.467645617675781,0,0,0,0
0.8335911169997416,-1.2042834350585936,-9.466673364257812,0.2561795776367187,0,0,0,0
0.8357502430008026,-1.8315642700195311,-9.725247143554688,0.8595183959960937,0,0,0,0
0.837770833997638,1.0941501586914062,-10.134655627441406,1.659181750488281,0,0,0,0
0.8400257559987949,1.6807295654296874,-9.947907897949218,1.1252747802734375,0,0,0,0
0.8419076259888243,-1.218648645019531,-9.471461767578125,0.12210428466796874,0,0,0,0
0.8437628659885377,-2.6192566162109374,-10.005368737792969,1.0175357055664063,0,0,0,0
0.8460090289881919,1.4987702392578124,-10.17056865234375,2.6408044311523438,0,0,0,0
0.8479885269916849,3.31357509765625,-9.579200842285156,1.8291700683593748,0,0,0,0
0.8499535629962338,-1.0271125122070313,-9.765948571777344,-0.086191259765625,0,0,0,0
0.8521761890006019,-3.246537451171875,-10.575188732910156,0.2753331909179687,0,0,0,0
0.8540167449973524,1.0821791503906248,-9.943119494628906,1.927332336425781,0,0,0,0
0.8559908909955993,2.9472622436523435,-8.825027319335938,1.5514426757812498,0,0,0,0
0.8582983309897827,-0.6631938598632812,-9.342174877929686,-0.143652099609375,0,0,0,0
0.8601126829889836,-2.9664158569335934,-10.429142431640624,0.34237083740234375,0,0,0,0
0.8620796259929193,0.8738836059570312,-10.242394702148436,2.2936451904296873,0,0,0,0
0.8646411189984065,2.50912333984375,-9.485826977539062,1.4221557861328125,0,0,0,0
0.8665210439939983,-2.461239306640625,-9.054870678710937,0.3280056274414062,0,0,0,0
0.8687237629928859,-1.199495031738281,-9.962273107910155,1.4915876342773438,0,0,0,0
0.8712504599970998,2.29843359375,-9.926360083007811,1.917755529785156,0,0,0,0
0.8733398649928859,1.9776105712890624,-9.414000927734374,0.833182177734375,0,0,0,0
0.8758397279889323,-2.882618798828125,-10.383652600097655,0.277727392578125,0,0,0,0
0.8778806519985665,0.3447650390625,-10.551246716308594,1.6903063720703124,0,0,0,0
0.8803692009969382,2.5641899780273434,-9.469067565917967,1.714248388671875,0,0,0,0
0.8824845130002359,-2.863465185546875,-9.708487731933593,0.30885201416015623,0,0,0,0
0.8843777349975426,-3.2920272827148436,-10.71884083251953,0.6368576416015624,0,0,0,0
0.8861576799972681,0.507570751953125,-10.426748229980468,2.540247961425781,0,0,0,0
0.8880229759961367,3.39018955078125,-9.358934289550781,2.29843359375,0,0,0,0
0.8898268469929462,0.24660277099609373,-8.441955053710936,0.4070142822265625,0,0,0,0
0.8918919919960899,-2.9281086303710935,-9.634267480468749,0.2657563842773437,0,0,0,0
0.8941599509998923,-0.373495458984375,-10.297461340332031,1.5825672973632812,0,0,0,0
0.8961478379933396,2.9472622436523435,-9.241618408203124,1.917755529785156,0,0,0,0
0.8979751159931766,0.9169792358398436,-8.834604125976561,0.08858546142578125,0,0,0,0
0.8998934119881596,-3.2513258544921873,-9.739612353515625,-0.19393033447265623,0,0,0,0
0.9018009110004641,-0.5602431884765625,-10.663774194335938,1.4532804077148436,0,0,0,0
0.9038928339869017,2.683900061035156,-10.376469995117187,2.1619640991210938,0,0,0,0
0.9057590189913753,1.1324573852539062,-8.628702783203124,0.97683427734375,0,0,0,0
0.907486001990037,-2.3319524169921872,-9.30147344970703,0.47644613037109373,0,0,0,0
0.9091508369892836,-1.9009961181640624,-10.939107385253905,1.024718310546875,0,0,0,0
0.9108612459967844,1.0534487304687499,-11.087547888183593,1.8938135131835936,0,0,0,0
0.9125563400011742,2.9544448486328125,-10.261548315429687,1.7980454467773437,0,0,0,0
0.9142551929980982,0.36631285400390623,-8.98304462890625,0.38307226562499996,0,0,0,0
0.9165055039920844,-2.0470424194335934,-9.619902270507811,0.17477672119140625,0,0,0,0
0.9182966709922766,-0.4213794921875,-10.39322940673828,1.3742717529296875,0,0,0,0
0.9201144299877342,2.427720483398437,-9.935936889648437,1.7429788085937499,0,0,0,0
0.922694644992589,-1.7334020019531249,-9.279925634765624,0.3758896606445312,0,0,0,0
0.9247969019925222,-1.7860744384765623,-10.034099157714843,1.2401964599609374,0,0,0,0
0.9269141759868944,1.2521674682617188,-10.192116467285155,2.27927998046875,0,0,0,0
0.9292753189947689,3.0789433349609374,-8.796296899414061,1.5729904907226562,0,0,0,0
0.9312890769942896,-1.5777788940429687,-9.325415466308593,0.20829554443359374,0,0,0,0
0.9333907959953649,-2.0829554443359375,-10.342951171874999,0.6703764648437499,0,0,0,0
0.9359948999917833,1.8315642700195311,-10.441113439941406,1.889025109863281,0,0,0,0
0.938246783989598,1.0319009155273438,-8.954314208984375,0.9121908325195311,0,0,0,0
0.940133487994899,-1.9704279663085937,-10.01015714111328,0.18435352783203124,0,0,0,0
0.9425196669908473,0.2442085693359375,-10.74517705078125,1.3407529296874998,0,0,0,0
0.9444519629905699,1.426944189453125,-10.17056865234375,2.068590234375,0,0,0,0
0.946103371999925,0.7350199096679687,-9.270348828125,1.5610194824218748,0,0,0,0
0.9477358369913418,-0.8834604125976562,-10.070012182617187,0.7350199096679687,0,0,0,0
0.9499191849899944,-0.6464344482421874,-10.321403356933594,1.0342951171875,0,0,0,0
0.9516430569929071,0.9983820922851562,-10.714052429199219,1.3431471313476562,0,0,0,0
0.9533174839889398,1.9393033447265624,-9.562441430664062,1.24498486328125,0,0,0,0
0.9550695779907983,-0.7781155395507812,-9.215282189941405,0.5051765502929687,0,0,0,0
0.9567086909955833,-0.7661445312499999,-9.931148486328125,0.5315127685546874,0,0,0,0
0.9583722300012596,-0.36631285400390623,-10.402806213378906,0.8786720092773437,0,0,0,0
0.9601054529921385,0.6584054565429687,-10.66856259765625,1.3192051147460937,0,0,0,0
0.962166746990988,0.373495458984375,-9.284714038085937,1.120486376953125,0,0,0,0
0.9639207849977538,-1.0295067138671874,-9.083601098632812,1.1228805786132812,0,0,0,0
0.965636248991359,0.7493851196289062,-9.583989245605467,1.608903515625,0,0,0,0
0.9672737879882334,0.9097966308593749,-10.13226142578125,1.6639701538085936,0,0,0,0
0.9688959019986214,1.5059528442382812,-9.90241806640625,1.0534487304687499,0,0,0,0
0.9705955509998603,-1.3383587280273437,-9.581595043945311,0.5267243652343749,0,0,0,0
0.9722939779894659,-1.4341267944335936,-9.926360083007811,0.5746083984375,0,0,0,0
0.9739139439916471,0.3112462158203125,-9.572018237304688,1.2401964599609374,0,0,0,0
0.9756230929924641,1.189918225097656,-10.067617980957031,1.3455413330078123,0,0,0,0
0.9773071129893651,1.5538368774414062,-9.603142858886718,0.9720458740234375,0,0,0,0
0.9789259120007046,-1.2785036865234374,-9.7683427734375,0.603338818359375,0,0,0,0
0.9806034319917671,-0.45968671875,-10.831368310546875,0.8164227661132812,0,0,0,0
0.9822645999956876,0.3064578125,-10.141838232421874,1.5873557006835937,0,0,0,0
0.9839175459928811,1.0726023437499999,-10.158597644042969,1.8650830932617186,0,0,0,0
0.9856225479888963,-0.4572925170898437,-9.066841687011719,1.6472107421875,0,0,0,0
0.9873137529939413,-1.1540052001953125,-10.002974536132811,1.0989385620117187,0,0,0,0
0.9889379399974132,0.5410895751953124,-10.309432348632813,1.5370774658203123,0,0,0,0
0.9906834040011745,0.5027823486328125,-10.24000050048828,1.216254443359375,0,0,0,0
0.9923793869966175,0.7757213378906249,-9.696516723632811,0.8164227661132812,0,0,0,0
0.9944023479911266,-1.3215993164062498,-9.337386474609374,0.296881005859375,0,0,0,0
0.99618123799155,-1.1061211669921875,-10.134655627441406,1.0534487304687499,0,0,0,0
0.9978555169946048,1.2665326782226562,-9.866505041503906,1.4915876342773438,0,0,0,0
0.9995157410012325,1.0175357055664063,-9.859322436523437,1.2617442749023438,0,0,0,0
1.0012022799928673,0.5482721801757812,-9.284714038085937,0.8978256225585937,0,0,0,0
1.003572607995011,-1.0630255371093749,-10.08677159423828,0.9217676391601562,0,0,0,0
1.0059257879911456,1.426944189453125,-10.24718310546875,2.114080065917969,0,0,0,0
1.007912804998341,1.8818425048828125,-9.890447058105469,1.4437036010742186,0,0,0,0
1.0098243219981669,-1.218648645019531,-9.050082275390624,0.5051765502929687,0,0,0,0
1.0118432089948328,-1.3072341064453123,-10.127473022460936,0.7852981445312499,0,0,0,0
1.01376694899227,0.9241618408203125,-9.9981861328125,1.218648645019531,0,0,0,0
1.015737502995762,1.4987702392578124,-9.859322436523437,0.9026140258789062,0,0,0,0
1.0188669899944216,-1.85790048828125,-10.187328063964843,0.24660277099609373,0,0,0,0
1.0209508949919837,-0.45489831542968745,-10.342951171874999,1.5777788940429687,0,0,0,0
1.0230398189887637,1.5442600708007812,-10.352527978515624,1.8555062866210936,0,0,0,0
1.0251290009910008,0.5961562133789062,-8.722076647949219,1.369483349609375,0,0,0,0
1.0276414019899676,-0.7398083129882812,-10.87925234375,1.1037269653320312,0,0,0,0
1.0297145289951004,1.465251416015625,-10.13226142578125,1.68551796875,0,0,0,0
1.031688638991909,1.2018892333984375,-9.6917283203125,1.2856862915039062,0,0,0,0
1.0335963049874408,0.39743747558593745,-9.327809667968749,0.040701428222656245,0,0,0,0
1.0357354500010842,-1.9416975463867185,-10.165780249023436,0.1484405029296875,0,0,0,0
1.0376229129906278,1.1947066284179686,-10.534487304687499,1.3287819213867187,0,0,0,0
1.0397216139972443,2.300827795410156,-9.878476049804688,1.3000515014648437,0,0,0,0
1.0417877409927314,-1.5346832641601562,-8.487444885253906,0.3902548706054687,0,0,0,0
1.0439168679877184,-2.5043349365234375,-10.1131078125,1.3383587280273437,0,0,0,0
1.0458607369946549,2.27927998046875,-10.79545528564453,2.5665841796874997,0,0,0,0
1.0478089769894723,2.8203695556640622,-9.605537060546874,1.7214309936523438,0,0,0,0
1.0498113819921855,-1.484405029296875,-8.686163623046875,0.36391865234375,0,0,0,0
1.051910305992351,-2.308010400390625,-9.682151513671874,0.7541735229492187,0,0,0,0
1.0537631759943906,1.388636962890625,-10.79545528564453,1.5753846923828123,0,0,0,0
1.0557941739971284,2.023100402832031,-10.038887561035155,1.2378022583007813,0,0,0,0
1.0576653219904983,-1.2832920898437499,-8.82263311767578,0.74699091796875,0,0,0,0
1.0595907649985747,-2.710236279296875,-10.532093103027343,-0.076614453125,0,0,0,0
1.061566504999064,-0.9744400756835937,-10.611101757812499,1.6352397338867186,0,0,0,0
1.063503558994853,1.8770541015625,-9.816226806640625,2.0542250244140625,0,0,0,0
1.0653734849911416,1.2832920898437499,-9.011775048828124,1.3575123413085937,0,0,0,0
1.0673568169877399,-2.152387292480469,-9.947907897949218,0.8690952026367187,0,0,0,0
1.0695143319899216,0.033518823242187495,-10.582371337890624,1.8076222534179687,0,0,0,0
1.0714216459891759,1.9847931762695312,-10.096348400878906,1.7764976318359373,0,0,0,0
1.0734149779891595,0.8547299926757812,-8.805873706054687,0.6607996582031249,0,0,0,0
1.0754275499930372,-2.272097375488281,-10.151415039062499,0.15083470458984374,0,0,0,0
1.0773479569907067,-0.7398083129882812,-9.91438907470703,1.3718775512695311,0,0,0,0
1.0792673629912315,1.5777788940429687,-10.524910498046875,1.484405029296875,0,0,0,0
1.0812279359961394,1.697488977050781,-9.677363110351562,0.8044517578125,0,0,0,0
1.0832332860009046,-2.4061726684570313,-9.713276135253906,0.39264907226562495,0,0,0,0
1.085374967995449,-1.1707646118164061,-10.263942517089843,1.66636435546875,0,0,0,0
1.0875656680000247,2.059013427734375,-10.216058483886718,2.2744915771484373,0,0,0,0
1.0897281099896645,-0.0430956298828125,-9.181763366699219,1.1420341918945311,0,0,0,0
1.0919425499887438,-2.6288334228515624,-9.634267480468749,0.47165772705078124,0,0,0,0
1.0938805859914282,0.19153613281249998,-9.9981861328125,1.426944189453125,0,0,0,0
1.0958651029941393,2.6575638427734374,-10.098742602539062,1.4963760375976562,0,0,0,0
1.0978688789909938,-0.2561795776367187,-9.193734375,0.3136404174804687,0,0,0,0
1.0999207659915555,-2.511517541503906,-10.24000050048828,0.411802685546875,0,0,0,0
1.1019417089992203,0.14604630126953125,-10.637437976074217,1.659181750488281,0,0,0,0
1.1044374799967045,2.6001030029296874,-9.014169250488282,2.0087351928710935,0,0,0,0
1.1061882770009106,-0.15322890625,-8.544905725097657,0.86191259765625,0,0,0,0
1.1075828189932508,-1.8722656982421875,-9.713276135253906,0.5865794067382812,0,0,0,0
1.1089102679979987,-0.6105214233398437,-10.292672937011718,0.9840168823242187,0,0,0,0
1.1102276619931217,0.8499415893554687,-10.637437976074217,1.6711527587890624,0,0,0,0
1.111579444987001,1.3479355346679687,-10.242394702148436,1.7405846069335937,0,0,0,0
1.112925893990905,1.649604943847656,-9.732429748535155,1.4437036010742186,0,0,0,0
1.1142120849981438,-0.34715924072265625,-9.576806640625,0.2561795776367187,0,0,0,0
1.1154832019965397,-2.1739351074218747,-9.789890588378906,0.06943184814453125,0,0,0,0
1.1167670219874708,-1.3838485595703125,-9.969455712890625,0.5578489868164063,0,0,0,0
1.1180268799944315,0.411802685546875,-10.450690246582031,1.209071838378906,0,0,0,0
1.1193072369933361,1.2378022583007813,-10.266336718749999,1.8315642700195311,0,0,0,0
1.120578279995243,2.2361843505859373,-9.165003955078124,1.7573440185546874,0,0,0,0
1.121799304994056,0.023942016601562498,-9.074024291992187,1.3120225097656248,0,0,0,0
1.123066050990019,-1.927332336425781,-9.430760339355468,0.5817910034179687,0,0,0,0
1.1242421509959968,-2.24097275390625,-9.957484704589843,0.7134720947265625,0,0,0,0
1.1254175459907856,-1.3096283081054687,-10.108319409179687,1.35990654296875,0,0,0,0
1.1265361269906862,0.5913678100585937,-10.165780249023436,1.889025109863281,0,0,0,0
1.127635578988702,1.7669208251953124,-9.931148486328125,2.1068974609374997,0,0,0,0
1.128816807991825,2.272097375488281,-9.313444458007812,1.9704279663085937,0,0,0,0
1.1300458699988667,-0.0383072265625,-8.930372192382812,1.3096283081054687,0,0,0,0
1.1314039669960039,-1.7645266235351562,-9.253589416503905,0.05027823486328125,0,0,0,0
1.1326408069871832,-1.9129671264648436,-10.491391674804687,0.22026655273437498,0,0,0,0
1.1338273129949812,-0.5219359619140624,-10.596736547851561,0.63206923828125,0,0,0,0
1.1351120229955995,0.4261678955078125,-10.752359655761719,1.0103531005859374,0,0,0,0
1.1364242499985266,1.62805712890625,-10.137049829101562,1.3575123413085937,0,0,0,0
1.137807883991627,0.3399766357421875,-9.191340173339842,0.967257470703125,0,0,0,0
1.1391191489965422,-1.3359645263671873,-9.267954626464844,0.6153098266601562,0,0,0,0
1.1402295079897158,-1.714248388671875,-9.880870251464843,0.4381389038085937,0,0,0,0
1.141377088992158,-1.2042834350585936,-10.369287390136718,1.1180921752929687,0,0,0,0
1.1425557439943077,-0.201112939453125,-10.805032092285156,1.448492004394531,0,0,0,0
1.1437756759987678,1.599326708984375,-10.424354028320312,1.9656395629882812,0,0,0,0
1.1449279239895986,1.66636435546875,-9.502586389160156,2.0757728393554684,0,0,0,0
1.1460040979873156,0.40940848388671874,-8.923189587402343,1.707065783691406,0,0,0,0
1.147083030999056,-0.699106884765625,-9.09796630859375,1.2330138549804688,0,0,0,0
1.1483321489940863,-0.6392518432617187,-9.361328491210937,1.3168109130859373,0,0,0,0
1.1494178409921005,-0.258573779296875,-9.234435803222656,1.388636962890625,0,0,0,0
1.1505650329927448,0.46686932373046874,-10.345345373535155,1.2856862915039062,0,0,0,0
1.1517793169914512,1.3431471313476562,-10.54645831298828,1.2785036865234374,0,0,0,0
1.1529837679991033,0.9935936889648437,-10.0748005859375,1.0749965454101562,0,0,0,0
1.154092608994688,-0.1484405029296875,-9.892841259765625,0.7996633544921875,0,0,0,0
1.155273448996013,-1.5298948608398437,-9.4618849609375,0.5817910034179687,0,0,0,0
1.1564659739960916,-1.6831237670898436,-9.564835632324218,0.5626373901367188,0,0,0,0
1.1578594599995995,-0.22744915771484372,-9.952696301269532,0.8930372192382812,0,0,0,0
1.1589918739919085,0.6871358764648438,-10.36210478515625,1.2976572998046874,0,0,0,0
1.1600703449948924,1.675941162109375,-10.405200415039062,1.4628572143554686,0,0,0,0
1.1612315370002761,1.4508862060546874,-9.950302099609374,1.465251416015625,0,0,0,0
1.162380765992566,-0.18914193115234373,-9.79946739501953,0.7230489013671875,0,0,0,0
1.1634686999896076,-1.3934253662109375,-9.68454571533203,0.7206546997070312,0,0,0,0
1.1645444479945581,-1.429338391113281,-9.861716638183593,1.1109095703125,0,0,0,0
1.1656707149959402,-0.4740519287109375,-10.072406384277343,1.5705962890624998,0,0,0,0
1.166933460990549,1.0845733520507812,-10.04846436767578,1.7549498168945312,0,0,0,0
1.1680142830009572,1.6639701538085936,-9.871293444824218,1.9416975463867185,0,0,0,0
1.1690901989932172,1.3168109130859373,-9.591171850585937,1.8459294799804686,0,0,0,0
1.1701593920006417,0.3016694091796875,-9.828197814941406,1.3718775512695311,0,0,0,0
1.1712503059970913,-1.149216796875,-9.567229833984374,0.9696516723632812,0,0,0,0
1.172406294994289,-1.438915197753906,-9.555258825683593,0.6967126831054687,0,0,0,0
1.1736162829911336,-0.4860229370117187,-9.983820922851562,1.0845733520507812,0,0,0,0
1.1747217529918998,0.2825157958984375,-10.204087475585936,1.1444283935546875,0,0,0,0
1.1758167230000254,1.1923124267578125,-9.787496386718749,1.2904746948242187,0,0,0,0
1.1769716189883184,0.9911994873046874,-9.267954626464844,1.3239935180664062,0,0,0,0
1.1783132720011054,0.0526724365234375,-9.737218151855469,0.6584054565429687,0,0,0,0
1.1794718529999955,-1.3096283081054687,-9.85692823486328,0.4261678955078125,0,0,0,0
1.1809531719918596,-0.3447650390625,-10.359710583496094,0.6871358764648438,0,0,0,0
1.1828019120002864,0.5339069702148437,-10.326191760253906,1.1444283935546875,0,0,0,0
1.18407323298743,0.8954314208984374,-9.911994873046874,1.3096283081054687,0,0,0,0
1.1851718510006322,0.33758243408203126,-9.483432775878907,1.3239935180664062,0,0,0,0
1.1862585069902707,-0.9720458740234375,-9.631873278808593,1.0606313354492187,0,0,0,0
1.187368606988457,-1.455674609375,-9.789890588378906,1.24498486328125,0,0,0,0
1.188733537986991,-0.49799394531249996,-9.9981861328125,1.8076222534179687,0,0,0,0
1.1900685979926493,1.4245499877929686,-9.897629663085937,2.042254016113281,0,0,0,0
1.1914318069902947,1.2425906616210938,-9.986215124511718,1.618480322265625,0,0,0,0
1.192685497997445,1.1180921752929687,-9.042899670410156,1.350329736328125,0,0,0,0
1.1940320399880875,-0.8786720092773437,-9.105148913574219,0.97683427734375,0,0,0,0
1.1952781199943274,-1.43652099609375,-9.342174877929686,0.6560112548828124,0,0,0,0
1.1964675149938557,-0.6153098266601562,-9.753977563476562,1.024718310546875,0,0,0,0
1.197663354992983,0.4285620971679687,-10.263942517089843,1.1827356201171875,0,0,0,0
1.1989182499964954,0.8714894042968749,-10.235212097167969,1.0486603271484374,0,0,0,0
1.2001493669959018,0.7062894897460937,-9.983820922851562,0.7493851196289062,0,0,0,0
1.2013682989927474,0.00239420166015625,-9.34696328125,0.3136404174804687,0,0,0,0
1.202674563988694,-1.4437036010742186,-9.955090502929687,0.22744915771484372,0,0,0,0
1.2040090499940561,-1.0917559570312498,-9.967061511230469,0.6105214233398437,0,0,0,0
1.2052830559987342,0.28730419921875,-9.811438403320311,1.2330138549804688,0,0,0,0
1.2064667659869883,1.3239935180664062,-9.928754284667969,1.8818425048828125,0,0,0,0
1.207674846998998,1.458068811035156,-9.830592016601562,1.7908628417968748,0,0,0,0
1.2089036679972196,0.7685387329101562,-9.449913952636718,1.7405846069335937,0,0,0,0
1.2101145810011076,-0.51714755859375,-9.473855969238281,1.2713210815429687,0,0,0,0
1.211265754987835,-1.4245499877929686,-9.708487731933593,0.93852705078125,0,0,0,0
1.2123845030000666,-0.8020575561523438,-10.299855541992187,1.2521674682617188,0,0,0,0
1.2134644179895986,0.1771709228515625,-10.424354028320312,1.4987702392578124,0,0,0,0
1.2146511649916647,0.6679822631835937,-10.151415039062499,1.5251064575195312,0,0,0,0
1.215793486990151,0.9002198242187499,-9.91438907470703,1.4125789794921875,0,0,0,0
1.2168751610006439,0.44053310546874996,-9.265560424804686,1.20667763671875,0,0,0,0
1.2182025549991522,-1.2617442749023438,-9.102754711914063,0.7422025146484375,0,0,0,0
1.2194028949888889,-2.2266075439453124,-9.466673364257812,0.4740519287109375,0,0,0,0
1.220619624000392,-1.1851298217773436,-10.520122094726561,1.0917559570312498,0,0,0,0
1.221768407995114,0.5793968017578125,-10.455478649902343,1.4915876342773438,0,0,0,0
1.2228734709933633,1.3048399047851562,-10.31661495361328,1.4628572143554686,0,0,0,0
1.223942997996346,1.0342951171875,-10.022128149414062,1.2497732666015624,0,0,0,0
1.2250060789956478,-0.04548983154296875,-9.358934289550781,1.0654197387695312,0,0,0,0
1.2261130309925647,-1.3862427612304686,-9.320627062988281,0.7254431030273437,0,0,0,0
1.2272871119930642,-1.7908628417968748,-9.318232861328125,0.612915625,0,0,0,0
1.228445118991658,-0.6607996582031249,-9.488221179199218,1.3934253662109375,0,0,0,0
1.2297210499964422,0.7422025146484375,-10.180145458984374,1.608903515625,0,0,0,0
1.230905778997112,1.5705962890624998,-10.081983190917969,1.5873557006835937,0,0,0,0
1.2320844159985427,1.4867992309570313,-9.93354268798828,1.3072341064453123,0,0,0,0
1.2333475319901481,0.18435352783203124,-9.270348828125,0.5051765502929687,0,0,0,0
1.2347873510007048,-1.4532804077148436,-9.794678991699218,0.316034619140625,0,0,0,0
1.2361878189985873,-1.5897499023437498,-10.117896215820313,0.4860229370117187,0,0,0,0
1.2375181569950655,-0.02633621826171875,-9.87608184814453,1.7836802368164062,0,0,0,0
1.2388691989908693,2.0638018310546875,-10.204087475585936,1.936909143066406,0,0,0,0
1.2401067789905937,2.085349645996094,-10.228029492187499,1.5873557006835937,0,0,0,0
1.2412801749887876,0.49799394531249996,-9.303867651367186,1.1827356201171875,0,0,0,0
1.2426066979969619,-1.707065783691406,-9.09796630859375,0.2442085693359375,0,0,0,0
1.2437997599918162,-3.189076611328125,-10.409988818359375,0.5578489868164063,0,0,0,0
1.2452137829968706,-0.11731588134765625,-10.321403356933594,1.3215993164062498,0,0,0,0
1.24648423299368,1.7429788085937499,-10.16338604736328,2.1787235107421874,0,0,0,0
1.2478359599917894,2.5546131713867184,-10.079588989257813,2.1116858642578125,0,0,0,0
1.249104096001247,1.0414777221679687,-9.220070593261719,1.7190367919921874,0,0,0,0
1.2503060839953832,-1.2665326782226562,-9.188945971679686,0.833182177734375,0,0,0,0
1.2515861629944993,-2.5617957763671875,-9.320627062988281,0.28730419921875,0,0,0,0
1.2529757419979433,-0.5027823486328125,-10.493785876464843,0.8092401611328125,0,0,0,0
1.2542093410011148,1.3383587280273437,-10.907982763671875,1.4030021728515625,0,0,0,0
1.2554036429937696,2.0254946044921875,-10.759542260742187,1.4221557861328125,0,0,0,0
1.2565620209934423,1.9847931762695312,-10.002974536132811,1.0797849487304687,0,0,0,0
1.2578027299896348,0.5410895751953124,-8.990227233886719,0.507570751953125,0,0,0,0
1.2592004009929951,-2.7174188842773437,-9.251195214843749,0.16998831787109375,0,0,0,0
1.260426277993247,-1.8842367065429686,-9.730035546875,0.9840168823242187,0,0,0,0
1.2616123399930075,0.0143652099609375,-10.55364091796875,1.5298948608398437,0,0,0,0
1.2628620869945735,1.7381904052734374,-10.582371337890624,1.8195932617187498,0,0,0,0
1.2640990559884813,1.889025109863281,-10.17056865234375,1.7094599853515624,0,0,0,0
1.2652735809970181,0.3447650390625,-9.495403784179686,1.3335703247070312,0,0,0,0
1.2664473469922086,-1.7094599853515624,-9.37808790283203,0.5458779785156249,0,0,0,0
1.2676191869977629,-2.741360900878906,-9.162609753417968,0.8547299926757812,0,0,0,0
1.2690428950008936,0.47884033203125,-9.804255798339844,1.7405846069335937,0,0,0,0
1.2703313999954844,2.123656872558594,-10.340556970214843,2.1212626708984375,0,0,0,0
1.2715504619991407,2.6862942626953124,-10.512939489746094,1.5298948608398437,0,0,0,0
1.2727274499920895,2.118868469238281,-9.004592443847656,1.0797849487304687,0,0,0,0
1.2739652529999148,-1.9225439331054686,-9.1554271484375,0.25139117431640623,0,0,0,0
1.2752023879875196,-3.076549133300781,-9.41639512939453,-0.028730419921875,0,0,0,0
1.2765539299871307,-2.308010400390625,-9.68454571533203,0.9026140258789062,0,0,0,0
1.2777649739873596,-0.36391865234375,-10.165780249023436,1.7501614135742187,0,0,0,0
1.2790144049940864,2.588131994628906,-10.570400329589843,1.9129671264648436,0,0,0,0
1.2803465769975446,2.6575638427734374,-10.357316381835936,1.5658078857421873,0,0,0,0
1.2815846570010763,1.0486603271484374,-9.483432775878907,0.38786066894531246,0,0,0,0
1.2828791629872285,-1.3910311645507811,-9.634267480468749,-0.18435352783203124,0,0,0,0
1.2842113899969263,-2.9472622436523435,-9.466673364257812,0.0718260498046875,0,0,0,0
1.2854678399889963,-1.0773907470703123,-9.701305126953125,1.9105729248046874,0,0,0,0
1.2866721989994403,1.429338391113281,-10.01015714111328,2.511517541503906,0,0,0,0
1.2879495929955738,3.394977954101562,-9.60793126220703,2.521094348144531,0,0,0,0
1.2892902089952258,2.147598889160156,-9.085995300292968,2.070984436035156,0,0,0,0
1.2904741599923,-0.45489831542968745,-9.658209497070311,0.277727392578125,0,0,0,0
1.2916864809958497,-2.942473840332031,-10.070012182617187,0.02633621826171875,0,0,0,0
1.2928489139885642,-3.1794998046874996,-10.532093103027343,0.6392518432617187,0,0,0,0
1.2940688829985447,0.6967126831054687,-10.716446630859375,1.4724340209960938,0,0,0,0
1.2953063339955406,2.185906115722656,-10.618284362792968,1.9752163696289062,0,0,0,0
1.2964783219940728,3.0837317382812497,-9.955090502929687,2.128445275878906,0,0,0,0
1.2977294390002498,1.9943699829101562,-9.181763366699219,0.8858546142578124,0,0,0,0
1.2990287040011026,-2.7557261108398436,-9.318232861328125,0.0718260498046875,0,0,0,0
1.3002502839954104,-2.9975404785156248,-9.720458740234374,-0.21787235107421873,0,0,0,0
1.3015184929972747,-1.8148048583984373,-10.08677159423828,1.0103531005859374,0,0,0,0
1.3028299619909376,0.2753331909179687,-11.2240173828125,1.5753846923828123,0,0,0,0
1.3040069499984384,2.9951462768554684,-10.510545288085936,1.8602946899414061,0,0,0,0
1.3051630679983646,1.9776105712890624,-9.246406811523437,1.9105729248046874,0,0,0,0
1.3062523720000172,-0.201112939453125,-9.179369165039063,1.1468225952148436,0,0,0,0
1.30734471300093,-2.094926452636719,-8.923189587402343,0.5889736083984375,0,0,0,0
1.3084301089984365,-2.157175695800781,-9.167398156738281,0.7805097412109374,0,0,0,0
1.3097588550008368,-1.1252747802734375,-9.746794958496093,1.4915876342773438,0,0,0,0
1.3109219539910555,0.5746083984375,-10.295067138671874,1.908178723144531,0,0,0,0
1.3120141469989903,2.7964275390625,-10.335768566894531,1.9225439331054686,0,0,0,0
1.313094913988607,1.6519991455078125,-9.576806640625,1.7741034301757812,0,0,0,0
1.3141914209991228,-0.4836287353515625,-9.763554370117188,0.9026140258789062,0,0,0,0
1.31578403498861,-2.1691467041015624,-9.627084875488281,0.13407529296874998,0,0,0,0
1.317078780994052,-1.4604630126953124,-9.639055883789062,0.5602431884765625,0,0,0,0
1.318162121999194,0.45489831542968745,-9.794678991699218,1.2114660400390624,0,0,0,0
1.3193971469881944,1.867477294921875,-10.172962854003906,1.5658078857421873,0,0,0,0
1.3204904689919204,2.6288334228515624,-9.78031378173828,1.946485949707031,0,0,0,0
1.3216556049883366,1.8052280517578123,-9.26316622314453,0.8667010009765624,0,0,0,0
1.3227942419907777,-0.39983167724609375,-9.955090502929687,0.29448680419921874,0,0,0,0
1.3239644709974527,-2.099714855957031,-10.68053360595703,0.07900865478515624,0,0,0,0
1.3256657869933406,-1.1276689819335937,-10.867281335449219,1.2306196533203124,0,0,0,0
1.3268825899867807,0.2442085693359375,-10.457872851562499,1.599326708984375,0,0,0,0
1.3280533369979821,2.0542250244140625,-10.117896215820313,1.8602946899414061,0,0,0,0
1.3293576199939707,1.1947066284179686,-9.13627353515625,1.7453730102539062,0,0,0,0
1.3305535529943882,-0.05746083984375,-9.107543115234375,0.8906430175781249,0,0,0,0
1.3316747639910318,-1.3934253662109375,-9.172186560058593,0.7230489013671875,0,0,0,0
1.3328400850004982,-1.3646949462890625,-9.93354268798828,1.0031704956054688,0,0,0,0
1.3350026559928665,0.9552864624023437,-10.94868419189453,1.5873557006835937,0,0,0,0
1.3363326609978685,1.8315642700195311,-10.544064111328124,1.6112977172851561,0,0,0,0
1.3374440199986566,1.1252747802734375,-9.631873278808593,1.458068811035156,0,0,0,0
1.3385303239920177,-0.39743747558593745,-9.485826977539062,0.7900865478515624,0,0,0,0
1.3398949959955644,-1.5011644409179687,-9.557653027343749,0.5746083984375,0,0,0,0
1.3411079829966184,-0.5291185668945312,-9.593566052246093,0.9792284790039062,0,0,0,0
1.3422171939891996,0.34237083740234375,-9.6917283203125,1.1851298217773436,0,0,0,0
1.3433129429904511,0.9002198242187499,-9.85692823486328,1.2330138549804688,0,0,0,0
1.3443967089988291,1.6328455322265625,-9.674968908691406,1.4867992309570313,0,0,0,0
1.3455724749946967,1.1468225952148436,-9.629479077148437,0.9935936889648437,0,0,0,0
1.3470895899954485,-1.4700398193359374,-9.45470235595703,0.6488286499023437,0,0,0,0
1.348228356000618,-1.3096283081054687,-9.7683427734375,0.5003881469726562,0,0,0,0
1.349319585991907,-0.55545478515625,-9.919177478027343,1.1252747802734375,0,0,0,0
1.3505531659902772,0.4429273071289062,-10.206481677246094,1.47482822265625,0,0,0,0
1.351780172000872,0.8954314208984374,-10.328585961914062,1.70467158203125,0,0,0,0
1.3529237159964396,1.4867992309570313,-9.380482104492186,1.7621324218749999,0,0,0,0
1.3540152979985578,1.209071838378906,-9.7683427734375,1.2234370483398436,0,0,0,0
1.355102008994436,-1.3646949462890625,-9.801861596679688,0.7661445312499999,0,0,0,0
1.3561881459900178,-1.7956512451171873,-10.065223779296874,0.32561142578124996,0,0,0,0
1.357343152994872,-1.0917559570312498,-10.053252770996092,0.6631938598632812,0,0,0,0
1.3585021039907588,0.16280571289062498,-10.345345373535155,1.3766659545898436,0,0,0,0
1.3599724039959256,1.0989385620117187,-10.364498986816406,1.695094775390625,0,0,0,0
1.3611079109978164,1.1468225952148436,-9.502586389160156,1.5897499023437498,0,0,0,0
1.3622752139926888,-0.46686932373046874,-9.816226806640625,0.9840168823242187,0,0,0,0
1.3636500339925988,-2.29843359375,-9.76116016845703,0.5913678100585937,0,0,0,0
1.3647765409987187,-2.6958710693359373,-10.024522351074218,1.5322890624999999,0,0,0,0
1.3658609189878916,-2.2026655273437497,-9.18655177001953,2.779668127441406,0,0,0,0
1.3670292959868675,-1.4724340209960938,-9.162609753417968,3.902548706054687,0,0,0,0
1.3681894329929492,-0.48123453369140623,-9.287108239746093,5.224148022460938,0,0,0,0
1.3696094549959525,0.39743747558593745,-8.997409838867187,8.032546569824218,0,0,0,0
1.3707796839880757,1.2976572998046874,-8.786720092773438,8.762778076171875,0,0,0,0
1.3719530609960202,2.231395947265625,-8.767566479492187,10.022128149414062,0,0,0,0
1.3731053269875702,2.437297290039062,-9.466673364257812,10.058041174316406,0,0,0,0
1.374194093994447,2.786850732421875,-10.541669909667968,9.938331091308592,0,0,0,0
1.3752781759976642,1.9608511596679685,-9.488221179199218,10.433930834960936,0,0,0,0
1.3763626469881274,1.2713210815429687,-10.388441003417968,9.56962403564453,0,0,0,0
1.3775129679997917,1.6472107421875,-10.457872851562499,9.325415466308593,0,0,0,0
1.3786831969919149,0.8475473876953125,-9.497797985839844,7.793126403808594,0,0,0,0
1.3797751120000612,1.149216796875,-10.189722265624999,6.842628344726562,0,0,0,0
1.3812802819884382,-0.8307879760742187,-9.129090930175781,5.662286926269531,0,0,0,0
1.3824644919950515,-0.5889736083984375,-9.660603698730467,4.525041137695312,0,0,0,0
1.3836465359927388,-0.7422025146484375,-9.813832604980469,2.408566870117187,0,0,0,0
1.3847577659907984,-0.833182177734375,-10.560823522949217,1.5969325073242187,0,0,0,0
1.386002697996446,-0.3711012573242187,-11.250353601074218,0.8499415893554687,0,0,0,0
1.3872784069972113,-0.13168109130859373,-11.329362255859374,0.46208092041015625,0,0,0,0
1.3884331539884442,-0.28490999755859375,-11.034875451660156,-0.09337386474609374,0,0,0,0
1.3895796430006158,-1.0390835205078124,-10.74517705078125,-0.4644751220703125,0,0,0,0
1.3906969649979146,-1.9488801513671874,-10.213664282226562,-1.1156979736328125,0,0,0,0
1.3918535089906072,-1.867477294921875,-9.911994873046874,-0.8188169677734375,0,0,0,0
1.3930045339948265,-1.7621324218749999,-9.90241806640625,-0.488417138671875,0,0,0,0
1.3942519479896873,-0.430956298828125,-10.081983190917969,-0.07900865478515624,0,0,0,0
1.3957415810000384,-0.4333505004882812,-9.81862100830078,0.6296750366210937,0,0,0,0
1.396949660993414,-0.181959326171875,-9.588777648925781,1.0582371337890624,0,0,0,0
1.398113093993743,0.07900865478515624,-9.248801013183593,1.3934253662109375,0,0,0,0
1.3992170089913998,0.565031591796875,-9.334992272949219,1.7741034301757812,0,0,0,0
1.4006428089924157,0.8379705810546875,-9.052476477050782,2.3918074584960936,0,0,0,0
1.4029883409966715,1.37906015625,-8.892064965820312,2.442085693359375,0,0,0,0
1.404193939990364,1.16837041015625,-9.138667736816405,2.233790148925781,0,0,0,0
1.4053270399890607,0.6177040283203125,-9.069235888671875,1.697488977050781,0,0,0,0
1.4064155469968682,0.1580173095703125,-8.820238916015624,1.1659762084960936,0,0,0,0
1.4075073329877341,-0.36152445068359373,-8.927977990722656,0.7493851196289062,0,0,0,0
1.408803263999289,-0.4333505004882812,-9.325415466308593,-0.08140285644531249,0,0,0,0
1.4099817709939089,-0.16280571289062498,-9.758765966796874,-0.22744915771484372,0,0,0,0
1.411138776995358,-0.13407529296874998,-9.83777462158203,-0.1292868896484375,0,0,0,0
1.412230580986943,-0.15083470458984374,-9.610325463867188,-0.01915361328125,0,0,0,0
1.4133183669910068,-0.20829554443359374,-9.775525378417969,0.1484405029296875,0,0,0,0
1.414629093997064,-0.30406361083984373,-9.732429748535155,0.7302315063476562,0,0,0,0
1.4159615989919985,-0.16041151123046873,-10.244788903808594,1.0606313354492187,0,0,0,0
1.417124125000555,0.143652099609375,-10.467449658203124,1.484405029296875,0,0,0,0
1.4182958349992987,0.12689268798828124,-10.826579907226561,1.7405846069335937,0,0,0,0
1.4194649159908295,0.11252747802734374,-11.149797131347656,1.946485949707031,0,0,0,0
1.4206659589981427,0.24899697265624998,-10.91037696533203,2.2936451904296873,0,0,0,0
1.4217581699922448,0.229843359375,-10.709264025878905,2.269703173828125,0,0,0,0
1.4228464929910842,0.36152445068359373,-10.579977136230468,2.3439234252929686,0,0,0,0
1.4239321669883793,0.469263525390625,-10.398017810058594,2.123656872558594,0,0,0,0
1.4250854329875438,0.5099649536132812,-10.345345373535155,1.838746875,0,0,0,0
1.426276087993756,0.3184288208007812,-10.259154113769531,1.5179238525390624,0,0,0,0
1.4273599289881531,0.05746083984375,-10.254365710449218,1.2569558715820313,0,0,0,0
1.4284296219993848,-0.2920926025390625,-10.299855541992187,0.8643067993164062,0,0,0,0
1.4294993329967838,-0.6009446166992187,-10.189722265624999,0.5434837768554687,0,0,0,0
1.4307669129921123,-0.8020575561523438,-10.120290417480469,0.13407529296874998,0,0,0,0
1.4319379569933517,-0.7158662963867187,-9.686939916992188,0.1484405029296875,0,0,0,0
1.4330315379920648,-0.5099649536132812,-9.435548742675781,0.086191259765625,0,0,0,0
1.4341195829911157,-0.4213794921875,-9.145850341796875,0.25139117431640623,0,0,0,0
1.435203756991541,-0.055066638183593745,-8.98304462890625,0.51714755859375,0,0,0,0
1.4365106329933042,-0.02633621826171875,-9.023746057128905,0.6416460449218749,0,0,0,0
1.4377667309890967,0.040701428222656245,-9.083601098632812,1.1755530151367186,0,0,0,0
1.4389863299875287,0.21787235107421873,-9.351751684570312,1.39821376953125,0,0,0,0
1.4401710029924288,0.47884033203125,-9.368511096191405,1.5562310791015623,0,0,0,0
1.4414731199940434,0.4836287353515625,-9.351751684570312,1.6903063720703124,0,0,0,0
1.4427503289916785,0.45489831542968745,-9.320627062988281,1.714248388671875,0,0,0,0
1.4438454659975832,0.29927520751953124,-9.157821350097656,1.7693150268554687,0,0,0,0
1.4449685289873742,0.2609679809570312,-9.294290844726563,1.7645266235351562,0,0,0,0
1.4461131469870452,0.36152445068359373,-9.552864624023437,1.6519991455078125,0,0,0,0
1.4472932279895758,0.30885201416015623,-9.890447058105469,1.419761584472656,0,0,0,0
1.4485616229940206,0.258573779296875,-10.079588989257813,1.3072341064453123,0,0,0,0
1.4497734619944822,0.031124621582031248,-10.196904870605469,1.0366893188476562,0,0,0,0
1.4509993199899327,-0.0143652099609375,-10.261548315429687,0.9169792358398436,0,0,0,0
1.4527163579914486,-0.16280571289062498,-10.24718310546875,0.8571241943359375,0,0,0,0
1.4542088249872904,-0.22266075439453123,-10.405200415039062,0.8906430175781249,0,0,0,0
1.4553687579900725,-0.2154781494140625,-10.39322940673828,0.82360537109375,0,0,0,0
1.4565431529917987,-0.23223756103515625,-10.649408984374999,0.8906430175781249,0,0,0,0
1.4577329189924058,-0.22744915771484372,-10.62307276611328,1.0175357055664063,0,0,0,0
1.4590870159881888,-0.181959326171875,-10.527304699707031,1.1252747802734375,0,0,0,0
1.4602135979948798,-0.10773907470703124,-10.302249743652343,1.2737152832031249,0,0,0,0
1.4613017899973784,-0.02154781494140625,-9.983820922851562,1.47482822265625,0,0,0,0
1.4623888909991365,0.055066638183593745,-9.962273107910155,1.4891934326171874,0,0,0,0
1.4635595269937767,0.11731588134765625,-9.85692823486328,1.5203180541992187,0,0,0,0
1.4647013489884557,0.076614453125,-9.6917283203125,1.3862427612304686,0,0,0,0
1.465792318995227,0.055066638183593745,-9.758765966796874,1.4125789794921875,0,0,0,0
1.4668716049927752,0.02633621826171875,-9.847351428222655,1.2306196533203124,0,0,0,0
1.4679573899920797,0.0143652099609375,-9.737218151855469,1.0342951171875,0,0,0,0
1.469129303994123,-0.1388636962890625,-9.574412438964844,1.0366893188476562,0,0,0,0
1.4703805879980791,0.1484405029296875,-9.430760339355468,0.9600748657226562,0,0,0,0
1.471511224997812,0.08140285644531249,-9.09796630859375,0.8259995727539062,0,0,0,0
1.472832044993993,0.07422025146484375,-8.99501563720703,0.8571241943359375,0,0,0,0
1.4740779209969332,0.023942016601562498,-9.14824454345703,0.842758984375,0,0,0,0
1.4752065209904686,0.2537853759765625,-9.306261853027344,0.8762778076171874,0,0,0,0
1.4762938060011948,0.19393033447265623,-9.4618849609375,0.7972691528320313,0,0,0,0
1.4774551279988373,0.17477672119140625,-9.655815295410155,0.8379705810546875,0,0,0,0
1.4788885210000444,0.08379705810546874,-9.7683427734375,1.0558429321289062,0,0,0,0
1.4802283769968199,0.13168109130859373,-9.715670336914062,1.1324573852539062,0,0,0,0
1.4816547519876622,0.28490999755859375,-9.713276135253906,1.1516109985351561,0,0,0,0
1.4829032019915758,0.3184288208007812,-9.7683427734375,1.419761584472656,0,0,0,0
1.4841236339998432,0.2609679809570312,-10.110713610839843,1.4939818359375,0,0,0,0
1.485316658989177,0.229843359375,-10.228029492187499,1.4101847778320311,0,0,0,0
1.4868465329927858,0.15562310791015624,-10.40041201171875,1.3120225097656248,0,0,0,0
1.4881373529933626,0.11013327636718749,-10.388441003417968,1.3072341064453123,0,0,0,0
1.4893902109906776,-0.0143652099609375,-10.347739575195313,1.1061211669921875,0,0,0,0
1.4907111049978994,-0.1484405029296875,-10.359710583496094,0.9504980590820312,0,0,0,0
1.4919421669910662,-0.19153613281249998,-10.295067138671874,0.8786720092773437,0,0,0,0
1.4932843379938276,-0.2825157958984375,-10.165780249023436,0.8714894042968749,0,0,0,0
1.4945573439908912,-0.2920926025390625,-10.220846887207031,0.9552864624023437,0,0,0,0
1.4957400540006347,-0.2825157958984375,-10.180145458984374,0.8020575561523438,0,0,0,0
1.4969251719885506,-0.20350714111328125,-10.08677159423828,1.0510545288085937,0,0,0,0
1.4982125479873503,-0.1771709228515625,-9.775525378417969,1.1468225952148436,0,0,0,0
1.4994894609990297,0.02633621826171875,-9.655815295410155,1.1923124267578125,0,0,0,0
1.500665356987156,0.023942016601562498,-9.521740002441407,1.2832920898437499,0,0,0,0
1.5019245479925303,0.07422025146484375,-9.552864624023437,1.2617442749023438,0,0,0,0
1.5035355309955776,0.062249243164062495,-9.595960253906249,1.2401964599609374,0,0,0,0
1.5047039639903232,0.02633621826171875,-9.591171850585937,1.3311761230468748,0,0,0,0
1.505800934988656,0.0383072265625,-9.572018237304688,1.3120225097656248,0,0,0,0
1.5068900719925296,0.06703764648437499,-9.617508068847656,1.2761094848632812,0,0,0,0
1.5079793759941822,0.1149216796875,-9.354145886230468,1.218648645019531,0,0,0,0
1.5091341419902164,0.033518823242187495,-9.289502441406249,1.2042834350585936,0,0,0,0
1.5102887969987933,0.105344873046875,-9.363722692871093,1.235408056640625,0,0,0,0
1.5113872299989453,0.0909796630859375,-9.5001921875,1.1851298217773436,0,0,0,0
1.5126999579952098,0.09337386474609374,-9.943119494628906,1.1037269653320312,0,0,0,0
1.514138942991849,0.0909796630859375,-9.823409411621093,1.1133037719726562,0,0,0,0
1.5153884859901154,-0.016759411621093748,-9.931148486328125,1.024718310546875,0,0,0,0
1.5164850680012023,0.033518823242187495,-10.038887561035155,0.9935936889648437,0,0,0,0
1.5175724829896353,0.1197100830078125,-9.9981861328125,1.2785036865234374,0,0,0,0
1.519174632994691,0.16759411621093748,-10.0748005859375,1.3120225097656248,0,0,0,0
1.5207664689951343,0.105344873046875,-10.110713610839843,1.3048399047851562,0,0,0,0
1.522109047989943,0.011971008300781249,-10.089165795898436,1.0295067138671874,0,0,0,0
1.5236401989968726,0.16519991455078123,-10.115502014160155,1.1731588134765625,0,0,0,0
1.5254479399882257,-0.028730419921875,-10.019733947753906,1.1468225952148436,0,0,0,0
1.526639242991223,-0.08379705810546874,-10.09395419921875,1.0678139404296874,0,0,0,0
1.5277357499871869,0.0430956298828125,-10.153809240722655,0.9313444458007812,0,0,0,0
1.528820387989981,0.03591302490234375,-10.110713610839843,1.0486603271484374,0,0,0,0
1.5304970189899905,0.1292868896484375,-10.09395419921875,0.9935936889648437,0,0,0,0
1.53183209800045,0.17238251953125,-9.976638317871092,1.1707646118164061,0,0,0,0
1.5330222339980537,0.13646949462890623,-9.832986218261718,1.024718310546875,0,0,0,0
1.5341138709918596,0.19871873779296872,-9.593566052246093,0.9457096557617187,0,0,0,0
1.5352074900001753,0.15083470458984374,-9.65342109375,0.9864110839843749,0,0,0,0
1.5363507009897148,-0.00718260498046875,-9.797073193359374,0.9816226806640624,0,0,0,0
1.5374835779948626,-0.0909796630859375,-9.612719665527344,1.0438719238281249,0,0,0,0
1.5385634929989465,0.016759411621093748,-9.502586389160156,1.0845733520507812,0,0,0,0
1.5396418339951197,0.15562310791015624,-9.509768994140625,1.1061211669921875,0,0,0,0
1.5407816189981531,0.16280571289062498,-9.610325463867188,1.1923124267578125,0,0,0,0
1.5419162369944388,0.09337386474609374,-9.718064538574218,1.0630255371093749,0,0,0,0
1.5431109839992132,0.08140285644531249,-9.483432775878907,1.158793603515625,0,0,0,0
1.544342601991957,-0.05985504150390625,-9.445125549316407,1.0821791503906248,0,0,0,0
1.5454405719938222,0.1005564697265625,-9.600748657226562,1.1228805786132812,0,0,0,0
1.5466431339882547,0.07900865478515624,-9.859322436523437,1.177947216796875,0,0,0,0
1.5479943979880773,0.1149216796875,-9.9215716796875,1.2904746948242187,0,0,0,0
1.5493656809994718,0.076614453125,-9.627084875488281,1.2497732666015624,0,0,0,0
1.5505279099888867,0.0143652099609375,-9.861716638183593,1.1851298217773436,0,0,0,0
1.551695767993806,-0.028730419921875,-10.026916552734374,1.2210428466796874,0,0,0,0
1.5529989959904924,-0.04548983154296875,-10.254365710449218,1.1540052001953125,0,0,0,0
1.5541021509998245,0.0143652099609375,-10.05564697265625,1.2641384765625,0,0,0,0
1.5554499899881193,-0.13168109130859373,-10.053252770996092,1.1851298217773436,0,0,0,0
1.5566121820011176,-0.16041151123046873,-9.976638317871092,1.1156979736328125,0,0,0,0
1.5578958909900393,-0.15562310791015624,-10.005368737792969,1.3120225097656248,0,0,0,0
1.5591378969984362,0.0,-9.97184991455078,1.3527239379882812,0,0,0,0
1.5602283669868484,0.21308394775390624,-9.988609326171874,1.3072341064453123,0,0,0,0
1.5613092819985468,0.1580173095703125,-10.058041174316406,1.2641384765625,0,0,0,0
1.562388734993874,-0.15562310791015624,-10.012551342773437,1.2282254516601563,0,0,0,0
1.5637730719899992,-0.20350714111328125,-10.029310754394531,1.1133037719726562,0,0,0,0
1.5653592419985216,0.12449848632812499,-9.840168823242188,1.2785036865234374,0,0,0,0
1.566659042990068,0.13646949462890623,-9.7683427734375,1.2832920898437499,0,0,0,0
1.567760735997581,0.1292868896484375,-9.720458740234374,1.2617442749023438,0,0,0,0
1.5688477439980488,0.05985504150390625,-9.595960253906249,1.189918225097656,0,0,0,0
1.5700142499990761,-0.00718260498046875,-9.660603698730467,1.1444283935546875,0,0,0,0
1.5713807360007195,0.02154781494140625,-9.583989245605467,1.0630255371093749,0,0,0,0
1.572473206993891,-0.0143652099609375,-9.667786303710937,1.0558429321289062,0,0,0,0
1.5735572889971081,-0.03591302490234375,-9.78031378173828,1.01514150390625,0,0,0,0
1.5747349059965927,-0.06943184814453125,-9.871293444824218,0.9528922607421875,0,0,0,0
1.5760359859996242,-0.040701428222656245,-9.957484704589843,0.948103857421875,0,0,0,0
1.5771273269929225,0.08858546142578125,-9.622296472167967,0.9864110839843749,0,0,0,0
1.5784239429922309,0.05746083984375,-9.674968908691406,0.9840168823242187,0,0,0,0
1.5796294129977468,0.03591302490234375,-9.732429748535155,0.9576806640625,0,0,0,0
1.5807992529880721,0.04548983154296875,-9.744400756835937,1.0223241088867188,0,0,0,0
1.5820748689875472,0.055066638183593745,-9.777919580078125,1.1252747802734375,0,0,0,0
1.5831697839894332,0.09816226806640624,-9.83777462158203,1.0773907470703123,0,0,0,0
1.5843093279981986,0.055066638183593745,-9.981426721191406,1.1276689819335937,0,0,0,0
1.585487075994024,0.09337386474609374,-10.024522351074218,1.0941501586914062,0,0,0,0
1.586734192998847,0.105344873046875,-9.93354268798828,1.0462661254882812,0,0,0,0
1.588063956995029,0.13168109130859373,-9.9215716796875,1.0606313354492187,0,0,0,0
1.5891685940005118,0.17477672119140625,-9.86411083984375,1.1252747802734375,0,0,0,0
1.5902956569916569,0.143652099609375,-9.907206469726562,1.180341418457031,0,0,0,0
1.592901741998503,0.12449848632812499,-9.828197814941406,1.16837041015625,0,0,0,0
1.5945849659910891,0.0526724365234375,-9.89523546142578,1.0726023437499999,0,0,0,0
1.5957254729873966,0.0,-10.000580334472655,1.1061211669921875,0,0,0,0
1.596895330992993,0.033518823242187495,-10.050858569335936,1.0534487304687499,0,0,0,0
