Time,Accel X1,Accel Y1,Accel Z1,Accel X2,Accel Y2,Accel Z2
0.5005795819997729,0,0,1.3168109130859373,0,0,0.8421875000000001
0.5041202719985449,0,0,1.2737152832031249,0,0,0.8421875000000001
0.5074471299994912,0,0,1.5107412475585937,0,0,1.1484375
0.5108278949992382,0,0,1.3479355346679687,0,0,0.765625
0.5144882130007318,0,0,1.3024457031249999,0,0,0.45937500000000003
0.5179266810009722,0,0,1.5275006591796874,0,0,0.9187500000000001
0.5213780749982106,0,0,1.5107412475585937,0,0,0.8421875000000001
0.5248698389987112,0,0,1.350329736328125,0,0,0.5359375000000001
0.5283568999984709,0,0,1.467645617675781,0,0,0.765625
0.5323933069994382,0,0,1.3934253662109375,0,0,1.0718750000000001
0.5359393110011297,0,0,1.3168109130859373,0,0,0.6890625
0.5394132049987093,0,0,1.3096283081054687,0,0,0.6890625
0.5436842210001487,0,0,1.2880804931640624,0,0,0.6890625
0.5476587220000511,0,0,1.3455413330078123,0,0,0.765625
0.5511147639990668,0,0,1.4053963745117186,0,0,0.6890625
0.5545949910010677,0,0,1.47482822265625,0,0,0.9953125
0.5581916240007558,0,0,1.3742717529296875,0,0,0.5359375000000001
0.5623463820011239,0,0,1.4006079711914061,0,0,0.9953125
0.5656598329987901,0,0,1.4867992309570313,0,0,0.9953125
0.568747194000025,0,0,1.4796166259765624,0,0,0.6890625
0.5724010119993181,0,0,1.2425906616210938,0,0,0.6125
0.5755734640006267,0,0,1.4317325927734375,0,0,0.6890625
0.5786359169978823,0,0,1.2473790649414063,0,0,0.6125
0.5823522159989807,0,0,1.3144167114257812,0,0,0.9187500000000001
0.5855533529975219,0,0,1.4030021728515625,0,0,0.8421875000000001
0.5887322499984293,0,0,1.3168109130859373,0,0,0.6890625
0.5919839050002338,0,0,1.3239935180664062,0,0,0.9187500000000001
0.5952517639998405,0,0,1.3742717529296875,0,0,0.30625
0.5984263089994784,0,0,1.254561669921875,0,0,0.8421875000000001
0.6016499639990798,0,0,1.3072341064453123,0,0,0.9187500000000001
0.6048415090008348,0,0,1.2808978881835937,0,0,0.9187500000000001
0.6080338120009401,0,0,1.4030021728515625,0,0,0.9953125
0.6112285050003265,0,0,1.369483349609375,0,0,0.5359375000000001
0.6143513099996198,0,0,1.2928688964843749,0,0,0.5359375000000001
0.6175710019997496,0,0,1.4532804077148436,0,0,0.6125
0.6206754550003097,0,0,1.5035586425781249,0,0,1.3015625000000002
0.6239224249984545,0,0,1.2425906616210938,0,0,0.9953125
0.6270940249996784,0,0,1.3623007446289062,0,0,0.6890625
0.630209033999563,0,0,1.4317325927734375,0,0,0.8421875000000001
0.6332840239992947,0,0,1.2737152832031249,0,0,0.765625
0.6365938269991602,0,0,1.3646949462890625,0,0,0.5359375000000001
0.6397068349979236,0,0,1.5251064575195312,0,0,0.6125
0.6427649180004664,0,0,1.4796166259765624,0,0,0.765625
0.6460581469982571,0,0,1.2952630981445312,0,0,0.9953125
0.649261172999104,0,0,1.3263877197265623,0,0,0.9953125
0.6523578849992191,0,0,1.3120225097656248,0,0,0.9187500000000001
0.6555002450004395,0,0,1.35990654296875,0,0,0.6125
0.6587100850010756,0,0,1.2928688964843749,0,0,0.765625
0.6618498899988481,0,0,1.3838485595703125,0,0,0.9187500000000001
0.6650376750003488,0,0,1.407790576171875,0,0,0.6890625
0.6676903359984863,0,0,1.4101847778320311,0,0,0.6125
0.6705734569986816,0,0,1.2569558715820313,0,0,0.765625
0.6730945269991935,0,0,1.429338391113281,0,0,0.6125
0.6758119459991576,0,0,1.254561669921875,0,0,0.6125
0.6784678099975281,0,0,1.2785036865234374,0,0,0.6125
0.6811745449995215,0,0,1.2952630981445312,0,0,0.8421875000000001
0.6836638729982951,0,0,1.3551181396484375,0,0,0.765625
0.6863007190004282,0,0,1.3670891479492187,0,0,0.8421875000000001
0.6890725089979242,0,0,1.2952630981445312,0,0,0.6125
0.6917281319983886,0,0,1.2856862915039062,0,0,0.9187500000000001
0.6942415539997455,0,0,1.3239935180664062,0,0,0.765625
0.6968344369997794,0,0,1.465251416015625,0,0,1.0718750000000001
0.6993259139999282,0,0,1.467645617675781,0,0,0.3828125
0.7031930449993524,0,0,1.2497732666015624,0,0,0.9187500000000001
0.7058692979990155,0,0,1.4030021728515625,0,0,0.5359375000000001
0.7083912749985757,0,0,1.22583125,0,0,0.765625
0.7116852439976356,0,0,1.350329736328125,0,0,0.6125
0.714335830998607,0,0,1.2497732666015624,0,0,0.30625
0.7168124929994519,0,0,1.484405029296875,0,0,0.5359375000000001
0.7193778029977693,0,0,1.448492004394531,0,0,0.8421875000000001
0.7218396690004738,0,0,1.4317325927734375,0,0,0.9953125
0.7243883859991911,0,0,1.3766659545898436,0,0,0.9187500000000001
0.7268613079977513,0,0,1.4532804077148436,0,0,0.765625
0.7304124789989146,0,0,1.3862427612304686,0,0,0.6125
0.7330619540007319,0,0,1.3048399047851562,0,0,0.765625
0.7355625050004164,0,0,1.3359645263671873,0,0,0.765625
0.738215647998004,0,0,1.2761094848632812,0,0,2.296875
0.7407689569990907,0,0,1.4437036010742186,0,0,0.9187500000000001
0.743454950999876,0,0,1.4341267944335936,0,0,0.6890625
0.7462483140006952,0,0,1.3048399047851562,0,0,1.0718750000000001
0.7488483460001589,0,0,1.2808978881835937,0,0,0.765625
0.7514817470000708,0,0,1.419761584472656,0,0,0.30625
0.7541043339988391,0,0,1.43652099609375,0,0,0.8421875000000001
0.7565905709998333,0,0,1.3838485595703125,0,0,0.6890625
0.7591707690007752,0,0,1.3407529296874998,0,0,0.5359375000000001
0.7618227999992087,0,0,1.2282254516601563,0,0,0.8421875000000001
0.7644986269988294,0,0,1.24498486328125,0,0,0.6890625
0.7669896229999722,0,0,1.22583125,0,0,0.9187500000000001
0.7695783769995614,0,0,1.2808978881835937,0,0,0.9953125
0.7720377609985007,0,0,1.2928688964843749,0,0,0.8421875000000001
0.774621886001114,0,0,1.3551181396484375,0,0,0.9187500000000001
0.7772955459986406,0,0,1.4915876342773438,0,0,0.8421875000000001
0.7797725790005643,0,0,1.3359645263671873,0,0,0.5359375000000001
0.7824953679992177,0,0,1.3335703247070312,0,0,0.8421875000000001
0.7852293430005375,0,0,1.4053963745117186,0,0,0.9187500000000001
0.7879827990000194,0,0,1.4413093994140624,0,0,0.765625
0.7905588129979151,0,0,1.3934253662109375,0,0,0.6890625
0.7931535110001278,0,0,1.3479355346679687,0,0,0.8421875000000001
0.7957987640002102,0,0,1.4413093994140624,0,0,0.8421875000000001
0.7983621290004521,0,0,1.4245499877929686,0,0,0.8421875000000001
0.8009257720004825,0,0,1.3024457031249999,0,0,0.765625
0.8035505629995896,0,0,1.3527239379882812,0,0,0.765625
0.806247093998536,0,0,1.438915197753906,0,0,0.0765625
0.8087304229993606,0,0,1.3718775512695311,0,0,0.765625
0.8112727689986059,0,0,1.3287819213867187,0,0,0.6890625
0.8138037459975749,0,0,1.3575123413085937,0,0,0.6890625
0.8162737790007668,0,0,1.2808978881835937,0,0,0.30625
0.8188606619987695,0,0,1.4628572143554686,0,0,1.1484375
0.8213564539983054,0,0,1.4149731811523436,0,0,0.6890625
0.8239662630003295,0,0,1.5059528442382812,0,0,1.1484375
0.8265586099987559,0,0,1.350329736328125,0,0,1.0718750000000001
0.829025956998521,0,0,1.47482822265625,0,0,0.8421875000000001
0.8315988409995043,0,0,1.4221557861328125,0,0,0.8421875000000001
0.8341800759990292,0,0,1.5035586425781249,0,0,0.6125
0.836801663001097,0,0,1.2737152832031249,0,0,0.30625
0.8392704920006508,0,0,1.429338391113281,0,0,0.9187500000000001
0.8418513199976587,0,0,1.3934253662109375,0,0,0.6125
0.8445199439993303,0,0,1.3144167114257812,0,0,0.45937500000000003
0.8471855860007054,0,0,1.3215993164062498,0,0,0.5359375000000001
0.8497849509985826,0,0,1.484405029296875,0,0,0.5359375000000001
0.8523382790008327,0,0,1.3742717529296875,0,0,0.6125
0.8551872339994588,0,0,1.2497732666015624,0,0,0.8421875000000001
0.8578118029981852,0,0,1.3239935180664062,0,0,0.5359375000000001
0.8604110749984102,0,0,1.2665326782226562,0,0,0.6890625
0.8629274779996194,0,0,1.5107412475585937,0,0,1.3015625000000002
0.8654911759986135,0,0,1.4987702392578124,0,0,0.8421875000000001
0.8680260599976464,0,0,1.2497732666015624,0,0,0.8421875000000001
0.8706687769990822,0,0,1.3862427612304686,0,0,1.0718750000000001
0.873140882998996,0,0,1.4101847778320311,0,0,0.765625
0.8757173409976531,0,0,1.47482822265625,0,0,0.765625
0.8782301699975505,0,0,1.484405029296875,0,0,0.765625
0.8808596640010364,0,0,1.3168109130859373,0,0,0.6125
0.8834445479988062,0,0,1.4700398193359374,0,0,0.765625
0.8860591900011059,0,0,1.3742717529296875,0,0,0.6125
0.8885279639980581,0,0,1.5227122558593749,0,0,0.8421875000000001
0.8910108109994326,0,0,1.5011644409179687,0,0,0.8421875000000001
0.8936621379980352,0,0,1.4963760375976562,0,0,0.765625
0.8961954669975967,0,0,1.3527239379882812,0,0,1.1484375
0.8987765540005057,0,0,1.3335703247070312,0,0,0.6890625
0.9012352539975836,0,0,1.4915876342773438,0,0,1.1484375
0.9037081380010932,0,0,1.2330138549804688,0,0,0.8421875000000001
0.9063343179986987,0,0,1.37906015625,0,0,0.765625
0.9089435339992633,0,0,1.4915876342773438,0,0,0.9953125
0.9116364350011281,0,0,1.369483349609375,0,0,0.765625
0.9142960409990337,0,0,1.5131354492187499,0,0,0.6125
0.9169700339989504,0,0,1.5897499023437498,0,0,0.6890625
0.9198008419989492,0,0,1.4532804077148436,0,0,0.6890625
0.9225367789986194,0,0,1.3383587280273437,0,0,0.9953125
0.9253064939985052,0,0,1.2976572998046874,0,0,0.45937500000000003
0.9278083789977245,0,0,1.4149731811523436,0,0,-8.957812500000001
0.9309138690005057,0,0,1.4125789794921875,0,0,0.9953125
0.9336652880010661,0,0,1.2521674682617188,0,0,0.765625
0.9362792819993047,0,0,1.3455413330078123,0,0,0.6125
0.938784685000428,0,0,1.4891934326171874,0,0,0.6890625
0.9414285860002565,0,0,1.2617442749023438,0,0,0.6890625
0.9439112859981833,0,0,1.2641384765625,0,0,0.765625
0.9469312580004043,0,0,1.426944189453125,0,0,-9.264062500000001
0.949587603998225,0,0,1.426944189453125,0,0,0.45937500000000003
0.9522341160009091,0,0,1.3287819213867187,0,0,0.6125
0.9549986279998848,0,0,1.2425906616210938,0,0,0.6890625
0.9581194689999393,0,0,1.2617442749023438,0,0,0.6125
0.9613865869978326,0,0,1.4173673828125,0,0,0.6890625
0.9651028309999674,0,0,1.2497732666015624,0,0,0.5359375000000001
0.9684279479988618,0,0,1.3215993164062498,0,0,0.8421875000000001
0.9722585239978798,0,0,1.4772224243164063,0,0,0.8421875000000001
0.9752096629999869,0,0,1.429338391113281,0,0,0.9953125
0.9790734979978879,0,0,1.3766659545898436,0,0,0.6125
0.9821408589996281,0,0,1.2808978881835937,0,0,0.5359375000000001
0.9850549059992773,0,0,1.2425906616210938,0,0,0.6890625
0.9878328060003696,0,0,1.4125789794921875,0,0,-8.957812500000001
0.9907602050006972,0,0,1.2976572998046874,0,0,0.6890625
0.9936061049993441,0,0,1.3838485595703125,0,0,0.22968750000000002
0.9963115610007662,0,0,1.4030021728515625,0,0,0.6890625
0.9991437389981002,0,0,1.5275006591796874,0,0,0.9187500000000001
1.0021356739998737,0,0,1.2761094848632812,0,0,0.30625
1.0050965730006283,0,0,1.4532804077148436,0,0,2.1437500000000003
1.0080161570003838,0,0,1.4125789794921875,0,0,0.3828125
1.0111051099993347,0,0,1.3192051147460937,0,0,-8.8046875
1.0143854870002542,0,0,1.3215993164062498,0,0,1.0718750000000001
1.0173160519989324,0,0,1.4628572143554686,0,0,0.8421875000000001
1.020323228000052,0,0,1.5227122558593749,0,0,0.6125
1.0234010700005456,0,0,1.254561669921875,0,0,0.9953125
1.026577410997561,0,0,1.2737152832031249,0,0,0.30625
1.029576475997601,0,0,1.407790576171875,0,0,0.3828125
1.0324192279986164,0,0,1.446097802734375,0,0,0.45937500000000003
1.03558586500003,0,0,1.3527239379882812,0,0,0.5359375000000001
1.0385863929986954,0,0,1.3814543579101561,0,0,0.765625
1.0413788859987108,0,0,1.5035586425781249,0,0,0.9953125
1.044286562999332,0,0,1.43652099609375,0,0,0.5359375000000001
1.047475552000833,0,0,1.4053963745117186,0,0,1.0718750000000001
1.0505342459982785,0,0,1.4053963745117186,0,0,1.0718750000000001
1.0534097380004823,0,0,1.5562310791015623,0,0,0.765625
1.0565225979989918,0,0,1.3718775512695311,0,0,0.765625
1.0594912189990282,0,0,1.2832920898437499,0,0,0.9953125
1.0624855059977563,0,0,1.5131354492187499,0,0,0.765625
1.0654791819979437,0,0,1.4317325927734375,0,0,0.9953125
1.067570587998489,0,0,1.3144167114257812,0,0,0.5359375000000001
1.0693276279998827,0,0,1.3814543579101561,0,0,0.6890625
1.0709699459985131,0,0,1.4101847778320311,0,0,2.1437500000000003
1.0726386339993041,0,0,1.426944189453125,0,0,0.6125
1.074331618998258,0,0,1.4317325927734375,0,0,0.9187500000000001
1.0760413809985039,0,0,1.3120225097656248,0,0,0.6890625
1.0777784759993665,0,0,1.3215993164062498,0,0,0.6890625
1.0794032199992216,0,0,1.3287819213867187,0,0,2.2203125000000004
1.0812160549976397,0,0,1.438915197753906,0,0,-9.1875
1.0829078360002313,0,0,1.455674609375,0,0,0.6890625
1.0845606910006609,0,0,1.4915876342773438,0,0,0.8421875000000001
1.0862086569977691,0,0,1.388636962890625,0,0,0.45937500000000003
1.0880465480004204,0,0,1.3623007446289062,0,0,0.8421875000000001
1.0896547550000832,0,0,1.3958195678710936,0,0,0.765625
1.091289683998184,0,0,1.4532804077148436,0,0,0.6125
1.0930660570011241,0,0,1.3766659545898436,0,0,0.9953125
1.0947487630000978,0,0,1.4006079711914061,0,0,0.45937500000000003
1.0963649340010306,0,0,1.254561669921875,0,0,0.9953125
1.0978479199984577,0,0,1.458068811035156,0,0,0.6890625
1.0993643879992305,0,0,1.3096283081054687,0,0,0.8421875000000001
1.1012806660000933,0,0,1.2928688964843749,0,0,0.9187500000000001
1.1029127250003512,0,0,1.350329736328125,0,0,0.45937500000000003
1.104797948999476,0,0,1.4724340209960938,0,0,0.9187500000000001
1.106582876000175,0,0,1.5059528442382812,0,0,0.9187500000000001
1.1080746779989568,0,0,1.5131354492187499,0,0,0.6125
1.1095708859975275,0,0,1.3814543579101561,0,0,0.5359375000000001
1.1112474449982983,0,0,1.1109095703125,0,0,0.6890625
1.1127160789983463,0,0,1.2928688964843749,0,0,1.0718750000000001
1.1141841399985424,0,0,1.2330138549804688,0,0,0.765625
1.1158149389993923,0,0,1.4245499877929686,0,0,1.4546875000000001
1.1173830359985004,0,0,1.4006079711914061,0,0,0.5359375000000001
1.1188782069984882,0,0,1.438915197753906,0,0,0.9187500000000001
1.1204199339990737,0,0,1.3766659545898436,0,0,0.765625
1.1222045289978269,0,0,1.3455413330078123,0,0,0.765625
1.1237362179999764,0,0,1.3838485595703125,0,0,0.6890625
1.1251996489991143,0,0,1.5059528442382812,0,0,0.45937500000000003
1.1267506349977339,0,0,1.5011644409179687,0,0,0.9187500000000001
1.128455951999058,0,0,1.426944189453125,0,0,0.9953125
1.1300485860010667,0,0,1.4221557861328125,0,0,0.9187500000000001
1.131623571000091,0,0,1.2330138549804688,0,0,0.8421875000000001
1.1331581679987721,0,0,1.3144167114257812,0,0,0.6125
1.1349954100005561,0,0,1.369483349609375,0,0,0.765625
1.1369033560004027,0,0,1.2521674682617188,0,0,0.8421875000000001
1.1384265269989555,0,0,1.2689268798828124,0,0,0.5359375000000001
1.140215065999655,0,0,1.429338391113281,0,0,0.765625
1.1418305879997206,0,0,1.3455413330078123,0,0,0.6125
1.1433789809998416,0,0,1.3024457031249999,0,0,0.6890625
1.1448466529982397,0,0,1.3479355346679687,0,0,0.765625
1.1463539539981866,0,0,1.3263877197265623,0,0,0.8421875000000001
1.148129714998504,0,0,1.2641384765625,0,0,0.9187500000000001
1.1497248480009148,0,0,1.438915197753906,0,0,0.45937500000000003
1.1512031679994834,0,0,1.2761094848632812,0,0,0.8421875000000001
1.153396851997968,0,0,1.47482822265625,0,0,0.8421875000000001
1.1550900029978948,0,0,1.2665326782226562,0,0,0.765625
1.1567117839986167,0,0,1.369483349609375,0,0,0.9187500000000001
1.1584556569978304,0,0,1.3144167114257812,0,0,0.6125
1.1599269209982594,0,0,1.4891934326171874,0,0,1.1484375
1.1618654029989557,0,0,1.3263877197265623,0,0,0.9953125
1.1635369619980338,0,0,1.2617442749023438,0,0,0.9953125
1.16500535600062,0,0,1.3072341064453123,0,0,0.765625
1.1664642309988267,0,0,1.3000515014648437,0,0,0.6890625
1.1679666060008458,0,0,1.3455413330078123,0,0,0.765625
1.169996420998359,0,0,1.3359645263671873,0,0,0.6890625
1.1718428849999327,0,0,1.4149731811523436,0,0,0.22968750000000002
1.1734398150001653,0,0,1.5155296508789062,0,0,0.9953125
1.175004299999273,0,0,1.4915876342773438,0,0,0.5359375000000001
1.1765828409988899,0,0,1.3239935180664062,0,0,0.765625
1.1781927150004776,0,0,1.3311761230468748,0,0,0.765625
1.179723422999814,0,0,1.3742717529296875,0,0,0.765625
1.18138716699832,0,0,1.2713210815429687,0,0,0.8421875000000001
1.1833708710000792,0,0,1.4245499877929686,0,0,0.6125
1.184871467998164,0,0,1.3623007446289062,0,0,0.8421875000000001
1.1864001389985788,0,0,1.4820108276367188,0,0,0.9953125
1.1879754029978358,0,0,1.3814543579101561,0,0,0.9187500000000001
1.1895116659979976,0,0,1.2856862915039062,0,0,0.6125
1.1909871899988502,0,0,1.3000515014648437,0,0,0.6890625
1.1925758969991875,0,0,1.2976572998046874,0,0,0.9187500000000001
1.1941555679986777,0,0,1.467645617675781,0,0,0.5359375000000001
1.1956263319989375,0,0,1.455674609375,0,0,0.8421875000000001
1.197154502999183,0,0,1.37906015625,0,0,0.765625
1.1987225810007658,0,0,1.3000515014648437,0,0,0.6125
1.2002464010001859,0,0,1.369483349609375,0,0,0.8421875000000001
1.2017890530005388,0,0,1.3766659545898436,0,0,0.8421875000000001
1.2033870380000735,0,0,1.2928688964843749,0,0,0.9953125
1.2050418379985786,0,0,1.5179238525390624,0,0,0.45937500000000003
1.2065905640010897,0,0,1.5059528442382812,0,0,0.765625
1.2080627729992557,0,0,1.4173673828125,0,0,0.6125
1.2096966099998099,0,0,1.3431471313476562,0,0,1.0718750000000001
1.2112426509993384,0,0,1.455674609375,0,0,0.5359375000000001
1.2127122669990058,0,0,1.350329736328125,0,0,0.9953125
1.2142685489998257,0,0,1.2617442749023438,0,0,0.6125
1.2158299049988273,0,0,1.5275006591796874,0,0,0.3828125
1.2173566870005743,0,0,1.5203180541992187,0,0,0.765625
1.2188440989993978,0,0,1.458068811035156,0,0,0.8421875000000001
1.2203521960000216,0,0,1.2425906616210938,0,0,0.765625
1.2219211629999336,0,0,1.3479355346679687,0,0,0.6890625
1.2234508340006869,0,0,1.3742717529296875,0,0,0.8421875000000001
1.2249443760010763,0,0,1.3335703247070312,0,0,0.6890625
1.2266382119996706,0,0,1.4867992309570313,0,0,0.8421875000000001
1.2282884560008824,0,0,1.2904746948242187,0,0,0.765625
1.229773553997802,0,0,1.4820108276367188,0,0,0.765625
1.231302798998513,0,0,1.350329736328125,0,0,0.765625
1.2328847469980246,0,0,1.3431471313476562,0,0,0.6890625
1.2345224909986428,0,0,1.3287819213867187,0,0,0.8421875000000001
1.2359954780004045,0,0,1.2880804931640624,0,0,0.45937500000000003
1.2375901300001715,0,0,1.4413093994140624,0,0,0.45937500000000003
1.2399088489983114,0,0,1.37906015625,0,0,0.765625
1.2415095010001096,0,0,1.4437036010742186,0,0,0.45937500000000003
1.2431584859987197,0,0,1.2832920898437499,0,0,0.9953125
1.2447668780005188,0,0,1.3263877197265623,0,0,0.6890625
1.2463049750003847,0,0,1.3144167114257812,0,0,0.765625
1.2478687389993866,0,0,1.4125789794921875,0,0,0.9187500000000001
1.2495140009996248,0,0,1.649604943847656,0,0,0.5359375000000001
1.2510383389999333,0,0,1.4508862060546874,0,0,0.9187500000000001
1.25259204699978,0,0,1.5011644409179687,0,0,0.6125
1.2541362359988852,0,0,1.2617442749023438,0,0,0.9953125
1.2557109439985652,0,0,1.3287819213867187,0,0,0.9187500000000001
1.2573414469989075,0,0,1.2306196533203124,0,0,0.6125
1.2589818029991875,0,0,1.3168109130859373,0,0,0.9187500000000001
1.2605694179983402,0,0,1.5083470458984374,0,0,0.5359375000000001
1.2621563659995445,0,0,1.3551181396484375,0,0,0.9187500000000001
1.2637306659999012,0,0,1.3910311645507811,0,0,0.6890625
1.2653854659984063,0,0,1.3096283081054687,0,0,1.1484375
1.2670275429991307,0,0,1.3024457031249999,0,0,0.8421875000000001
1.2692588370009616,0,0,1.2689268798828124,0,0,0.5359375000000001
1.2712326340006257,0,0,1.429338391113281,0,0,0.8421875000000001
1.2733781329989142,0,0,1.43652099609375,0,0,0.8421875000000001
1.2754997240008379,0,0,1.429338391113281,0,0,0.8421875000000001
1.2771591899982013,0,0,1.3575123413085937,0,0,0.765625
1.2788499150010466,0,0,1.350329736328125,0,0,0.9953125
1.2804292900000291,0,0,1.3575123413085937,0,0,0.5359375000000001
1.2820884229986405,0,0,1.4796166259765624,0,0,0.9187500000000001
1.2835668160005298,0,0,1.429338391113281,0,0,0.5359375000000001
1.2850801360000332,0,0,1.5298948608398437,0,0,0.6125
1.2866779910000332,0,0,1.3551181396484375,0,0,0.8421875000000001
1.2883458830001473,0,0,1.2880804931640624,0,0,0.6125
1.2899997200001962,0,0,1.2880804931640624,0,0,0.45937500000000003
1.2915715759991144,0,0,1.3096283081054687,0,0,0.3828125
1.2931022099983238,0,0,1.407790576171875,0,0,0.9187500000000001
1.2947279729996808,0,0,1.4101847778320311,0,0,0.765625
1.2962357360011083,0,0,1.5155296508789062,0,0,0.765625
1.2978393140001572,0,0,1.3407529296874998,0,0,0.6890625
1.2995569089980563,0,0,1.3168109130859373,0,0,0.6890625
1.3012847450008849,0,0,1.2808978881835937,0,0,0.765625
1.3028573980009241,0,0,1.2665326782226562,0,0,0.765625
1.3044075129982957,0,0,1.4221557861328125,0,0,0.6125
1.3058842399987043,0,0,1.3623007446289062,0,0,0.45937500000000003
1.3073997999999847,0,0,1.407790576171875,0,0,0.6890625
1.3089658040007635,0,0,1.3623007446289062,0,0,0.6125
1.3106067890003033,0,0,1.4939818359375,0,0,0.6125
1.3121202750007797,0,0,1.235408056640625,0,0,0.6890625
1.3136667420003505,0,0,1.3527239379882812,0,0,0.765625
1.3152006349992007,0,0,1.4221557861328125,0,0,0.6890625
1.3168305279978085,0,0,1.3168109130859373,0,0,0.765625
1.318460252998193,0,0,1.438915197753906,0,0,0.45937500000000003
1.3200316459988244,0,0,1.2832920898437499,0,0,0.6890625
1.3217528339991986,0,0,1.2521674682617188,0,0,0.6890625
1.3234112819991424,0,0,1.3000515014648437,0,0,1.0718750000000001
1.3249811189998582,0,0,1.350329736328125,0,0,0.6125
1.326501178999024,0,0,1.4939818359375,0,0,0.765625
1.3281827379978495,0,0,1.4724340209960938,0,0,0.6890625
1.3297827409987804,0,0,1.448492004394531,0,0,0.5359375000000001
1.3313711709997733,0,0,1.24498486328125,0,0,0.765625
1.3330875809988356,0,0,1.5251064575195312,0,0,0.765625
1.3349044530004903,0,0,1.3575123413085937,0,0,0.765625
1.3364186430007976,0,0,1.2928688964843749,0,0,1.1484375
1.3381577569998626,0,0,1.426944189453125,0,0,0.45937500000000003
1.3396352249983465,0,0,1.5203180541992187,0,0,0.8421875000000001
1.3410979330001283,0,0,1.4030021728515625,0,0,0.5359375000000001
1.3426510669996787,0,0,1.369483349609375,0,0,0.9187500000000001
1.3441750530000718,0,0,1.43652099609375,0,0,0.6890625
1.3456315580006049,0,0,1.3144167114257812,0,0,0.8421875000000001
1.3473235239980568,0,0,1.2521674682617188,0,0,1.0718750000000001
1.3488985650001268,0,0,1.4173673828125,0,0,0.5359375000000001
1.3503740509986528,0,0,1.438915197753906,0,0,0.8421875000000001
1.3521328130009351,0,0,1.4101847778320311,0,0,0.6125
1.353826056998514,0,0,1.3168109130859373,0,0,0.9187500000000001
1.3554568190011196,0,0,1.2808978881835937,0,0,0.9953125
1.3569273979992431,0,0,1.2808978881835937,0,0,0.5359375000000001
1.3587232709978707,0,0,1.4413093994140624,0,0,0.8421875000000001
1.3605023279997113,0,0,1.446097802734375,0,0,0.9187500000000001
1.3620475919997261,0,0,1.467645617675781,0,0,0.9953125
1.3635690589981095,0,0,1.4030021728515625,0,0,0.6125
1.3652988389985694,0,0,1.2713210815429687,0,0,0.6890625
1.3669609909993596,0,0,1.3383587280273437,0,0,2.2203125000000004
1.36853351299942,0,0,1.2928688964843749,0,0,0.8421875000000001
1.3700943879994156,0,0,1.3838485595703125,0,0,1.0718750000000001
1.3717433909987449,0,0,1.448492004394531,0,0,0.5359375000000001
1.373283025001001,0,0,1.3168109130859373,0,0,1.1484375
1.3748475850006798,0,0,1.3431471313476562,0,0,0.765625
1.376488846999564,0,0,1.3168109130859373,0,0,0.9187500000000001
1.3780689439990965,0,0,1.2952630981445312,0,0,0.9187500000000001
1.3796268919977592,0,0,1.2569558715820313,0,0,0.765625
1.381184915000631,0,0,1.3048399047851562,0,0,0.8421875000000001
1.3826651609997498,0,0,1.39821376953125,0,0,0.5359375000000001
1.384186535000481,0,0,1.3934253662109375,0,0,0.9187500000000001
1.3857598360009433,0,0,1.3024457031249999,0,0,0.9187500000000001
1.387336191997747,0,0,1.3742717529296875,0,0,1.0718750000000001
1.3889246209982957,0,0,1.3718775512695311,0,0,0.6125
1.390552568998828,0,0,1.4891934326171874,0,0,0.6125
1.3921980169980088,0,0,1.446097802734375,0,0,1.0718750000000001
1.3938450940004259,0,0,1.4053963745117186,0,0,0.8421875000000001
1.395421802000783,0,0,1.467645617675781,0,0,0.9187500000000001
1.397009120999428,0,0,1.3335703247070312,0,0,0.6890625
1.3984960509988014,0,0,1.3383587280273437,0,0,0.8421875000000001
1.3999647599994205,0,0,1.3263877197265623,0,0,0.9187500000000001
1.4017128369996499,0,0,1.3263877197265623,0,0,0.5359375000000001
1.403291006998188,0,0,1.4413093994140624,0,0,1.0718750000000001
1.4047620489982364,0,0,1.43652099609375,0,0,0.45937500000000003
1.4062779429987131,0,0,1.3527239379882812,0,0,0.9187500000000001
1.4081065179998404,0,0,1.5729904907226562,0,0,0.6890625
1.4096320409989858,0,0,1.2880804931640624,0,0,0.45937500000000003
1.411925167998561,0,0,1.3311761230468748,0,0,1.0718750000000001
1.4135195609997027,0,0,1.3335703247070312,0,0,0.6890625
1.4151026199979242,0,0,1.446097802734375,0,0,0.8421875000000001
1.4165778850001516,0,0,1.5107412475585937,0,0,0.765625
1.4180943520004803,0,0,1.4867992309570313,0,0,0.6890625
1.4197142630000599,0,0,1.3263877197265623,0,0,0.5359375000000001
1.421280619000754,0,0,1.3168109130859373,0,0,0.5359375000000001
1.422756734998984,0,0,1.3287819213867187,0,0,0.765625
1.4242795909995039,0,0,1.3431471313476562,0,0,0.6890625
1.4258785210004135,0,0,1.4939818359375,0,0,0.765625
1.4274963019997813,0,0,1.4125789794921875,0,0,0.6890625
1.429017713999201,0,0,1.4053963745117186,0,0,0.765625
1.4306026810008916,0,0,1.22583125,0,0,0.765625
1.43214838899803,0,0,1.2785036865234374,0,0,0.6890625
1.4336618009983795,0,0,1.2497732666015624,0,0,0.765625
1.4353478220000397,0,0,1.2785036865234374,0,0,0.6125
1.4369360849996156,0,0,1.455674609375,0,0,0.6125
1.4384748859993124,0,0,1.458068811035156,0,0,1.0718750000000001
1.440025631000026,0,0,1.3527239379882812,0,0,0.8421875000000001
1.4417121890001,0,0,1.2928688964843749,0,0,0.8421875000000001
1.44325698999819,0,0,1.3096283081054687,0,0,0.6125
1.4447239580003952,0,0,1.2976572998046874,0,0,0.8421875000000001
1.446247444000619,0,0,1.3096283081054687,0,0,0.9953125
1.4478379850006604,0,0,1.4053963745117186,0,0,1.3015625000000002
1.4493681929998274,0,0,1.419761584472656,0,0,0.8421875000000001
1.4508607530005975,0,0,1.446097802734375,0,0,0.8421875000000001
1.4524352570006158,0,0,1.484405029296875,0,0,1.0718750000000001
1.4541905189980753,0,0,1.3431471313476562,0,0,0.8421875000000001
1.4557525969976268,0,0,1.37906015625,0,0,0.8421875000000001
1.457213416997547,0,0,1.3096283081054687,0,0,0.765625
1.458762846999889,0,0,1.455674609375,0,0,0.6890625
1.4603159990001586,0,0,1.4867992309570313,0,0,0.5359375000000001
1.461776911997731,0,0,1.429338391113281,0,0,0.9953125
1.4632979720008734,0,0,1.3359645263671873,0,0,0.6890625
1.4648778089976986,0,0,1.2880804931640624,0,0,0.5359375000000001
1.4663569250005821,0,0,1.3215993164062498,0,0,0.765625
1.468051354000636,0,0,1.4006079711914061,0,0,0.6125
1.4698343929994735,0,0,1.465251416015625,0,0,1.0718750000000001
1.4713745820008626,0,0,1.426944189453125,0,0,0.6125
1.4728366609997465,0,0,1.4173673828125,0,0,1.225
1.4743372400007502,0,0,1.5011644409179687,0,0,0.8421875000000001
1.4759362990007503,0,0,1.3718775512695311,0,0,0.8421875000000001
1.4774149149998266,0,0,1.4245499877929686,0,0,0.6890625
1.478912290000153,0,0,1.2497732666015624,0,0,0.6125
1.480454053998983,0,0,1.3287819213867187,0,0,0.9953125
1.4821195019976585,0,0,1.4700398193359374,0,0,0.6125
1.4837438569993537,0,0,1.2761094848632812,0,0,0.765625
1.4852952500004903,0,0,1.4915876342773438,0,0,0.6125
1.4869546240006457,0,0,1.2928688964843749,0,0,0.6890625
1.4886572559989872,0,0,1.2952630981445312,0,0,0.9187500000000001
1.4902847039993503,0,0,1.3024457031249999,0,0,0.765625
1.4921889639990695,0,0,1.35990654296875,0,0,-8.957812500000001
1.4938971519986808,0,0,1.388636962890625,0,0,0.6890625
1.4955199329997413,0,0,1.4820108276367188,0,0,0.8421875000000001
1.4970671230003063,0,0,1.3670891479492187,0,0,0.9953125
1.4989509759980137,0,0,1.3192051147460937,0,0,0.765625
1.5005212209980527,0,0,1.2425906616210938,0,0,0.8421875000000001
1.5022265010011324,0,0,1.3192051147460937,0,0,0.9187500000000001
1.5039394109990099,0,0,1.43652099609375,0,0,0.765625
1.5055751740001142,0,0,1.3263877197265623,0,0,0.5359375000000001
1.5071693259997119,0,0,1.47482822265625,0,0,0.6890625
1.508809791997919,0,0,1.369483349609375,0,0,0.8421875000000001
1.5104122769989772,0,0,1.35990654296875,0,0,0.6890625
1.511948373998166,0,0,1.3814543579101561,0,0,0.6125
1.5136674319983285,0,0,1.2976572998046874,0,0,0.6890625
1.5153521389984235,0,0,1.4125789794921875,0,0,0.6890625
1.5168983660005324,0,0,1.3958195678710936,0,0,0.8421875000000001
1.5184506109981157,0,0,1.5298948608398437,0,0,0.8421875000000001
1.5200814099989657,0,0,1.3455413330078123,0,0,0.8421875000000001
1.5217393950006226,0,0,1.3862427612304686,0,0,0.8421875000000001
1.5233003069988627,0,0,1.3431471313476562,0,0,0.6890625
1.5249214209979982,0,0,1.35990654296875,0,0,0.8421875000000001
1.5265345170009823,0,0,1.4149731811523436,0,0,0.6890625
1.5281081699977221,0,0,1.3670891479492187,0,0,0.8421875000000001
1.5297610620000341,0,0,1.3623007446289062,0,0,-9.1109375
1.5314376759997685,0,0,1.3527239379882812,0,0,0.9187500000000001
1.5329846059976262,0,0,1.2713210815429687,0,0,0.9953125
1.5348091630003182,0,0,1.3048399047851562,0,0,0.8421875000000001
1.5366207209990534,0,0,1.2641384765625,0,0,0.765625
1.538307963997795,0,0,1.5107412475585937,0,0,0.6890625
1.5399067270009255,0,0,1.350329736328125,0,0,0.8421875000000001
1.5415698789984162,0,0,1.2856862915039062,0,0,0.765625
1.5431163829998695,0,0,1.3311761230468748,0,0,0.6890625
1.5447790709986293,0,0,1.4221557861328125,0,0,0.9953125
1.5465932580009394,0,0,1.254561669921875,0,0,0.6890625
1.548637053998391,0,0,1.4532804077148436,0,0,0.6125
1.5506735349990777,0,0,1.2785036865234374,0,0,0.9187500000000001
1.5525167220002913,0,0,1.2761094848632812,0,0,0.9953125
1.554261001998384,0,0,1.2761094848632812,0,0,0.9187500000000001
1.5558697470005427,0,0,1.3575123413085937,0,0,0.8421875000000001
1.5575783050007885,0,0,1.3479355346679687,0,0,0.765625
1.5595478789982735,0,0,1.426944189453125,0,0,0.30625
1.5613320480006223,0,0,1.388636962890625,0,0,0.6890625
1.5634676209992904,0,0,1.22583125,0,0,0.765625
1.5652227530008531,0,0,1.2138602416992186,0,0,0.5359375000000001
1.5668606639992504,0,0,1.3287819213867187,0,0,0.6890625
1.5690074589983851,0,0,1.3479355346679687,0,0,0.9187500000000001
1.5707466280000517,0,0,1.4820108276367188,0,0,0.6890625
1.5723419280002418,0,0,1.4987702392578124,0,0,0.9953125
1.5739381719977246,0,0,1.3862427612304686,0,0,0.8421875000000001
1.5757501000007323,0,0,1.3144167114257812,0,0,-8.881250000000001
1.5774032139997871,0,0,1.3048399047851562,0,0,0.8421875000000001
1.5790093110008456,0,0,1.3431471313476562,0,0,0.765625
1.5810232180010644,0,0,1.4508862060546874,0,0,0.9953125
1.5825811850008904,0,0,1.4125789794921875,0,0,0.6890625
1.5841710780005087,0,0,1.426944189453125,0,0,0.765625
1.5858551179990172,0,0,1.2641384765625,0,0,0.6890625
1.5875468240010377,0,0,1.2928688964843749,0,0,0.6890625
1.5891582170006586,0,0,1.2832920898437499,0,0,0.8421875000000001
1.590806665000855,0,0,1.3623007446289062,0,0,0.765625
1.5925551299988001,0,0,1.4101847778320311,0,0,0.6125
1.594257392000145,0,0,1.3862427612304686,0,0,0.8421875000000001
1.5959314690007886,0,0,1.4413093994140624,0,0,0.45937500000000003
1.5975466769996274,0,0,1.3455413330078123,0,0,0.765625
1.5993896410000161,0,0,1.2928688964843749,0,0,0.9187500000000001
1.6011215319995244,0,0,1.2641384765625,0,0,0.765625
1.602713757998572,0,0,1.1827356201171875,0,0,1.1484375
1.6047640729993873,0,0,1.3814543579101561,0,0,0.765625
1.6065208340005483,0,0,1.5107412475585937,0,0,0.765625
1.6080688389993156,0,0,1.3958195678710936,0,0,0.9953125
1.610274152000784,0,0,1.5083470458984374,0,0,0.9187500000000001
1.6120487650005089,0,0,1.407790576171875,0,0,0.8421875000000001
1.613595732000249,0,0,1.2928688964843749,0,0,0.9187500000000001
1.6151954019987897,0,0,1.3958195678710936,0,0,0.5359375000000001
1.6178411369983223,0,0,1.446097802734375,0,0,0.30625
1.619636694998917,0,0,1.4317325927734375,0,0,0.765625
1.6217096199980006,0,0,1.4700398193359374,0,0,0.8421875000000001
1.6233469199978572,0,0,1.3215993164062498,0,0,0.5359375000000001
1.625341530998412,0,0,1.4006079711914061,0,0,0.5359375000000001
1.627811878999637,0,0,1.3407529296874998,0,0,0.9187500000000001
1.6294830849983555,0,0,1.4963760375976562,0,0,0.6890625
1.6310775710007874,0,0,1.2569558715820313,0,0,0.8421875000000001
1.6325970199977746,0,0,1.35990654296875,0,0,0.9187500000000001
1.6341360240003269,0,0,1.3335703247070312,0,0,0.9187500000000001
1.6359355809981935,0,0,1.4125789794921875,0,0,0.9953125
1.6374919189984212,0,0,1.465251416015625,0,0,0.6125
1.6389716459998454,0,0,1.4245499877929686,0,0,0.8421875000000001
1.6405278540005384,0,0,1.5083470458984374,0,0,0.765625
1.6420924499980174,0,0,1.2832920898437499,0,0,0.8421875000000001
1.6435568630004127,0,0,1.2401964599609374,0,0,0.9187500000000001
1.6450361450006312,0,0,1.3383587280273437,0,0,0.8421875000000001
1.646662129998731,0,0,1.2425906616210938,0,0,0.8421875000000001
1.64831717099878,0,0,1.350329736328125,0,0,0.45937500000000003
1.649866433999705,0,0,1.3455413330078123,0,0,0.8421875000000001
1.6514112900003965,0,0,1.4772224243164063,0,0,0.6890625
1.6530063869977312,0,0,1.2617442749023438,0,0,0.765625
1.6546986299981654,0,0,1.3359645263671873,0,0,0.9187500000000001
1.6562416159977147,0,0,1.3670891479492187,0,0,0.8421875000000001
1.6580550069993478,0,0,1.5011644409179687,0,0,0.765625
1.6596643249977205,0,0,1.6041151123046875,0,0,0.8421875000000001
1.6611339779992704,0,0,1.3718775512695311,0,0,0.9953125
1.6626030019979225,0,0,1.407790576171875,0,0,-9.1875
1.6643536150004365,0,0,1.2761094848632812,0,0,0.765625
1.6660669880002388,0,0,1.3096283081054687,0,0,0.9187500000000001
1.6676351399983105,0,0,1.2713210815429687,0,0,0.3828125
1.6693516249979439,0,0,1.5035586425781249,0,0,0.765625
1.6709889980011212,0,0,1.5011644409179687,0,0,0.6125
1.672559390997776,0,0,1.2593500732421874,0,0,0.8421875000000001
1.6740616739989491,0,0,1.35990654296875,0,0,0.765625
1.6755519559992536,0,0,1.3551181396484375,0,0,0.9187500000000001
1.6773039399995469,0,0,1.4413093994140624,0,0,0.765625
1.6789245920008398,0,0,1.3048399047851562,0,0,0.6125
1.680497188001027,0,0,1.426944189453125,0,0,0.9187500000000001
1.6821713030003593,0,0,1.5179238525390624,0,0,0.765625
1.6838917679997394,0,0,1.4173673828125,0,0,0.8421875000000001
1.6854988829982176,0,0,1.4891934326171874,0,0,0.8421875000000001
1.6869742950002546,0,0,1.2689268798828124,0,0,0.6125
1.6884302260004915,0,0,1.3407529296874998,0,0,0.9187500000000001
1.6899228049987869,0,0,1.2904746948242187,0,0,0.6890625
1.691484438997577,0,0,1.5155296508789062,0,0,0.9187500000000001
1.6930210909995367,0,0,1.419761584472656,0,0,0.45937500000000003
1.6945781879985589,0,0,1.429338391113281,0,0,1.1484375
1.6960973409986764,0,0,1.3910311645507811,0,0,0.6890625
1.6977399370007333,0,0,1.3383587280273437,0,0,0.9187500000000001
1.6994680319985491,0,0,1.2785036865234374,0,0,0.8421875000000001
1.7010974980003084,0,0,1.2713210815429687,0,0,0.5359375000000001
1.7028222039989487,0,0,1.5179238525390624,0,0,0.45937500000000003
1.7052321080009278,0,0,1.4341267944335936,0,0,0.9187500000000001
1.7068545010006346,0,0,1.4006079711914061,0,0,0.765625
1.708461559999705,0,0,1.2521674682617188,0,0,0.765625
1.7099944900000992,0,0,1.2737152832031249,0,0,0.6890625
1.7115154579987575,0,0,1.3287819213867187,0,0,0.5359375000000001
1.7131772379980248,0,0,1.43652099609375,0,0,1.0718750000000001
1.7147782239990192,0,0,1.4101847778320311,0,0,0.3828125
1.7162516549979046,0,0,1.2952630981445312,0,0,0.8421875000000001
1.7178141399999731,0,0,1.426944189453125,0,0,0.6890625
1.7195293459990353,0,0,1.2785036865234374,0,0,0.9953125
1.7210738879985001,0,0,1.35990654296875,0,0,0.8421875000000001
1.7226291139995737,0,0,1.4820108276367188,0,0,0.8421875000000001
1.7241669520008145,0,0,1.2713210815429687,0,0,1.1484375
1.7257428819975758,0,0,1.4053963745117186,0,0,0.5359375000000001
1.7273806630000763,0,0,1.2617442749023438,0,0,1.1484375
1.728963888999715,0,0,1.37906015625,0,0,0.6125
1.7304694679987733,0,0,1.3766659545898436,0,0,0.9187500000000001
1.7320655269977578,0,0,1.3479355346679687,0,0,0.9187500000000001
1.7336372899990238,0,0,1.2952630981445312,0,0,0.9953125
1.7351288690006186,0,0,1.35990654296875,0,0,0.6890625
1.7365936700007296,0,0,1.5275006591796874,0,0,0.3828125
1.738207415000943,0,0,1.3838485595703125,0,0,0.9953125
1.7398362329986412,0,0,1.3742717529296875,0,0,0.6125
1.7414138479980465,0,0,1.37906015625,0,0,0.8421875000000001
1.742963240998506,0,0,1.37906015625,0,0,0.9953125
1.7445060049976746,0,0,1.4437036010742186,0,0,0.6125
1.7460624529994675,0,0,1.2832920898437499,0,0,0.8421875000000001
1.747656104998896,0,0,1.4915876342773438,0,0,0.6125
1.7492459610002697,0,0,1.5298948608398437,0,0,0.9187500000000001
1.7508046869988902,0,0,1.3742717529296875,0,0,0.6890625
1.7522832850008854,0,0,1.3455413330078123,0,0,0.6890625
1.7537526050000452,0,0,1.4245499877929686,0,0,0.765625
1.755400385998655,0,0,1.3670891479492187,0,0,0.6890625
1.75698235299933,0,0,1.3527239379882812,0,0,0.6125
1.7584566910009016,0,0,1.4628572143554686,0,0,0.9187500000000001
1.7599639359978028,0,0,1.4149731811523436,0,0,0.9953125
1.7615210139992996,0,0,1.2785036865234374,0,0,0.9187500000000001
1.7630452220000734,0,0,1.3192051147460937,0,0,0.8421875000000001
1.7645058759990206,0,0,1.3311761230468748,0,0,0.9187500000000001
1.7660933609986387,0,0,1.3359645263671873,0,0,0.8421875000000001
1.7678004009976576,0,0,1.2904746948242187,0,0,0.6890625
1.7693322939994687,0,0,1.22583125,0,0,0.9187500000000001
1.7708051879999402,0,0,1.4724340209960938,0,0,0.8421875000000001
1.7723170069984917,0,0,1.4173673828125,0,0,0.8421875000000001
1.7740322509998805,0,0,1.3575123413085937,0,0,1.0718750000000001
1.7755726249997679,0,0,1.1444283935546875,0,0,0.8421875000000001
1.7771753699998953,0,0,1.2473790649414063,0,0,0.9187500000000001
1.7787320780007576,0,0,1.3431471313476562,0,0,0.3828125
1.7803012109980045,0,0,1.4724340209960938,0,0,0.765625
1.781818994000787,0,0,1.4820108276367188,0,0,0.6125
1.7832886840005813,0,0,1.4006079711914061,0,0,0.9953125
1.785130296000716,0,0,1.3551181396484375,0,0,0.8421875000000001
1.786763965999853,0,0,1.2665326782226562,0,0,0.8421875000000001
1.788270303997706,0,0,1.2593500732421874,0,0,0.6890625
1.7898767900005623,0,0,1.2856862915039062,0,0,0.5359375000000001
1.7914502380008344,0,0,1.4508862060546874,0,0,0.9953125
1.7930180939983984,0,0,1.3718775512695311,0,0,0.8421875000000001
1.794573635001143,0,0,1.3934253662109375,0,0,0.765625
1.796115083998302,0,0,1.2808978881835937,0,0,1.0718750000000001
1.7975819960010995,0,0,1.3359645263671873,0,0,0.9187500000000001
1.7990886490006233,0,0,1.3383587280273437,0,0,0.9187500000000001
1.800709448998532,0,0,1.3000515014648437,0,0,0.6890625
1.8021837870001036,0,0,1.3766659545898436,0,0,1.1484375
1.8039246230000572,0,0,1.419761584472656,0,0,0.9187500000000001
1.8055976440009545,0,0,1.2641384765625,0,0,0.8421875000000001
1.8072201289978693,0,0,1.4006079711914061,0,0,0.9187500000000001
1.8087694300011208,0,0,1.3048399047851562,0,0,1.1484375
1.810276934000285,0,0,1.3192051147460937,0,0,2.0671875
1.8119520119980734,0,0,1.3359645263671873,0,0,0.45937500000000003
1.813553812000464,0,0,1.369483349609375,0,0,0.8421875000000001
1.8150330940006825,0,0,1.3646949462890625,0,0,0.6890625
1.8168699849993573,0,0,1.4939818359375,0,0,0.9187500000000001
1.8184200260002399,0,0,1.3335703247070312,0,0,0.765625
1.8201162139994267,0,0,1.2210428466796874,0,0,0.6125
1.8218681420003122,0,0,1.3072341064453123,0,0,0.765625
1.8234164979985508,0,0,1.2425906616210938,0,0,0.765625
1.824879559000692,0,0,1.43652099609375,0,0,0.765625
1.8264181929989718,0,0,1.5203180541992187,0,0,0.9187500000000001
1.8282258239996736,0,0,1.4030021728515625,0,0,0.6125
1.8297716060005769,0,0,1.2713210815429687,0,0,0.8421875000000001
1.8312779439984297,0,0,1.388636962890625,0,0,0.5359375000000001
1.832821263000369,0,0,1.3455413330078123,0,0,0.765625
1.8343902669985255,0,0,1.2378022583007813,0,0,0.6890625
1.8358544759976212,0,0,1.4101847778320311,0,0,1.0718750000000001
1.8373660359975474,0,0,1.5131354492187499,0,0,0.9187500000000001
1.8390491869977268,0,0,1.4437036010742186,0,0,0.9187500000000001
1.8409247439994942,0,0,1.2569558715820313,0,0,0.765625
1.8424360819990397,0,0,1.3287819213867187,0,0,0.6890625
1.8441380109979946,0,0,1.3814543579101561,0,0,0.9953125
1.8456143670009624,0,0,1.3072341064453123,0,0,0.3828125
1.8472663709981134,0,0,1.35990654296875,0,0,0.765625
1.8490275769981963,0,0,1.448492004394531,0,0,0.9187500000000001
1.850523617998988,0,0,1.446097802734375,0,0,0.6890625
1.8519860859996697,0,0,1.3239935180664062,0,0,0.9953125
1.8535284429999592,0,0,1.2761094848632812,0,0,0.8421875000000001
1.8553128329986066,0,0,1.35990654296875,0,0,0.765625
1.8569625029995223,0,0,1.3431471313476562,0,0,0.6125
1.8585180820009555,0,0,1.47482822265625,0,0,0.9187500000000001
1.860046179001074,0,0,1.3718775512695311,0,0,0.9187500000000001
1.8617796629987424,0,0,1.3670891479492187,0,0,0.6125
1.8645916739988024,0,0,1.3455413330078123,0,0,0.6890625
1.8664766750007402,0,0,1.3766659545898436,0,0,0.9187500000000001
1.868076586000825,0,0,1.3623007446289062,0,0,0.6125
1.8711566689999017,0,0,1.426944189453125,0,0,0.9187500000000001
1.8727378949988633,0,0,1.3670891479492187,0,0,0.765625
1.8742140110007313,0,0,1.3048399047851562,0,0,0.8421875000000001
1.875754811000661,0,0,1.37906015625,0,0,0.6890625
1.8773455740010832,0,0,1.3000515014648437,0,0,0.6890625
1.8789457819984818,0,0,1.2832920898437499,0,0,0.6890625
1.8805190450002556,0,0,1.4341267944335936,0,0,0.6890625
1.8821276779999607,0,0,1.35990654296875,0,0,0.8421875000000001
1.8836633309983881,0,0,1.3934253662109375,0,0,0.6125
1.8851309290002973,0,0,1.2234370483398436,0,0,0.765625
1.8867523949993483,0,0,1.2617442749023438,0,0,0.765625
1.8883528619990102,0,0,1.2641384765625,0,0,0.8421875000000001
1.88984836599775,0,0,1.2330138549804688,0,0,0.3828125
1.8913725559978047,0,0,1.4149731811523436,0,0,0.8421875000000001
1.8929470049988595,0,0,1.4053963745117186,0,0,0.8421875000000001
1.8945178969988774,0,0,1.4245499877929686,0,0,0.6890625
1.8960635869989346,0,0,1.3431471313476562,0,0,0.8421875000000001
1.8976709790003952,0,0,1.4532804077148436,0,0,0.6890625
1.899336685997696,0,0,1.3000515014648437,0,0,2.296875
1.9008611350000137,0,0,1.216254443359375,0,0,0.5359375000000001
1.9025085459979891,0,0,1.4173673828125,0,0,0.9953125
1.9040792349987896,0,0,1.3144167114257812,0,0,0.765625
1.9055462030009949,0,0,1.2952630981445312,0,0,0.6890625
1.9070107269981236,0,0,1.3287819213867187,0,0,0.9953125
1.908672599998681,0,0,1.350329736328125,0,0,0.6890625
1.9102430669991008,0,0,1.197100830078125,0,0,0.6125
1.9117183499984094,0,0,1.2401964599609374,0,0,0.5359375000000001
1.9132344280005782,0,0,1.4341267944335936,0,0,0.9187500000000001
1.914841116999014,0,0,1.3958195678710936,0,0,0.6125
1.9163532329985173,0,0,1.2521674682617188,0,0,0.8421875000000001
1.917818478999834,0,0,1.2904746948242187,0,0,0.8421875000000001
1.9201832350008772,0,0,1.2880804931640624,0,0,0.765625
1.9219832729977497,0,0,1.3814543579101561,0,0,0.765625
1.923708776001149,0,0,1.350329736328125,0,0,0.8421875000000001
1.9255167960000108,0,0,1.43652099609375,0,0,0.45937500000000003
1.927158132999466,0,0,1.4030021728515625,0,0,1.1484375
1.9287563409998256,0,0,1.4006079711914061,0,0,0.6890625
1.9302366970005096,0,0,1.3120225097656248,0,0,0.765625
1.9317025359996478,0,0,1.3527239379882812,0,0,0.8421875000000001
1.9332099109997216,0,0,1.4628572143554686,0,0,0.765625
1.935122078000859,0,0,1.4149731811523436,0,0,-9.034375
1.9368012849990919,0,0,1.467645617675781,0,0,0.6890625
1.9382982149982126,0,0,1.4437036010742186,0,0,1.1484375
1.940190586999961,0,0,1.3670891479492187,0,0,0.8421875000000001
1.9417748679989018,0,0,1.3287819213867187,0,0,0.9187500000000001
1.9432352250005351,0,0,1.2761094848632812,0,0,0.765625
1.944771229998878,0,0,1.37906015625,0,0,0.765625
1.9463086600007955,0,0,1.43652099609375,0,0,1.1484375
1.9479231639998034,0,0,1.3048399047851562,0,0,0.8421875000000001
1.9495131859985122,0,0,1.2761094848632812,0,0,1.1484375
1.9511562999978196,0,0,1.3120225097656248,0,0,0.765625
1.952690600999631,0,0,1.2593500732421874,0,0,0.765625
1.9545929349988,0,0,1.3575123413085937,0,0,0.6890625
1.956366270998842,0,0,1.3287819213867187,0,0,0.9953125
1.9579231639982027,0,0,1.448492004394531,0,0,0.765625
1.9594263719991432,0,0,1.4053963745117186,0,0,0.765625
1.9609414689984987,0,0,1.465251416015625,0,0,0.8421875000000001
1.9624959920001857,0,0,1.43652099609375,0,0,0.6890625
1.9640971250009898,0,0,1.3311761230468748,0,0,0.6125
1.965728480998223,0,0,1.2976572998046874,0,0,0.9187500000000001
1.9673986319976393,0,0,1.3263877197265623,0,0,0.6890625
1.9689893020004092,0,0,1.4053963745117186,0,0,0.6890625
1.970592305999162,0,0,1.5155296508789062,0,0,0.8421875000000001
1.9724208259976876,0,0,1.4221557861328125,0,0,0.5359375000000001
1.974122403000365,0,0,1.3575123413085937,0,0,0.6125
1.975812627999403,0,0,1.3024457031249999,0,0,0.9187500000000001
1.977482501999475,0,0,1.5131354492187499,0,0,0.6125
1.9793902620003792,0,0,1.4604630126953124,0,0,0.9187500000000001
1.9810618949995842,0,0,1.446097802734375,0,0,0.6890625
1.9827420090005035,0,0,1.3910311645507811,0,0,0.9187500000000001
1.9844814370007953,0,0,1.3958195678710936,0,0,0.6125
1.9860700709978119,0,0,1.4173673828125,0,0,0.765625
1.9877500740003597,0,0,1.458068811035156,0,0,0.8421875000000001
1.989524464999704,0,0,1.2473790649414063,0,0,0.45937500000000003
1.9912113190002856,0,0,1.4772224243164063,0,0,0.6890625
1.992996729000879,0,0,1.388636962890625,0,0,0.765625
1.994610529000056,0,0,1.4628572143554686,0,0,0.765625
1.996180070000264,0,0,1.2880804931640624,0,0,0.9187500000000001
1.9978195359981328,0,0,1.2928688964843749,0,0,0.6125
1.9997771109992755,0,0,1.3192051147460937,0,0,0.8421875000000001
2.0020119969994994,0,0,1.4341267944335936,0,0,0.9187500000000001
2.003794722000748,0,0,1.4149731811523436,0,0,0.6125
2.0056600930001878,0,0,1.4508862060546874,0,0,0.8421875000000001
2.007837887998903,0,0,1.3718775512695311,0,0,0.6890625
2.009700481998152,0,0,1.2808978881835937,0,0,0.8421875000000001
2.011253894001129,0,0,1.3192051147460937,0,0,0.3828125
2.0131866169977,0,0,1.47482822265625,0,0,1.225
2.0148823790004826,0,0,1.407790576171875,0,0,0.9953125
2.0164338089998637,0,0,1.4149731811523436,0,0,0.9187500000000001
2.017983090998314,0,0,1.2689268798828124,0,0,0.6125
2.019709870997758,0,0,1.369483349609375,0,0,0.765625
2.0213199669997266,0,0,1.3239935180664062,0,0,1.0718750000000001
2.022867601001053,0,0,1.388636962890625,0,0,0.765625
2.024839860998327,0,0,1.4915876342773438,0,0,0.45937500000000003
2.0265078819975315,0,0,1.3479355346679687,0,0,0.9953125
2.028064756999811,0,0,1.4724340209960938,0,0,0.5359375000000001
2.03003418300068,0,0,1.3048399047851562,0,0,0.9187500000000001
2.0320667939995474,0,0,1.3431471313476562,0,0,1.0718750000000001
2.033668112999294,0,0,1.4604630126953124,0,0,0.6125
2.035654298000736,0,0,1.4173673828125,0,0,0.5359375000000001
2.0373068199987756,0,0,1.4006079711914061,0,0,0.9953125
2.0393586159989354,0,0,1.4867992309570313,0,0,0.6125
2.0411006920003274,0,0,1.3407529296874998,0,0,1.1484375
2.042729770000733,0,0,1.467645617675781,0,0,0.6890625
2.0442693479999434,0,0,1.35990654296875,0,0,0.9953125
2.0458030009976937,0,0,1.4604630126953124,0,0,0.8421875000000001
2.0477236679980706,0,0,1.3934253662109375,0,0,0.765625
2.0495447069988586,0,0,1.2569558715820313,0,0,0.8421875000000001
2.0511281740000413,0,0,1.3359645263671873,0,0,0.8421875000000001
2.0530550260009477,0,0,1.35990654296875,0,0,0.45937500000000003
2.054692232999514,0,0,1.2330138549804688,0,0,0.6890625
2.056244588999107,0,0,1.3024457031249999,0,0,0.9953125
2.0577732599995215,0,0,1.4604630126953124,0,0,0.6125
2.059388041998318,0,0,1.5107412475585937,0,0,0.9187500000000001
2.0613830420006707,0,0,1.4628572143554686,0,0,0.45937500000000003
2.0630883039993932,0,0,1.2832920898437499,0,0,0.6890625
2.064689640999859,0,0,1.3527239379882812,0,0,0.8421875000000001
2.066457550998166,0,0,1.2617442749023438,0,0,0.6890625
2.06833612599803,0,0,1.419761584472656,0,0,0.8421875000000001
2.0700397949985927,0,0,1.465251416015625,0,0,0.5359375000000001
2.0717722789995605,0,0,1.3958195678710936,0,0,0.8421875000000001
2.073325024000951,0,0,1.2689268798828124,0,0,0.9187500000000001
2.074862139998004,0,0,1.254561669921875,0,0,0.6890625
2.076588920001086,0,0,1.2282254516601563,0,0,0.6890625
2.078252867999254,0,0,1.3527239379882812,0,0,0.5359375000000001
2.079958573998738,0,0,1.438915197753906,0,0,0.6890625
2.0815999660007947,0,0,1.4891934326171874,0,0,0.765625
2.0833741540009214,0,0,1.5227122558593749,0,0,0.5359375000000001
2.084875046999514,0,0,1.2976572998046874,0,0,0.765625
2.0863857740005187,0,0,1.4006079711914061,0,0,0.6125
2.0882683679992624,0,0,1.4173673828125,0,0,0.9187500000000001
2.0899018710006203,0,0,1.37906015625,0,0,0.8421875000000001
2.0914163939996797,0,0,1.5610194824218748,0,0,0.3828125
2.0930931010007043,0,0,1.455674609375,0,0,0.765625
2.0945998649985995,0,0,1.3910311645507811,0,0,0.5359375000000001
2.0960612220005714,0,0,1.3144167114257812,0,0,0.6890625
2.0976822249976976,0,0,1.3551181396484375,0,0,0.6125
2.0994595240008493,0,0,1.2497732666015624,0,0,0.9187500000000001
2.1010600269983115,0,0,1.3383587280273437,0,0,1.0718750000000001
2.102765659998113,0,0,1.455674609375,0,0,0.5359375000000001
2.10439034799856,0,0,1.5275006591796874,0,0,0.9187500000000001
2.106061017999309,0,0,1.369483349609375,0,0,0.6125
2.107757595000294,0,0,1.3934253662109375,0,0,0.6125
2.1093947469998966,0,0,1.2952630981445312,0,0,0.8421875000000001
2.1110106019987143,0,0,1.3383587280273437,0,0,0.8421875000000001
2.1126714019992505,0,0,1.3096283081054687,0,0,0.9187500000000001
2.114333182998962,0,0,1.4437036010742186,0,0,1.0718750000000001
2.1158500390010886,0,0,1.4101847778320311,0,0,0.9187500000000001
2.117352598997968,0,0,1.4245499877929686,0,0,0.9187500000000001
2.1190683979984897,0,0,1.3096283081054687,0,0,0.6890625
2.120537198999955,0,0,1.3575123413085937,0,0,0.6890625
2.122023223000724,0,0,1.3407529296874998,0,0,0.5359375000000001
2.123575207999238,0,0,1.458068811035156,0,0,0.765625
2.12509887899796,0,0,1.4628572143554686,0,0,0.6890625
2.126566439997987,0,0,1.458068811035156,0,0,1.1484375
2.128064518998144,0,0,1.3239935180664062,0,0,0.6125
2.129702706999524,0,0,1.3359645263671873,0,0,0.9187500000000001
2.131221840998478,0,0,1.3527239379882812,0,0,0.9953125
2.1326814210005978,0,0,1.4820108276367188,0,0,0.6890625
2.1342242209975666,0,0,1.3910311645507811,0,0,0.765625
2.135902113001066,0,0,1.4724340209960938,0,0,0.5359375000000001
2.137512080000306,0,0,1.4867992309570313,0,0,0.9187500000000001
2.1392046379987733,0,0,1.4173673828125,0,0,0.6890625
2.140758735000418,0,0,1.3072341064453123,0,0,0.9953125
2.1423085169990372,0,0,1.3838485595703125,0,0,0.765625
2.143787966000673,0,0,1.388636962890625,0,0,0.8421875000000001
2.1452429339988157,0,0,1.3215993164062498,0,0,0.8421875000000001
2.1467918640009884,0,0,1.4532804077148436,0,0,0.765625
2.14832027599914,0,0,1.4413093994140624,0,0,0.6890625
2.149782595999568,0,0,1.4963760375976562,0,0,0.6125
2.151298766999389,0,0,1.3479355346679687,0,0,0.765625
2.1529548809994594,0,0,1.3048399047851562,0,0,0.6890625
2.1544247569981962,0,0,1.2330138549804688,0,0,0.765625
2.1558814470008656,0,0,1.2904746948242187,0,0,0.5359375000000001
2.1577287260006415,0,0,1.4006079711914061,0,0,0.6125
2.159454469998309,0,0,1.37906015625,0,0,1.225
2.161492340001132,0,0,1.4772224243164063,0,0,0.6890625
2.163020066000172,0,0,1.3120225097656248,0,0,1.0718750000000001
2.1647265879983024,0,0,1.3168109130859373,0,0,0.8421875000000001
2.166221592000511,0,0,1.369483349609375,0,0,1.1484375
2.1676767639983154,0,0,1.2928688964843749,0,0,0.9187500000000001
2.169188416999532,0,0,1.4963760375976562,0,0,0.5359375000000001
2.1709085859984043,0,0,1.3168109130859373,0,0,0.8421875000000001
2.1723770540011174,0,0,1.458068811035156,0,0,0.6890625
2.173831911000889,0,0,1.2761094848632812,0,0,0.6890625
2.1753324339988467,0,0,1.3168109130859373,0,0,1.1484375
2.1770107699994696,0,0,1.3527239379882812,0,0,0.6125
2.1785423859982984,0,0,1.2617442749023438,0,0,0.6890625
2.180009076000715,0,0,1.426944189453125,0,0,0.9187500000000001
2.181585210000776,0,0,1.429338391113281,0,0,0.8421875000000001
2.1831255659999442,0,0,1.458068811035156,0,0,0.6890625
2.184591070999886,0,0,1.458068811035156,0,0,0.9953125
2.1861063719989033,0,0,1.2856862915039062,0,0,0.8421875000000001
2.1876572279979882,0,0,1.3455413330078123,0,0,0.9187500000000001
2.1891751949988247,0,0,1.3359645263671873,0,0,0.8421875000000001
2.1906486629995925,0,0,1.4796166259765624,0,0,0.9187500000000001
2.192108463998011,0,0,1.4317325927734375,0,0,0.6125
2.194200260000798,0,0,1.465251416015625,0,0,1.0718750000000001
2.195789503999549,0,0,1.2976572998046874,0,0,0.9187500000000001
2.197258675998455,0,0,1.4245499877929686,0,0,0.5359375000000001
2.1990996220010857,0,0,1.4245499877929686,0,0,0.765625
2.2010539559996687,0,0,1.3838485595703125,0,0,0.9187500000000001
2.2027188850006496,0,0,1.426944189453125,0,0,0.6890625
2.2044333509984426,0,0,1.4053963745117186,0,0,0.9953125
2.2061906859999,0,0,1.35990654296875,0,0,0.9187500000000001
2.207783670997742,0,0,1.235408056640625,0,0,0.8421875000000001
2.209278768998047,0,0,1.3239935180664062,0,0,0.6890625
2.211146400000871,0,0,1.22583125,0,0,0.6125
2.2128019769988896,0,0,1.3048399047851562,0,0,0.6890625
2.2143201299986686,0,0,1.4125789794921875,0,0,0.765625
2.2161678160009615,0,0,1.3910311645507811,0,0,0.765625
2.217888856001082,0,0,1.407790576171875,0,0,1.0718750000000001
2.219440526998369,0,0,1.5275006591796874,0,0,0.6125
2.220911920998333,0,0,1.4101847778320311,0,0,0.765625
2.222473646997969,0,0,1.2856862915039062,0,0,0.6890625
2.2241944829984277,0,0,1.3958195678710936,0,0,0.6890625
2.2257393389991194,0,0,1.3742717529296875,0,0,0.8421875000000001
2.2272559359989827,0,0,1.4867992309570313,0,0,0.6890625
2.2288061619983637,0,0,1.484405029296875,0,0,0.9953125
2.230494072999136,0,0,1.3239935180664062,0,0,0.8421875000000001
2.2319698370010883,0,0,1.3120225097656248,0,0,0.6890625
2.2334849529979692,0,0,1.3670891479492187,0,0,0.765625
2.235705135997705,0,0,1.5179238525390624,0,0,0.6125
2.237429267999687,0,0,1.2737152832031249,0,0,0.765625
2.238950383998599,0,0,1.458068811035156,0,0,1.990625
2.240535925000586,0,0,1.3287819213867187,0,0,0.9187500000000001
2.2421385950001422,0,0,1.4006079711914061,0,0,0.8421875000000001
2.2436051919976308,0,0,1.3335703247070312,0,0,0.9953125
2.245476989999588,0,0,1.2473790649414063,0,0,0.765625
2.2471736410006997,0,0,1.4053963745117186,0,0,0.765625
2.248725885998283,0,0,1.467645617675781,0,0,0.8421875000000001
2.250200001999474,0,0,1.43652099609375,0,0,1.0718750000000001
2.252391334001004,0,0,1.484405029296875,0,0,0.6125
2.2539412080004695,0,0,1.2689268798828124,0,0,0.9187500000000001
2.2555248600001505,0,0,1.3144167114257812,0,0,0.6125
2.2571000309981173,0,0,1.3838485595703125,0,0,0.765625
2.2587210339988815,0,0,1.4724340209960938,0,0,0.6890625
2.260249186998408,0,0,1.3575123413085937,0,0,0.6890625
2.261838135000289,0,0,1.3311761230468748,0,0,0.9187500000000001
2.2634034359980433,0,0,1.2665326782226562,0,0,0.6890625
2.264868292000756,0,0,1.407790576171875,0,0,0.9953125
2.2663845009992656,0,0,1.369483349609375,0,0,0.6125
2.2682014839992917,0,0,1.4820108276367188,0,0,1.225
2.2697579320010846,0,0,1.4508862060546874,0,0,0.9187500000000001
2.2713243619982677,0,0,1.4628572143554686,0,0,0.6890625
2.273207956000988,0,0,1.4413093994140624,0,0,0.8421875000000001
2.274773997000011,0,0,1.3000515014648437,0,0,0.6890625
2.2762415949982824,0,0,1.3527239379882812,0,0,0.9953125
2.277698525998858,0,0,1.2785036865234374,0,0,0.765625
2.279214714999398,0,0,1.3958195678710936,0,0,1.0718750000000001
2.2807956819997344,0,0,1.426944189453125,0,0,0.6890625
2.2826735349990486,0,0,1.37906015625,0,0,0.765625
2.284242835998157,0,0,1.3072341064453123,0,0,0.9953125
2.2858301169981132,0,0,1.3359645263671873,0,0,0.5359375000000001
2.287656488999346,0,0,1.3359645263671873,0,0,0.765625
2.2892992890010646,0,0,1.235408056640625,0,0,0.45937500000000003
2.2908828849977,0,0,1.438915197753906,0,0,0.6890625
2.2924481669979286,0,0,1.5203180541992187,0,0,1.1484375
2.2943289459981315,0,0,1.465251416015625,0,0,0.6890625
2.295909190997918,0,0,1.3646949462890625,0,0,0.765625
2.29752986099993,0,0,1.3479355346679687,0,0,0.8421875000000001
2.2990868279994174,0,0,1.4125789794921875,0,0,0.45937500000000003
2.3012089939984435,0,0,1.5155296508789062,0,0,0.8421875000000001
2.3031714569988253,0,0,1.407790576171875,0,0,0.6890625
2.3049179230001755,0,0,1.3862427612304686,0,0,0.6890625
2.306647591998626,0,0,1.2425906616210938,0,0,0.765625
2.3084295009975904,0,0,1.254561669921875,0,0,0.6890625
2.310055153000576,0,0,1.3024457031249999,0,0,1.0718750000000001
2.311595250001119,0,0,1.3646949462890625,0,0,0.9187500000000001
2.3130603469980997,0,0,1.47482822265625,0,0,0.45937500000000003
2.3150942169995687,0,0,1.4101847778320311,0,0,0.8421875000000001
2.3166566469990357,0,0,1.4700398193359374,0,0,0.6890625
2.318136466998112,0,0,1.3215993164062498,0,0,0.8421875000000001
2.3196875270004966,0,0,1.3527239379882812,0,0,0.9187500000000001
2.3212183830000868,0,0,1.2569558715820313,0,0,0.8421875000000001
2.3226917579995643,0,0,1.2641384765625,0,0,0.5359375000000001
2.3241511339983845,0,0,1.5179238525390624,0,0,0.45937500000000003
2.3262298369991186,0,0,1.4245499877929686,0,0,0.9953125
2.3277759709999373,0,0,1.4030021728515625,0,0,0.765625
2.3292394939999213,0,0,1.2330138549804688,0,0,0.765625
2.3310843109975394,0,0,1.3287819213867187,0,0,0.765625
2.3326938879981753,0,0,1.2497732666015624,0,0,0.45937500000000003
2.3342512999988685,0,0,1.3934253662109375,0,0,1.0718750000000001
2.3359734320001735,0,0,1.43652099609375,0,0,0.8421875000000001
2.3375287509988993,0,0,1.3814543579101561,0,0,0.8421875000000001
2.339028551999945,0,0,1.5227122558593749,0,0,0.6125
2.3404856130000553,0,0,1.2856862915039062,0,0,0.9953125
2.3420120240007236,0,0,1.235408056640625,0,0,0.8421875000000001
2.34364099099912,0,0,1.1013327636718748,0,0,0.765625
2.345122550999804,0,0,1.3718775512695311,0,0,0.6890625
2.346913034998579,0,0,1.4413093994140624,0,0,0.45937500000000003
2.348466854000435,0,0,1.5251064575195312,0,0,0.9953125
2.350062616998912,0,0,1.3766659545898436,0,0,0.6890625
2.3515263439985574,0,0,1.2904746948242187,0,0,0.9187500000000001
2.3534039559999655,0,0,1.22583125,0,0,0.5359375000000001
2.355006403999141,0,0,1.369483349609375,0,0,0.6125
2.356483538998873,0,0,1.3910311645507811,0,0,1.1484375
2.3583609480010637,0,0,1.5634136840820312,0,0,0.8421875000000001
2.360081357997842,0,0,1.407790576171875,0,0,0.6125
2.361721156998101,0,0,1.3958195678710936,0,0,0.9187500000000001
2.3632718839980953,0,0,1.2521674682617188,0,0,0.9187500000000001
2.364805183999124,0,0,1.407790576171875,0,0,0.765625
2.36643000299955,0,0,1.2832920898437499,0,0,0.6125
2.368238912000379,0,0,1.4724340209960938,0,0,0.6890625
2.3699991920002503,0,0,1.3431471313476562,0,0,0.9187500000000001
2.371660269000131,0,0,1.3670891479492187,0,0,0.765625
2.3733616979989165,0,0,1.3958195678710936,0,0,0.6125
2.3750081270009105,0,0,1.3718775512695311,0,0,0.9953125
2.3766231119989243,0,0,1.5107412475585937,0,0,0.9953125
2.378286892999313,0,0,1.2928688964843749,0,0,1.0718750000000001
2.37999372899867,0,0,1.3862427612304686,0,0,0.8421875000000001
2.3816669919979176,0,0,1.458068811035156,0,0,0.765625
2.383310106000863,0,0,1.407790576171875,0,0,0.5359375000000001
2.384855628999503,0,0,1.2737152832031249,0,0,0.765625
2.3863959849986713,0,0,1.3527239379882812,0,0,0.5359375000000001
2.388030895999691,0,0,1.3958195678710936,0,0,0.9187500000000001
2.389680918000522,0,0,1.2785036865234374,0,0,0.9187500000000001
2.3913551609985007,0,0,1.47482822265625,0,0,0.6125
2.3930102019985497,0,0,1.388636962890625,0,0,0.6890625
2.3945685389990103,0,0,1.4125789794921875,0,0,0.6125
2.3961013769985584,0,0,1.2880804931640624,0,0,0.8421875000000001
2.397696380998241,0,0,1.3575123413085937,0,0,0.9187500000000001
2.399304698999913,0,0,1.3311761230468748,0,0,0.6890625
2.4008466109989968,0,0,1.2880804931640624,0,0,0.8421875000000001
2.4023902629996883,0,0,1.4891934326171874,0,0,0.5359375000000001
2.4040300630003912,0,0,1.3742717529296875,0,0,0.9187500000000001
2.405889378998836,0,0,1.3024457031249999,0,0,0.8421875000000001
2.4075481410000066,0,0,1.2330138549804688,0,0,1.0718750000000001
2.4091891999996733,0,0,1.3311761230468748,0,0,0.765625
2.4117044179984077,0,0,1.3551181396484375,0,0,0.9953125
2.4134076429982088,0,0,1.4006079711914061,0,0,0.153125
2.415034072000708,0,0,1.350329736328125,0,0,0.765625
2.416502595999191,0,0,1.22583125,0,0,0.45937500000000003
2.418219783998211,0,0,1.3096283081054687,0,0,0.9187500000000001
2.4198503980005626,0,0,1.3431471313476562,0,0,0.9953125
2.421405994999077,0,0,1.3144167114257812,0,0,0.8421875000000001
2.4228837410009874,0,0,1.3742717529296875,0,0,0.6890625
2.424355300998286,0,0,1.4149731811523436,0,0,0.45937500000000003
2.426059489000181,0,0,1.3814543579101561,0,0,0.8421875000000001
2.427636493001046,0,0,1.388636962890625,0,0,0.5359375000000001
2.429135182999744,0,0,1.2761094848632812,0,0,1.0718750000000001
2.4307375749995117,0,0,1.3096283081054687,0,0,1.0718750000000001
2.43227393199777,0,0,1.3551181396484375,0,0,0.8421875000000001
2.4337383069978387,0,0,1.3766659545898436,0,0,0.6125
2.435251552000409,0,0,1.465251416015625,0,0,0.6890625
2.4369395180001447,0,0,1.4101847778320311,0,0,0.9187500000000001
2.4384390039995196,0,0,1.4820108276367188,0,0,0.45937500000000003
2.4400301189998572,0,0,1.2713210815429687,0,0,0.9187500000000001
2.441627475000132,0,0,1.2785036865234374,0,0,0.6125
2.4431590719977976,0,0,1.35990654296875,0,0,0.8421875000000001
2.444622168997739,0,0,1.2665326782226562,0,0,0.6890625
2.4461570809980913,0,0,1.455674609375,0,0,0.6890625
2.447805806998076,0,0,1.3814543579101561,0,0,0.765625
2.4494287179986713,0,0,1.4173673828125,0,0,0.5359375000000001
2.45113671999934,0,0,1.2832920898437499,0,0,0.6125
2.4530105179983366,0,0,1.2689268798828124,0,0,0.8421875000000001
2.4547024099992996,0,0,1.2856862915039062,0,0,0.6890625
2.456258246998914,0,0,1.4030021728515625,0,0,0.9953125
2.4579177320010785,0,0,1.448492004394531,0,0,0.45937500000000003
2.459776289000729,0,0,1.4006079711914061,0,0,0.9187500000000001
2.461378199997853,0,0,1.4413093994140624,0,0,0.6125
2.462936110998271,0,0,1.3838485595703125,0,0,0.765625
2.464472855997883,0,0,1.5275006591796874,0,0,0.8421875000000001
2.4660931559992605,0,0,1.3407529296874998,0,0,0.8421875000000001
2.467836640000314,0,0,1.2832920898437499,0,0,0.9187500000000001
2.469364496999333,0,0,1.37906015625,0,0,0.8421875000000001
2.470833298000798,0,0,1.2904746948242187,0,0,0.9187500000000001
2.472357523998653,0,0,1.458068811035156,0,0,0.8421875000000001
2.4740816749981605,0,0,1.235408056640625,0,0,0.9187500000000001
2.4755531800001336,0,0,1.2641384765625,0,0,0.765625
2.477290015998733,0,0,1.429338391113281,0,0,0.8421875000000001
2.478983684999548,0,0,1.429338391113281,0,0,0.9187500000000001
2.480468967998604,0,0,1.4724340209960938,0,0,0.45937500000000003
2.482055065000168,0,0,1.3096283081054687,0,0,0.8421875000000001
2.4838447330002964,0,0,1.438915197753906,0,0,0.9187500000000001
2.4855483659994206,0,0,1.2737152832031249,0,0,0.6125
2.4871191099991847,0,0,1.2832920898437499,0,0,0.5359375000000001
2.488956760000292,0,0,1.3263877197265623,0,0,0.6125
2.490495837999333,0,0,1.446097802734375,0,0,0.765625
2.492214211000828,0,0,1.455674609375,0,0,0.9187500000000001
2.4937815490011417,0,0,1.4149731811523436,0,0,0.8421875000000001
2.495493348000309,0,0,1.2928688964843749,0,0,0.6890625
2.497150388000591,0,0,1.3335703247070312,0,0,0.45937500000000003
2.4989137980010128,0,0,1.3000515014648437,0,0,0.8421875000000001
2.5006353559983836,0,0,1.2593500732421874,0,0,1.1484375
2.502141174998542,0,0,1.4508862060546874,0,0,0.6125
2.503605253998103,0,0,1.3910311645507811,0,0,0.9187500000000001
2.505110647998663,0,0,1.4125789794921875,0,0,0.765625
2.50727590599854,0,0,1.3311761230468748,0,0,0.9953125
2.5087934660004976,0,0,1.3215993164062498,0,0,0.6890625
2.510261804000038,0,0,1.35990654296875,0,0,0.9953125
2.5118220670010487,0,0,1.3718775512695311,0,0,0.8421875000000001
2.5133624789996247,0,0,1.4532804077148436,0,0,0.765625
2.5148315580008784,0,0,1.4604630126953124,0,0,0.8421875000000001
2.516376654999476,0,0,1.4125789794921875,0,0,0.5359375000000001
2.5181636749985046,0,0,1.3287819213867187,0,0,0.765625
2.5197659199984628,0,0,1.2497732666015624,0,0,0.9187500000000001
2.5212852759977977,0,0,1.3311761230468748,0,0,0.765625
2.522852761998365,0,0,1.2641384765625,0,0,0.765625
2.5243883590010228,0,0,1.438915197753906,0,0,0.5359375000000001
2.5261237869999604,0,0,1.3527239379882812,0,0,0.5359375000000001
2.5277470129985886,0,0,1.5131354492187499,0,0,0.9953125
2.5293344060009986,0,0,1.3120225097656248,0,0,0.9187500000000001
2.5311472409994167,0,0,1.2880804931640624,0,0,0.8421875000000001
2.5327551890004543,0,0,1.35990654296875,0,0,0.6890625
2.534289211998839,0,0,1.455674609375,0,0,0.6125
2.5359146779992443,0,0,1.455674609375,0,0,0.5359375000000001
2.5374665339986677,0,0,1.455674609375,0,0,0.6890625
2.5389975939979195,0,0,1.3120225097656248,0,0,0.6125
2.5404610250006954,0,0,1.3024457031249999,0,0,0.6125
2.541933585998777,0,0,1.3359645263671873,0,0,0.6890625
2.543544460000703,0,0,1.2785036865234374,0,0,0.9187500000000001
2.5451155560003826,0,0,1.3479355346679687,0,0,0.8421875000000001
2.547943622997991,0,0,1.369483349609375,0,0,1.0718750000000001
2.549641014000372,0,0,1.2928688964843749,0,0,0.5359375000000001
2.5512574999993376,0,0,1.2785036865234374,0,0,0.9187500000000001
2.5527648739989672,0,0,1.22583125,0,0,0.9187500000000001
2.554369877998397,0,0,1.2952630981445312,0,0,1.0718750000000001
2.555944437997823,0,0,1.4125789794921875,0,0,0.8421875000000001
2.557437293999101,0,0,1.4508862060546874,0,0,0.6125
2.5589034289987467,0,0,1.5227122558593749,0,0,0.765625
2.560536709999724,0,0,1.5227122558593749,0,0,0.8421875000000001
2.5621198619992356,0,0,1.3263877197265623,0,0,0.765625
2.5636015339987352,0,0,1.3383587280273437,0,0,0.30625
2.5650693159986986,0,0,1.2904746948242187,0,0,0.45937500000000003
2.5666791900002863,0,0,1.3287819213867187,0,0,0.9187500000000001
2.5681962499984365,0,0,1.438915197753906,0,0,0.765625
2.569658589000028,0,0,1.4413093994140624,0,0,0.8421875000000001
2.5711712230004196,0,0,1.5562310791015623,0,0,0.8421875000000001
2.5727807080002094,0,0,1.3838485595703125,0,0,0.9953125
2.574295952999819,0,0,1.2832920898437499,0,0,0.8421875000000001
2.57577055100046,0,0,1.2569558715820313,0,0,0.9187500000000001
2.5772287039981165,0,0,1.3000515014648437,0,0,0.8421875000000001
2.5791142790003505,0,0,1.438915197753906,0,0,0.6125
2.5808032269997057,0,0,1.4341267944335936,0,0,0.9187500000000001
2.58227474999876,0,0,1.419761584472656,0,0,0.6890625
2.5838056249995134,0,0,1.448492004394531,0,0,0.8421875000000001
2.5858081619990116,0,0,1.2976572998046874,0,0,0.6890625
2.5874582389988063,0,0,1.2808978881835937,0,0,0.8421875000000001
2.5898524949989223,0,0,1.2473790649414063,0,0,1.0718750000000001
2.5917971069975465,0,0,1.2521674682617188,0,0,0.765625
2.59336844399877,0,0,1.3575123413085937,0,0,0.765625
2.5949313919991255,0,0,1.3072341064453123,0,0,0.9953125
2.5967914309985645,0,0,1.2952630981445312,0,0,0.6890625
2.5983866380011023,0,0,1.2761094848632812,0,0,1.0718750000000001
2.5998592910000298,0,0,1.3335703247070312,0,0,0.6125
2.6013179820001824,0,0,1.3934253662109375,0,0,0.765625
2.603124871999171,0,0,1.3910311645507811,0,0,0.765625
2.6046262290001323,0,0,1.4867992309570313,0,0,0.5359375000000001
2.6061198259994853,0,0,1.3144167114257812,0,0,0.765625
2.607894494998618,0,0,1.3120225097656248,0,0,0.9953125
2.6093920179991983,0,0,1.3000515014648437,0,0,0.9187500000000001
2.610888208000688,0,0,1.2713210815429687,0,0,0.765625
2.6127849309996236,0,0,1.4891934326171874,0,0,0.9953125
2.6143054909989587,0,0,1.5203180541992187,0,0,0.765625
2.615765458998794,0,0,1.3048399047851562,0,0,0.9953125
2.6172280569990107,0,0,1.3431471313476562,0,0,0.9953125
2.6192784819977533,0,0,1.3168109130859373,0,0,0.6890625
2.620812504999776,0,0,1.2832920898437499,0,0,0.765625
2.622283435997815,0,0,1.3718775512695311,0,0,0.765625
2.6242731220008864,0,0,1.4437036010742186,0,0,0.765625
2.62578344099893,0,0,1.5131354492187499,0,0,0.5359375000000001
2.6272486499983643,0,0,1.5538368774414062,0,0,0.8421875000000001
2.629118576998735,0,0,1.2976572998046874,0,0,0.765625
2.6306725249996816,0,0,1.24498486328125,0,0,0.8421875000000001
2.632155289000366,0,0,1.3455413330078123,0,0,0.6890625
2.6336785899984534,0,0,1.350329736328125,0,0,0.6890625
2.6352108909995877,0,0,1.3910311645507811,0,0,0.5359375000000001
2.6367551359981007,0,0,1.4245499877929686,0,0,0.6890625
2.6382396959998005,0,0,1.4341267944335936,0,0,0.765625
2.639700052997796,0,0,1.426944189453125,0,0,0.765625
2.6412203170002613,0,0,1.3239935180664062,0,0,0.45937500000000003
2.642759358001058,0,0,1.3335703247070312,0,0,0.9187500000000001
2.6442441959989083,0,0,1.3455413330078123,0,0,0.3828125
2.6457037379987014,0,0,1.5059528442382812,0,0,1.0718750000000001
2.647199854000064,0,0,1.458068811035156,0,0,0.5359375000000001
2.648750951000693,0,0,1.4030021728515625,0,0,1.0718750000000001
2.650242697000067,0,0,1.2880804931640624,0,0,0.9187500000000001
2.651704626998253,0,0,1.2401964599609374,0,0,0.8421875000000001
2.6532655199989676,0,0,1.3431471313476562,0,0,0.8421875000000001
2.6548042280010122,0,0,1.2976572998046874,0,0,0.5359375000000001
2.6565433609976026,0,0,1.4413093994140624,0,0,1.0718750000000001
2.658283548000327,0,0,1.4101847778320311,0,0,0.6890625
2.659953922000568,0,0,1.4604630126953124,0,0,0.9187500000000001
2.6615560919999552,0,0,1.3072341064453123,0,0,0.765625
2.6631150959983643,0,0,1.3144167114257812,0,0,0.9187500000000001
2.664753377001034,0,0,1.2785036865234374,0,0,1.1484375
2.6663510849975864,0,0,1.2761094848632812,0,0,0.6125
2.667892755998764,0,0,1.3192051147460937,0,0,1.0718750000000001
2.669477925999672,0,0,1.4796166259765624,0,0,0.6890625
2.6711182439976255,0,0,1.47482822265625,0,0,0.8421875000000001
2.6726667299990368,0,0,1.39821376953125,0,0,0.8421875000000001
2.6742113639993477,0,0,1.3359645263671873,0,0,0.6125
2.6758382379994146,0,0,1.2761094848632812,0,0,0.9187500000000001
2.6779424409978674,0,0,1.3407529296874998,0,0,0.6125
2.67961398099942,0,0,1.429338391113281,0,0,0.8421875000000001
2.6813528169986967,0,0,1.3239935180664062,0,0,0.8421875000000001
2.682911949999834,0,0,1.3215993164062498,0,0,0.3828125
2.6844451209981344,0,0,1.3048399047851562,0,0,0.9187500000000001
2.686483325000154,0,0,1.3455413330078123,0,0,0.9953125
2.688051662000362,0,0,1.3934253662109375,0,0,1.0718750000000001
2.6896545919989876,0,0,1.35990654296875,0,0,0.9953125
2.691316910000751,0,0,1.4820108276367188,0,0,0.5359375000000001
2.693146429999615,0,0,1.39821376953125,0,0,0.8421875000000001
2.6948860619995685,0,0,1.4628572143554686,0,0,0.9187500000000001
2.696505010000692,0,0,1.3479355346679687,0,0,0.9953125
2.698071735998383,0,0,1.35990654296875,0,0,1.1484375
2.6996525739996287,0,0,1.235408056640625,0,0,0.765625
2.701870498000062,0,0,1.429338391113281,0,0,0.9187500000000001
2.703530407998187,0,0,1.3910311645507811,0,0,0.9953125
2.705098411999643,0,0,1.39821376953125,0,0,0.6890625
2.7071016900008544,0,0,1.369483349609375,0,0,0.9187500000000001
2.7088233590002346,0,0,1.3742717529296875,0,0,0.6890625
2.710471955000685,0,0,1.2952630981445312,0,0,0.765625
2.712355455998477,0,0,1.3479355346679687,0,0,1.225
2.7141539029980777,0,0,1.4221557861328125,0,0,0.6890625
2.715841220000584,0,0,1.2856862915039062,0,0,0.765625
2.717482519998157,0,0,1.2785036865234374,0,0,0.9187500000000001
2.71905411699845,0,0,1.3407529296874998,0,0,0.765625
2.720645990997582,0,0,1.2593500732421874,0,0,1.6843750000000002
2.7224300669986405,0,0,1.3168109130859373,0,0,0.5359375000000001
2.723984256001131,0,0,1.467645617675781,0,0,0.765625
2.725789961998089,0,0,1.484405029296875,0,0,1.0718750000000001
2.727800276999915,0,0,1.407790576171875,0,0,0.765625
2.729378446998453,0,0,1.3814543579101561,0,0,0.6890625
2.7309809510006744,0,0,1.3048399047851562,0,0,2.6031250000000004
2.732783470997674,0,0,1.455674609375,0,0,0.5359375000000001
2.7343412160007574,0,0,1.3623007446289062,0,0,0.9187500000000001
2.73618751399772,0,0,1.426944189453125,0,0,0.9187500000000001
2.7381780139985494,0,0,1.4796166259765624,0,0,0.9187500000000001
2.73976105499969,0,0,1.438915197753906,0,0,0.9187500000000001
2.741297799999302,0,0,1.407790576171875,0,0,0.6890625
2.743046357998537,0,0,1.3814543579101561,0,0,0.5359375000000001
2.744746545999078,0,0,1.22583125,0,0,0.5359375000000001
2.7463831790009863,0,0,1.465251416015625,0,0,0.6125
2.7483596419988316,0,0,1.2952630981445312,0,0,0.9187500000000001
2.7499972570003592,0,0,1.369483349609375,0,0,0.6890625
2.7516053350009315,0,0,1.3072341064453123,0,0,1.0718750000000001
2.7532489119985257,0,0,1.3144167114257812,0,0,0.8421875000000001
2.7547952120003174,0,0,1.3168109130859373,0,0,0.5359375000000001
2.7565655289981805,0,0,1.4939818359375,0,0,1.1484375
2.758408383000642,0,0,1.4341267944335936,0,0,0.765625
2.7599794609996025,0,0,1.5227122558593749,0,0,0.9187500000000001
2.7618564250005875,0,0,1.4796166259765624,0,0,0.8421875000000001
2.763481428999512,0,0,1.3215993164062498,0,0,0.9187500000000001
2.7649756179998803,0,0,1.3048399047851562,0,0,0.9953125
2.766440622999653,0,0,1.22583125,0,0,0.3828125
2.76794575799795,0,0,1.5131354492187499,0,0,0.8421875000000001
2.7696366870004567,0,0,1.4963760375976562,0,0,0.8421875000000001
2.7712069310000516,0,0,1.4604630126953124,0,0,0.8421875000000001
2.772718972999428,0,0,1.4867992309570313,0,0,0.9187500000000001
2.7742815140009043,0,0,1.2617442749023438,0,0,0.765625
2.7757619629992405,0,0,1.5059528442382812,0,0,0.8421875000000001
2.7772168570008944,0,0,1.3623007446289062,0,0,0.6125
2.7790118039993104,0,0,1.455674609375,0,0,0.9953125
2.780579566999222,0,0,1.4221557861328125,0,0,0.765625
2.78205303499999,0,0,1.465251416015625,0,0,0.8421875000000001
2.783611501999985,0,0,1.5251064575195312,0,0,1.0718750000000001
2.785342060000403,0,0,1.3335703247070312,0,0,0.765625
2.786881193998852,0,0,1.2282254516601563,0,0,0.8421875000000001
2.788742861997889,0,0,1.3910311645507811,0,0,0.9187500000000001
2.790467512997566,0,0,1.3958195678710936,0,0,0.765625
2.7920448679979017,0,0,1.35990654296875,0,0,0.5359375000000001
2.793637224000122,0,0,1.2401964599609374,0,0,0.765625
2.795265078999364,0,0,1.2785036865234374,0,0,0.8421875000000001
2.7969709530007094,0,0,1.3527239379882812,0,0,0.6125
2.798659399999451,0,0,1.3096283081054687,0,0,0.765625
2.800338588000159,0,0,1.2976572998046874,0,0,0.765625
2.8018854439978895,0,0,1.5035586425781249,0,0,0.3828125
2.803420855998411,0,0,1.4628572143554686,0,0,0.8421875000000001
2.8050813779991586,0,0,1.3910311645507811,0,0,0.45937500000000003
2.806646881999768,0,0,1.22583125,0,0,0.6125
2.808170774998871,0,0,1.2785036865234374,0,0,0.6125
2.8101688679998915,0,0,1.3239935180664062,0,0,0.765625
2.811759093998262,0,0,1.3096283081054687,0,0,0.9187500000000001
2.8132981349990587,0,0,1.419761584472656,0,0,0.6125
2.8150026189978234,0,0,1.4173673828125,0,0,1.0718750000000001
2.8166041420008696,0,0,1.5227122558593749,0,0,0.6890625
2.8187456769992423,0,0,1.5227122558593749,0,0,0.5359375000000001
2.820732288997533,0,0,1.2425906616210938,0,0,0.6890625
2.8223352919994795,0,0,1.3311761230468748,0,0,0.45937500000000003
2.823925666998548,0,0,1.4173673828125,0,0,0.765625
2.825523521998548,0,0,1.4604630126953124,0,0,0.6125
2.8270855259979726,0,0,1.4963760375976562,0,0,0.6890625
2.8286050309980055,0,0,1.5227122558593749,0,0,0.9187500000000001
2.830224368000927,0,0,1.388636962890625,0,0,0.6890625
2.8318505930001265,0,0,1.3168109130859373,0,0,1.1484375
2.833344227998168,0,0,1.2976572998046874,0,0,0.6125
2.834954101999756,0,0,1.4604630126953124,0,0,0.8421875000000001
2.836486477001017,0,0,1.4700398193359374,0,0,0.9187500000000001
2.8379525929994998,0,0,1.3766659545898436,0,0,0.9953125
2.839551521999965,0,0,1.3000515014648437,0,0,0.8421875000000001
2.841098377997696,0,0,1.3263877197265623,0,0,0.5359375000000001
2.842701344998204,0,0,1.3455413330078123,0,0,0.9187500000000001
2.8442654229984328,0,0,1.3120225097656248,0,0,0.5359375000000001
2.84584964899841,0,0,1.2832920898437499,0,0,0.9953125
2.8474006169999484,0,0,1.4915876342773438,0,0,0.6890625
2.848907416999282,0,0,1.5035586425781249,0,0,0.8421875000000001
2.8504897729981167,0,0,1.3575123413085937,0,0,0.9187500000000001
2.852040739999211,0,0,1.419761584472656,0,0,0.6890625
2.853503615999216,0,0,1.3311761230468748,0,0,0.765625
2.8551764149997325,0,0,1.3120225097656248,0,0,0.6125
2.8567975299993122,0,0,1.4867992309570313,0,0,1.0718750000000001
2.8583097939990694,0,0,1.3862427612304686,0,0,0.6125
2.859767687998101,0,0,1.4317325927734375,0,0,0.6890625
2.8612782479976886,0,0,1.369483349609375,0,0,0.6125
2.862823325998761,0,0,1.3024457031249999,0,0,0.9953125
2.8642969419997826,0,0,1.3144167114257812,0,0,0.765625
2.8658933349979634,0,0,1.2785036865234374,0,0,0.765625
2.867497152998112,0,0,1.4053963745117186,0,0,0.9953125
2.869018879999203,0,0,1.3862427612304686,0,0,0.5359375000000001
2.8705663469991123,0,0,1.455674609375,0,0,1.0718750000000001
2.8720366669986106,0,0,1.37906015625,0,0,0.6890625
2.8736269299988635,0,0,1.3144167114257812,0,0,0.9187500000000001
2.875151934000314,0,0,1.3934253662109375,0,0,0.765625
2.8766180499987968,0,0,1.4532804077148436,0,0,0.765625
2.8781635179984733,0,0,1.3838485595703125,0,0,0.8421875000000001
2.8797216700004356,0,0,1.446097802734375,0,0,1.53125
2.8813389700007974,0,0,1.3814543579101561,0,0,0.8421875000000001
2.882862030000979,0,0,1.429338391113281,0,0,0.8421875000000001
2.884367589998874,0,0,1.2497732666015624,0,0,0.765625
2.8859187609996297,0,0,1.3120225097656248,0,0,0.6890625
2.8874059509980725,0,0,1.3144167114257812,0,0,0.8421875000000001
2.8888769000004686,0,0,1.2928688964843749,0,0,0.6125
2.8904027930002485,0,0,1.4245499877929686,0,0,0.9187500000000001
2.8921006849996047,0,0,1.3311761230468748,0,0,0.6125
2.893662114998733,0,0,1.3934253662109375,0,0,0.9953125
2.8951322869979776,0,0,1.2282254516601563,0,0,0.6125
2.896678328001144,0,0,1.1851298217773436,0,0,0.6125
2.898298331998376,0,0,1.3383587280273437,0,0,0.9187500000000001
2.899851187998138,0,0,1.3263877197265623,0,0,0.5359375000000001
2.901440672998433,0,0,1.426944189453125,0,0,0.8421875000000001
2.90296976999889,0,0,1.4963760375976562,0,0,1.0718750000000001
2.904437663997669,0,0,1.35990654296875,0,0,0.9187500000000001
2.9058946129989636,0,0,1.2497732666015624,0,0,0.765625
2.907871316998353,0,0,1.3623007446289062,0,0,0.6890625
2.9095176909977454,0,0,1.2737152832031249,0,0,0.765625
2.911012214000948,0,0,1.3335703247070312,0,0,0.6890625
2.912646569999197,0,0,1.5155296508789062,0,0,0.6890625
2.914300424999965,0,0,1.467645617675781,0,0,0.765625
2.915933316999144,0,0,1.388636962890625,0,0,0.8421875000000001
2.9174960989985266,0,0,1.3431471313476562,0,0,0.8421875000000001
2.9190523069992196,0,0,1.3120225097656248,0,0,0.5359375000000001
2.9211053799990623,0,0,1.3311761230468748,0,0,0.6125
2.9229040120007994,0,0,1.2378022583007813,0,0,0.6890625
2.9247592909996456,0,0,1.419761584472656,0,0,0.9187500000000001
2.9264782200007176,0,0,1.3623007446289062,0,0,0.9953125
2.9281246299979102,0,0,1.3623007446289062,0,0,0.8421875000000001
2.929946354001004,0,0,1.2832920898437499,0,0,0.9187500000000001
2.931477914000425,0,0,1.1707646118164061,0,0,0.9187500000000001
2.932943659998273,0,0,1.3144167114257812,0,0,0.6890625
2.9344048319981084,0,0,1.4437036010742186,0,0,1.0718750000000001
2.936374221000733,0,0,1.5107412475585937,0,0,0.8421875000000001
2.938046094001038,0,0,1.4221557861328125,0,0,0.6125
2.9397249489993555,0,0,1.24498486328125,0,0,0.5359375000000001
2.941530691998196,0,0,1.3000515014648437,0,0,0.6125
2.943094991998805,0,0,1.3958195678710936,0,0,0.9187500000000001
2.9447177729998657,0,0,1.3766659545898436,0,0,0.45937500000000003
2.9461918890010566,0,0,1.4532804077148436,0,0,0.6890625
2.947770448998199,0,0,1.5179238525390624,0,0,0.9187500000000001
2.9493625449977117,0,0,1.39821376953125,0,0,0.6890625
2.9509786409980734,0,0,1.22583125,0,0,0.765625
2.952538404999359,0,0,1.3383587280273437,0,0,-9.1109375
2.9541395009982807,0,0,1.2138602416992186,0,0,0.765625
2.9556127469986677,0,0,1.2928688964843749,0,0,0.8421875000000001
2.9572256020001078,0,0,1.4413093994140624,0,0,0.5359375000000001
2.95909915899756,0,0,1.3575123413085937,0,0,0.8421875000000001
2.9607532919981168,0,0,1.448492004394531,0,0,0.5359375000000001
2.9622493520000717,0,0,1.3215993164062498,0,0,0.6125
2.9638085599981423,0,0,1.1156979736328125,0,0,0.9953125
2.965347749999637,0,0,1.3120225097656248,0,0,0.9187500000000001
2.9668228659975284,0,0,1.2665326782226562,0,0,0.765625
2.968326259000605,0,0,1.4604630126953124,0,0,-8.8046875
2.970034427999053,0,0,1.3623007446289062,0,0,0.9953125
2.971613839999918,0,0,1.5011644409179687,0,0,0.6125
2.9730859929986764,0,0,1.2689268798828124,0,0,0.9187500000000001
2.9747896250009944,0,0,1.3551181396484375,0,0,0.8421875000000001
2.9763709629987716,0,0,1.2904746948242187,0,0,0.9953125
2.977839634000702,0,0,1.22583125,0,0,0.5359375000000001
2.979354102000798,0,0,1.4030021728515625,0,0,0.45937500000000003
2.9811424929976056,0,0,1.407790576171875,0,0,0.9953125
2.982740069997817,0,0,1.4413093994140624,0,0,0.5359375000000001
2.9842608340004517,0,0,1.2880804931640624,0,0,0.8421875000000001
2.985832133999793,0,0,1.3263877197265623,0,0,0.6890625
2.987365213000885,0,0,1.4030021728515625,0,0,0.8421875000000001
2.9888313849987753,0,0,1.3168109130859373,0,0,0.5359375000000001
2.9903469999990193,0,0,1.4628572143554686,0,0,0.6890625
2.992142390998197,0,0,1.4724340209960938,0,0,0.765625
2.9936100999984774,0,0,1.3838485595703125,0,0,0.9187500000000001
2.995064012000512,0,0,1.3168109130859373,0,0,0.6125
2.996860421000747,0,0,1.3024457031249999,0,0,0.5359375000000001
2.998478981000517,0,0,1.2569558715820313,0,0,0.9187500000000001
2.99997005899786,0,0,1.3120225097656248,0,0,0.5359375000000001
3.0014265829995566,0,0,1.5131354492187499,0,0,-8.6515625
3.0030432530002145,0,0,1.407790576171875,0,0,0.6125
3.0046272020008473,0,0,1.47482822265625,0,0,0.6890625
3.006158798998513,0,0,1.3431471313476562,0,0,0.8421875000000001
3.007835486998374,0,0,1.3407529296874998,0,0,0.8421875000000001
3.0094138799977372,0,0,1.2641384765625,0,0,0.5359375000000001
3.0109415689985326,0,0,1.3263877197265623,0,0,0.6125
3.0124852400003874,0,0,1.4006079711914061,0,0,0.9187500000000001
3.0139534490008373,0,0,1.4125789794921875,0,0,0.6125
3.0155381559998204,0,0,1.3814543579101561,0,0,0.9187500000000001
3.017136048998509,0,0,1.4030021728515625,0,0,0.765625
3.019006475999049,0,0,1.4173673828125,0,0,0.6890625
3.0206530909999856,0,0,1.2713210815429687,0,0,0.8421875000000001
3.022344148997945,0,0,1.2904746948242187,0,0,0.5359375000000001
3.023926375000883,0,0,1.4772224243164063,0,0,0.765625
3.0254612499993527,0,0,1.4149731811523436,0,0,1.0718750000000001
3.0272389739984646,0,0,1.3910311645507811,0,0,0.6890625
3.0289222549981787,0,0,1.369483349609375,0,0,0.8421875000000001
3.0309373479976784,0,0,1.3455413330078123,0,0,1.0718750000000001
3.0326147579980898,0,0,1.3311761230468748,0,0,0.45937500000000003
3.0342783169980976,0,0,1.458068811035156,0,0,0.9187500000000001
3.036231873000361,0,0,1.4820108276367188,0,0,0.765625
3.0379212829975586,0,0,1.465251416015625,0,0,0.8421875000000001
3.0395786379995116,0,0,1.3215993164062498,0,0,0.6890625
3.041453953999735,0,0,1.4341267944335936,0,0,0.30625
3.0432554369981517,0,0,1.2641384765625,0,0,0.765625
3.0449385329993675,0,0,1.1923124267578125,0,0,1.0718750000000001
3.046490388998791,0,0,1.4125789794921875,0,0,0.6890625
3.0480391710007098,0,0,1.4628572143554686,0,0,0.8421875000000001
3.0497312669976964,0,0,1.4173673828125,0,0,-9.1109375
3.0513052709975454,0,0,1.3120225097656248,0,0,1.0718750000000001
3.0528281639999477,0,0,1.22583125,0,0,0.9187500000000001
3.0551559390005423,0,0,1.3024457031249999,0,0,0.45937500000000003
3.056825496998499,0,0,1.455674609375,0,0,0.9187500000000001
3.0583737609995296,0,0,1.5155296508789062,0,0,0.765625
3.0599054869999236,0,0,1.455674609375,0,0,0.9187500000000001
3.061917691000417,0,0,1.4867992309570313,0,0,0.8421875000000001
3.063637249000749,0,0,1.2617442749023438,0,0,0.6890625
3.0653477710002335,0,0,1.3455413330078123,0,0,0.6890625
3.0668786450005427,0,0,1.350329736328125,0,0,0.6125
3.0684275749990775,0,0,1.4101847778320311,0,0,0.5359375000000001
3.070328669000446,0,0,1.3527239379882812,0,0,0.8421875000000001
3.0719282280006155,0,0,1.4915876342773438,0,0,0.6125
3.073524842999177,0,0,1.2737152832031249,0,0,0.6890625
3.0750731990010536,0,0,1.3168109130859373,0,0,0.9953125
3.0768994049976754,0,0,1.3670891479492187,0,0,2.1437500000000003
3.0785448709975753,0,0,1.3383587280273437,0,0,0.6890625
3.080085337998753,0,0,1.4221557861328125,0,0,0.5359375000000001
3.0815524729987374,0,0,1.4772224243164063,0,0,0.9953125
3.083037737000268,0,0,1.3838485595703125,0,0,0.6890625
3.084702221000043,0,0,1.1348515869140625,0,0,0.8421875000000001
3.0862367629997607,0,0,1.254561669921875,0,0,0.8421875000000001
3.0877019709987508,0,0,1.24498486328125,0,0,0.8421875000000001
3.0891581430005317,0,0,1.2521674682617188,0,0,0.6890625
3.090744777000509,0,0,1.4006079711914061,0,0,0.5359375000000001
3.0922925400009262,0,0,1.3623007446289062,0,0,0.6125
3.094171855998866,0,0,1.3862427612304686,0,0,0.5359375000000001
3.0957449529996666,0,0,1.3096283081054687,0,0,0.6125
3.0973389749997295,0,0,1.3862427612304686,0,0,0.5359375000000001
3.0988824050000403,0,0,1.3455413330078123,0,0,0.6890625
3.1003877990006004,0,0,1.3646949462890625,0,0,0.8421875000000001
3.101990320999903,0,0,1.5298948608398437,0,0,0.45937500000000003
3.103565121000429,0,0,1.369483349609375,0,0,0.8421875000000001
3.105028403999313,0,0,1.2689268798828124,0,0,0.6890625
3.106611351999163,0,0,1.2856862915039062,0,0,0.6890625
3.1085368159983773,0,0,1.3215993164062498,0,0,0.9187500000000001
3.1100903199985623,0,0,1.2617442749023438,0,0,0.6890625
3.111665175998496,0,0,1.3239935180664062,0,0,1.1484375
3.113254883999616,0,0,1.4820108276367188,0,0,0.6125
3.1149085350007226,0,0,1.5227122558593749,0,0,0.9187500000000001
3.116488780000509,0,0,1.4604630126953124,0,0,0.9187500000000001
3.1181366720011283,0,0,1.2425906616210938,0,0,0.8421875000000001
3.1197938789991895,0,0,1.43652099609375,0,0,0.6890625
3.12136153100073,0,0,1.3838485595703125,0,0,0.30625
3.1228532389977772,0,0,1.2593500732421874,0,0,0.6125
3.1244429840007797,0,0,1.4820108276367188,0,0,0.6125
3.1260058209991257,0,0,1.4939818359375,0,0,0.8421875000000001
3.127481493000232,0,0,1.5035586425781249,0,0,0.6125
3.1289412939986505,0,0,1.3000515014648437,0,0,0.6890625
3.130492984000739,0,0,1.3311761230468748,0,0,0.8421875000000001
3.1320059879981272,0,0,1.2665326782226562,0,0,0.765625
3.133471566998196,0,0,1.3383587280273437,0,0,0.8421875000000001
3.1349716459990304,0,0,1.448492004394531,0,0,0.9187500000000001
3.1366170379988034,0,0,1.39821376953125,0,0,0.9953125
3.1381611910001084,0,0,1.4963760375976562,0,0,0.9187500000000001
3.139629306999268,0,0,1.47482822265625,0,0,0.8421875000000001
3.141137662998517,0,0,1.3670891479492187,0,0,0.765625
3.1427663329995994,0,0,1.2976572998046874,0,0,0.6890625
3.1443012269992323,0,0,1.2593500732421874,0,0,0.6890625
3.1457671569987724,0,0,1.3670891479492187,0,0,1.225
3.147280476998276,0,0,1.448492004394531,0,0,0.6125
3.1488384069998574,0,0,1.3479355346679687,0,0,0.765625
3.1504668179986766,0,0,1.3766659545898436,0,0,1.1484375
3.1520061000010173,0,0,1.22583125,0,0,0.765625
3.153586141001142,0,0,1.3192051147460937,0,0,0.9953125
3.1551426820005872,0,0,1.2808978881835937,0,0,0.8421875000000001
3.1568122409989883,0,0,1.43652099609375,0,0,0.9953125
3.1583652820008865,0,0,1.4173673828125,0,0,0.8421875000000001
3.1599717479984974,0,0,1.5131354492187499,0,0,1.0718750000000001
3.1614545679985895,0,0,1.3646949462890625,0,0,0.8421875000000001
3.1629207209989545,0,0,1.3024457031249999,0,0,0.6890625
3.164377893001074,0,0,1.39821376953125,0,0,0.9953125
3.1658761569997296,0,0,1.4891934326171874,0,0,0.8421875000000001
3.1674575500001083,0,0,1.2976572998046874,0,0,0.9187500000000001
3.168974091000564,0,0,1.438915197753906,0,0,0.6125
3.170496651000576,0,0,1.438915197753906,0,0,1.1484375
3.1721143770009803,0,0,1.4006079711914061,0,0,0.8421875000000001
3.173677417998988,0,0,1.2306196533203124,0,0,0.9953125
3.1751682379981503,0,0,1.4053963745117186,0,0,0.9187500000000001
3.1768804999992426,0,0,1.2928688964843749,0,0,0.6125
3.178513817998464,0,0,1.3575123413085937,0,0,0.9953125
3.180066266999347,0,0,1.407790576171875,0,0,0.22968750000000002
3.181676862997847,0,0,1.2569558715820313,0,0,0.9953125
3.183255330000975,0,0,1.47482822265625,0,0,0.45937500000000003
3.1848559999998542,0,0,1.3479355346679687,0,0,0.8421875000000001
3.186439003999112,0,0,1.37906015625,0,0,1.1484375
3.1880132669975865,0,0,1.5275006591796874,0,0,0.765625
3.1897138630010886,0,0,1.4413093994140624,0,0,0.9953125
3.1913198289985303,0,0,1.4437036010742186,0,0,0.8421875000000001
3.192969498999446,0,0,1.5035586425781249,0,0,1.225
3.194583798998792,0,0,1.3287819213867187,0,0,0.9953125
3.196132099998067,0,0,1.2521674682617188,0,0,0.8421875000000001
3.197792787999788,0,0,1.2330138549804688,0,0,0.9187500000000001
3.1993198659984046,0,0,1.2521674682617188,0,0,0.45937500000000003
3.200785574998008,0,0,1.3263877197265623,0,0,0.9953125
3.2022629319981206,0,0,1.5203180541992187,0,0,0.9187500000000001
3.203802566000377,0,0,1.446097802734375,0,0,0.9187500000000001
3.2053355149982963,0,0,1.3934253662109375,0,0,0.6125
3.2068063160004385,0,0,1.3263877197265623,0,0,0.9187500000000001
3.2087005579996912,0,0,1.3479355346679687,0,0,0.9187500000000001
3.2108605379980872,0,0,1.3527239379882812,0,0,0.3828125
3.212707021000824,0,0,1.4604630126953124,0,0,0.6890625
3.2144065229986154,0,0,1.4437036010742186,0,0,0.8421875000000001
3.2160188790003303,0,0,1.2378022583007813,0,0,0.5359375000000001
3.2174936429983063,0,0,1.3383587280273437,0,0,1.0718750000000001
3.219239201000164,0,0,1.3192051147460937,0,0,0.6890625
3.2208728900004644,0,0,1.3431471313476562,0,0,0.6890625
3.2224063009998645,0,0,1.2761094848632812,0,0,0.5359375000000001
3.2238759729989397,0,0,1.4221557861328125,0,0,1.0718750000000001
3.2253412370009755,0,0,1.4891934326171874,0,0,0.6125
3.22693657399941,0,0,1.4149731811523436,0,0,0.765625
3.228582021998591,0,0,1.369483349609375,0,0,1.0718750000000001
3.230151562998799,0,0,1.3120225097656248,0,0,0.6890625
3.231651457001135,0,0,1.2761094848632812,0,0,0.9953125
3.2331644799996866,0,0,1.2904746948242187,0,0,0.6890625
3.2347520209987124,0,0,1.465251416015625,0,0,0.9953125
3.2363549689980573,0,0,1.448492004394531,0,0,0.6890625
3.2378680289984914,0,0,1.35990654296875,0,0,0.9953125
3.239386958997784,0,0,1.429338391113281,0,0,0.8421875000000001
3.2409740740004054,0,0,1.3455413330078123,0,0,0.765625
3.242517096998199,0,0,1.3168109130859373,0,0,0.765625
3.243995120999898,0,0,1.2641384765625,0,0,0.8421875000000001
3.245640438999544,0,0,1.3048399047851562,0,0,1.0718750000000001
3.2472205349986325,0,0,1.4867992309570313,0,0,0.6890625
3.2487949099995603,0,0,1.2737152832031249,0,0,0.9187500000000001
3.2504621900006896,0,0,1.3287819213867187,0,0,0.765625
3.2520051209976373,0,0,1.22583125,0,0,0.765625
3.2534914030002255,0,0,1.3192051147460937,0,0,0.9187500000000001
3.2551944619990536,0,0,1.2952630981445312,0,0,0.6890625
3.2568110760003037,0,0,1.3670891479492187,0,0,0.9187500000000001
3.258290728997963,0,0,1.4437036010742186,0,0,0.6890625
3.25974891900114,0,0,1.4987702392578124,0,0,1.0718750000000001
3.261302386999887,0,0,1.5203180541992187,0,0,0.8421875000000001
3.2629735749978863,0,0,1.3646949462890625,0,0,0.765625
3.26450733800084,0,0,1.2928688964843749,0,0,0.9187500000000001
3.2660056210006587,0,0,1.2808978881835937,0,0,0.765625
3.26766841999779,0,0,1.4700398193359374,0,0,1.0718750000000001
3.269373385999643,0,0,1.5370774658203123,0,0,0.9953125
3.2709038159991906,0,0,1.455674609375,0,0,0.9953125
3.272474654000689,0,0,1.35990654296875,0,0,0.9953125
3.274116767999658,0,0,1.2425906616210938,0,0,0.9187500000000001
3.2756560499983607,0,0,1.3215993164062498,0,0,0.8421875000000001
3.2771206479992543,0,0,1.2497732666015624,0,0,1.0718750000000001
3.278678892998869,0,0,1.3359645263671873,0,0,0.6890625
3.2802095449987974,0,0,1.4341267944335936,0,0,0.45937500000000003
3.2816987719997996,0,0,1.407790576171875,0,0,0.9187500000000001
3.283219091998035,0,0,1.37906015625,0,0,2.0671875
3.284759836999001,0,0,1.3311761230468748,0,0,0.765625
3.286266766997869,0,0,1.3479355346679687,0,0,0.5359375000000001
3.287727568000264,0,0,1.3407529296874998,0,0,0.9187500000000001
3.2894102200007183,0,0,1.3527239379882812,0,0,0.765625
3.2909937229997013,0,0,1.4125789794921875,0,0,0.6125
3.292503728000156,0,0,1.4508862060546874,0,0,0.9953125
3.2939923439989798,0,0,1.4006079711914061,0,0,0.5359375000000001
3.2955422369996086,0,0,1.2378022583007813,0,0,0.8421875000000001
3.2970680559992616,0,0,1.3120225097656248,0,0,0.6890625
3.2985344320004515,0,0,1.350329736328125,0,0,0.6890625
3.3000359180005034,0,0,1.2880804931640624,0,0,0.6125
3.3016288469989377,0,0,1.3862427612304686,0,0,1.1484375
3.3031146120010817,0,0,1.484405029296875,0,0,0.8421875000000001
3.304595615998551,0,0,1.3335703247070312,0,0,0.9187500000000001
3.306106768999598,0,0,1.2737152832031249,0,0,0.9187500000000001
3.3077162909976323,0,0,1.4221557861328125,0,0,0.9953125
3.3091922409985273,0,0,1.3479355346679687,0,0,1.0718750000000001
3.3106603380001616,0,0,1.3383587280273437,0,0,0.45937500000000003
3.312154934999853,0,0,1.426944189453125,0,0,0.9187500000000001
3.313695087999804,0,0,1.455674609375,0,0,0.45937500000000003
3.315243555000052,0,0,1.4245499877929686,0,0,0.8421875000000001
3.3167071339994436,0,0,1.4437036010742186,0,0,0.45937500000000003
3.318357340998773,0,0,1.2689268798828124,0,0,0.6125
3.3200877140006924,0,0,1.235408056640625,0,0,0.765625
3.3215752559990506,0,0,1.3144167114257812,0,0,0.765625
3.3230402240005787,0,0,1.4413093994140624,0,0,1.225
3.3246029319998343,0,0,1.3096283081054687,0,0,0.153125
3.3262890269979835,0,0,1.3335703247070312,0,0,0.8421875000000001
3.327761828000803,0,0,1.3407529296874998,0,0,0.3828125
3.329683217998536,0,0,1.2880804931640624,0,0,0.765625
3.3316834030010796,0,0,1.2138602416992186,0,0,0.6890625
3.3331780009975773,0,0,1.24498486328125,0,0,0.9187500000000001
3.334644765000121,0,0,1.3910311645507811,0,0,0.6890625
3.3365436919993954,0,0,1.5107412475585937,0,0,0.765625
3.3381046219983546,0,0,1.3335703247070312,0,0,0.9187500000000001
3.339578866998636,0,0,1.4221557861328125,0,0,0.9187500000000001
3.3410604649980087,0,0,1.35990654296875,0,0,0.6125
3.3433518700003333,0,0,1.2952630981445312,0,0,0.5359375000000001
3.344891002998338,0,0,1.2952630981445312,0,0,0.765625
3.3464090449997457,0,0,1.4317325927734375,0,0,0.5359375000000001
3.348062770000979,0,0,1.350329736328125,0,0,0.9187500000000001
3.349545720000606,0,0,1.455674609375,0,0,0.765625
3.351009169000463,0,0,1.4987702392578124,0,0,0.8421875000000001
3.3525547469980665,0,0,1.2737152832031249,0,0,0.765625
3.3543275829979393,0,0,1.3527239379882812,0,0,0.6125
3.3559552719998464,0,0,1.2737152832031249,0,0,0.6125
3.3575423500005854,0,0,1.4628572143554686,0,0,0.8421875000000001
3.3595059430008405,0,0,1.4820108276367188,0,0,0.9187500000000001
3.3612375009979587,0,0,1.467645617675781,0,0,0.5359375000000001
3.362906058999215,0,0,1.3120225097656248,0,0,0.8421875000000001
3.3644628039983218,0,0,1.3766659545898436,0,0,0.9187500000000001
3.366267899000377,0,0,1.2856862915039062,0,0,0.9187500000000001
3.3678890689989203,0,0,1.2856862915039062,0,0,1.225
3.3694473690011364,0,0,1.4221557861328125,0,0,0.6125
3.3709491150002577,0,0,1.3646949462890625,0,0,0.9953125
3.3727805050002644,0,0,1.235408056640625,0,0,0.765625
3.374366267998994,0,0,1.2928688964843749,0,0,0.6125
3.375838957999804,0,0,1.3575123413085937,0,0,0.6125
3.3776251089984726,0,0,1.3383587280273437,0,0,0.6890625
3.3792062789980264,0,0,1.3551181396484375,0,0,0.8421875000000001
3.3807220609996875,0,0,1.438915197753906,0,0,0.765625
3.3822181399991678,0,0,1.429338391113281,0,0,0.765625
3.3841504929987423,0,0,1.3215993164062498,0,0,0.8421875000000001
3.385711162998632,0,0,1.3742717529296875,0,0,0.45937500000000003
3.387217020001117,0,0,1.2234370483398436,0,0,0.5359375000000001
3.389214260998415,0,0,1.22583125,0,0,0.6890625
3.3908502829981444,0,0,1.4413093994140624,0,0,0.6125
3.3923784350008646,0,0,1.458068811035156,0,0,0.5359375000000001
3.3939830689996597,0,0,1.4963760375976562,0,0,0.6890625
3.3954850359987176,0,0,1.3814543579101561,0,0,0.6890625
3.396975485000439,0,0,1.3311761230468748,0,0,0.6125
3.3985294710000744,0,0,1.2497732666015624,0,0,0.765625
3.4000403639984143,0,0,1.2952630981445312,0,0,0.45937500000000003
3.4015027770001325,0,0,1.4437036010742186,0,0,0.6125
3.4033385010006896,0,0,1.3359645263671873,0,0,2.296875
3.4048920599998382,0,0,1.2689268798828124,0,0,0.8421875000000001
3.406369527998322,0,0,1.3120225097656248,0,0,0.8421875000000001
3.407829662999575,0,0,1.2401964599609374,0,0,0.5359375000000001
3.409581869000249,0,0,1.3000515014648437,0,0,0.8421875000000001
3.4111918909984524,0,0,1.3814543579101561,0,0,0.6890625
3.4128069129983487,0,0,1.4245499877929686,0,0,0.8421875000000001
3.414330824998615,0,0,1.3527239379882812,0,0,0.6890625
3.4163096029988083,0,0,1.3742717529296875,0,0,0.6125
3.4178876629994193,0,0,1.2378022583007813,0,0,0.9187500000000001
3.419426536998799,0,0,1.3646949462890625,0,0,0.6125
3.4209812640001473,0,0,1.3670891479492187,0,0,0.6125
3.422816338999837,0,0,1.1947066284179686,0,0,0.8421875000000001
3.4246870809984102,0,0,1.4221557861328125,0,0,0.765625
3.4263198999979068,0,0,1.369483349609375,0,0,0.765625
3.4278446450007323,0,0,1.4724340209960938,0,0,0.765625
3.429307742000674,0,0,1.2928688964843749,0,0,1.1484375
3.4308222649997333,0,0,1.3287819213867187,0,0,0.45937500000000003
3.4323686950010597,0,0,1.3311761230468748,0,0,0.8421875000000001
3.4338422189975972,0,0,1.2665326782226562,0,0,0.765625
3.4356662389982375,0,0,1.438915197753906,0,0,1.9140625000000002
3.437302982998517,0,0,1.426944189453125,0,0,0.9187500000000001
3.439172984999459,0,0,1.2880804931640624,0,0,0.6890625
3.4407553399978497,0,0,1.3048399047851562,0,0,0.6890625
3.442656323000847,0,0,1.3527239379882812,0,0,0.765625
3.444337158998678,0,0,1.3000515014648437,0,0,0.8421875000000001
3.4459230699976615,0,0,1.3646949462890625,0,0,1.1484375
3.4474565559976327,0,0,1.3958195678710936,0,0,0.8421875000000001
3.4490785599991796,0,0,1.2521674682617188,0,0,0.765625
3.4506756929986295,0,0,1.4030021728515625,0,0,0.9953125
3.452199568000651,0,0,1.3024457031249999,0,0,0.8421875000000001
3.4536526659976516,0,0,1.3551181396484375,0,0,0.8421875000000001
3.4551775399995677,0,0,1.3239935180664062,0,0,0.45937500000000003
3.4567987480004376,0,0,1.5083470458984374,0,0,0.9953125
3.458320288998948,0,0,1.4532804077148436,0,0,0.6125
3.459877700999641,0,0,1.5083470458984374,0,0,0.9187500000000001
3.4616396659985185,0,0,1.4341267944335936,0,0,0.9187500000000001
3.4634396309993463,0,0,1.2976572998046874,0,0,0.765625
3.464919968999311,0,0,1.2952630981445312,0,0,0.8421875000000001
3.4666018419993634,0,0,1.350329736328125,0,0,0.6890625
3.4682009019998077,0,0,1.4772224243164063,0,0,1.0718750000000001
3.4696747950001736,0,0,1.4125789794921875,0,0,0.765625
3.471136429998296,0,0,1.484405029296875,0,0,0.9187500000000001
3.4726748229986697,0,0,1.4149731811523436,0,0,0.765625
3.474195308997878,0,0,1.2928688964843749,0,0,0.8421875000000001
3.475657166000019,0,0,1.3431471313476562,0,0,1.1484375
3.477168466997682,0,0,1.5011644409179687,0,0,1.1484375
3.478703934000805,0,0,1.3670891479492187,0,0,0.8421875000000001
3.4803700849988672,0,0,1.4628572143554686,0,0,0.30625
3.4819246269980795,0,0,1.4604630126953124,0,0,0.765625
3.4834983900000225,0,0,1.429338391113281,0,0,0.6125
3.485056245997839,0,0,1.22583125,0,0,0.9187500000000001
3.4865218619997904,0,0,1.3215993164062498,0,0,0.9187500000000001
3.488055236997752,0,0,1.2928688964843749,0,0,0.8421875000000001
3.4896495920002053,0,0,1.3862427612304686,0,0,0.6890625
3.4912467260000994,0,0,1.4173673828125,0,0,0.6890625
3.492707268000231,0,0,1.4939818359375,0,0,0.9187500000000001
3.4941835879981227,0,0,1.5107412475585937,0,0,0.6890625
3.4959254050008894,0,0,1.3335703247070312,0,0,0.9187500000000001
3.497620073998405,0,0,1.39821376953125,0,0,0.6125
3.49909978299911,0,0,1.369483349609375,0,0,0.6125
3.5006592129975616,0,0,1.2401964599609374,0,0,0.6125
3.502982284000609,0,0,1.446097802734375,0,0,0.8421875000000001
3.5047087499988265,0,0,1.47482822265625,0,0,0.9187500000000001
3.506349068000418,0,0,1.3048399047851562,0,0,0.8421875000000001
3.507888478998211,0,0,1.3407529296874998,0,0,0.8421875000000001
3.509420649999811,0,0,1.2785036865234374,0,0,0.9187500000000001
3.5112655220000306,0,0,1.3646949462890625,0,0,0.45937500000000003
3.512828619001084,0,0,1.4221557861328125,0,0,0.9187500000000001
3.5143979380009114,0,0,1.4413093994140624,0,0,0.6890625
3.5162335690001782,0,0,1.4317325927734375,0,0,0.8421875000000001
3.5177932029982912,0,0,1.3479355346679687,0,0,0.765625
3.5193484849987726,0,0,1.407790576171875,0,0,0.5359375000000001
3.521185745998082,0,0,1.3335703247070312,0,0,0.6125
3.5227581010003632,0,0,1.3910311645507811,0,0,0.6890625
3.5243327719981608,0,0,1.4987702392578124,0,0,0.6125
3.5263524020010664,0,0,1.4508862060546874,0,0,0.765625
3.528100904000894,0,0,1.37906015625,0,0,0.765625
3.529744944000413,0,0,1.3048399047851562,0,0,0.8421875000000001
3.531537353999738,0,0,1.3359645263671873,0,0,0.9187500000000001
3.53307665399916,0,0,1.3192051147460937,0,0,0.5359375000000001
3.5347515829998883,0,0,1.426944189453125,0,0,1.1484375
3.5363705679992563,0,0,1.455674609375,0,0,0.45937500000000003
3.5378997389998403,0,0,1.2880804931640624,0,0,0.6890625
3.5394380209982046,0,0,1.3718775512695311,0,0,0.765625
3.541206189998775,0,0,1.35990654296875,0,0,0.765625
3.542749175998324,0,0,1.3335703247070312,0,0,0.8421875000000001
3.5442228479987534,0,0,1.3000515014648437,0,0,0.5359375000000001
3.545816591999028,0,0,1.4820108276367188,0,0,0.9187500000000001
3.547335151997686,0,0,1.4149731811523436,0,0,0.765625
3.5488330829975894,0,0,1.2306196533203124,0,0,1.0718750000000001
3.550370586999634,0,0,1.3431471313476562,0,0,0.5359375000000001
3.5518893689986726,0,0,1.3263877197265623,0,0,0.9953125
3.553444948000106,0,0,1.426944189453125,0,0,0.765625
3.554944562998571,0,0,1.3072341064453123,0,0,0.765625
3.556459178998921,0,0,1.3910311645507811,0,0,0.9187500000000001
3.5580350529999123,0,0,1.465251416015625,0,0,0.45937500000000003
3.5595287430005556,0,0,1.3766659545898436,0,0,1.0718750000000001
3.560989359000814,0,0,1.5011644409179687,0,0,0.45937500000000003
3.562535103999835,0,0,1.2976572998046874,0,0,0.765625
3.5641934409977694,0,0,1.407790576171875,0,0,0.8421875000000001
3.5658809810011007,0,0,1.5275006591796874,0,0,0.9187500000000001
3.5674308550005662,0,0,1.2593500732421874,0,0,0.765625
3.5689753410006233,0,0,1.446097802734375,0,0,0.765625
3.571510224999656,0,0,1.4939818359375,0,0,1.0718750000000001
3.573116524999932,0,0,1.2521674682617188,0,0,0.9187500000000001
3.5746969360006915,0,0,1.3575123413085937,0,0,0.5359375000000001
3.57617414500055,0,0,1.5107412475585937,0,0,0.765625
3.577634057997784,0,0,1.3455413330078123,0,0,0.6125
3.5791663950003567,0,0,1.3742717529296875,0,0,0.765625
3.580861176000326,0,0,1.5298948608398437,0,0,0.765625
3.582437660999858,0,0,1.458068811035156,0,0,0.5359375000000001
3.583923739999591,0,0,1.4245499877929686,0,0,0.6890625
3.585475891999522,0,0,1.2641384765625,0,0,0.8421875000000001
3.5871757839995553,0,0,1.2928688964843749,0,0,0.8421875000000001
3.588756843997544,0,0,1.3215993164062498,0,0,0.8421875000000001
3.590242403999582,0,0,1.484405029296875,0,0,0.9187500000000001
3.5918949070000963,0,0,1.4915876342773438,0,0,0.765625
3.5934976520002238,0,0,1.455674609375,0,0,0.765625
3.595001803998457,0,0,1.4987702392578124,0,0,0.8421875000000001
3.5965592530010326,0,0,1.3263877197265623,0,0,0.765625
3.5980692019984417,0,0,1.2928688964843749,0,0,0.765625
3.5995309479985735,0,0,1.1923124267578125,0,0,0.8421875000000001
3.6010340270004235,0,0,1.3718775512695311,0,0,0.9187500000000001
3.602980674997525,0,0,1.4245499877929686,0,0,0.9187500000000001
3.6044977540004766,0,0,1.4724340209960938,0,0,1.0718750000000001
3.6059894069985603,0,0,1.5083470458984374,0,0,0.8421875000000001
3.60763631699956,0,0,1.3215993164062498,0,0,1.0718750000000001
3.609204321001016,0,0,1.3718775512695311,0,0,1.0718750000000001
3.6106791229976807,0,0,1.2713210815429687,0,0,0.6125
3.612202978998539,0,0,1.350329736328125,0,0,0.9187500000000001
3.613868314998399,0,0,1.4173673828125,0,0,0.765625
3.6154126529982022,0,0,1.35990654296875,0,0,0.9953125
3.616878769000323,0,0,1.3910311645507811,0,0,0.6890625
3.618384828998387,0,0,1.3335703247070312,0,0,0.8421875000000001
3.61991924099857,0,0,1.4006079711914061,0,0,1.1484375
3.6217921130009927,0,0,1.3287819213867187,0,0,0.8421875000000001
3.623424597997655,0,0,1.3718775512695311,0,0,0.9187500000000001
3.625465727000119,0,0,1.3766659545898436,0,0,0.8421875000000001
3.6270562860008795,0,0,1.39821376953125,0,0,0.8421875000000001
3.6285595320005086,0,0,1.3215993164062498,0,0,0.8421875000000001
3.6301651280009537,0,0,1.2593500732421874,0,0,0.5359375000000001
3.631894629997987,0,0,1.1420341918945311,0,0,0.8421875000000001
3.633508892999089,0,0,1.2856862915039062,0,0,0.8421875000000001
3.635185396000452,0,0,1.4724340209960938,0,0,0.45937500000000003
3.6368455849988095,0,0,1.43652099609375,0,0,0.6890625
3.6384002560007502,0,0,1.369483349609375,0,0,0.8421875000000001
3.6400057040009415,0,0,1.3048399047851562,0,0,0.8421875000000001
3.641475078999065,0,0,1.3239935180664062,0,0,0.45937500000000003
3.643318302998523,0,0,1.2832920898437499,0,0,0.9187500000000001
3.644926121000026,0,0,1.2617442749023438,0,0,0.9187500000000001
3.646461107000505,0,0,1.4101847778320311,0,0,0.30625
3.6479536859988,0,0,1.5107412475585937,0,0,1.1484375
3.6496908179979073,0,0,1.3814543579101561,0,0,-9.1109375
3.6512680070009083,0,0,1.2665326782226562,0,0,0.8421875000000001
3.6527384929977416,0,0,1.3407529296874998,0,0,0.6890625
3.654458033000992,0,0,1.350329736328125,0,0,0.6890625
3.6561801280004147,0,0,1.24498486328125,0,0,0.9953125
3.657793538997794,0,0,1.4772224243164063,0,0,0.6890625
3.659287950998987,0,0,1.350329736328125,0,0,0.765625
3.6608802519986057,0,0,1.4532804077148436,0,0,0.765625
3.6624403479981993,0,0,1.2976572998046874,0,0,0.8421875000000001
3.6639033350002137,0,0,1.3551181396484375,0,0,0.8421875000000001
3.665659318998223,0,0,1.3024457031249999,0,0,0.8421875000000001
3.667240247999871,0,0,1.3575123413085937,0,0,0.9187500000000001
3.6688214749992767,0,0,1.3646949462890625,0,0,0.6125
3.6703301460001967,0,0,1.4628572143554686,0,0,0.9187500000000001
3.67196742699889,0,0,1.47482822265625,0,0,0.45937500000000003
3.673437264998938,0,0,1.3479355346679687,0,0,1.0718750000000001
3.6749011959982454,0,0,1.3144167114257812,0,0,0.6890625
3.6764812559995335,0,0,1.2282254516601563,0,0,0.765625
3.678121203000046,0,0,1.2378022583007813,0,0,0.765625
3.6796760039978835,0,0,1.455674609375,0,0,0.6890625
3.681179693998274,0,0,1.4891934326171874,0,0,0.8421875000000001
3.6827708639975754,0,0,1.3287819213867187,0,0,0.765625
3.684308443000191,0,0,1.3527239379882812,0,0,0.6125
3.6857855589987594,0,0,1.3623007446289062,0,0,0.765625
3.6874181359999056,0,0,1.3239935180664062,0,0,0.6125
3.688961769999878,0,0,1.4772224243164063,0,0,0.6125
3.690470829998958,0,0,1.4604630126953124,0,0,0.9187500000000001
3.6920296489988687,0,0,1.4700398193359374,0,0,0.9187500000000001
3.6936006159994577,0,0,1.407790576171875,0,0,1.0718750000000001
3.695196415999817,0,0,1.2593500732421874,0,0,0.8421875000000001
3.6967931239996688,0,0,1.3742717529296875,0,0,0.8421875000000001
3.698356794000574,0,0,1.3192051147460937,0,0,0.765625
3.6998875949975627,0,0,1.2689268798828124,0,0,0.6125
3.7013785259987344,0,0,1.388636962890625,0,0,1.1484375
3.7028790859985747,0,0,1.3910311645507811,0,0,0.765625
3.704469792999589,0,0,1.39821376953125,0,0,1.0718750000000001
3.70604968599946,0,0,1.4891934326171874,0,0,0.6125
3.707511525000882,0,0,1.3335703247070312,0,0,0.6125
3.709092621000309,0,0,1.2617442749023438,0,0,0.8421875000000001
3.7118552069987345,0,0,1.2880804931640624,0,0,0.9187500000000001
3.713427970000339,0,0,1.3910311645507811,0,0,0.45937500000000003
3.714949233999505,0,0,1.3551181396484375,0,0,0.9187500000000001
3.7166084589989623,0,0,1.426944189453125,0,0,0.5359375000000001
3.71842299799755,0,0,1.2904746948242187,0,0,1.0718750000000001
3.719938205998915,0,0,1.2928688964843749,0,0,0.6125
3.721516839999822,0,0,1.4101847778320311,0,0,0.765625
3.7230966399984027,0,0,1.2761094848632812,0,0,0.6890625
3.7245747369997844,0,0,1.4963760375976562,0,0,0.6125
3.7262726109984214,0,0,1.4030021728515625,0,0,0.9187500000000001
3.727887170000031,0,0,1.43652099609375,0,0,0.6890625
3.729442914998799,0,0,1.2641384765625,0,0,1.0718750000000001
3.7309922339991317,0,0,1.3575123413085937,0,0,0.6890625
3.73271105099775,0,0,1.3120225097656248,0,0,0.6890625
3.7343412209993403,0,0,1.438915197753906,0,0,0.9953125
3.7358491890008736,0,0,1.5179238525390624,0,0,0.6125
3.7373233969992725,0,0,1.3072341064453123,0,0,0.9953125
3.738936752997688,0,0,1.43652099609375,0,0,0.6890625
3.740540515998873,0,0,1.3359645263671873,0,0,0.765625
3.742092983000475,0,0,1.3551181396484375,0,0,0.9187500000000001
3.7437088010010484,0,0,1.2976572998046874,0,0,0.765625
3.7452447499999835,0,0,1.2593500732421874,0,0,1.0718750000000001
3.746906289998151,0,0,1.4245499877929686,0,0,0.6125
3.7484881649979798,0,0,1.4317325927734375,0,0,0.6890625
3.7499885209981585,0,0,1.5131354492187499,0,0,0.9187500000000001
3.7514558779985236,0,0,1.3144167114257812,0,0,0.8421875000000001
3.752965530999063,0,0,1.5035586425781249,0,0,0.765625
3.754524145999312,0,0,1.3359645263671873,0,0,0.765625
3.7561058909996063,0,0,1.2593500732421874,0,0,1.1484375
3.7576105799998913,0,0,1.3479355346679687,0,0,0.0
3.75916047300052,0,0,1.5011644409179687,0,0,2.3734375
3.7607792179987882,0,0,1.4437036010742186,0,0,0.765625
3.7624304429991753,0,0,1.2976572998046874,0,0,0.9953125
3.763982224998472,0,0,1.465251416015625,0,0,0.9187500000000001
3.7655562849977287,0,0,1.3814543579101561,0,0,0.9187500000000001
3.7672627690008085,0,0,1.3551181396484375,0,0,0.765625
3.768792996001139,0,0,1.4508862060546874,0,0,0.30625
3.7704164989991114,0,0,1.3623007446289062,0,0,0.9953125
3.7722112230003404,0,0,1.4915876342773438,0,0,0.9187500000000001
3.773827689998143,0,0,1.2928688964843749,0,0,1.1484375
3.775302564998128,0,0,1.2737152832031249,0,0,0.6890625
3.776856828997552,0,0,1.484405029296875,0,0,1.0718750000000001
3.778488424999523,0,0,1.4173673828125,0,0,0.6125
3.780000781000126,0,0,1.4724340209960938,0,0,0.5359375000000001
3.7815883769981156,0,0,1.3575123413085937,0,0,0.8421875000000001
3.7831351409986382,0,0,1.5035586425781249,0,0,0.5359375000000001
3.78460208999968,0,0,1.3024457031249999,0,0,0.765625
3.7861471689975588,0,0,1.2832920898437499,0,0,0.8421875000000001
3.7877142840006854,0,0,1.37906015625,0,0,0.6890625
3.78922675099966,0,0,1.5011644409179687,0,0,0.6125
3.7908105329988757,0,0,1.4867992309570313,0,0,0.6125
3.7924136849978822,0,0,1.3072341064453123,0,0,0.765625
3.7940504100006365,0,0,1.5298948608398437,0,0,0.6125
3.795587730000989,0,0,1.2282254516601563,0,0,0.8421875000000001
3.79707240100106,0,0,1.3120225097656248,0,0,0.6890625
3.798693700999138,0,0,1.3048399047851562,0,0,0.6890625
3.8002280199980305,0,0,1.3168109130859373,0,0,0.45937500000000003
3.8016952840007434,0,0,1.467645617675781,0,0,0.3828125
3.8032186409982387,0,0,1.5203180541992187,0,0,0.9187500000000001
3.8047790519995033,0,0,1.4604630126953124,0,0,0.8421875000000001
3.8063059269989026,0,0,1.3000515014648437,0,0,0.6125
3.8078854310006136,0,0,1.3215993164062498,0,0,0.6125
3.8097785059981106,0,0,1.3311761230468748,0,0,0.8421875000000001
3.811327250998147,0,0,1.4532804077148436,0,0,0.765625
3.81298653200065,0,0,1.4341267944335936,0,0,0.6125
3.814541535997705,0,0,1.3670891479492187,0,0,0.765625
3.8161254839978938,0,0,1.5155296508789062,0,0,0.6125
3.817598581998027,0,0,1.3263877197265623,0,0,0.9953125
3.8192746399981843,0,0,1.2282254516601563,0,0,0.9187500000000001
3.8210818269981246,0,0,1.3718775512695311,0,0,0.765625
3.822720461001154,0,0,1.3215993164062498,0,0,0.9187500000000001
3.824181576997944,0,0,1.3862427612304686,0,0,0.45937500000000003
3.8257414879990392,0,0,1.3407529296874998,0,0,0.6890625
3.827266473999771,0,0,1.5035586425781249,0,0,0.5359375000000001
3.828956698998809,0,0,1.35990654296875,0,0,0.6890625
3.830731737998576,0,0,1.407790576171875,0,0,0.9187500000000001
3.8322604649983987,0,0,1.254561669921875,0,0,0.765625
3.8338425990004907,0,0,1.2425906616210938,0,0,0.8421875000000001
3.835405065998202,0,0,1.3718775512695311,0,0,0.5359375000000001
3.8368834590000915,0,0,1.4437036010742186,0,0,1.1484375
3.838871977997769,0,0,1.448492004394531,0,0,0.9953125
3.8406481279998843,0,0,1.407790576171875,0,0,0.9953125
3.842125651997776,0,0,1.4125789794921875,0,0,0.765625
3.843702284997562,0,0,1.3383587280273437,0,0,0.8421875000000001
3.8452763079985743,0,0,1.3239935180664062,0,0,0.6890625
3.8468334040007903,0,0,1.3958195678710936,0,0,0.6890625
3.84853801799909,0,0,1.388636962890625,0,0,1.1484375
3.8501254670009075,0,0,1.3862427612304686,0,0,0.765625
3.8516780259997176,0,0,1.3168109130859373,0,0,0.6125
3.8531892899991362,0,0,1.455674609375,0,0,0.8421875000000001
3.854781052999897,0,0,1.3215993164062498,0,0,0.5359375000000001
3.8563326689982205,0,0,1.4796166259765624,0,0,0.8421875000000001
3.8578813950007316,0,0,1.3910311645507811,0,0,0.8421875000000001
3.8593905289999384,0,0,1.3838485595703125,0,0,1.1484375
3.8610017179998977,0,0,1.4341267944335936,0,0,0.765625
3.8625793699975475,0,0,1.2641384765625,0,0,1.0718750000000001
3.86409535599887,0,0,1.3192051147460937,0,0,0.9187500000000001
3.865560934998939,0,0,1.3144167114257812,0,0,0.5359375000000001
3.8670685879988014,0,0,1.2521674682617188,0,0,0.6125
3.868610813999112,0,0,1.4149731811523436,0,0,0.3828125
3.8701095229989733,0,0,1.235408056640625,0,0,0.8421875000000001
3.8717638779999106,0,0,1.3934253662109375,0,0,0.6125
3.873456696001085,0,0,1.3120225097656248,0,0,1.225
3.8750878290011315,0,0,1.35990654296875,0,0,0.9953125
3.876789830999769,0,0,1.37906015625,0,0,0.6125
3.8784991489992535,0,0,1.4053963745117186,0,0,1.0718750000000001
3.880159244999959,0,0,1.4796166259765624,0,0,0.6125
3.8818967469997006,0,0,1.388636962890625,0,0,1.0718750000000001
3.883551342998544,0,0,1.2617442749023438,0,0,0.765625
3.88529404899964,0,0,1.3623007446289062,0,0,0.5359375000000001
3.886900107998372,0,0,1.4867992309570313,0,0,0.6890625
3.8884385199999087,0,0,1.3000515014648437,0,0,0.5359375000000001
3.890270113999577,0,0,1.4508862060546874,0,0,0.8421875000000001
3.8918526179986657,0,0,1.4413093994140624,0,0,0.9187500000000001
3.8933762890010257,0,0,1.4508862060546874,0,0,0.8421875000000001
3.894978866999736,0,0,1.3215993164062498,0,0,0.6125
3.8965970930003095,0,0,1.3048399047851562,0,0,0.5359375000000001
3.8981754119995458,0,0,1.3048399047851562,0,0,0.9187500000000001
3.899768192997726,0,0,1.2401964599609374,0,0,0.9187500000000001
3.9013151609979104,0,0,1.5083470458984374,0,0,0.6125
3.902875239000423,0,0,1.467645617675781,0,0,0.6890625
3.904468001997884,0,0,1.426944189453125,0,0,0.765625
3.9060719499975676,0,0,1.3479355346679687,0,0,0.5359375000000001
3.9077017679992423,0,0,1.3646949462890625,0,0,0.6125
3.9093495489978523,0,0,1.3934253662109375,0,0,0.9953125
3.9110058859987475,0,0,1.22583125,0,0,0.765625
3.9124865570011025,0,0,1.4053963745117186,0,0,0.5359375000000001
3.9139488029977656,0,0,1.2904746948242187,0,0,0.9187500000000001
3.9155316399992444,0,0,1.3766659545898436,0,0,1.0718750000000001
3.91705764499784,0,0,1.3215993164062498,0,0,0.9187500000000001
3.9185540750004293,0,0,1.3766659545898436,0,0,0.5359375000000001
3.9201383939980587,0,0,1.3766659545898436,0,0,0.5359375000000001
3.9220769130006374,0,0,1.22583125,0,0,0.765625
3.9238080819995957,0,0,1.407790576171875,0,0,0.5359375000000001
3.9263841699976183,0,0,1.5418658691406248,0,0,0.765625
3.9279845809978724,0,0,1.47482822265625,0,0,0.9953125
3.929447900998639,0,0,1.3623007446289062,0,0,0.8421875000000001
3.9310782749998907,0,0,1.2785036865234374,0,0,0.6890625
3.932686592997925,0,0,1.2713210815429687,0,0,0.45937500000000003
3.934218245998636,0,0,1.4963760375976562,0,0,0.9187500000000001
3.935680787999445,0,0,1.43652099609375,0,0,0.6890625
3.9371852919975936,0,0,1.3263877197265623,0,0,1.0718750000000001
3.9388153330000932,0,0,1.3000515014648437,0,0,0.765625
3.940406224999606,0,0,1.3910311645507811,0,0,0.765625
3.9418633790010063,0,0,1.39821376953125,0,0,0.9953125
3.9433224759995937,0,0,1.2473790649414063,0,0,0.5359375000000001
3.9448627029996715,0,0,1.2976572998046874,0,0,0.9187500000000001
3.9463946699979715,0,0,1.4221557861328125,0,0,2.3734375
3.947901766998257,0,0,1.3048399047851562,0,0,0.9953125
3.9495420300008846,0,0,1.3551181396484375,0,0,0.9187500000000001
3.951264125000307,0,0,1.3431471313476562,0,0,0.9187500000000001
3.9528199810010847,0,0,1.3192051147460937,0,0,1.0718750000000001
3.9544374479992257,0,0,1.3527239379882812,0,0,0.5359375000000001
3.9559994890005328,0,0,1.4413093994140624,0,0,0.9953125
3.9575258269978804,0,0,1.438915197753906,0,0,0.5359375000000001
3.958982869000465,0,0,1.2521674682617188,0,0,0.9187500000000001
3.960563964999892,0,0,1.5275006591796874,0,0,0.8421875000000001
3.963001145999442,0,0,1.2785036865234374,0,0,0.6125
3.9645094289990084,0,0,1.3000515014648437,0,0,0.9187500000000001
3.966340022998338,0,0,1.3000515014648437,0,0,0.6890625
3.967824434999784,0,0,1.4700398193359374,0,0,0.6890625
3.9692704589979257,0,0,1.458068811035156,0,0,0.6125
3.9707987590008997,0,0,1.4173673828125,0,0,0.8421875000000001
3.9723300420009764,0,0,1.3192051147460937,0,0,0.9187500000000001
3.9738213060009,0,0,1.3072341064453123,0,0,0.6125
3.9753116440006124,0,0,1.3072341064453123,0,0,0.8421875000000001
3.9770406460011145,0,0,1.2378022583007813,0,0,0.5359375000000001
3.9785049479978625,0,0,1.4820108276367188,0,0,0.765625
3.9799517120009114,0,0,1.4796166259765624,0,0,0.765625
3.981475198001135,0,0,1.4245499877929686,0,0,0.5359375000000001
3.98300618400026,0,0,1.3551181396484375,0,0,1.225
3.984465151999757,0,0,1.3311761230468748,0,0,0.9953125
3.9859851750006783,0,0,1.5083470458984374,0,0,0.765625
3.987681991999125,0,0,1.3168109130859373,0,0,0.6890625
3.9891751270006353,0,0,1.484405029296875,0,0,0.9187500000000001
3.9906309279976995,0,0,1.4939818359375,0,0,0.5359375000000001
3.992130618000374,0,0,1.4724340209960938,0,0,0.6890625
3.9938054169979296,0,0,1.3527239379882812,0,0,0.765625
3.9953033109995886,0,0,1.3263877197265623,0,0,0.765625
