Time (s),Accel X,Accel Y,Accel Z,Gyro X,Gyro Y,Gyro Z,Temperature (C)
0.012865714001236483,0.12210428466796874,-9.861716638183593,1.1109095703125,0,0,0,0
0.015383053992991336,0.076614453125,-9.945513696289062,1.1755530151367186,0,0,0,0
0.01773958100238815,0.031124621582031248,-9.928754284667969,1.0606313354492187,0,0,0,0
0.020095182000659406,0.13168109130859373,-9.840168823242188,1.199495031738281,0,0,0,0
0.022545892992638983,-0.011971008300781249,-9.80665,1.0845733520507812,0,0,0,0
0.02502114100207109,0.07422025146484375,-9.770736975097655,1.0726023437499999,0,0,0,0
0.028422988994861953,-0.01915361328125,-9.947907897949218,1.0342951171875,0,0,0,0
0.03204329599975608,0.1388636962890625,-9.749189160156249,1.0558429321289062,0,0,0,0
0.034244640002725646,0.16998831787109375,-9.794678991699218,1.1947066284179686,0,0,0,0
0.03637507700477727,-0.016759411621093748,-9.880870251464843,1.0654197387695312,0,0,0,0
0.03854664300160948,0.13407529296874998,-9.916783276367187,1.1252747802734375,0,0,0,0
0.04111461200227495,0.016759411621093748,-9.907206469726562,0.9792284790039062,0,0,0,0
0.04326425299223047,-0.02633621826171875,-9.835380419921874,1.0989385620117187,0,0,0,0
0.0464820659981342,0.13646949462890623,-9.660603698730467,1.0749965454101562,0,0,0,0
0.04868644599628169,0.1005564697265625,-9.732429748535155,1.158793603515625,0,0,0,0
0.05079251299321186,-0.0047884033203125,-9.821015209960937,1.0749965454101562,0,0,0,0
0.053489591999095865,0.10295067138671875,-9.873687646484374,1.0893617553710937,0,0,0,0
0.055738045994075947,-0.00239420166015625,-9.7683427734375,1.0749965454101562,0,0,0,0
0.05847879000066314,0.181959326171875,-9.763554370117188,1.1180921752929687,0,0,0,0
0.060698040993884206,0.22744915771484372,-9.835380419921874,1.1276689819335937,0,0,0,0
0.06342160099302419,0.009576806640625,-10.084377392578125,1.16837041015625,0,0,0,0
0.06578857199929189,0.08140285644531249,-9.86411083984375,1.0893617553710937,0,0,0,0
0.06929215899435803,0.02154781494140625,-9.751583361816406,1.149216796875,0,0,0,0
0.07206892200338189,0.11013327636718749,-9.821015209960937,1.1468225952148436,0,0,0,0
0.07441104100144003,-0.011971008300781249,-9.909600671386718,1.1061211669921875,0,0,0,0
0.07667827300610952,-0.07900865478515624,-9.900023864746093,1.0582371337890624,0,0,0,0
0.07894161599688232,0.086191259765625,-9.782707983398437,0.9265560424804687,0,0,0,0
0.08119686599820852,0.09337386474609374,-9.83777462158203,1.1372457885742187,0,0,0,0
0.08380981600203086,0.09816226806640624,-9.883264453125,1.024718310546875,0,0,0,0
0.0855247769941343,0.1149216796875,-9.880870251464843,0.9983820922851562,0,0,0,0
0.0872183860046789,0.00239420166015625,-9.89523546142578,1.0726023437499999,0,0,0,0
0.08880810700065922,0.0,-10.098742602539062,1.0319009155273438,0,0,0,0
0.09046375399339013,0.13646949462890623,-9.885658654785155,1.1037269653320312,0,0,0,0
0.09212658599426504,0.2609679809570312,-9.82580361328125,1.149216796875,0,0,0,0
0.09370580699760467,0.16759411621093748,-9.85692823486328,1.1037269653320312,0,0,0,0
0.09596750199852977,0.086191259765625,-9.9215716796875,1.1540052001953125,0,0,0,0
0.09771416599687655,0.0909796630859375,-9.94072529296875,1.0390835205078124,0,0,0,0
0.0993021280009998,0.1149216796875,-9.861716638183593,1.0606313354492187,0,0,0,0
0.10164289599924814,-0.040701428222656245,-9.89523546142578,1.1061211669921875,0,0,0,0
0.10371105599915609,0.11252747802734374,-9.763554370117188,1.1827356201171875,0,0,0,0
0.10553234899998643,0.17477672119140625,-9.804255798339844,1.1061211669921875,0,0,0,0
0.10716843999398407,0.239420166015625,-9.832986218261718,1.0510545288085937,0,0,0,0
0.10885443800361827,-0.04548983154296875,-9.873687646484374,1.0654197387695312,0,0,0,0
0.11061465699458495,0.1005564697265625,-9.943119494628906,1.1252747802734375,0,0,0,0
0.11230406300455797,0.06464344482421874,-9.797073193359374,1.1707646118164061,0,0,0,0
0.11398424599610735,-0.07422025146484375,-9.849745629882811,1.0989385620117187,0,0,0,0
0.11618399700091686,0.11731588134765625,-9.696516723632811,1.0893617553710937,0,0,0,0
0.11806415999308228,0.1484405029296875,-9.792284790039062,1.0965443603515623,0,0,0,0
0.11975280600017868,0.13646949462890623,-9.674968908691406,1.0702081420898437,0,0,0,0
0.1218044849956641,0.023942016601562498,-9.907206469726562,1.0079588989257813,0,0,0,0
0.12369011000555474,0.05746083984375,-9.871293444824218,1.1109095703125,0,0,0,0
0.12618943100096658,0.076614453125,-9.804255798339844,1.1133037719726562,0,0,0,0
0.12800359399989247,0.04548983154296875,-9.804255798339844,1.0606313354492187,0,0,0,0
0.12960301899875049,0.277727392578125,-9.97903251953125,0.9959878906249999,0,0,0,0
0.13206208200426772,0.10295067138671875,-9.883264453125,1.1180921752929687,0,0,0,0
0.1339817809930537,0.07422025146484375,-9.962273107910155,1.1444283935546875,0,0,0,0
0.1358260179986246,-0.00718260498046875,-9.801861596679688,1.1540052001953125,0,0,0,0
0.13772284699371085,0.00718260498046875,-9.87608184814453,1.2114660400390624,0,0,0,0
0.13957526900048833,0.1484405029296875,-9.82580361328125,1.0773907470703123,0,0,0,0
0.14139048699871637,0.08379705810546874,-9.785102185058593,1.1228805786132812,0,0,0,0
0.14377275499282405,0.05027823486328125,-9.713276135253906,1.1013327636718748,0,0,0,0
0.14554795599542558,0.13168109130859373,-9.964667309570311,1.0534487304687499,0,0,0,0
0.14782709500286728,0.040701428222656245,-9.830592016601562,1.0534487304687499,0,0,0,0
0.1498266629932914,0.02154781494140625,-9.866505041503906,1.0749965454101562,0,0,0,0
0.1516024379961891,0.07422025146484375,-9.849745629882811,1.1252747802734375,0,0,0,0
0.1534295080055017,0.1005564697265625,-9.782707983398437,1.0582371337890624,0,0,0,0
0.15577259099518415,0.07900865478515624,-9.926360083007811,1.0630255371093749,0,0,0,0
0.1575367909972556,0.02633621826171875,-9.983820922851562,1.0414777221679687,0,0,0,0
0.16095902799861506,0.076614453125,-9.81862100830078,1.0199299072265624,0,0,0,0
0.16281172700109892,0.0383072265625,-9.935936889648437,1.0390835205078124,0,0,0,0
0.16446861499571241,0.05985504150390625,-9.85692823486328,1.0702081420898437,0,0,0,0
0.16654438599653076,0.13168109130859373,-9.840168823242188,1.0175357055664063,0,0,0,0
0.16835464199539274,-0.07422025146484375,-9.900023864746093,0.9600748657226562,0,0,0,0
0.16993632599769626,-0.05746083984375,-9.988609326171874,1.0654197387695312,0,0,0,0
0.17170069400162902,0.08379705810546874,-9.86411083984375,1.0821791503906248,0,0,0,0
0.17417575599392876,0.04548983154296875,-9.785102185058593,1.1037269653320312,0,0,0,0
0.17591862399422098,0.033518823242187495,-9.797073193359374,1.0342951171875,0,0,0,0
0.17759267799556255,0.076614453125,-9.720458740234374,0.9959878906249999,0,0,0,0
0.1800387779949233,0.1197100830078125,-9.945513696289062,1.0606313354492187,0,0,0,0
0.18168184999376535,-0.01915361328125,-9.91438907470703,1.0893617553710937,0,0,0,0
0.1832424610038288,0.05027823486328125,-9.79946739501953,1.216254443359375,0,0,0,0
0.18485905199486297,0.10773907470703124,-9.78031378173828,1.0486603271484374,0,0,0,0
0.1862585350027075,0.1580173095703125,-9.746794958496093,1.0917559570312498,0,0,0,0
0.1876425929949619,0.11731588134765625,-9.758765966796874,1.0893617553710937,0,0,0,0
0.18918927799677476,0.047884033203124995,-9.859322436523437,1.0366893188476562,0,0,0,0
0.190725313994335,0.10295067138671875,-9.9215716796875,1.0869675537109373,0,0,0,0
0.192116760998033,0.12449848632812499,-9.87608184814453,1.0678139404296874,0,0,0,0
0.19345915199664887,0.06943184814453125,-9.89523546142578,1.13006318359375,0,0,0,0
0.19499009600258432,0.08858546142578125,-9.91438907470703,1.1324573852539062,0,0,0,0
0.1966437240043888,0.04548983154296875,-9.919177478027343,1.0319009155273438,0,0,0,0
0.19804085500072688,0.0430956298828125,-9.821015209960937,1.0749965454101562,0,0,0,0
0.19938720899517648,0.1388636962890625,-9.777919580078125,1.1635820068359375,0,0,0,0
0.20096185700094793,0.05746083984375,-9.842563024902343,1.13006318359375,0,0,0,0
0.20252189399616327,0.031124621582031248,-9.866505041503906,1.0965443603515623,0,0,0,0
0.2039085989963496,0.1149216796875,-9.976638317871092,1.0582371337890624,0,0,0,0
0.20530117499583866,0.062249243164062495,-9.93354268798828,1.216254443359375,0,0,0,0
0.2070242649933789,0.13646949462890623,-9.849745629882811,1.0295067138671874,0,0,0,0
0.20858263499394525,-0.0143652099609375,-9.81862100830078,0.967257470703125,0,0,0,0
0.2099337289982941,-0.028730419921875,-9.773131176757811,1.0917559570312498,0,0,0,0
0.21142480400158092,0.15322890625,-9.739612353515625,1.1372457885742187,0,0,0,0
0.21291341600590385,0.143652099609375,-9.873687646484374,1.0486603271484374,0,0,0,0
0.21436078699480277,0.00239420166015625,-9.952696301269532,1.1659762084960936,0,0,0,0
0.21590041600575205,0.00239420166015625,-9.885658654785155,1.0271125122070313,0,0,0,0
0.21764674699807074,-0.0047884033203125,-9.866505041503906,1.0366893188476562,0,0,0,0
0.21909265499562025,0.03591302490234375,-9.890447058105469,0.9864110839843749,0,0,0,0
0.220444286998827,0.031124621582031248,-9.813832604980469,1.1013327636718748,0,0,0,0
0.22218548800447024,0.15083470458984374,-9.732429748535155,1.1324573852539062,0,0,0,0
0.22376189500209875,0.10773907470703124,-9.770736975097655,1.1563994018554686,0,0,0,0
0.22517985900049098,0.14125789794921875,-9.842563024902343,1.1468225952148436,0,0,0,0
0.22660306400211994,0.16998831787109375,-9.885658654785155,1.1372457885742187,0,0,0,0
0.22855863299628254,-0.08140285644531249,-9.945513696289062,0.9792284790039062,0,0,0,0
0.23062047800340224,0.0718260498046875,-9.888052856445311,1.16837041015625,0,0,0,0
0.23298917200008873,0.0,-9.7683427734375,1.0654197387695312,0,0,0,0
0.23482435299956705,0.06943184814453125,-9.90241806640625,1.0606313354492187,0,0,0,0
0.23645451899210457,-0.0047884033203125,-9.950302099609374,1.0271125122070313,0,0,0,0
0.2383925320027629,0.0143652099609375,-9.82580361328125,1.0654197387695312,0,0,0,0
0.24029423100000713,0.08140285644531249,-9.947907897949218,1.0295067138671874,0,0,0,0
0.2418109540012665,0.00239420166015625,-9.871293444824218,1.120486376953125,0,0,0,0
0.24399444600567222,0.02154781494140625,-9.950302099609374,1.1228805786132812,0,0,0,0
0.24561687000095844,0.0718260498046875,-9.85692823486328,1.1516109985351561,0,0,0,0
0.24710768599470612,0.11731588134765625,-9.797073193359374,1.1468225952148436,0,0,0,0
0.24868955499550793,0.04548983154296875,-9.83777462158203,1.1516109985351561,0,0,0,0
0.25193062699690927,0.11252747802734374,-9.955090502929687,1.0773907470703123,0,0,0,0
0.25342492399795447,-0.00718260498046875,-9.888052856445311,1.0103531005859374,0,0,0,0
0.2549109240062535,0.08858546142578125,-9.775525378417969,1.0773907470703123,0,0,0,0
0.25638381400494836,0.1005564697265625,-9.7683427734375,1.0726023437499999,0,0,0,0
0.2577937409951119,0.0383072265625,-9.715670336914062,1.1180921752929687,0,0,0,0
0.2591917800018564,0.28012159423828126,-9.87608184814453,1.1252747802734375,0,0,0,0
0.26120658799482044,0.10773907470703124,-9.804255798339844,1.139639990234375,0,0,0,0
0.26272931099811103,0.01915361328125,-9.91438907470703,1.0726023437499999,0,0,0,0
0.26411149799241684,0.023942016601562498,-9.90241806640625,1.0726023437499999,0,0,0,0
0.26545270399947185,0.02154781494140625,-9.897629663085937,1.120486376953125,0,0,0,0
0.26679650199366733,-0.00239420166015625,-9.873687646484374,1.0773907470703123,0,0,0,0
0.26821135499631055,0.07422025146484375,-9.753977563476562,1.0462661254882812,0,0,0,0
0.26962698600254953,0.10773907470703124,-9.710881933593749,1.2138602416992186,0,0,0,0
0.27097954400232993,0.0718260498046875,-9.859322436523437,1.1061211669921875,0,0,0,0
0.2727817999984836,0.08379705810546874,-9.9215716796875,1.0654197387695312,0,0,0,0
0.27432018899708055,0.1005564697265625,-9.97184991455078,1.0749965454101562,0,0,0,0
0.2757825779990526,0.04548983154296875,-9.87608184814453,1.0486603271484374,0,0,0,0
0.27712758000416216,0.13168109130859373,-9.897629663085937,0.9433154541015625,0,0,0,0
0.27847574900079053,0.0047884033203125,-9.955090502929687,1.1444283935546875,0,0,0,0
0.27997339800640475,0.06703764648437499,-9.749189160156249,1.199495031738281,0,0,0,0
0.2816685249999864,0.055066638183593745,-9.660603698730467,1.1348515869140625,0,0,0,0
0.28315135900629684,0.086191259765625,-9.87608184814453,1.0965443603515623,0,0,0,0
0.28523320400563534,0.1292868896484375,-9.852139831542969,1.2042834350585936,0,0,0,0
0.28686514700530097,0.0909796630859375,-9.804255798339844,1.0654197387695312,0,0,0,0
0.2884420539921848,0.016759411621093748,-9.868899243164062,0.9864110839843749,0,0,0,0
0.2904627700045239,-0.01915361328125,-9.86411083984375,1.0678139404296874,0,0,0,0
0.292123453997192,0.0143652099609375,-9.749189160156249,1.149216796875,0,0,0,0
0.29359936200489756,0.1388636962890625,-9.770736975097655,1.1420341918945311,0,0,0,0
0.29542730300454423,0.0,-9.821015209960937,1.0821791503906248,0,0,0,0
0.2969770060008159,-0.040701428222656245,-9.955090502929687,1.0726023437499999,0,0,0,0
0.2985638760001166,0.09576806640624999,-9.852139831542969,1.0414777221679687,0,0,0,0
0.3000974680035142,0.0430956298828125,-9.93354268798828,1.0845733520507812,0,0,0,0
0.30210964700381737,-0.12210428466796874,-9.8449572265625,1.139639990234375,0,0,0,0
0.3040276800020365,-0.04548983154296875,-9.765948571777344,1.0965443603515623,0,0,0,0
0.3056040119990939,0.181959326171875,-9.842563024902343,1.0366893188476562,0,0,0,0
0.30710340199584607,0.086191259765625,-9.830592016601562,1.0510545288085937,0,0,0,0
0.3086746229964774,0.0143652099609375,-9.885658654785155,1.1037269653320312,0,0,0,0
0.3101987529953476,0.09816226806640624,-9.94072529296875,1.0773907470703123,0,0,0,0
0.3117001420032466,0.07900865478515624,-9.9215716796875,1.149216796875,0,0,0,0
0.31352671299828216,-0.02154781494140625,-9.849745629882811,1.1324573852539062,0,0,0,0
0.3149612139968667,0.06464344482421874,-9.82580361328125,1.1180921752929687,0,0,0,0
0.31631501199444756,0.1005564697265625,-9.830592016601562,1.0534487304687499,0,0,0,0
0.3176586990011856,0.09576806640624999,-9.792284790039062,1.0941501586914062,0,0,0,0
0.31907781200425234,0.08379705810546874,-9.866505041503906,1.1635820068359375,0,0,0,0
0.320469721002155,0.05027823486328125,-9.900023864746093,1.1252747802734375,0,0,0,0
0.3218108159926487,0.02154781494140625,-9.983820922851562,1.0845733520507812,0,0,0,0
0.3231562809960451,0.08379705810546874,-9.90241806640625,1.0534487304687499,0,0,0,0
0.3248825930058956,0.016759411621093748,-9.945513696289062,1.0917559570312498,0,0,0,0
0.3262925580056617,0.13168109130859373,-9.89523546142578,1.0342951171875,0,0,0,0
0.32767193000472616,0.06464344482421874,-9.701305126953125,1.1156979736328125,0,0,0,0
0.32964862800145056,0.023942016601562498,-9.830592016601562,1.1635820068359375,0,0,0,0
0.3310832959978143,0.028730419921875,-9.871293444824218,1.1276689819335937,0,0,0,0
0.3324298350053141,0.24660277099609373,-9.866505041503906,1.1228805786132812,0,0,0,0
0.3347499550000066,-0.047884033203124995,-9.923965881347655,1.0893617553710937,0,0,0,0
0.3363040469994303,-0.028730419921875,-9.890447058105469,0.9983820922851562,0,0,0,0
0.33769927099638153,0.023942016601562498,-9.76116016845703,1.0989385620117187,0,0,0,0
0.3391084949980723,0.10773907470703124,-9.83777462158203,1.1228805786132812,0,0,0,0
0.3404610339930514,0.17238251953125,-9.85692823486328,1.1109095703125,0,0,0,0
0.34196345999953337,0.047884033203124995,-9.830592016601562,1.005564697265625,0,0,0,0
0.343409220004105,0.047884033203124995,-9.871293444824218,1.0462661254882812,0,0,0,0
0.34475788900454063,0.12210428466796874,-9.945513696289062,1.149216796875,0,0,0,0
0.3461118169943802,0.14604630126953125,-9.95987890625,1.1061211669921875,0,0,0,0
0.3477258530037943,0.16519991455078123,-9.935936889648437,1.0654197387695312,0,0,0,0
0.34927666699513793,-0.03591302490234375,-9.751583361816406,1.0989385620117187,0,0,0,0
0.35067583600175567,0.03591302490234375,-9.8449572265625,1.1276689819335937,0,0,0,0
0.3520255790062947,0.09816226806640624,-9.7683427734375,1.2018892333984375,0,0,0,0
0.3533601550007006,0.03591302490234375,-9.749189160156249,1.1635820068359375,0,0,0,0
0.3548863220057683,0.1867477294921875,-9.892841259765625,1.0702081420898437,0,0,0,0
0.35671818800619803,-0.05027823486328125,-9.916783276367187,1.0821791503906248,0,0,0,0
0.358271650999086,-0.0047884033203125,-10.031704956054687,0.9337386474609375,0,0,0,0
0.3597003559989389,0.1149216796875,-9.859322436523437,1.0749965454101562,0,0,0,0
0.3614497420057887,0.10773907470703124,-9.787496386718749,0.9457096557617187,0,0,0,0
0.36298238999734167,0.16759411621093748,-9.797073193359374,1.1707646118164061,0,0,0,0
0.36434733599890023,-0.0047884033203125,-9.832986218261718,1.0175357055664063,0,0,0,0
0.36569143099768553,0.10295067138671875,-9.835380419921874,1.0965443603515623,0,0,0,0
0.36728683799447026,0.08140285644531249,-9.751583361816406,1.1061211669921875,0,0,0,0
0.36870804299542215,-0.0909796630859375,-9.888052856445311,0.9959878906249999,0,0,0,0
0.3700533779920079,0.031124621582031248,-9.981426721191406,1.0223241088867188,0,0,0,0
0.37141860199335497,0.09576806640624999,-9.87608184814453,1.0630255371093749,0,0,0,0
0.3730041200033156,0.1292868896484375,-9.897629663085937,1.0965443603515623,0,0,0,0
0.37447195399727207,0.09816226806640624,-9.888052856445311,1.180341418457031,0,0,0,0
0.37581641899305396,0.062249243164062495,-9.866505041503906,1.1827356201171875,0,0,0,0
0.3771562920010183,0.062249243164062495,-9.751583361816406,1.0630255371093749,0,0,0,0
0.37863112600462046,0.0526724365234375,-9.93354268798828,1.1827356201171875,0,0,0,0
0.38051223299407866,0.009576806640625,-10.022128149414062,1.1276689819335937,0,0,0,0
0.38185395700566005,0.0718260498046875,-9.828197814941406,1.0893617553710937,0,0,0,0
0.3834100310050417,-0.05746083984375,-9.79946739501953,0.9528922607421875,0,0,0,0
0.38496317899262067,0.14125789794921875,-9.900023864746093,1.1923124267578125,0,0,0,0
0.38660043699201196,0.07422025146484375,-9.873687646484374,1.13006318359375,0,0,0,0
0.38850628399814013,0.03591302490234375,-9.86411083984375,1.0582371337890624,0,0,0,0
0.3899945070006652,0.10773907470703124,-9.935936889648437,1.16837041015625,0,0,0,0
0.39142013700620737,0.12449848632812499,-9.880870251464843,1.1875240234375,0,0,0,0
0.3929098789958516,0.00239420166015625,-9.900023864746093,1.0486603271484374,0,0,0,0
0.3944131939933868,0.04548983154296875,-9.916783276367187,0.9959878906249999,0,0,0,0
0.3960113039938733,0.0,-9.797073193359374,1.0510545288085937,0,0,0,0
0.3977361900033429,-0.016759411621093748,-9.794678991699218,1.1037269653320312,0,0,0,0
0.39968359300110023,0.1149216796875,-9.866505041503906,1.0773907470703123,0,0,0,0
0.4011697039968567,0.009576806640625,-9.816226806640625,1.1659762084960936,0,0,0,0
0.4026146310061449,0.03591302490234375,-9.868899243164062,1.0606313354492187,0,0,0,0
0.40406029899895657,-0.15322890625,-9.931148486328125,1.0223241088867188,0,0,0,0
0.40551789199525956,0.07422025146484375,-10.01015714111328,1.0103531005859374,0,0,0,0
0.4070381140045356,0.02154781494140625,-9.866505041503906,1.1324573852539062,0,0,0,0
0.40897877600218635,0.05746083984375,-9.809044201660155,1.0773907470703123,0,0,0,0
0.4104414059984265,0.09576806640624999,-9.756371765136718,1.1731588134765625,0,0,0,0
0.4126890640036436,0.12210428466796874,-9.737218151855469,1.1468225952148436,0,0,0,0
0.4143148220027797,0.143652099609375,-9.813832604980469,0.928950244140625,0,0,0,0
0.41723899099451955,-0.05746083984375,-9.847351428222655,0.9361328491210937,0,0,0,0
0.4193706869991729,0.105344873046875,-9.931148486328125,1.0821791503906248,0,0,0,0
0.4209335199993802,0.14604630126953125,-9.74200655517578,1.0989385620117187,0,0,0,0
0.42239529799553566,-0.011971008300781249,-9.715670336914062,1.1133037719726562,0,0,0,0
0.42393407599593047,0.031124621582031248,-9.840168823242188,1.1037269653320312,0,0,0,0
0.42550546399434097,0.15083470458984374,-9.830592016601562,0.9983820922851562,0,0,0,0
0.4276142169983359,0.062249243164062495,-9.880870251464843,1.0582371337890624,0,0,0,0
0.42916156799765304,-0.00718260498046875,-9.928754284667969,1.1228805786132812,0,0,0,0
0.4310782489919802,0.13646949462890623,-9.79946739501953,1.1947066284179686,0,0,0,0
0.4325493600044865,0.16998831787109375,-9.80665,1.1228805786132812,0,0,0,0
0.43403578699508216,0.08140285644531249,-9.794678991699218,1.13006318359375,0,0,0,0
0.4355998599930899,0.040701428222656245,-9.830592016601562,1.0797849487304687,0,0,0,0
0.43709691599360667,0.08379705810546874,-9.813832604980469,1.0965443603515623,0,0,0,0
0.4390894109965302,0.086191259765625,-9.900023864746093,1.1037269653320312,0,0,0,0
0.44071429800533224,0.0526724365234375,-9.90241806640625,1.0462661254882812,0,0,0,0
0.44224659400060773,0.02633621826171875,-9.847351428222655,1.0079588989257813,0,0,0,0
0.4437392989930231,0.07900865478515624,-9.892841259765625,1.139639990234375,0,0,0,0
0.44518457699450664,0.0430956298828125,-9.82580361328125,1.0342951171875,0,0,0,0
0.44664633700449485,0.16280571289062498,-9.821015209960937,1.0486603271484374,0,0,0,0
0.448176596997655,0.10295067138671875,-9.82580361328125,1.1228805786132812,0,0,0,0
0.4502210899954662,-0.00239420166015625,-9.962273107910155,0.9361328491210937,0,0,0,0
0.451979328005109,0.062249243164062495,-9.938331091308592,1.0223241088867188,0,0,0,0
0.45349988399539143,0.15562310791015624,-9.868899243164062,1.0462661254882812,0,0,0,0
0.4550232170004165,0.06943184814453125,-9.782707983398437,1.0893617553710937,0,0,0,0
0.45647832899703644,-0.07422025146484375,-9.777919580078125,1.1372457885742187,0,0,0,0
0.4579202930035535,0.047884033203124995,-9.80665,1.1827356201171875,0,0,0,0
0.45936690499365795,0.1388636962890625,-9.794678991699218,1.1755530151367186,0,0,0,0
0.4614803799922811,0.03591302490234375,-9.988609326171874,1.1085153686523437,0,0,0,0
0.46317526600614656,0.05985504150390625,-9.797073193359374,1.1156979736328125,0,0,0,0
0.46463354499428533,0.05985504150390625,-9.842563024902343,1.0079588989257813,0,0,0,0
0.4661537119973218,0.1388636962890625,-9.842563024902343,1.0893617553710937,0,0,0,0
0.4677278960007243,0.0047884033203125,-9.794678991699218,1.189918225097656,0,0,0,0
0.46917810100421775,0.05027823486328125,-9.775525378417969,1.1061211669921875,0,0,0,0
0.47063291700033005,0.1388636962890625,-9.830592016601562,1.2234370483398436,0,0,0,0
0.472676909994334,0.19871873779296872,-9.677363110351562,1.0989385620117187,0,0,0,0
0.4743792789959116,-0.055066638183593745,-9.91438907470703,0.9361328491210937,0,0,0,0
0.47583735300577246,0.09576806640624999,-9.95987890625,1.120486376953125,0,0,0,0
0.4773614279984031,0.028730419921875,-9.909600671386718,1.1923124267578125,0,0,0,0
0.47932279300584923,0.02633621826171875,-9.885658654785155,1.189918225097656,0,0,0,0
0.480875217996072,0.09816226806640624,-9.753977563476562,1.1611878051757811,0,0,0,0
0.4823850700049661,-0.009576806640625,-9.804255798339844,1.1109095703125,0,0,0,0
0.48390964399732184,-0.05027823486328125,-9.873687646484374,0.9935936889648437,0,0,0,0
0.4873565279995091,0.06943184814453125,-9.835380419921874,0.9864110839843749,0,0,0,0
0.4898920720006572,-0.062249243164062495,-9.947907897949218,1.0654197387695312,0,0,0,0
0.49212954500399064,0.296881005859375,-9.773131176757811,1.1635820068359375,0,0,0,0
0.493752765993122,0.09337386474609374,-9.8449572265625,1.1324573852539062,0,0,0,0
0.4953698390017962,0.05027823486328125,-9.847351428222655,1.0295067138671874,0,0,0,0
0.4975025900057517,0.031124621582031248,-9.82580361328125,0.9888052856445312,0,0,0,0
0.49915253299695905,0.0526724365234375,-9.991003527832031,1.0486603271484374,0,0,0,0
0.5007822360057617,0.009576806640625,-9.81862100830078,1.1755530151367186,0,0,0,0
0.5023234020045493,0.0718260498046875,-9.89523546142578,1.1468225952148436,0,0,0,0
0.5043479699961608,0.11013327636718749,-9.727641345214844,1.1324573852539062,0,0,0,0
0.506575053994311,0.10773907470703124,-9.852139831542969,1.0510545288085937,0,0,0,0
0.5081686089979485,0.11731588134765625,-9.890447058105469,1.0869675537109373,0,0,0,0
0.509734812003444,-0.00718260498046875,-9.945513696289062,0.9911994873046874,0,0,0,0
0.5113602000055835,0.009576806640625,-9.943119494628906,1.0654197387695312,0,0,0,0
0.5129898839950329,0.06703764648437499,-9.801861596679688,1.0941501586914062,0,0,0,0
0.5148433610011125,0.07900865478515624,-9.823409411621093,1.1324573852539062,0,0,0,0
0.5170478530053515,0.06464344482421874,-9.801861596679688,1.1252747802734375,0,0,0,0
0.5188144239946268,0.055066638183593745,-9.931148486328125,1.1252747802734375,0,0,0,0
0.5205866250034887,0.16998831787109375,-9.787496386718749,1.1252747802734375,0,0,0,0
0.5224851389939431,-0.009576806640625,-9.880870251464843,1.0678139404296874,0,0,0,0
0.5241443779959809,-0.11252747802734374,-9.974244116210937,0.9600748657226562,0,0,0,0
0.5258885980001651,0.06464344482421874,-9.852139831542969,1.1133037719726562,0,0,0,0
0.5276355209934991,0.0526724365234375,-9.708487731933593,1.2234370483398436,0,0,0,0
0.5298037720058346,0.040701428222656245,-9.888052856445311,1.0582371337890624,0,0,0,0
0.5317544150020694,0.1580173095703125,-9.840168823242188,1.1420341918945311,0,0,0,0
0.5335086720006075,0.16041151123046873,-9.90241806640625,1.0773907470703123,0,0,0,0
0.5351396149926586,0.12449848632812499,-9.900023864746093,1.0965443603515623,0,0,0,0
0.5369522039982257,0.040701428222656245,-9.828197814941406,1.120486376953125,0,0,0,0
0.5385719990008511,0.11731588134765625,-9.86411083984375,1.0893617553710937,0,0,0,0
0.5401979979942553,0.296881005859375,-9.821015209960937,1.0630255371093749,0,0,0,0
0.5419587920041522,0.1484405029296875,-9.751583361816406,1.1611878051757811,0,0,0,0
0.5436619380052434,0.033518823242187495,-9.892841259765625,1.0486603271484374,0,0,0,0
0.5454534529999364,0.05027823486328125,-9.986215124511718,1.0797849487304687,0,0,0,0
0.5471758210042026,0.1149216796875,-9.91438907470703,1.1252747802734375,0,0,0,0
0.5488958560017636,-0.02154781494140625,-9.773131176757811,1.1109095703125,0,0,0,0
0.5507869620050769,0.06703764648437499,-9.821015209960937,1.1037269653320312,0,0,0,0
0.5529808059945935,0.0909796630859375,-9.85692823486328,1.0965443603515623,0,0,0,0
0.5548733390023699,0.20829554443359374,-9.91438907470703,1.0797849487304687,0,0,0,0
0.5566463360009948,-0.031124621582031248,-9.91438907470703,1.0965443603515623,0,0,0,0
0.558419609995326,0.031124621582031248,-9.897629663085937,1.149216796875,0,0,0,0
0.5599353330035228,0.05746083984375,-9.89523546142578,1.1133037719726562,0,0,0,0
0.5613802599982591,0.02633621826171875,-9.8449572265625,1.0295067138671874,0,0,0,0
0.5628402599977562,0.0526724365234375,-9.749189160156249,0.9864110839843749,0,0,0,0
0.5647392560058506,0.19871873779296872,-9.890447058105469,1.0606313354492187,0,0,0,0
0.5666509919974487,0.1149216796875,-9.95987890625,1.0295067138671874,0,0,0,0
0.5685094140062574,0.023942016601562498,-9.923965881347655,0.9840168823242187,0,0,0,0
0.5704184089991031,0.06943184814453125,-9.885658654785155,0.9888052856445312,0,0,0,0
0.572270535005373,0.0909796630859375,-9.883264453125,1.1372457885742187,0,0,0,0
0.574116142001003,0.0143652099609375,-9.828197814941406,1.1372457885742187,0,0,0,0
0.5761649129999569,0.10295067138671875,-9.744400756835937,1.0797849487304687,0,0,0,0
0.5778060419979738,0.05985504150390625,-9.904812268066406,1.1444283935546875,0,0,0,0
0.5794498739996925,0.1292868896484375,-9.91438907470703,1.1156979736328125,0,0,0,0
0.5817937899992103,-0.02633621826171875,-9.95987890625,1.0414777221679687,0,0,0,0
0.5837115809990792,-0.00239420166015625,-9.878476049804688,1.0726023437499999,0,0,0,0
0.5853823390061734,0.040701428222656245,-9.873687646484374,1.1372457885742187,0,0,0,0
0.5872040760004893,0.16280571289062498,-9.70369932861328,1.149216796875,0,0,0,0
0.5890780339977937,-0.0143652099609375,-9.842563024902343,1.1659762084960936,0,0,0,0
0.5913624509994406,0.07900865478515624,-9.928754284667969,1.1923124267578125,0,0,0,0
0.5929960609937552,0.0718260498046875,-9.866505041503906,1.0390835205078124,0,0,0,0
0.594618688992341,0.05027823486328125,-9.907206469726562,1.177947216796875,0,0,0,0
0.5966030730050988,0.08140285644531249,-9.775525378417969,1.0893617553710937,0,0,0,0
0.5982067199947778,0.12449848632812499,-9.811438403320311,1.1037269653320312,0,0,0,0
0.5998622180050006,0.143652099609375,-9.923965881347655,1.149216796875,0,0,0,0
0.6017786580050597,0.13407529296874998,-9.730035546875,1.0127473022460938,0,0,0,0
0.6033857309957966,0.07900865478515624,-9.890447058105469,1.180341418457031,0,0,0,0
0.6049783039925387,0.011971008300781249,-10.01733974609375,0.9983820922851562,0,0,0,0
0.6069752250041347,0.055066638183593745,-9.751583361816406,1.0582371337890624,0,0,0,0
0.6086416670004837,-0.0718260498046875,-9.789890588378906,1.0366893188476562,0,0,0,0
0.6102709809929365,0.055066638183593745,-9.89523546142578,1.1420341918945311,0,0,0,0
0.6121854759985581,0.12689268798828124,-9.787496386718749,1.16837041015625,0,0,0,0
0.6137914749997435,0.19153613281249998,-9.854534033203125,1.024718310546875,0,0,0,0
0.6154084930021781,-0.02154781494140625,-9.91438907470703,0.9959878906249999,0,0,0,0
0.6173530619998928,-0.03591302490234375,-9.981426721191406,1.0223241088867188,0,0,0,0
0.618958652994479,0.143652099609375,-9.842563024902343,1.149216796875,0,0,0,0
0.6205789109953912,0.143652099609375,-9.868899243164062,1.1180921752929687,0,0,0,0
0.6225348320003832,0.086191259765625,-9.782707983398437,1.0558429321289062,0,0,0,0
0.624139812993235,0.0526724365234375,-9.816226806640625,1.0726023437499999,0,0,0,0
0.6257604410056956,0.19871873779296872,-9.897629663085937,0.9959878906249999,0,0,0,0
0.6277160839963472,0.062249243164062495,-9.816226806640625,0.9816226806640624,0,0,0,0
0.6293139159970451,-0.00239420166015625,-9.885658654785155,0.928950244140625,0,0,0,0
0.6309392120019766,0.031124621582031248,-9.86411083984375,1.1635820068359375,0,0,0,0
0.6333849600050598,0.15322890625,-9.732429748535155,1.0654197387695312,0,0,0,0
0.635534582004766,0.16280571289062498,-9.878476049804688,1.1851298217773436,0,0,0,0
0.6375118349969853,-0.05746083984375,-9.880870251464843,1.0941501586914062,0,0,0,0
0.6391158899932634,0.0,-9.976638317871092,0.9576806640625,0,0,0,0
0.6406996299920138,0.055066638183593745,-9.868899243164062,1.0414777221679687,0,0,0,0
0.6426139770046575,-0.0718260498046875,-9.828197814941406,1.1420341918945311,0,0,0,0
0.6451204280019738,0.07422025146484375,-9.80665,1.120486376953125,0,0,0,0
0.6466692239919212,0.12449848632812499,-9.919177478027343,1.1516109985351561,0,0,0,0
0.6482176870049443,0.011971008300781249,-9.809044201660155,0.9433154541015625,0,0,0,0
0.6499379989982117,0.062249243164062495,-9.926360083007811,1.1013327636718748,0,0,0,0
0.6515129430044908,0.05746083984375,-9.935936889648437,1.0965443603515623,0,0,0,0
0.6529464810009813,0.08140285644531249,-9.880870251464843,1.0965443603515623,0,0,0,0
0.6545544060063548,0.00718260498046875,-9.859322436523437,1.0366893188476562,0,0,0,0
0.6561779420007952,0.08379705810546874,-9.6917283203125,1.0558429321289062,0,0,0,0
0.6575982210051734,0.06464344482421874,-9.6917283203125,1.0366893188476562,0,0,0,0
0.6592441459943075,0.13407529296874998,-9.849745629882811,1.0127473022460938,0,0,0,0
0.660792405004031,0.1580173095703125,-9.821015209960937,1.1923124267578125,0,0,0,0
0.6622430349962087,-0.0047884033203125,-9.775525378417969,1.0582371337890624,0,0,0,0
0.66374099899258,0.01915361328125,-9.830592016601562,1.0630255371093749,0,0,0,0
0.6652642389963148,0.011971008300781249,-9.897629663085937,1.0558429321289062,0,0,0,0
0.6667556839965982,-0.00239420166015625,-9.81862100830078,1.0630255371093749,0,0,0,0
0.6681928149919258,0.076614453125,-9.81862100830078,1.1707646118164061,0,0,0,0
0.6696180199942319,0.09337386474609374,-9.710881933593749,1.16837041015625,0,0,0,0
0.6711050390003948,0.1149216796875,-9.852139831542969,1.0965443603515623,0,0,0,0
0.6725992239953484,0.055066638183593745,-9.816226806640625,1.1109095703125,0,0,0,0
0.6740424849995179,0.086191259765625,-9.868899243164062,1.0821791503906248,0,0,0,0
0.6754855969920754,0.03591302490234375,-9.916783276367187,1.0295067138671874,0,0,0,0
0.6769959670054959,-0.047884033203124995,-9.885658654785155,0.9744400756835937,0,0,0,0
0.6784836709994124,0.09576806640624999,-9.854534033203125,1.0654197387695312,0,0,0,0
0.6799425240023993,0.1005564697265625,-9.80665,1.0773907470703123,0,0,0,0
0.6813995429984061,0.0,-9.809044201660155,1.1037269653320312,0,0,0,0
0.6829490429954603,0.09576806640624999,-9.849745629882811,1.1228805786132812,0,0,0,0
0.6845197280053981,-0.023942016601562498,-9.854534033203125,1.0606313354492187,0,0,0,0
0.6862418370001251,0.07900865478515624,-10.002974536132811,1.0654197387695312,0,0,0,0
0.6880045930010965,0.10295067138671875,-9.873687646484374,1.0486603271484374,0,0,0,0
0.6895285369973863,0.011971008300781249,-9.90241806640625,1.0438719238281249,0,0,0,0
0.6912450910022017,-0.009576806640625,-9.878476049804688,1.1109095703125,0,0,0,0
0.6929652359976899,0.12689268798828124,-9.861716638183593,1.0917559570312498,0,0,0,0
0.6948386029980611,0.0718260498046875,-9.787496386718749,1.0773907470703123,0,0,0,0
0.696484767991933,0.0909796630859375,-9.835380419921874,1.0654197387695312,0,0,0,0
0.6981757100002142,0.06464344482421874,-9.945513696289062,1.0941501586914062,0,0,0,0
0.7005129970057169,0.031124621582031248,-9.988609326171874,1.0893617553710937,0,0,0,0
0.7020174409990432,0.0526724365234375,-9.852139831542969,1.0989385620117187,0,0,0,0
0.7034556830039946,0.03591302490234375,-9.773131176757811,1.0438719238281249,0,0,0,0
0.7049579979939153,0.0526724365234375,-9.746794958496093,1.0175357055664063,0,0,0,0
0.7064274250005838,0.1580173095703125,-9.923965881347655,1.0486603271484374,0,0,0,0
0.7078511479921872,0.06464344482421874,-9.871293444824218,1.1228805786132812,0,0,0,0
0.7093275929946685,0.05985504150390625,-9.828197814941406,1.0534487304687499,0,0,0,0
0.7108055379940197,0.03591302490234375,-9.880870251464843,1.0175357055664063,0,0,0,0
0.7122323910007253,0.009576806640625,-9.81862100830078,1.0797849487304687,0,0,0,0
0.7136625959974481,0.02154781494140625,-9.847351428222655,1.2138602416992186,0,0,0,0
0.7151496890000999,0.06703764648437499,-9.821015209960937,1.0941501586914062,0,0,0,0
0.7172447199991439,0.05985504150390625,-9.749189160156249,1.158793603515625,0,0,0,0
0.7188260709954193,0.06943184814453125,-9.878476049804688,1.1013327636718748,0,0,0,0
0.7206314189970726,0.16519991455078123,-9.888052856445311,0.9600748657226562,0,0,0,0
0.7221823820000282,0.031124621582031248,-9.888052856445311,1.0007762939453124,0,0,0,0
0.7236787529982394,0.05985504150390625,-9.938331091308592,1.01514150390625,0,0,0,0
0.726346127994475,0.076614453125,-9.744400756835937,1.1420341918945311,0,0,0,0
0.7279146639921237,0.033518823242187495,-9.79946739501953,1.0893617553710937,0,0,0,0
0.7293883679958526,0.0047884033203125,-9.823409411621093,1.0630255371093749,0,0,0,0
0.7314530099974945,0.2154781494140625,-9.871293444824218,1.1563994018554686,0,0,0,0
0.7331176559964661,0.1580173095703125,-9.885658654785155,1.1420341918945311,0,0,0,0
0.7345768789964495,-0.05027823486328125,-9.955090502929687,1.0079588989257813,0,0,0,0
0.7361822859966196,-0.06703764648437499,-9.861716638183593,0.9983820922851562,0,0,0,0
0.737680748992716,0.016759411621093748,-9.713276135253906,1.180341418457031,0,0,0,0
0.7391076019994216,0.1149216796875,-9.804255798339844,1.180341418457031,0,0,0,0
0.7405897139979061,0.076614453125,-9.832986218261718,1.197100830078125,0,0,0,0
0.7421724169980735,0.07900865478515624,-9.83777462158203,1.0558429321289062,0,0,0,0
0.743784897000296,0.10773907470703124,-9.86411083984375,1.177947216796875,0,0,0,0
0.7452461020002374,0.10295067138671875,-9.97903251953125,1.1611878051757811,0,0,0,0
0.7467178249935387,0.009576806640625,-9.801861596679688,1.1372457885742187,0,0,0,0
0.7488044289930258,-0.02154781494140625,-9.892841259765625,0.9935936889648437,0,0,0,0
0.7509961059986381,0.1388636962890625,-9.787496386718749,1.1037269653320312,0,0,0,0
0.7529704899934586,0.2705447875976562,-9.770736975097655,1.0534487304687499,0,0,0,0
0.7546699869999429,0.09816226806640624,-9.849745629882811,1.0007762939453124,0,0,0,0
0.7563440600060858,-0.047884033203124995,-9.976638317871092,1.0438719238281249,0,0,0,0
0.757853838003939,0.062249243164062495,-9.880870251464843,1.0773907470703123,0,0,0,0
0.7599296830012463,0.1149216796875,-9.85692823486328,1.0989385620117187,0,0,0,0
0.7616031810030108,0.023942016601562498,-9.842563024902343,1.1133037719726562,0,0,0,0
0.763228458003141,0.1197100830078125,-9.835380419921874,1.1085153686523437,0,0,0,0
0.7647700319939759,0.143652099609375,-9.952696301269532,1.0726023437499999,0,0,0,0
0.7663616600038949,0.05746083984375,-9.890447058105469,1.0941501586914062,0,0,0,0
0.7679408999974839,-0.011971008300781249,-9.90241806640625,1.0510545288085937,0,0,0,0
0.76951177000592,-0.02154781494140625,-9.97184991455078,1.0319009155273438,0,0,0,0
0.7712899149919394,0.105344873046875,-9.900023864746093,0.9217676391601562,0,0,0,0
0.7728262860036921,0.11731588134765625,-9.751583361816406,1.0702081420898437,0,0,0,0
0.7742920830060029,0.023942016601562498,-9.787496386718749,1.0654197387695312,0,0,0,0
0.7760357840015786,0.09337386474609374,-9.763554370117188,1.0893617553710937,0,0,0,0
0.777857798995683,0.047884033203124995,-9.80665,1.0965443603515623,0,0,0,0
0.7798369600059232,0.12689268798828124,-9.911994873046874,0.9648632690429687,0,0,0,0
0.7813807929924224,-0.02633621826171875,-9.950302099609374,1.158793603515625,0,0,0,0
0.7829078670038143,0.07900865478515624,-9.811438403320311,1.0342951171875,0,0,0,0
0.7846093279949855,0.11731588134765625,-9.849745629882811,1.1228805786132812,0,0,0,0
0.7860616620018845,0.11013327636718749,-9.8449572265625,1.0965443603515623,0,0,0,0
0.7875159219984198,-0.009576806640625,-9.852139831542969,1.2042834350585936,0,0,0,0
0.7890529779979261,0.01915361328125,-9.82580361328125,1.0749965454101562,0,0,0,0
0.7909507690055761,0.18914193115234373,-9.789890588378906,1.149216796875,0,0,0,0
0.7924167519959155,0.0,-9.868899243164062,1.1635820068359375,0,0,0,0
0.79392336300225,0.031124621582031248,-9.988609326171874,1.0007762939453124,0,0,0,0
0.7957271369959926,0.0430956298828125,-9.91438907470703,1.1348515869140625,0,0,0,0
0.7971882120036753,-0.05027823486328125,-9.840168823242188,1.0965443603515623,0,0,0,0
0.7986388059944147,0.02154781494140625,-9.842563024902343,1.1420341918945311,0,0,0,0
0.8001504540006863,0.1484405029296875,-9.7683427734375,1.1133037719726562,0,0,0,0
0.8018583219964057,0.033518823242187495,-9.883264453125,1.1037269653320312,0,0,0,0
0.8033133599965367,0.031124621582031248,-9.907206469726562,1.0319009155273438,0,0,0,0
0.8047883050021483,0.0,-9.97184991455078,0.9720458740234375,0,0,0,0
0.8068136319925543,0.0909796630859375,-9.78031378173828,1.0893617553710937,0,0,0,0
0.8087956450035563,0.055066638183593745,-9.835380419921874,1.1947066284179686,0,0,0,0
0.8103643479989842,0.09816226806640624,-9.828197814941406,1.149216796875,0,0,0,0
0.8120178469980601,0.08379705810546874,-9.916783276367187,1.0438719238281249,0,0,0,0
0.8136032909969799,0.18435352783203124,-9.756371765136718,1.0893617553710937,0,0,0,0
0.8150604399997974,0.11731588134765625,-9.859322436523437,1.0127473022460938,0,0,0,0
0.8165256070060423,-0.040701428222656245,-9.885658654785155,1.0821791503906248,0,0,0,0
0.8180933840048965,0.13407529296874998,-9.928754284667969,1.0749965454101562,0,0,0,0
0.8197199569985969,0.15562310791015624,-10.019733947753906,1.13006318359375,0,0,0,0
0.8211836620030226,0.0047884033203125,-9.753977563476562,1.0510545288085937,0,0,0,0
0.8226573839929188,0.0383072265625,-9.658209497070311,1.0223241088867188,0,0,0,0
0.8241971989918966,0.03591302490234375,-9.789890588378906,0.9265560424804687,0,0,0,0
0.8258733819966437,0.1005564697265625,-9.974244116210937,1.0726023437499999,0,0,0,0
0.8274438079970423,0.16280571289062498,-10.014945544433592,1.0007762939453124,0,0,0,0
0.8289197160047479,0.02154781494140625,-9.849745629882811,1.024718310546875,0,0,0,0
0.8305414179922082,-0.01915361328125,-9.91438907470703,1.0534487304687499,0,0,0,0
0.8322380640020128,0.16519991455078123,-9.873687646484374,1.0749965454101562,0,0,0,0
0.8338532490015496,0.13646949462890623,-9.801861596679688,1.0941501586914062,0,0,0,0
0.8356272639939561,0.09816226806640624,-9.70369932861328,1.0726023437499999,0,0,0,0
0.8375734069995815,0.0047884033203125,-9.89523546142578,1.0630255371093749,0,0,0,0
0.8392549050040543,0.12449848632812499,-9.849745629882811,1.1875240234375,0,0,0,0
0.8408864779921714,0.02633621826171875,-9.878476049804688,1.0678139404296874,0,0,0,0
0.8424899770034244,0.00718260498046875,-9.847351428222655,1.1037269653320312,0,0,0,0
0.8441856970021036,-0.033518823242187495,-9.859322436523437,1.1109095703125,0,0,0,0
0.8456456050043926,0.02633621826171875,-9.950302099609374,1.1276689819335937,0,0,0,0
0.8470899399981136,0.296881005859375,-9.842563024902343,1.139639990234375,0,0,0,0
0.8485524029965745,0.10773907470703124,-9.725247143554688,1.0773907470703123,0,0,0,0
0.8503537149954354,-0.0143652099609375,-9.962273107910155,1.0893617553710937,0,0,0,0
0.8521409899985883,0.11252747802734374,-9.995791931152343,1.1563994018554686,0,0,0,0
0.8537342659983551,0.13646949462890623,-9.885658654785155,1.0558429321289062,0,0,0,0
0.8557385379972402,0.07900865478515624,-9.730035546875,1.1635820068359375,0,0,0,0
0.8573100749927107,0.00718260498046875,-9.732429748535155,1.1516109985351561,0,0,0,0
0.8587696129980031,0.07422025146484375,-9.662997900390625,1.0749965454101562,0,0,0,0
0.8602972609951394,0.1197100830078125,-9.897629663085937,1.0702081420898437,0,0,0,0
0.8619779809960164,0.09816226806640624,-9.868899243164062,0.9983820922851562,0,0,0,0
0.8637204599945107,0.023942016601562498,-9.816226806640625,1.0127473022460938,0,0,0,0
0.8659082480007783,0.07422025146484375,-9.885658654785155,1.0869675537109373,0,0,0,0
0.8675143959990237,0.16759411621093748,-9.835380419921874,1.149216796875,0,0,0,0
0.8695899260055739,-0.0047884033203125,-9.725247143554688,1.2210428466796874,0,0,0,0
0.8714806990028592,0.1149216796875,-9.868899243164062,1.1013327636718748,0,0,0,0
0.8732505670050159,0.08858546142578125,-9.86411083984375,1.0989385620117187,0,0,0,0
0.8754056519974256,0.1388636962890625,-9.964667309570311,0.9648632690429687,0,0,0,0
0.8772998320055194,-0.023942016601562498,-9.87608184814453,1.1372457885742187,0,0,0,0
0.8789837189979153,0.06464344482421874,-9.801861596679688,1.1659762084960936,0,0,0,0
0.8812342099990929,0.18435352783203124,-9.86411083984375,1.0749965454101562,0,0,0,0
0.8830792810040293,0.15322890625,-9.80665,1.0989385620117187,0,0,0,0
0.884682520001661,0.05746083984375,-9.938331091308592,0.9864110839843749,0,0,0,0
0.8867647360020783,0.1388636962890625,-9.866505041503906,1.0031704956054688,0,0,0,0
0.888560139996116,-0.09816226806640624,-9.900023864746093,1.0199299072265624,0,0,0,0
0.8901796019927133,0.1292868896484375,-9.952696301269532,1.0941501586914062,0,0,0,0
0.8923770940018585,0.1771709228515625,-9.725247143554688,1.1468225952148436,0,0,0,0
0.8942378670035396,0.04548983154296875,-9.900023864746093,1.1109095703125,0,0,0,0
0.8958761989924824,0.01915361328125,-9.91438907470703,1.1037269653320312,0,0,0,0
0.8981249869975727,0.08140285644531249,-9.938331091308592,1.0821791503906248,0,0,0,0
0.900041129993042,0.05985504150390625,-9.981426721191406,1.0917559570312498,0,0,0,0
0.9017358319979394,0.076614453125,-9.701305126953125,1.0773907470703123,0,0,0,0
0.90473338800075,0.0526724365234375,-9.919177478027343,1.1851298217773436,0,0,0,0
0.9065716810000595,0.18914193115234373,-9.835380419921874,1.0702081420898437,0,0,0,0
0.9083065669983625,0.09816226806640624,-9.830592016601562,1.0558429321289062,0,0,0,0
0.9100265830056742,0.14604630126953125,-9.981426721191406,1.2114660400390624,0,0,0,0
0.9118699130049208,0.08140285644531249,-9.861716638183593,1.158793603515625,0,0,0,0
0.9139173139992636,0.13646949462890623,-9.852139831542969,1.1516109985351561,0,0,0,0
0.9156164409941994,0.10295067138671875,-9.859322436523437,1.1372457885742187,0,0,0,0
0.9173059949971503,-0.03591302490234375,-9.775525378417969,0.948103857421875,0,0,0,0
0.9189089379942743,0.05027823486328125,-9.94072529296875,1.1180921752929687,0,0,0,0
0.9206086960039102,0.0909796630859375,-9.969455712890625,1.0438719238281249,0,0,0,0
0.9222172320005484,-0.0047884033203125,-9.926360083007811,0.9983820922851562,0,0,0,0
0.92376549099572,0.0526724365234375,-9.957484704589843,1.1420341918945311,0,0,0,0
0.9252895829995396,0.0526724365234375,-9.854534033203125,1.1516109985351561,0,0,0,0
0.92677854700014,0.08140285644531249,-9.866505041503906,1.0462661254882812,0,0,0,0
0.9282317509932909,0.00239420166015625,-9.720458740234374,1.0702081420898437,0,0,0,0
0.9302220789977582,0.19871873779296872,-9.868899243164062,1.1635820068359375,0,0,0,0
0.9318077079951763,0.10773907470703124,-9.816226806640625,1.1180921752929687,0,0,0,0
0.933266709005693,0.2059013427734375,-9.900023864746093,1.1228805786132812,0,0,0,0
0.9348551339935511,0.05985504150390625,-9.830592016601562,1.0797849487304687,0,0,0,0
0.936399522004649,-0.05746083984375,-9.789890588378906,1.1755530151367186,0,0,0,0
0.9378360789996805,-0.009576806640625,-9.911994873046874,0.9864110839843749,0,0,0,0
0.9394126150000375,0.16998831787109375,-9.813832604980469,1.1156979736328125,0,0,0,0
0.9410156889935024,0.09337386474609374,-9.859322436523437,1.1085153686523437,0,0,0,0
0.9424523380002938,0.13407529296874998,-9.78031378173828,1.1252747802734375,0,0,0,0
0.9440223559940932,0.0383072265625,-9.854534033203125,1.0366893188476562,0,0,0,0
0.9455918919993564,0.143652099609375,-9.935936889648437,1.1109095703125,0,0,0,0
0.9470487450016662,0.07422025146484375,-9.93354268798828,1.0606313354492187,0,0,0,0
0.9484961720008869,0.055066638183593745,-9.852139831542969,1.0845733520507812,0,0,0,0
0.950074708001921,0.062249243164062495,-9.7683427734375,1.0534487304687499,0,0,0,0
0.9517407620005542,0.1771709228515625,-9.758765966796874,1.197100830078125,0,0,0,0
0.9533291319967248,0.03591302490234375,-9.871293444824218,1.0390835205078124,0,0,0,0
0.9548002619994804,0.11731588134765625,-9.94072529296875,1.0917559570312498,0,0,0,0
0.9565231110027526,0.00239420166015625,-9.911994873046874,1.1324573852539062,0,0,0,0
0.9580853149964241,0.143652099609375,-9.931148486328125,1.0295067138671874,0,0,0,0
0.959611814992968,0.12210428466796874,-9.86411083984375,1.1324573852539062,0,0,0,0
0.9612044620007509,0.03591302490234375,-9.852139831542969,1.20667763671875,0,0,0,0
0.9627853690035408,0.016759411621093748,-9.868899243164062,1.0893617553710937,0,0,0,0
0.9642447399965022,0.11013327636718749,-9.873687646484374,1.0821791503906248,0,0,0,0
0.9657002589956392,0.09816226806640624,-9.82580361328125,1.0941501586914062,0,0,0,0
0.967286907005473,0.0909796630859375,-9.792284790039062,1.0319009155273438,0,0,0,0
0.9689113130007172,0.01915361328125,-9.816226806640625,1.0438719238281249,0,0,0,0
0.9703848140052287,-0.0909796630859375,-9.94072529296875,0.9361328491210937,0,0,0,0
0.9718561850022525,0.076614453125,-9.804255798339844,1.1635820068359375,0,0,0,0
0.97344481300388,0.16280571289062498,-9.832986218261718,1.16837041015625,0,0,0,0
0.9751128299976699,0.14125789794921875,-9.74200655517578,1.1061211669921875,0,0,0,0
0.9766007199941669,0.00718260498046875,-9.93354268798828,1.0845733520507812,0,0,0,0
0.9783131059957668,0.10295067138671875,-9.871293444824218,1.13006318359375,0,0,0,0
0.9805696900002658,0.07422025146484375,-9.94072529296875,1.0079588989257813,0,0,0,0
0.9821249859960517,0.1484405029296875,-9.847351428222655,1.0007762939453124,0,0,0,0
0.9837292809970677,0.0047884033203125,-9.76116016845703,1.0558429321289062,0,0,0,0
0.9857908489939291,-0.009576806640625,-9.897629663085937,1.1228805786132812,0,0,0,0
0.9873662369936937,0.040701428222656245,-9.809044201660155,1.1013327636718748,0,0,0,0
0.988913032997516,0.08140285644531249,-9.79946739501953,1.1611878051757811,0,0,0,0
0.9904605880001327,0.10295067138671875,-9.849745629882811,1.13006318359375,0,0,0,0
0.9920656989997951,0.02633621826171875,-9.911994873046874,1.1731588134765625,0,0,0,0
0.9935403470008168,0.0383072265625,-9.935936889648437,1.0414777221679687,0,0,0,0
0.9949984959966969,-0.02633621826171875,-9.926360083007811,1.1037269653320312,0,0,0,0
0.9964959039934911,0.0430956298828125,-9.907206469726562,1.1085153686523437,0,0,0,0
0.998091661997023,0.0047884033203125,-9.765948571777344,1.0749965454101562,0,0,0,0
0.9997172540024621,0.24660277099609373,-9.670180505371093,1.1468225952148436,0,0,0,0
1.001293863999308,0.07422025146484375,-9.888052856445311,0.9720458740234375,0,0,0,0
1.0028698450041702,0.05027823486328125,-9.945513696289062,1.0630255371093749,0,0,0,0
1.004526769000222,-0.0526724365234375,-9.900023864746093,1.0295067138671874,0,0,0,0
1.006334470002912,0.13168109130859373,-9.852139831542969,1.209071838378906,0,0,0,0
1.0078463590034517,0.12689268798828124,-9.854534033203125,1.0414777221679687,0,0,0,0
1.009333730005892,0.05027823486328125,-9.816226806640625,1.0845733520507812,0,0,0,0
1.0110104689956643,0.1005564697265625,-9.938331091308592,1.1468225952148436,0,0,0,0
1.0126924670039443,0.201112939453125,-9.744400756835937,1.0438719238281249,0,0,0,0
1.014538351999363,0.08858546142578125,-9.900023864746093,1.0390835205078124,0,0,0,0
1.0162642009963747,0.00718260498046875,-9.93354268798828,1.16837041015625,0,0,0,0
1.0178472739935387,-0.0383072265625,-9.928754284667969,1.0486603271484374,0,0,0,0
1.019515976004186,0.16519991455078123,-9.813832604980469,1.0366893188476562,0,0,0,0
1.021322398999473,0.0909796630859375,-9.662997900390625,1.0582371337890624,0,0,0,0
1.0229961010045372,0.040701428222656245,-9.821015209960937,1.0606313354492187,0,0,0,0
1.0246886730019469,0.09576806640624999,-9.830592016601562,1.1276689819335937,0,0,0,0
1.0263782080000965,0.10773907470703124,-9.888052856445311,1.1133037719726562,0,0,0,0
1.0280967979924753,0.04548983154296875,-9.89523546142578,1.0941501586914062,0,0,0,0
1.0297806479939027,-0.0718260498046875,-9.907206469726562,1.0606313354492187,0,0,0,0
1.0313520549971145,0.06464344482421874,-9.842563024902343,1.1061211669921875,0,0,0,0
1.0329255359974923,0.08140285644531249,-9.727641345214844,1.1324573852539062,0,0,0,0
1.0344750359945465,0.1484405029296875,-9.804255798339844,1.0726023437499999,0,0,0,0
1.0360782200004905,0.0383072265625,-9.962273107910155,1.1276689819335937,0,0,0,0
1.0376853109919466,0.11013327636718749,-9.90241806640625,0.9816226806640624,0,0,0,0
1.0393819390010322,0.076614453125,-9.931148486328125,0.9864110839843749,0,0,0,0
1.0410700109932804,0.105344873046875,-9.907206469726562,1.0630255371093749,0,0,0,0
1.042833322993829,-0.01915361328125,-9.79946739501953,1.13006318359375,0,0,0,0
1.0445232649944955,0.08858546142578125,-9.804255798339844,1.0438719238281249,0,0,0,0
1.0461872820014833,0.1771709228515625,-9.727641345214844,1.0702081420898437,0,0,0,0
1.0477188189979643,0.0718260498046875,-9.770736975097655,1.1252747802734375,0,0,0,0
1.049222004992771,-0.0430956298828125,-9.964667309570311,0.9241618408203125,0,0,0,0
1.0508920769934775,0.062249243164062495,-9.935936889648437,1.139639990234375,0,0,0,0
1.0525364269997226,0.11731588134765625,-9.866505041503906,1.0869675537109373,0,0,0,0
1.0540767420025077,0.0,-9.907206469726562,1.1085153686523437,0,0,0,0
1.055646038003033,0.07900865478515624,-9.823409411621093,1.1037269653320312,0,0,0,0
1.0572629810048966,0.09816226806640624,-9.76116016845703,0.9457096557617187,0,0,0,0
1.0588784059946192,0.1149216796875,-9.907206469726562,1.158793603515625,0,0,0,0
1.0604408499930287,0.1149216796875,-9.900023864746093,1.1516109985351561,0,0,0,0
1.0621140519942855,-0.076614453125,-9.83777462158203,1.0941501586914062,0,0,0,0
1.063796235001064,-0.023942016601562498,-9.93354268798828,1.0582371337890624,0,0,0,0
1.065416401004768,0.011971008300781249,-9.890447058105469,1.13006318359375,0,0,0,0
1.0669739930017386,0.06703764648437499,-9.801861596679688,1.1540052001953125,0,0,0,0
1.0685801399959018,0.1197100830078125,-9.80665,1.0749965454101562,0,0,0,0
1.0702103060029913,0.076614453125,-9.81862100830078,1.1228805786132812,0,0,0,0
1.0718033419980202,0.047884033203124995,-9.81862100830078,1.199495031738281,0,0,0,0
1.0732938979926985,0.02633621826171875,-9.847351428222655,1.1563994018554686,0,0,0,0
1.0747881760034943,0.06703764648437499,-9.986215124511718,0.9792284790039062,0,0,0,0
1.0763938419986516,-0.0047884033203125,-9.931148486328125,1.0558429321289062,0,0,0,0
1.0781101360043976,0.086191259765625,-9.854534033203125,1.0127473022460938,0,0,0,0
1.0797408009966603,0.09576806640624999,-9.794678991699218,1.1611878051757811,0,0,0,0
1.0813498740026262,0.10295067138671875,-9.78031378173828,1.1085153686523437,0,0,0,0
1.082934373000171,0.028730419921875,-9.83777462158203,1.0749965454101562,0,0,0,0
1.0844966690056026,0.055066638183593745,-9.888052856445311,1.139639990234375,0,0,0,0
1.0854950640059542,0.13407529296874998,-9.866505041503906,1.1109095703125,0,0,0,0
1.0864967929956038,0.055066638183593745,-9.787496386718749,1.0845733520507812,0,0,0,0
1.0874940770008834,-0.016759411621093748,-9.892841259765625,1.0893617553710937,0,0,0,0
1.0885275460022967,-0.02633621826171875,-9.868899243164062,1.1875240234375,0,0,0,0
1.0895876440044958,-0.05985504150390625,-9.880870251464843,0.9552864624023437,0,0,0,0
1.0906386129936436,0.031124621582031248,-9.861716638183593,1.1013327636718748,0,0,0,0
1.091720192998764,0.09576806640624999,-9.79946739501953,1.1156979736328125,0,0,0,0
1.092770161005319,0.1484405029296875,-9.730035546875,1.0630255371093749,0,0,0,0
1.093899147992488,0.13646949462890623,-9.832986218261718,1.0390835205078124,0,0,0,0
1.0949725230020704,0.06464344482421874,-9.804255798339844,1.0486603271484374,0,0,0,0
1.0960565470013535,-0.040701428222656245,-9.809044201660155,1.0486603271484374,0,0,0,0
1.0971241079969332,-0.0143652099609375,-9.919177478027343,1.0366893188476562,0,0,0,0
1.0981890770053724,0.033518823242187495,-9.919177478027343,1.0199299072265624,0,0,0,0
1.0992352869943716,0.09816226806640624,-9.852139831542969,1.0749965454101562,0,0,0,0
1.100272607000079,0.031124621582031248,-9.919177478027343,1.1013327636718748,0,0,0,0
1.101404649001779,0.047884033203124995,-9.907206469726562,1.199495031738281,0,0,0,0
1.1024163219990442,-0.00239420166015625,-9.849745629882811,1.199495031738281,0,0,0,0
1.1034941609977977,0.0430956298828125,-9.746794958496093,1.158793603515625,0,0,0,0
1.1044925930036698,0.1149216796875,-9.718064538574218,1.1276689819335937,0,0,0,0
1.1055421359924367,0.15562310791015624,-9.890447058105469,1.1635820068359375,0,0,0,0
1.1067090849974193,0.20829554443359374,-9.832986218261718,1.1659762084960936,0,0,0,0
1.107872608001344,0.0383072265625,-9.911994873046874,1.1037269653320312,0,0,0,0
1.108939576006378,0.02633621826171875,-9.967061511230469,1.0175357055664063,0,0,0,0
1.1099426750006387,0.0430956298828125,-9.969455712890625,1.0821791503906248,0,0,0,0
1.1109709400043357,0.03591302490234375,-9.890447058105469,1.0606313354492187,0,0,0,0
1.1120115939993411,0.00718260498046875,-9.809044201660155,1.0438719238281249,0,0,0,0
1.1131463399942731,0.031124621582031248,-9.821015209960937,1.0845733520507812,0,0,0,0
1.1141645129973767,0.00718260498046875,-9.83777462158203,1.1085153686523437,0,0,0,0
1.1151888710010098,0.0526724365234375,-9.847351428222655,1.0606313354492187,0,0,0,0
1.1161745069985045,0.14604630126953125,-9.809044201660155,1.0893617553710937,0,0,0,0
1.11716306899325,0.0430956298828125,-9.797073193359374,1.0702081420898437,0,0,0,0
1.118171630994766,0.12210428466796874,-9.871293444824218,1.0989385620117187,0,0,0,0
1.1192463030020008,0.031124621582031248,-9.897629663085937,1.0295067138671874,0,0,0,0
1.120236606002436,0.06703764648437499,-9.93354268798828,1.0941501586914062,0,0,0,0
1.1212248719966738,-0.011971008300781249,-9.967061511230469,1.1420341918945311,0,0,0,0
1.122140193998348,0.040701428222656245,-9.947907897949218,1.0821791503906248,0,0,0,0
1.1231606630026363,-0.01915361328125,-9.880870251464843,1.0702081420898437,0,0,0,0
1.1241078919993015,-0.1388636962890625,-9.866505041503906,1.0773907470703123,0,0,0,0
1.125129249994643,0.0383072265625,-9.888052856445311,1.024718310546875,0,0,0,0
1.1261052939953515,0.0718260498046875,-9.828197814941406,1.0893617553710937,0,0,0,0
1.127081744998577,0.031124621582031248,-9.72285294189453,1.1252747802734375,0,0,0,0
1.1280686959944433,0.05746083984375,-9.713276135253906,1.1085153686523437,0,0,0,0
1.1290824799943948,0.0,-9.900023864746093,1.1133037719726562,0,0,0,0
1.1300706159963738,0.1149216796875,-9.935936889648437,1.13006318359375,0,0,0,0
1.1311157140007708,0.047884033203124995,-9.928754284667969,1.1228805786132812,0,0,0,0
1.1320845919981366,0.13168109130859373,-9.916783276367187,1.1324573852539062,0,0,0,0
1.133129170993925,0.08140285644531249,-9.883264453125,1.0295067138671874,0,0,0,0
1.1342256579955574,-0.02633621826171875,-9.9215716796875,1.0103531005859374,0,0,0,0
1.1353268670063699,0.02154781494140625,-9.871293444824218,1.1252747802734375,0,0,0,0
1.1363967240031343,0.05027823486328125,-9.873687646484374,1.0342951171875,0,0,0,0
1.137444581996533,0.09816226806640624,-9.86411083984375,1.0079588989257813,0,0,0,0
1.1384127180062933,0.14604630126953125,-9.751583361816406,1.0893617553710937,0,0,0,0
1.1394205770047847,0.0047884033203125,-9.832986218261718,1.1252747802734375,0,0,0,0
1.1403898429998662,0.1149216796875,-9.885658654785155,1.189918225097656,0,0,0,0
1.141596920992015,0.02154781494140625,-9.828197814941406,1.2114660400390624,0,0,0,0
1.1427065369935008,-0.009576806640625,-9.792284790039062,1.0749965454101562,0,0,0,0
1.1437011359957978,0.1197100830078125,-9.785102185058593,1.0438719238281249,0,0,0,0
1.1447749749931972,0.08140285644531249,-9.871293444824218,1.1061211669921875,0,0,0,0
1.145777073004865,0.0718260498046875,-9.871293444824218,1.1228805786132812,0,0,0,0
1.1467258399934508,0.055066638183593745,-9.974244116210937,1.0438719238281249,0,0,0,0
1.1476762730017072,0.00718260498046875,-9.962273107910155,0.9911994873046874,0,0,0,0
1.148711611996987,0.08858546142578125,-9.823409411621093,1.0773907470703123,0,0,0,0
1.1497086369927274,-0.031124621582031248,-9.765948571777344,1.1468225952148436,0,0,0,0
1.1507714390027104,0.09576806640624999,-9.770736975097655,1.0726023437499999,0,0,0,0
1.1517686120059807,0.13646949462890623,-9.770736975097655,1.0941501586914062,0,0,0,0
1.1527270259975921,0.16519991455078123,-9.804255798339844,1.1659762084960936,0,0,0,0
1.153650533000473,0.14604630126953125,-9.7683427734375,1.0749965454101562,0,0,0,0
1.1546864279953297,0.01915361328125,-9.794678991699218,1.0319009155273438,0,0,0,0
1.1556917859998066,0.1005564697265625,-9.935936889648437,0.9648632690429687,0,0,0,0
1.1567514030029997,-0.08858546142578125,-9.9215716796875,1.0319009155273438,0,0,0,0
1.157736762004788,-0.023942016601562498,-9.9215716796875,0.9600748657226562,0,0,0,0
1.158697694001603,0.02633621826171875,-9.945513696289062,1.0175357055664063,0,0,0,0
1.159732571002678,0.1149216796875,-9.87608184814453,1.005564697265625,0,0,0,0
1.1607194109965349,0.15562310791015624,-9.751583361816406,1.0438719238281249,0,0,0,0
1.1616848429985112,0.0430956298828125,-9.756371765136718,1.0558429321289062,0,0,0,0
1.162609221006278,0.05746083984375,-9.81862100830078,1.0390835205078124,0,0,0,0
1.1635243210039334,-0.016759411621093748,-9.890447058105469,1.0390835205078124,0,0,0,0
1.164448921001167,0.05027823486328125,-9.835380419921874,1.0797849487304687,0,0,0,0
1.1653637989948038,0.08379705810546874,-9.842563024902343,1.0726023437499999,0,0,0,0
1.1664206929999636,0.18914193115234373,-9.854534033203125,1.1851298217773436,0,0,0,0
1.1674758099979954,0.0430956298828125,-9.888052856445311,1.0199299072265624,0,0,0,0
1.1685061860043788,-0.05746083984375,-9.935936889648437,1.0127473022460938,0,0,0,0
1.169466970997746,0.011971008300781249,-9.955090502929687,0.9888052856445312,0,0,0,0
1.1703923299937742,0.062249243164062495,-9.952696301269532,1.0127473022460938,0,0,0,0
1.1713094860024285,0.12210428466796874,-9.816226806640625,1.0654197387695312,0,0,0,0
1.1724004360003164,0.143652099609375,-9.765948571777344,1.0941501586914062,0,0,0,0
1.1733735159941716,0.12210428466796874,-9.8449572265625,1.2665326782226562,0,0,0,0
1.1743404489970999,0.0430956298828125,-9.85692823486328,1.2210428466796874,0,0,0,0
1.1752823449933203,0.062249243164062495,-9.835380419921874,1.1133037719726562,0,0,0,0
1.176206314994488,-0.02633621826171875,-9.739612353515625,1.1276689819335937,0,0,0,0
1.1771270820026984,-0.09337386474609374,-9.782707983398437,1.0103531005859374,0,0,0,0
1.1781585690041538,0.13168109130859373,-9.919177478027343,1.0079588989257813,0,0,0,0
1.179251851994195,0.1292868896484375,-9.967061511230469,1.1061211669921875,0,0,0,0
1.1802891359984642,0.15083470458984374,-9.923965881347655,1.2138602416992186,0,0,0,0
1.1812982160045067,-0.040701428222656245,-9.847351428222655,1.1516109985351561,0,0,0,0
1.1822265939990757,-0.06464344482421874,-9.835380419921874,1.0510545288085937,0,0,0,0
1.1832652110024355,-0.02633621826171875,-9.842563024902343,1.0797849487304687,0,0,0,0
1.1842854949936736,0.07900865478515624,-9.840168823242188,1.1228805786132812,0,0,0,0
1.1852527239971096,0.13407529296874998,-9.753977563476562,1.1037269653320312,0,0,0,0
1.1861803240026347,0.12689268798828124,-9.765948571777344,1.1324573852539062,0,0,0,0
1.1872770699992543,0.13407529296874998,-9.751583361816406,1.1635820068359375,0,0,0,0
1.1884230559953721,0.1292868896484375,-9.842563024902343,1.1827356201171875,0,0,0,0
1.189389321996714,0.0526724365234375,-9.842563024902343,1.1109095703125,0,0,0,0
1.1905846959998598,0.028730419921875,-9.86411083984375,1.189918225097656,0,0,0,0
1.1915131109999493,0.062249243164062495,-9.90241806640625,0.97683427734375,0,0,0,0
1.1925735239929054,0.04548983154296875,-9.849745629882811,1.0510545288085937,0,0,0,0
1.1939054889953695,0.086191259765625,-9.782707983398437,1.120486376953125,0,0,0,0
1.1948830519977491,0.06464344482421874,-9.878476049804688,1.1109095703125,0,0,0,0
1.1959286500059534,0.00718260498046875,-9.880870251464843,1.1061211669921875,0,0,0,0
1.1968588790041395,0.0143652099609375,-9.821015209960937,1.16837041015625,0,0,0,0
1.1977834050048841,-0.023942016601562498,-9.8449572265625,1.199495031738281,0,0,0,0
1.1990247979993,0.1197100830078125,-9.823409411621093,1.1061211669921875,0,0,0,0
1.2004069660033565,0.15562310791015624,-9.804255798339844,1.0606313354492187,0,0,0,0
1.2014286759949755,0.0430956298828125,-9.842563024902343,1.0630255371093749,0,0,0,0
1.202369313003146,0.0526724365234375,-9.849745629882811,1.0749965454101562,0,0,0,0
1.203288987002452,-0.009576806640625,-9.883264453125,1.0773907470703123,0,0,0,0
1.2043774729972938,-0.0143652099609375,-9.90241806640625,1.1133037719726562,0,0,0,0
1.2060282869933872,0.086191259765625,-9.897629663085937,1.1611878051757811,0,0,0,0
1.2069753679970745,0.086191259765625,-9.782707983398437,1.0965443603515623,0,0,0,0
1.2079301710036816,0.11013327636718749,-9.794678991699218,1.0175357055664063,0,0,0,0
1.2089903059968492,0.06943184814453125,-9.7683427734375,1.13006318359375,0,0,0,0
1.2099333689984633,0.016759411621093748,-9.763554370117188,1.1611878051757811,0,0,0,0
1.2108409869979369,0.076614453125,-9.928754284667969,1.1851298217773436,0,0,0,0
1.2122548219922464,0.0909796630859375,-9.928754284667969,1.1923124267578125,0,0,0,0
1.213290790998144,0.06703764648437499,-9.919177478027343,1.1013327636718748,0,0,0,0
1.2143641849979758,0.0526724365234375,-9.909600671386718,1.0295067138671874,0,0,0,0
1.2153188779921038,0.01915361328125,-9.880870251464843,1.0678139404296874,0,0,0,0
1.2164372709958116,0.009576806640625,-9.849745629882811,1.0869675537109373,0,0,0,0
1.2177440889936406,-0.03591302490234375,-9.809044201660155,1.1731588134765625,0,0,0,0
1.2187556879944168,0.06464344482421874,-9.962273107910155,1.1851298217773436,0,0,0,0
1.219768248993205,0.06703764648437499,-9.952696301269532,1.1516109985351561,0,0,0,0
1.2207287560013356,0.13407529296874998,-9.79946739501953,1.1468225952148436,0,0,0,0
1.221651429994381,0.076614453125,-9.797073193359374,1.1348515869140625,0,0,0,0
1.2228025829972466,0.086191259765625,-9.775525378417969,1.1109095703125,0,0,0,0
1.2239125880005304,0.11013327636718749,-9.739612353515625,1.16837041015625,0,0,0,0
1.2249473349947948,0.06943184814453125,-9.813832604980469,1.1252747802734375,0,0,0,0
1.2259916000039084,0.1005564697265625,-9.974244116210937,1.01514150390625,0,0,0,0
1.2269462550029857,0.1005564697265625,-10.029310754394531,1.01514150390625,0,0,0,0
1.2278780399938114,0.05746083984375,-10.026916552734374,1.0749965454101562,0,0,0,0
1.228799695003545,0.0047884033203125,-9.828197814941406,1.0869675537109373,0,0,0,0
1.2302344929921674,0.105344873046875,-9.816226806640625,1.0534487304687499,0,0,0,0
1.2312607579951873,0.12689268798828124,-9.897629663085937,1.0893617553710937,0,0,0,0
1.2322405610029818,0.1149216796875,-9.883264453125,1.1276689819335937,0,0,0,0
1.2331770500022685,0.07900865478515624,-9.828197814941406,1.1156979736328125,0,0,0,0
1.2340964089962654,0.05027823486328125,-9.871293444824218,1.1109095703125,0,0,0,0
1.2354835029982496,0.047884033203124995,-9.85692823486328,0.9528922607421875,0,0,0,0
1.2366877110034693,0.062249243164062495,-9.897629663085937,1.0893617553710937,0,0,0,0
1.2376979389955522,0.1149216796875,-9.897629663085937,1.0606313354492187,0,0,0,0
1.238626149992342,0.03591302490234375,-9.9215716796875,1.0869675537109373,0,0,0,0
1.2399840779980877,0.00718260498046875,-9.907206469726562,1.0606313354492187,0,0,0,0
1.2411022869928274,0.11731588134765625,-9.91438907470703,1.0702081420898437,0,0,0,0
1.2421792919922154,0.047884033203124995,-9.885658654785155,1.0702081420898437,0,0,0,0
1.2437110879982356,0.09816226806640624,-9.80665,1.209071838378906,0,0,0,0
1.244811241995194,0.09337386474609374,-9.756371765136718,1.2497732666015624,0,0,0,0
1.2458760250010528,0.19153613281249998,-9.801861596679688,1.209071838378906,0,0,0,0
1.2468065319990274,0.20829554443359374,-9.674968908691406,1.1324573852539062,0,0,0,0
1.2477312429982703,0.13407529296874998,-9.828197814941406,1.1420341918945311,0,0,0,0
1.2486553060007282,0.040701428222656245,-9.828197814941406,1.1133037719726562,0,0,0,0
1.249630108999554,0.00718260498046875,-9.97903251953125,1.189918225097656,0,0,0,0
1.250628042005701,0.10295067138671875,-10.012551342773437,1.0319009155273438,0,0,0,0
1.2515913999959594,0.10295067138671875,-9.93354268798828,0.93852705078125,0,0,0,0
1.2525046670052689,0.16280571289062498,-9.797073193359374,1.1180921752929687,0,0,0,0
1.2547082329983823,-0.028730419921875,-9.868899243164062,1.0893617553710937,0,0,0,0
1.2561074940022081,0.0047884033203125,-9.830592016601562,1.0821791503906248,0,0,0,0
1.2571958689950407,0.06703764648437499,-9.79946739501953,1.0582371337890624,0,0,0,0
1.2582242460048292,0.22744915771484372,-9.80665,1.1061211669921875,0,0,0,0
1.2591696599993156,0.11013327636718749,-9.871293444824218,1.0702081420898437,0,0,0,0
1.2601025930052856,0.0718260498046875,-9.928754284667969,1.1037269653320312,0,0,0,0
1.2610251559963217,0.07422025146484375,-10.005368737792969,1.0917559570312498,0,0,0,0
1.262305918004131,0.011971008300781249,-9.866505041503906,0.9744400756835937,0,0,0,0
1.2634116270055529,0.031124621582031248,-9.794678991699218,1.1013327636718748,0,0,0,0
1.2644941140024457,-0.040701428222656245,-9.835380419921874,0.9959878906249999,0,0,0,0
1.265577268000925,0.055066638183593745,-10.000580334472655,1.1324573852539062,0,0,0,0
1.26666105100594,0.08140285644531249,-9.97184991455078,1.1444283935546875,0,0,0,0
1.2680014789948473,0.0526724365234375,-9.758765966796874,1.0438719238281249,0,0,0,0
1.2691265019966522,0.06464344482421874,-9.74200655517578,1.0295067138671874,0,0,0,0
1.2701086379966,0.13646949462890623,-9.801861596679688,1.1252747802734375,0,0,0,0
1.2710376269969856,0.1388636962890625,-9.8449572265625,1.01514150390625,0,0,0,0
1.2719714489940088,0.1388636962890625,-9.852139831542969,1.0007762939453124,0,0,0,0
1.273020066000754,0.08379705810546874,-9.916783276367187,1.024718310546875,0,0,0,0
1.2740220169944223,0.031124621582031248,-9.97184991455078,1.0031704956054688,0,0,0,0
1.2754024629975902,0.05985504150390625,-10.050858569335936,1.1109095703125,0,0,0,0
1.2763934139948105,0.10773907470703124,-9.926360083007811,1.1133037719726562,0,0,0,0
1.2773628279974218,0.07422025146484375,-9.854534033203125,1.1324573852539062,0,0,0,0
1.2783765939966543,0.040701428222656245,-9.909600671386718,1.0821791503906248,0,0,0,0
1.2793376560002798,0.05027823486328125,-9.91438907470703,1.1180921752929687,0,0,0,0
1.2803234589955537,0.15083470458984374,-9.765948571777344,1.2018892333984375,0,0,0,0
1.2815852030034875,0.15322890625,-9.79946739501953,1.0486603271484374,0,0,0,0
1.2826153200003318,0.1484405029296875,-9.823409411621093,1.0390835205078124,0,0,0,0
1.2836845660058316,-0.016759411621093748,-9.873687646484374,1.0702081420898437,0,0,0,0
1.2846843869920122,0.07422025146484375,-9.938331091308592,1.0175357055664063,0,0,0,0
1.2859840010059997,0.1197100830078125,-9.950302099609374,1.0510545288085937,0,0,0,0
1.2869568599999184,0.1197100830078125,-9.852139831542969,1.1324573852539062,0,0,0,0
1.2879400700039696,0.04548983154296875,-9.809044201660155,1.0678139404296874,0,0,0,0
1.2888697629969101,-0.0143652099609375,-9.830592016601562,1.0941501586914062,0,0,0,0
1.289943804993527,-0.0143652099609375,-9.861716638183593,1.0773907470703123,0,0,0,0
1.290943497006083,0.009576806640625,-9.87608184814453,1.1563994018554686,0,0,0,0
1.2923305349977454,0.10773907470703124,-9.756371765136718,1.189918225097656,0,0,0,0
1.2933579119999195,0.1292868896484375,-9.734823950195311,1.120486376953125,0,0,0,0
1.2943039189995034,0.12449848632812499,-9.859322436523437,1.0271125122070313,0,0,0,0
1.295367886996246,0.033518823242187495,-9.83777462158203,1.0630255371093749,0,0,0,0
1.2963441530009732,0.02633621826171875,-9.897629663085937,1.1516109985351561,0,0,0,0
1.297318864002591,-0.0383072265625,-9.885658654785155,1.1420341918945311,0,0,0,0
1.2982462039944949,0.00239420166015625,-9.95987890625,1.13006318359375,0,0,0,0
1.299167988996487,0.10295067138671875,-9.983820922851562,1.1540052001953125,0,0,0,0
1.3000933669973165,0.08379705810546874,-9.897629663085937,1.1372457885742187,0,0,0,0
1.3011268919944996,0.04548983154296875,-9.809044201660155,1.1372457885742187,0,0,0,0
1.3021505270007765,-0.009576806640625,-9.78031378173828,1.1563994018554686,0,0,0,0
1.3034058820048813,0.02154781494140625,-9.76116016845703,1.1109095703125,0,0,0,0
1.304356481996365,0.09816226806640624,-9.74200655517578,1.2042834350585936,0,0,0,0
1.3056941690010717,0.12210428466796874,-9.868899243164062,1.216254443359375,0,0,0,0
1.3086781890015118,-0.040701428222656245,-9.86411083984375,1.0558429321289062,0,0,0,0
1.3097943600005237,-0.016759411621093748,-9.943119494628906,1.0199299072265624,0,0,0,0
1.3109333100001095,0.009576806640625,-9.943119494628906,0.9624690673828125,0,0,0,0
1.312103924996336,0.03591302490234375,-9.830592016601562,1.024718310546875,0,0,0,0
1.3132759290019749,0.08379705810546874,-9.765948571777344,1.0414777221679687,0,0,0,0
1.3143769900052575,0.105344873046875,-9.861716638183593,1.0630255371093749,0,0,0,0
1.3154662919987459,-0.02633621826171875,-9.835380419921874,1.0366893188476562,0,0,0,0
1.3165053720003925,0.09576806640624999,-9.792284790039062,1.139639990234375,0,0,0,0
1.31774459699227,0.0526724365234375,-9.835380419921874,1.0582371337890624,0,0,0,0
1.318877361001796,0.13407529296874998,-9.897629663085937,1.1468225952148436,0,0,0,0
1.3199569410062395,0.18435352783203124,-9.888052856445311,1.0702081420898437,0,0,0,0
1.3209895390027668,0.18914193115234373,-9.931148486328125,1.0486603271484374,0,0,0,0
1.3220125819934765,0.11013327636718749,-10.005368737792969,0.9888052856445312,0,0,0,0
1.3230736440018518,-0.047884033203124995,-9.981426721191406,0.9313444458007812,0,0,0,0
1.3241745010018349,0.0,-9.964667309570311,0.9888052856445312,0,0,0,0
1.3251493410061812,0.17238251953125,-9.775525378417969,1.0319009155273438,0,0,0,0
1.3261391620035283,0.2059013427734375,-9.746794958496093,1.1324573852539062,0,0,0,0
1.3271312800061423,0.02154781494140625,-9.689334118652344,1.0989385620117187,0,0,0,0
1.3281132120027905,0.0430956298828125,-9.773131176757811,1.0869675537109373,0,0,0,0
1.329146365998895,-0.031124621582031248,-9.993397729492187,1.0103531005859374,0,0,0,0
1.330475776005187,0.0526724365234375,-9.947907897949218,1.0869675537109373,0,0,0,0
1.331511134005268,0.05746083984375,-9.89523546142578,1.0845733520507812,0,0,0,0
1.3324794549989747,0.10295067138671875,-9.840168823242188,1.1875240234375,0,0,0,0
1.33341168500192,0.17477672119140625,-9.828197814941406,1.1372457885742187,0,0,0,0
1.334321636997629,0.0047884033203125,-9.911994873046874,1.177947216796875,0,0,0,0
1.335225941002136,0.01915361328125,-9.821015209960937,1.209071838378906,0,0,0,0
1.3362671319919173,-0.047884033203124995,-9.852139831542969,1.0845733520507812,0,0,0,0
1.3372566199977882,-0.040701428222656245,-9.813832604980469,1.1061211669921875,0,0,0,0
1.3382353110064287,0.0718260498046875,-9.828197814941406,1.1851298217773436,0,0,0,0
1.3391647079988616,0.17238251953125,-9.813832604980469,1.158793603515625,0,0,0,0
1.3401418989960803,0.2059013427734375,-9.789890588378906,1.1540052001953125,0,0,0,0
1.341173164997599,0.03591302490234375,-9.794678991699218,0.9816226806640624,0,0,0,0
1.342238262994215,0.03591302490234375,-9.763554370117188,0.9983820922851562,0,0,0,0
1.3432127139967633,0.08858546142578125,-9.868899243164062,1.0366893188476562,0,0,0,0
1.3442124979919754,0.09816226806640624,-9.90241806640625,1.0534487304687499,0,0,0,0
1.3451410419947933,0.047884033203124995,-9.967061511230469,1.0821791503906248,0,0,0,0
1.3460619200050132,0.13407529296874998,-9.962273107910155,1.0175357055664063,0,0,0,0
1.3471246669942047,-0.009576806640625,-9.919177478027343,1.0510545288085937,0,0,0,0
1.3482446340058232,0.09576806640624999,-9.83777462158203,1.0749965454101562,0,0,0,0
1.3492295670002932,0.076614453125,-9.81862100830078,1.1133037719726562,0,0,0,0
1.350200999993831,-0.0047884033203125,-9.79946739501953,1.1061211669921875,0,0,0,0
1.3511251180025283,0.03591302490234375,-9.775525378417969,1.1061211669921875,0,0,0,0
1.3520482549938606,0.00239420166015625,-9.737218151855469,1.1875240234375,0,0,0,0
1.3529660770000191,0.15562310791015624,-9.823409411621093,1.2210428466796874,0,0,0,0
1.353998231003061,0.29448680419921874,-9.873687646484374,1.218648645019531,0,0,0,0
1.3549965900019743,0.1388636962890625,-9.955090502929687,1.0917559570312498,0,0,0,0
1.3559897069935687,-0.0143652099609375,-9.995791931152343,1.0558429321289062,0,0,0,0
1.356905918000848,-0.0047884033203125,-10.002974536132811,1.0630255371093749,0,0,0,0
1.3578129259985872,0.023942016601562498,-10.014945544433592,1.0558429321289062,0,0,0,0
1.3588374690007186,0.04548983154296875,-9.852139831542969,1.1228805786132812,0,0,0,0
1.3598465489922091,0.12210428466796874,-9.947907897949218,1.1061211669921875,0,0,0,0
1.3607951669982867,0.16759411621093748,-9.674968908691406,1.1013327636718748,0,0,0,0
1.3617140449932776,0.028730419921875,-9.828197814941406,1.0606313354492187,0,0,0,0
1.362630256000557,0.031124621582031248,-9.83777462158203,1.0989385620117187,0,0,0,0
1.3636417249945225,0.0526724365234375,-9.83777462158203,1.1444283935546875,0,0,0,0
1.3646244539995678,0.09576806640624999,-9.878476049804688,1.1037269653320312,0,0,0,0
1.3655537019949406,0.09576806640624999,-9.86411083984375,1.0941501586914062,0,0,0,0
1.3664693390019238,0.16280571289062498,-9.888052856445311,1.0941501586914062,0,0,0,0
1.3673849210026674,0.05027823486328125,-9.878476049804688,1.0630255371093749,0,0,0,0
1.3683037239970872,-0.06464344482421874,-9.888052856445311,1.0127473022460938,0,0,0,0
1.3693379150063265,-0.05027823486328125,-9.9215716796875,1.0175357055664063,0,0,0,0
1.370282774005318,0.009576806640625,-9.938331091308592,0.948103857421875,0,0,0,0
1.371284613996977,0.20350714111328125,-9.950302099609374,1.0366893188476562,0,0,0,0
1.3722225469973637,0.13168109130859373,-9.873687646484374,1.1875240234375,0,0,0,0
1.3731516650004778,0.1484405029296875,-9.782707983398437,1.1468225952148436,0,0,0,0
1.3740754509926774,0.1388636962890625,-9.804255798339844,1.1324573852539062,0,0,0,0
1.3750739569950383,0.08140285644531249,-9.782707983398437,1.0342951171875,0,0,0,0
1.3760528889979469,0.033518823242187495,-9.804255798339844,1.0821791503906248,0,0,0,0
1.3769991190056317,0.03591302490234375,-9.907206469726562,1.0989385620117187,0,0,0,0
1.3779144040017854,0.03591302490234375,-9.952696301269532,1.1156979736328125,0,0,0,0
1.3788292999961413,0.1388636962890625,-9.926360083007811,1.1516109985351561,0,0,0,0
1.3801738019974437,0.086191259765625,-9.85692823486328,1.1013327636718748,0,0,0,0
1.3811668830021517,0.00239420166015625,-9.916783276367187,1.024718310546875,0,0,0,0
1.3820981309982017,0.12449848632812499,-10.000580334472655,1.0630255371093749,0,0,0,0
1.383033952995902,-0.01915361328125,-9.859322436523437,1.1659762084960936,0,0,0,0
1.383997996992548,-0.08140285644531249,-9.809044201660155,1.0845733520507812,0,0,0,0
1.384998095993069,0.06464344482421874,-9.770736975097655,1.0630255371093749,0,0,0,0
1.3859815100004198,0.062249243164062495,-9.809044201660155,1.1516109985351561,0,0,0,0
1.3869524790061405,0.2154781494140625,-9.854534033203125,1.0271125122070313,0,0,0,0
1.3879052830016008,0.09576806640624999,-9.809044201660155,1.1109095703125,0,0,0,0
1.388826196998707,0.05027823486328125,-9.900023864746093,1.1827356201171875,0,0,0,0
1.3897349829931045,0.04548983154296875,-9.900023864746093,1.1252747802734375,0,0,0,0
1.3907137670030352,-0.011971008300781249,-9.94072529296875,1.0989385620117187,0,0,0,0
1.3917568659962853,0.08858546142578125,-9.87608184814453,1.1444283935546875,0,0,0,0
1.3927255760063417,0.08858546142578125,-9.87608184814453,1.1659762084960936,0,0,0,0
1.393651991005754,0.08140285644531249,-9.842563024902343,1.1180921752929687,0,0,0,0
1.3945701280026697,-0.03591302490234375,-9.897629663085937,1.0821791503906248,0,0,0,0
1.3955888189957477,0.06464344482421874,-9.86411083984375,1.1252747802734375,0,0,0,0
1.396573695994448,0.03591302490234375,-9.785102185058593,1.1540052001953125,0,0,0,0
1.397538388002431,0.062249243164062495,-9.730035546875,1.1348515869140625,0,0,0,0
1.3989814069936983,0.1005564697265625,-9.816226806640625,1.0390835205078124,0,0,0,0
1.4008488849940477,0.05746083984375,-9.859322436523437,1.0630255371093749,0,0,0,0
1.4023763659934048,0.055066638183593745,-9.880870251464843,1.0295067138671874,0,0,0,0
1.4036850730044534,0.0143652099609375,-9.871293444824218,1.0630255371093749,0,0,0,0
1.4056907710037194,0.07422025146484375,-9.904812268066406,1.0654197387695312,0,0,0,0
1.4072197700006654,0.05985504150390625,-9.746794958496093,1.0678139404296874,0,0,0,0
1.4082688500056975,0.02154781494140625,-9.706093530273437,1.1037269653320312,0,0,0,0
1.4092341159994248,-0.033518823242187495,-9.7683427734375,1.1109095703125,0,0,0,0
1.4101933269994333,0.009576806640625,-9.847351428222655,1.0726023437499999,0,0,0,0
1.4111433520010905,0.09816226806640624,-9.957484704589843,1.209071838378906,0,0,0,0
1.4129704969964223,0.19632453613281248,-9.866505041503906,1.0917559570312498,0,0,0,0
1.4142178519978188,0.11013327636718749,-9.90241806640625,1.0749965454101562,0,0,0,0
1.4151526560017373,-0.011971008300781249,-9.885658654785155,1.1156979736328125,0,0,0,0
1.4160856069938745,-0.047884033203124995,-9.93354268798828,1.0606313354492187,0,0,0,0
1.4170126329991035,-0.076614453125,-9.943119494628906,1.0630255371093749,0,0,0,0
1.4179356590029784,0.09576806640624999,-9.923965881347655,1.1468225952148436,0,0,0,0
1.4207377550046658,0.13407529296874998,-9.955090502929687,1.1420341918945311,0,0,0,0
1.4217568159947405,0.07422025146484375,-9.801861596679688,1.1635820068359375,0,0,0,0
1.4226844899967546,0.06943184814453125,-9.813832604980469,1.1109095703125,0,0,0,0
1.4236386449920246,-0.023942016601562498,-9.730035546875,1.120486376953125,0,0,0,0
1.4245678930019494,0.02154781494140625,-9.840168823242188,1.1109095703125,0,0,0,0
1.4257993969949894,0.15083470458984374,-9.974244116210937,1.0534487304687499,0,0,0,0
1.4270727889961563,0.06464344482421874,-9.935936889648437,1.1324573852539062,0,0,0,0
1.4282162930030609,-0.062249243164062495,-9.866505041503906,1.0654197387695312,0,0,0,0
1.4291616520058597,0.076614453125,-9.931148486328125,1.0007762939453124,0,0,0,0
1.4301186590018915,-0.0047884033203125,-9.89523546142578,0.97683427734375,0,0,0,0
1.4313860879919957,0.1484405029296875,-9.809044201660155,1.139639990234375,0,0,0,0
1.4331474189966684,0.1149216796875,-9.727641345214844,1.177947216796875,0,0,0,0
1.4346221790037816,0.076614453125,-9.86411083984375,1.0893617553710937,0,0,0,0
1.4360622910025995,0.07900865478515624,-9.911994873046874,1.1109095703125,0,0,0,0
1.437330146000022,0.076614453125,-9.911994873046874,1.1252747802734375,0,0,0,0
1.4384331140026916,0.08140285644531249,-9.91438907470703,1.0965443603515623,0,0,0,0
1.4393770650058286,0.033518823242187495,-9.93354268798828,1.1109095703125,0,0,0,0
1.4403053319983883,0.009576806640625,-9.938331091308592,1.1085153686523437,0,0,0,0
1.4412995610036887,-0.00239420166015625,-9.830592016601562,1.218648645019531,0,0,0,0
1.442581748997327,0.023942016601562498,-9.859322436523437,1.1037269653320312,0,0,0,0
1.443923992002965,0.02154781494140625,-9.787496386718749,1.0103531005859374,0,0,0,0
1.4448618140013423,-0.011971008300781249,-9.777919580078125,1.0295067138671874,0,0,0,0
1.4457892840000568,0.1005564697265625,-9.682151513671874,1.1372457885742187,0,0,0,0
1.446708679999574,0.1388636962890625,-9.873687646484374,1.0749965454101562,0,0,0,0
1.4480064980016323,0.04548983154296875,-9.854534033203125,1.0486603271484374,0,0,0,0
1.4492393719992833,0.0383072265625,-9.890447058105469,1.0845733520507812,0,0,0,0
1.4504105060041184,0.04548983154296875,-9.964667309570311,1.0630255371093749,0,0,0,0
1.4514881409995724,0.10295067138671875,-9.955090502929687,1.0558429321289062,0,0,0,0
1.4530865470005665,0.00239420166015625,-9.811438403320311,1.0821791503906248,0,0,0,0
1.4549878760008141,0.11731588134765625,-9.794678991699218,1.1923124267578125,0,0,0,0
1.4559734380018199,0.02633621826171875,-9.727641345214844,1.1540052001953125,0,0,0,0
1.4568886119959643,-0.05027823486328125,-9.777919580078125,1.1037269653320312,0,0,0,0
1.4578592860052595,-0.023942016601562498,-9.734823950195311,1.149216796875,0,0,0,0
1.4590770109934965,0.08858546142578125,-9.890447058105469,1.1563994018554686,0,0,0,0
1.460036777993082,0.14604630126953125,-9.909600671386718,1.1563994018554686,0,0,0,0
1.4612763740005903,0.06703764648437499,-9.87608184814453,1.0941501586914062,0,0,0,0
1.4622593429958215,0.0143652099609375,-9.91438907470703,1.0749965454101562,0,0,0,0
1.4637446769920643,0.02633621826171875,-9.883264453125,1.1085153686523437,0,0,0,0
1.4649301629979163,0.031124621582031248,-9.871293444824218,1.1635820068359375,0,0,0,0
1.4658607070014114,0.06943184814453125,-9.880870251464843,1.0941501586914062,0,0,0,0
1.4667833809944568,0.07422025146484375,-9.888052856445311,1.0989385620117187,0,0,0,0
1.467704609996872,0.086191259765625,-9.770736975097655,1.1468225952148436,0,0,0,0
1.4690080019936431,0.08858546142578125,-9.739612353515625,1.0366893188476562,0,0,0,0
1.470312912002555,0.1149216796875,-9.852139831542969,1.1252747802734375,0,0,0,0
1.471241122999345,0.02633621826171875,-9.859322436523437,1.1252747802734375,0,0,0,0
1.4721688339923276,0.02633621826171875,-9.878476049804688,1.0606313354492187,0,0,0,0
1.473125656004413,0.09576806640624999,-9.861716638183593,1.1252747802734375,0,0,0,0
1.4744269920047373,0.05746083984375,-9.878476049804688,1.1516109985351561,0,0,0,0
1.4756259589921683,0.09576806640624999,-9.878476049804688,1.1180921752929687,0,0,0,0
1.476565243996447,-0.02633621826171875,-9.830592016601562,1.1827356201171875,0,0,0,0
1.4774876400042558,0.0047884033203125,-9.82580361328125,1.0295067138671874,0,0,0,0
1.4784042770043015,0.028730419921875,-9.868899243164062,1.0486603271484374,0,0,0,0
1.4793218949926086,0.11252747802734374,-9.811438403320311,1.1468225952148436,0,0,0,0
1.4807139339973219,0.17477672119140625,-9.679757312011718,1.0486603271484374,0,0,0,0
1.4820971949957311,0.2346317626953125,-9.763554370117188,1.0486603271484374,0,0,0,0
1.4830260909948265,0.11731588134765625,-9.904812268066406,1.0773907470703123,0,0,0,0
1.483996634997311,-0.03591302490234375,-9.957484704589843,1.0893617553710937,0,0,0,0
1.4849126240005717,0.023942016601562498,-10.019733947753906,1.0917559570312498,0,0,0,0
1.4862331629992696,0.11013327636718749,-9.94072529296875,1.189918225097656,0,0,0,0
1.4875756099936552,0.05985504150390625,-9.93354268798828,1.1228805786132812,0,0,0,0
1.4885072100005345,-0.05027823486328125,-9.842563024902343,1.1228805786132812,0,0,0,0
1.4894296620041132,-0.08379705810546874,-9.907206469726562,1.0582371337890624,0,0,0,0
1.4903979649971006,0.028730419921875,-9.868899243164062,1.1444283935546875,0,0,0,0
1.4917855219973717,0.10295067138671875,-9.80665,1.149216796875,0,0,0,0
1.4931426539988024,0.10295067138671875,-9.87608184814453,1.0965443603515623,0,0,0,0
1.494477840999025,0.105344873046875,-9.8449572265625,1.1468225952148436,0,0,0,0
1.4954824029991869,-0.023942016601562498,-9.835380419921874,1.0319009155273438,0,0,0,0
1.4970100140053546,0.047884033203124995,-9.935936889648437,1.0199299072265624,0,0,0,0
1.4985062920022756,0.09576806640624999,-9.952696301269532,0.9241618408203125,0,0,0,0
1.4997559990006266,0.12210428466796874,-9.952696301269532,1.1468225952148436,0,0,0,0
1.5006917659920873,0.16041151123046873,-9.873687646484374,1.1516109985351561,0,0,0,0
1.5016098839987535,0.04548983154296875,-9.890447058105469,1.0845733520507812,0,0,0,0
1.5029123129934305,0.033518823242187495,-9.730035546875,1.0462661254882812,0,0,0,0
1.5049543810018804,0.08379705810546874,-9.804255798339844,1.0965443603515623,0,0,0,0
1.5059704419982154,0.06703764648437499,-9.86411083984375,1.1468225952148436,0,0,0,0
1.507025947998045,0.05985504150390625,-9.923965881347655,1.0630255371093749,0,0,0,0
1.508778204995906,0.00718260498046875,-9.9215716796875,1.0079588989257813,0,0,0,0
1.5099362649925752,-0.016759411621093748,-9.9981861328125,1.0127473022460938,0,0,0,0
1.5108712530054618,0.06943184814453125,-10.081983190917969,1.0726023437499999,0,0,0,0
1.511803631001385,0.05027823486328125,-9.83777462158203,1.0438719238281249,0,0,0,0
1.5127991000044858,0.055066638183593745,-9.868899243164062,1.1252747802734375,0,0,0,0
1.5138845309993485,0.06703764648437499,-9.787496386718749,1.0773907470703123,0,0,0,0
1.5152254779968644,0.06464344482421874,-9.737218151855469,1.1252747802734375,0,0,0,0
1.5161786149983527,0.10773907470703124,-9.770736975097655,1.197100830078125,0,0,0,0
1.5171412140043685,0.12689268798828124,-9.83777462158203,1.1755530151367186,0,0,0,0
1.5181387390039163,0.1388636962890625,-9.821015209960937,1.1252747802734375,0,0,0,0
1.5191268570051761,0.07422025146484375,-9.81862100830078,1.0199299072265624,0,0,0,0
1.520080771006178,0.09337386474609374,-9.952696301269532,1.0486603271484374,0,0,0,0
1.5210071299952688,0.09337386474609374,-9.967061511230469,1.0869675537109373,0,0,0,0
1.5219259709992912,0.062249243164062495,-9.923965881347655,1.0582371337890624,0,0,0,0
1.52290962600091,0.016759411621093748,-9.926360083007811,0.9816226806640624,0,0,0,0
1.5239091139956145,-0.009576806640625,-9.904812268066406,1.0462661254882812,0,0,0,0
1.5248375280061737,-0.02154781494140625,-9.885658654785155,1.1180921752929687,0,0,0,0
1.5258837930014124,0.0526724365234375,-9.787496386718749,1.0965443603515623,0,0,0,0
1.5269995760027086,0.09337386474609374,-9.706093530273437,1.0702081420898437,0,0,0,0
1.5280694700049935,0.12449848632812499,-9.753977563476562,1.1013327636718748,0,0,0,0
1.52905627299333,0.06464344482421874,-9.785102185058593,1.0917559570312498,0,0,0,0
1.5302261659962824,0.08858546142578125,-9.85692823486328,1.1109095703125,0,0,0,0
1.5312604869977804,0.055066638183593745,-9.907206469726562,1.0295067138671874,0,0,0,0
1.5323588809987996,0.055066638183593745,-9.888052856445311,1.0702081420898437,0,0,0,0
1.5336226810031803,0.011971008300781249,-9.943119494628906,1.0558429321289062,0,0,0,0
1.5348660360032227,0.00239420166015625,-9.885658654785155,1.1252747802734375,0,0,0,0
1.5359567449922906,0.02154781494140625,-9.823409411621093,0.9648632690429687,0,0,0,0
1.5370121769956313,-0.14604630126953125,-9.842563024902343,1.1037269653320312,0,0,0,0
1.5380326459999196,0.1149216796875,-9.859322436523437,1.1611878051757811,0,0,0,0
1.5391642989998218,0.17238251953125,-9.878476049804688,1.1037269653320312,0,0,0,0
1.5402835069980938,0.1771709228515625,-9.828197814941406,1.1156979736328125,0,0,0,0
1.5413112730020657,0.05027823486328125,-9.794678991699218,1.1133037719726562,0,0,0,0
1.5422416130022611,0.04548983154296875,-9.81862100830078,1.1133037719726562,0,0,0,0
1.5435334310022881,0.0047884033203125,-9.981426721191406,1.0726023437499999,0,0,0,0
1.544685879998724,0.05985504150390625,-9.957484704589843,1.0199299072265624,0,0,0,0
1.5457717929966748,0.1388636962890625,-10.046070166015625,1.0917559570312498,0,0,0,0
1.5467132630001288,0.09816226806640624,-9.892841259765625,1.0582371337890624,0,0,0,0
1.5476661769935163,0.028730419921875,-9.878476049804688,0.9600748657226562,0,0,0,0
1.5485889440024039,-0.009576806640625,-9.847351428222655,0.9457096557617187,0,0,0,0
1.5496081530000083,-0.055066638183593745,-9.7683427734375,1.0749965454101562,0,0,0,0
1.550751417002175,0.0,-9.842563024902343,1.0917559570312498,0,0,0,0
1.5516972019977402,0.12689268798828124,-9.811438403320311,1.2042834350585936,0,0,0,0
1.5526158580032643,0.028730419921875,-9.773131176757811,1.0893617553710937,0,0,0,0
1.5535234760027379,0.13168109130859373,-9.868899243164062,1.0893617553710937,0,0,0,0
1.5545117239962565,0.12449848632812499,-9.911994873046874,1.0917559570312498,0,0,0,0
1.5560452609934146,0.0,-9.988609326171874,1.0869675537109373,0,0,0,0
1.5571074699983,0.0047884033203125,-9.952696301269532,0.9935936889648437,0,0,0,0
1.5580465700040804,0.06703764648437499,-9.952696301269532,0.97683427734375,0,0,0,0
1.5589897430036217,0.06703764648437499,-9.943119494628906,1.0462661254882812,0,0,0,0
1.5601635619968874,0.1484405029296875,-9.765948571777344,1.139639990234375,0,0,0,0
1.5611989019962493,0.04548983154296875,-9.80665,1.1563994018554686,0,0,0,0
1.5623438509937841,0.023942016601562498,-9.823409411621093,1.1851298217773436,0,0,0,0
1.5632851359987399,0.023942016601562498,-9.943119494628906,1.139639990234375,0,0,0,0
1.5644019000028493,0.16519991455078123,-9.952696301269532,1.1731588134765625,0,0,0,0
1.5654261279996717,0.143652099609375,-9.904812268066406,1.1923124267578125,0,0,0,0
1.5664534310053568,0.13646949462890623,-9.861716638183593,1.149216796875,0,0,0,0
1.5674513629928697,0.02154781494140625,-9.813832604980469,1.1228805786132812,0,0,0,0
1.568471035992843,-0.00718260498046875,-9.804255798339844,1.1707646118164061,0,0,0,0
1.5694860049989074,-0.03591302490234375,-9.897629663085937,1.0606313354492187,0,0,0,0
1.5704949369974202,0.04548983154296875,-9.859322436523437,1.0845733520507812,0,0,0,0
1.5714987209939864,0.08140285644531249,-9.83777462158203,1.1923124267578125,0,0,0,0
1.5726286889985204,0.14604630126953125,-9.789890588378906,1.0319009155273438,0,0,0,0
1.5738198409962934,0.076614453125,-9.900023864746093,1.0486603271484374,0,0,0,0
1.5751191220042529,0.04548983154296875,-9.782707983398437,1.1372457885742187,0,0,0,0
1.5765046229935251,0.016759411621093748,-9.782707983398437,1.120486376953125,0,0,0,0
1.5777474969945615,0.11013327636718749,-9.816226806640625,1.0510545288085937,0,0,0,0
1.5787950770027237,0.13646949462890623,-9.950302099609374,1.0342951171875,0,0,0,0
1.57989841599192,0.07900865478515624,-9.988609326171874,1.158793603515625,0,0,0,0
1.581054067995865,0.05746083984375,-10.079588989257813,1.1037269653320312,0,0,0,0
1.5822789980011294,-0.033518823242187495,-9.935936889648437,1.0702081420898437,0,0,0,0
1.5833095039997716,0.0430956298828125,-9.821015209960937,1.16837041015625,0,0,0,0
1.5843918239988852,0.10295067138671875,-9.770736975097655,1.1085153686523437,0,0,0,0
1.5856147909944411,0.15322890625,-9.758765966796874,1.177947216796875,0,0,0,0
1.5866257599991513,0.12689268798828124,-9.811438403320311,1.20667763671875,0,0,0,0
1.587659098993754,0.023942016601562498,-9.866505041503906,1.1276689819335937,0,0,0,0
1.5887367529940093,-0.00239420166015625,-9.909600671386718,1.0438719238281249,0,0,0,0
1.5900450519984588,0.06703764648437499,-9.947907897949218,1.0319009155273438,0,0,0,0
1.5910553360008635,0.07422025146484375,-9.919177478027343,0.967257470703125,0,0,0,0
1.5920636749942787,0.047884033203124995,-9.847351428222655,1.180341418457031,0,0,0,0
1.59306858900527,0.023942016601562498,-9.861716638183593,1.0342951171875,0,0,0,0
1.5941272060008487,0.033518823242187495,-9.835380419921874,0.9361328491210937,0,0,0,0
1.5953810240025632,0.11731588134765625,-9.835380419921874,1.0869675537109373,0,0,0,0
1.5973732029960956,0.09576806640624999,-9.734823950195311,1.0486603271484374,0,0,0,0
1.5984822640020866,0.04548983154296875,-9.79946739501953,1.0630255371093749,0,0,0,0
1.6000711340020644,0.03591302490234375,-9.78031378173828,1.0869675537109373,0,0,0,0
1.6015899299964076,0.02154781494140625,-9.907206469726562,0.9217676391601562,0,0,0,0
1.6026078069990035,0.0,-9.86411083984375,1.1468225952148436,0,0,0,0
1.6036388679931406,0.02633621826171875,-9.79946739501953,1.1372457885742187,0,0,0,0
1.6047172809921904,-0.02633621826171875,-9.86411083984375,1.0510545288085937,0,0,0,0
1.6060386350000044,-0.1388636962890625,-9.928754284667969,1.01514150390625,0,0,0,0
1.6070511419966351,0.09816226806640624,-9.840168823242188,1.0175357055664063,0,0,0,0
1.6082337940024445,-0.0383072265625,-9.852139831542969,1.0941501586914062,0,0,0,0
1.6094932970008813,0.05027823486328125,-9.878476049804688,1.209071838378906,0,0,0,0
1.611482791005983,0.06464344482421874,-9.964667309570311,1.1324573852539062,0,0,0,0
1.6128257200034568,0.0718260498046875,-9.892841259765625,1.0893617553710937,0,0,0,0
1.6140742230054457,0.08858546142578125,-9.911994873046874,1.0103531005859374,0,0,0,0
1.6151350250001997,0.01915361328125,-9.828197814941406,1.0390835205078124,0,0,0,0
1.6162082340015331,-0.009576806640625,-9.935936889648437,1.0486603271484374,0,0,0,0
1.6174253670033067,-0.00718260498046875,-9.892841259765625,1.120486376953125,0,0,0,0
1.6188002769922605,-0.055066638183593745,-9.892841259765625,1.1851298217773436,0,0,0,0
1.6198743559943978,0.11013327636718749,-9.80665,1.199495031738281,0,0,0,0
1.6212198580033146,0.09337386474609374,-9.76116016845703,1.0893617553710937,0,0,0,0
1.6225167869997676,0.08858546142578125,-9.68454571533203,1.0342951171875,0,0,0,0
1.6235269790049642,0.0,-9.718064538574218,1.1109095703125,0,0,0,0
1.6245354849961586,0.07422025146484375,-9.809044201660155,1.1827356201171875,0,0,0,0
1.6256048420036677,0.0718260498046875,-9.878476049804688,0.9337386474609375,0,0,0,0
1.626829586995882,0.14125789794921875,-9.861716638183593,1.1109095703125,0,0,0,0
1.6278693700005533,0.11731588134765625,-9.931148486328125,1.0702081420898437,0,0,0,0
1.6291245030006394,-0.0718260498046875,-9.854534033203125,0.9983820922851562,0,0,0,0
1.630525820000912,-0.01915361328125,-9.835380419921874,1.01514150390625,0,0,0,0
1.631839415000286,0.10773907470703124,-9.9215716796875,0.9720458740234375,0,0,0,0
1.6328519770031562,0.09816226806640624,-9.725247143554688,1.149216796875,0,0,0,0
1.6339536299929023,0.0718260498046875,-9.8449572265625,1.0893617553710937,0,0,0,0
1.6349628210009541,0.17477672119140625,-9.904812268066406,1.1563994018554686,0,0,0,0
1.6361608620063635,0.07422025146484375,-9.89523546142578,1.1851298217773436,0,0,0,0
1.6374940310051898,0.00718260498046875,-9.871293444824218,1.0917559570312498,0,0,0,0
1.6386252579977736,0.05985504150390625,-9.9215716796875,0.9959878906249999,0,0,0,0
1.6396235800057184,0.12210428466796874,-9.8449572265625,1.0007762939453124,0,0,0,0
1.6409745999990264,0.105344873046875,-9.883264453125,1.1276689819335937,0,0,0,0
1.6421555489941966,0.0383072265625,-9.907206469726562,1.1156979736328125,0,0,0,0
1.6431699990062043,-0.02633621826171875,-9.83777462158203,1.0366893188476562,0,0,0,0
1.644178597998689,-0.0430956298828125,-9.80665,1.0127473022460938,0,0,0,0
1.645182123000268,0.16519991455078123,-9.847351428222655,1.0869675537109373,0,0,0,0
1.6465783839958021,0.17238251953125,-9.86411083984375,1.1228805786132812,0,0,0,0
1.648296900006244,0.086191259765625,-9.76116016845703,1.0678139404296874,0,0,0,0
1.6493635719962185,-0.09337386474609374,-9.95987890625,0.9888052856445312,0,0,0,0
1.650513835993479,0.031124621582031248,-9.93354268798828,1.13006318359375,0,0,0,0
1.6520185959961964,-0.0718260498046875,-9.823409411621093,1.0438719238281249,0,0,0,0
1.6531823219993385,0.06703764648437499,-9.828197814941406,0.9959878906249999,0,0,0,0
1.654818950992194,0.00718260498046875,-9.928754284667969,1.005564697265625,0,0,0,0
1.6566550400020787,0.00239420166015625,-9.734823950195311,1.1156979736328125,0,0,0,0
1.658124706998933,0.00239420166015625,-9.904812268066406,1.0582371337890624,0,0,0,0
1.6591626570007065,0.12689268798828124,-9.986215124511718,1.0127473022460938,0,0,0,0
1.660091719997581,0.13407529296874998,-9.923965881347655,0.9840168823242187,0,0,0,0
1.6610106159932911,0.11731588134765625,-9.82580361328125,1.0390835205078124,0,0,0,0
1.6623958590062102,0.02154781494140625,-9.828197814941406,1.0175357055664063,0,0,0,0
1.6646492199943168,-0.055066638183593745,-9.888052856445311,1.1324573852539062,0,0,0,0
1.6657969840016449,0.0909796630859375,-9.931148486328125,1.0582371337890624,0,0,0,0
1.6669349519943353,0.09576806640624999,-9.911994873046874,1.1516109985351561,0,0,0,0
1.6680498640052974,0.2920926025390625,-9.734823950195311,1.1324573852539062,0,0,0,0
1.6691329989989754,0.11731588134765625,-9.655815295410155,1.158793603515625,0,0,0,0
1.6701153210015036,0.105344873046875,-9.732429748535155,0.9935936889648437,0,0,0,0
1.6710470690013608,-0.1149216796875,-10.005368737792969,0.967257470703125,0,0,0,0
1.6719849829969462,-0.1149216796875,-10.194510668945313,1.0486603271484374,0,0,0,0
1.673012582003139,-0.09816226806640624,-9.928754284667969,1.1563994018554686,0,0,0,0
1.6739792180014774,0.02633621826171875,-9.89523546142578,1.1875240234375,0,0,0,0
1.6754319409956224,0.2059013427734375,-9.852139831542969,1.2306196533203124,0,0,0,0
1.6766655560059007,0.033518823242187495,-9.83777462158203,1.1348515869140625,0,0,0,0
1.6785562180011766,-0.1292868896484375,-9.787496386718749,1.1180921752929687,0,0,0,0
1.679755203993409,0.12210428466796874,-9.885658654785155,1.139639990234375,0,0,0,0
1.6813653879944468,0.20350714111328125,-9.897629663085937,0.9911994873046874,0,0,0,0
1.6826243910036283,0.03591302490234375,-9.87608184814453,1.0486603271484374,0,0,0,0
1.6836708040063968,0.016759411621093748,-9.86411083984375,0.9864110839843749,0,0,0,0
1.6846680140006356,-0.0526724365234375,-9.82580361328125,1.0295067138671874,0,0,0,0
1.685931868996704,-0.02154781494140625,-9.847351428222655,1.1037269653320312,0,0,0,0
1.6870015790045727,0.11252747802734374,-9.95987890625,1.0630255371093749,0,0,0,0
1.6881668790010735,0.06703764648437499,-9.852139831542969,1.1516109985351561,0,0,0,0
1.6891091459983727,0.13168109130859373,-9.816226806640625,1.0702081420898437,0,0,0,0
1.690031096994062,0.0047884033203125,-9.859322436523437,1.0917559570312498,0,0,0,0
1.6910182519932278,0.1388636962890625,-9.904812268066406,1.1109095703125,0,0,0,0
1.6921588679979322,0.0718260498046875,-9.782707983398437,1.0534487304687499,0,0,0,0
1.69309050499578,0.1388636962890625,-9.835380419921874,1.0462661254882812,0,0,0,0
1.6940114189928863,0.00239420166015625,-9.830592016601562,1.2641384765625,0,0,0,0
1.6950616849935614,0.239420166015625,-9.85692823486328,1.235408056640625,0,0,0,0
1.6961185239924816,0.1197100830078125,-9.868899243164062,1.1180921752929687,0,0,0,0
1.6974561919923872,-0.08140285644531249,-9.991003527832031,1.1228805786132812,0,0,0,0
1.6983975329931127,0.031124621582031248,-9.947907897949218,1.0630255371093749,0,0,0,0
1.699321798994788,0.09816226806640624,-9.816226806640625,1.1085153686523437,0,0,0,0
1.7002436769980704,0.086191259765625,-9.809044201660155,1.0821791503906248,0,0,0,0
1.701163239995367,0.1149216796875,-9.789890588378906,1.0223241088867188,0,0,0,0
1.7022037459973944,0.023942016601562498,-9.811438403320311,0.9983820922851562,0,0,0,0
1.7038947440014454,-0.011971008300781249,-9.830592016601562,0.9409212524414062,0,0,0,0
1.7048969540046528,0.0143652099609375,-9.897629663085937,1.0295067138671874,0,0,0,0
1.7058238689933205,0.0526724365234375,-9.811438403320311,0.9983820922851562,0,0,0,0
1.7068539119936759,0.062249243164062495,-10.072406384277343,1.1133037719726562,0,0,0,0
1.7080582299968228,0.0909796630859375,-9.8449572265625,1.0749965454101562,0,0,0,0
1.7090060339978663,0.076614453125,-9.8449572265625,1.1659762084960936,0,0,0,0
1.7102200929948594,-0.011971008300781249,-9.86411083984375,1.180341418457031,0,0,0,0
1.711147877998883,0.04548983154296875,-9.797073193359374,1.0702081420898437,0,0,0,0
1.7124679550033761,0.03591302490234375,-9.832986218261718,1.0821791503906248,0,0,0,0
1.7137116990052164,0.00239420166015625,-9.828197814941406,1.1348515869140625,0,0,0,0
1.714975738999783,0.09816226806640624,-9.8449572265625,1.16837041015625,0,0,0,0
1.716178539005341,0.08379705810546874,-9.828197814941406,1.1109095703125,0,0,0,0
1.7173612839978887,0.11013327636718749,-9.813832604980469,1.0510545288085937,0,0,0,0
1.718853765996755,0.0143652099609375,-9.859322436523437,1.1276689819335937,0,0,0,0
1.7198337909940165,0.02633621826171875,-9.811438403320311,1.1540052001953125,0,0,0,0
1.720756872993661,0.0718260498046875,-9.964667309570311,1.0869675537109373,0,0,0,0
1.7216760650044307,0.0383072265625,-9.91438907470703,1.0989385620117187,0,0,0,0
1.7226614609971875,0.13168109130859373,-9.890447058105469,1.0031704956054688,0,0,0,0
1.7238481679960387,0.009576806640625,-9.957484704589843,0.9935936889648437,0,0,0,0
1.725006709995796,0.14604630126953125,-9.823409411621093,0.93852705078125,0,0,0,0
1.7259671060019173,-0.00718260498046875,-9.79946739501953,1.024718310546875,0,0,0,0
1.726889576006215,0.011971008300781249,-9.842563024902343,1.0773907470703123,0,0,0,0
1.7282342079997761,0.08140285644531249,-9.928754284667969,1.1851298217773436,0,0,0,0
1.7296289499936393,0.1580173095703125,-9.87608184814453,1.1133037719726562,0,0,0,0
1.7308356019930216,0.07900865478515624,-9.923965881347655,1.0893617553710937,0,0,0,0
1.7317881649942137,0.20350714111328125,-9.897629663085937,1.2210428466796874,0,0,0,0
1.7333899600052973,-0.02154781494140625,-9.87608184814453,1.1085153686523437,0,0,0,0
1.7347553139989031,0.02154781494140625,-9.87608184814453,0.9864110839843749,0,0,0,0
1.735688079992542,-0.1149216796875,-9.911994873046874,0.9816226806640624,0,0,0,0
1.7366099770006258,0.04548983154296875,-9.832986218261718,1.024718310546875,0,0,0,0
1.7378820169979008,0.009576806640625,-9.758765966796874,1.01514150390625,0,0,0,0
1.7393673509941436,0.18914193115234373,-9.840168823242188,1.1109095703125,0,0,0,0
1.7403534680051962,0.0143652099609375,-9.852139831542969,1.1133037719726562,0,0,0,0
1.7414225660031661,0.05746083984375,-9.828197814941406,1.1851298217773436,0,0,0,0
1.7423494620015845,-0.0047884033203125,-9.926360083007811,1.0462661254882812,0,0,0,0
1.743753242000821,0.0718260498046875,-9.835380419921874,1.0965443603515623,0,0,0,0
1.7451127439999254,0.009576806640625,-9.885658654785155,1.0606313354492187,0,0,0,0
1.7460431399958907,0.08140285644531249,-9.86411083984375,1.0965443603515623,0,0,0,0
1.7469641659990884,0.08140285644531249,-9.866505041503906,1.1085153686523437,0,0,0,0
1.7478860059927683,-0.02633621826171875,-9.859322436523437,1.1348515869140625,0,0,0,0
1.7491736759984633,-0.028730419921875,-9.859322436523437,1.0893617553710937,0,0,0,0
1.7504844929935643,0.08379705810546874,-9.785102185058593,1.0678139404296874,0,0,0,0
1.7514109449984971,0.16041151123046873,-9.744400756835937,1.0989385620117187,0,0,0,0
1.7525684499996714,0.05027823486328125,-9.849745629882811,1.139639990234375,0,0,0,0
1.754352520001703,-0.009576806640625,-9.87608184814453,1.0869675537109373,0,0,0,0
1.7554713589925086,0.1292868896484375,-9.90241806640625,1.1276689819335937,0,0,0,0
1.7565334940009052,0.01915361328125,-9.849745629882811,1.1180921752929687,0,0,0,0
1.7574925189983333,0.031124621582031248,-9.90241806640625,1.1180921752929687,0,0,0,0
1.7584255270048743,0.047884033203124995,-9.83777462158203,1.1540052001953125,0,0,0,0
1.7594728840049356,0.076614453125,-9.801861596679688,1.2018892333984375,0,0,0,0
1.7605805929924827,0.06703764648437499,-9.842563024902343,1.1324573852539062,0,0,0,0
1.7616466360050254,0.0526724365234375,-9.811438403320311,1.1324573852539062,0,0,0,0
1.7625871430063853,0.06703764648437499,-9.801861596679688,1.1420341918945311,0,0,0,0
1.7635164829989662,0.05985504150390625,-9.89523546142578,1.1420341918945311,0,0,0,0
1.7644469539955026,0.105344873046875,-9.878476049804688,1.0438719238281249,0,0,0,0
1.7653812939970521,0.13168109130859373,-9.849745629882811,1.1276689819335937,0,0,0,0
1.7663822820031783,0.15083470458984374,-9.797073193359374,1.1037269653320312,0,0,0,0
1.7674179919995368,0.04548983154296875,-9.923965881347655,1.1851298217773436,0,0,0,0
1.76842218299862,-0.00718260498046875,-9.923965881347655,1.1420341918945311,0,0,0,0
1.7693694119952852,-0.01915361328125,-9.945513696289062,1.0199299072265624,0,0,0,0
1.7702896970004076,-0.016759411621093748,-9.830592016601562,1.0749965454101562,0,0,0,0
1.7712145010009408,0.0,-9.789890588378906,1.0582371337890624,0,0,0,0
1.772154082005727,0.03591302490234375,-9.792284790039062,1.1109095703125,0,0,0,0
1.7733138089970453,0.0909796630859375,-9.715670336914062,1.0342951171875,0,0,0,0
1.7742926670034649,0.05985504150390625,-9.753977563476562,1.1085153686523437,0,0,0,0
1.7753538950055372,0.055066638183593745,-9.871293444824218,1.158793603515625,0,0,0,0
1.7763028839981416,0.011971008300781249,-9.840168823242188,1.177947216796875,0,0,0,0
1.777236409005127,0.062249243164062495,-9.943119494628906,1.20667763671875,0,0,0,0
1.778156824002508,0.033518823242187495,-9.904812268066406,1.1827356201171875,0,0,0,0
1.7797888039931422,0.09337386474609374,-9.8449572265625,1.1444283935546875,0,0,0,0
1.7811146220046794,-0.09337386474609374,-9.832986218261718,1.1180921752929687,0,0,0,0
1.7820553880010266,-0.009576806640625,-9.8449572265625,1.158793603515625,0,0,0,0
1.78312237499631,-0.009576806640625,-9.90241806640625,1.0319009155273438,0,0,0,0
1.78524875700532,0.01915361328125,-9.782707983398437,1.1252747802734375,0,0,0,0
1.786389020999195,0.09576806640624999,-9.751583361816406,1.180341418457031,0,0,0,0
1.7873897120007314,0.0047884033203125,-9.81862100830078,1.1037269653320312,0,0,0,0
1.788320459992974,-0.028730419921875,-9.878476049804688,1.0079588989257813,0,0,0,0
1.7892489859950729,0.06703764648437499,-9.91438907470703,1.0606313354492187,0,0,0,0
1.7902303629962262,0.040701428222656245,-9.897629663085937,1.0845733520507812,0,0,0,0
1.7917060119943926,0.09816226806640624,-9.835380419921874,1.1324573852539062,0,0,0,0
1.792914441000903,0.016759411621093748,-9.849745629882811,1.0486603271484374,0,0,0,0
1.7940237979928497,-0.02154781494140625,-9.87608184814453,1.0342951171875,0,0,0,0
1.795026712003164,-0.105344873046875,-9.90241806640625,0.9504980590820312,0,0,0,0
1.7962333089963067,0.14604630126953125,-9.828197814941406,1.0773907470703123,0,0,0,0
1.7971660930052167,0.040701428222656245,-9.76116016845703,1.1252747802734375,0,0,0,0
1.798085322996485,0.062249243164062495,-9.811438403320311,1.1635820068359375,0,0,0,0
1.7990014789975248,0.0718260498046875,-9.885658654785155,1.1827356201171875,0,0,0,0
1.8002240560017526,0.0047884033203125,-9.871293444824218,1.1540052001953125,0,0,0,0
1.8019013879966224,0.16280571289062498,-9.907206469726562,1.1156979736328125,0,0,0,0
1.8029762450023554,0.0718260498046875,-9.916783276367187,1.1348515869140625,0,0,0,0
1.8041068610036746,0.11013327636718749,-9.900023864746093,1.1037269653320312,0,0,0,0
1.8051052189985057,-0.0430956298828125,-9.878476049804688,0.97683427734375,0,0,0,0
1.806339148999541,0.03591302490234375,-9.947907897949218,1.0175357055664063,0,0,0,0
1.807743539000512,0.023942016601562498,-9.821015209960937,1.2473790649414063,0,0,0,0
1.808719934997498,0.055066638183593745,-9.926360083007811,1.1180921752929687,0,0,0,0
1.8102207869960694,0.16041151123046873,-9.785102185058593,1.0821791503906248,0,0,0,0
1.811611418001121,0.02633621826171875,-9.830592016601562,1.2210428466796874,0,0,0,0
1.81254881399218,0.05746083984375,-9.830592016601562,0.9792284790039062,0,0,0,0
1.8134703770047054,0.040701428222656245,-9.904812268066406,1.1324573852539062,0,0,0,0
1.8143811250047293,0.0143652099609375,-9.849745629882811,1.1228805786132812,0,0,0,0
1.8159445320052328,0.040701428222656245,-9.849745629882811,1.0726023437499999,0,0,0,0
1.8170300380006665,0.031124621582031248,-9.7683427734375,1.1324573852539062,0,0,0,0
1.8179908780002734,0.031124621582031248,-9.892841259765625,1.1348515869140625,0,0,0,0
1.818914514995413,0.0383072265625,-9.852139831542969,1.158793603515625,0,0,0,0
1.819911447004415,-0.05027823486328125,-9.832986218261718,1.1827356201171875,0,0,0,0
1.820834472993738,0.1388636962890625,-9.842563024902343,1.0223241088867188,0,0,0,0
1.8219120519934222,0.086191259765625,-9.849745629882811,1.0438719238281249,0,0,0,0
1.8228784849925432,0.11252747802734374,-9.878476049804688,1.199495031738281,0,0,0,0
1.8239023990026908,0.062249243164062495,-9.86411083984375,1.22583125,0,0,0,0
1.8249079609959153,0.02633621826171875,-9.900023864746093,1.024718310546875,0,0,0,0
1.8258638749975944,0.01915361328125,-9.919177478027343,0.9457096557617187,0,0,0,0
1.8269246949930675,0.02633621826171875,-9.916783276367187,1.1228805786132812,0,0,0,0
1.8278938690054929,0.0718260498046875,-9.859322436523437,1.0869675537109373,0,0,0,0
1.8288168199942447,0.09816226806640624,-9.849745629882811,1.0630255371093749,0,0,0,0
1.8297356800030684,-0.02154781494140625,-9.849745629882811,1.1180921752929687,0,0,0,0
1.8306551499990746,0.028730419921875,-9.861716638183593,1.1372457885742187,0,0,0,0
1.8317367849958828,0.01915361328125,-9.955090502929687,1.0749965454101562,0,0,0,0
1.8327945130004082,-0.0383072265625,-9.773131176757811,1.1133037719726562,0,0,0,0
1.833827370996005,0.11731588134765625,-9.734823950195311,1.1276689819335937,0,0,0,0
1.8347893960017245,0.0909796630859375,-9.785102185058593,1.1276689819335937,0,0,0,0
1.8357905140001094,0.143652099609375,-9.665392102050781,1.1180921752929687,0,0,0,0
1.836720631996286,0.08140285644531249,-9.81862100830078,1.1923124267578125,0,0,0,0
1.8376385839947034,0.016759411621093748,-9.86411083984375,1.20667763671875,0,0,0,0
1.8386728299956303,-0.0383072265625,-9.931148486328125,1.1420341918945311,0,0,0,0
1.8396949479938485,0.0430956298828125,-9.964667309570311,1.120486376953125,0,0,0,0
1.8407844159955857,0.011971008300781249,-9.86411083984375,1.0175357055664063,0,0,0,0
1.8417685519962106,0.05746083984375,-9.82580361328125,0.9792284790039062,0,0,0,0
1.8427233919937862,-0.009576806640625,-9.82580361328125,1.024718310546875,0,0,0,0
1.8437624910002341,-0.047884033203124995,-9.880870251464843,1.1635820068359375,0,0,0,0
1.844750053001917,0.033518823242187495,-9.94072529296875,1.1037269653320312,0,0,0,0
1.8457153560011648,0.031124621582031248,-9.787496386718749,1.1156979736328125,0,0,0,0
1.8466416409937665,0.0718260498046875,-9.86411083984375,1.1348515869140625,0,0,0,0
1.847583869996015,0.086191259765625,-9.794678991699218,1.1851298217773436,0,0,0,0
1.848504433000926,0.009576806640625,-9.816226806640625,1.16837041015625,0,0,0,0
1.8495456060045399,0.08379705810546874,-9.926360083007811,1.0845733520507812,0,0,0,0
1.8508130539994454,-0.028730419921875,-10.096348400878906,1.1085153686523437,0,0,0,0
1.8519336699973792,0.10773907470703124,-9.83777462158203,1.0271125122070313,0,0,0,0
1.8530923960061045,0.07422025146484375,-9.79946739501953,0.9696516723632812,0,0,0,0
1.8540976990043418,0.009576806640625,-9.828197814941406,1.01514150390625,0,0,0,0
1.8550254099973245,0.01915361328125,-9.753977563476562,1.1133037719726562,0,0,0,0
1.856026601002668,0.033518823242187495,-9.854534033203125,1.139639990234375,0,0,0,0
1.8569797560048755,0.033518823242187495,-9.87608184814453,1.1731588134765625,0,0,0,0
1.8579008009983227,-0.02633621826171875,-9.859322436523437,1.2018892333984375,0,0,0,0
1.8588204190018587,0.076614453125,-9.842563024902343,1.197100830078125,0,0,0,0
1.8597399080026662,0.05985504150390625,-9.842563024902343,1.1372457885742187,0,0,0,0
1.8607153960037977,0.06943184814453125,-9.866505041503906,1.139639990234375,0,0,0,0
1.8616888289980125,-0.02633621826171875,-9.883264453125,1.0941501586914062,0,0,0,0
1.8626171880023321,-0.028730419921875,-9.859322436523437,1.2042834350585936,0,0,0,0
1.8635373620054452,-0.01915361328125,-9.888052856445311,0.9337386474609375,0,0,0,0
1.8644912949966965,0.031124621582031248,-9.871293444824218,1.0869675537109373,0,0,0,0
1.865479375992436,0.10773907470703124,-9.86411083984375,1.0678139404296874,0,0,0,0
1.8664588450046722,0.0526724365234375,-9.758765966796874,1.139639990234375,0,0,0,0
1.8673953889956465,0.02633621826171875,-9.758765966796874,1.1875240234375,0,0,0,0
1.8683182480017422,0.06464344482421874,-9.854534033203125,1.235408056640625,0,0,0,0
1.8692366449977271,0.07900865478515624,-9.888052856445311,1.0749965454101562,0,0,0,0
1.8701518369925907,0.0143652099609375,-9.852139831542969,1.1635820068359375,0,0,0,0
1.8711292700027116,0.12210428466796874,-9.9215716796875,1.0342951171875,0,0,0,0
1.872118238999974,0.06464344482421874,-9.842563024902343,1.0749965454101562,0,0,0,0
1.8730500980018405,0.12449848632812499,-9.878476049804688,1.0702081420898437,0,0,0,0
1.8739714580005966,0.12449848632812499,-9.911994873046874,1.0271125122070313,0,0,0,0
1.8748884469969198,-0.009576806640625,-9.878476049804688,1.1635820068359375,0,0,0,0
1.8758652870019432,0.05746083984375,-9.93354268798828,1.1276689819335937,0,0,0,0
1.8768362010014243,0.0047884033203125,-9.816226806640625,1.1085153686523437,0,0,0,0
1.877764634002233,0.023942016601562498,-9.868899243164062,1.0869675537109373,0,0,0,0
1.8786833630001638,0.09576806640624999,-9.868899243164062,1.0702081420898437,0,0,0,0
1.879625073997886,0.0526724365234375,-9.775525378417969,0.9504980590820312,0,0,0,0
1.880598136005574,0.07422025146484375,-9.849745629882811,1.0749965454101562,0,0,0,0
1.881569513992872,0.03591302490234375,-9.907206469726562,1.2114660400390624,0,0,0,0
1.8824984840030083,0.0526724365234375,-9.880870251464843,1.0582371337890624,0,0,0,0
1.8834157689998392,0.15562310791015624,-9.928754284667969,1.0989385620117187,0,0,0,0
1.8847472899942659,0.01915361328125,-9.85692823486328,1.139639990234375,0,0,0,0
1.8857481299928622,0.02633621826171875,-9.85692823486328,1.1228805786132812,0,0,0,0
1.8867335810064105,-0.03591302490234375,-9.89523546142578,1.0462661254882812,0,0,0,0
1.8876753100048518,0.02633621826171875,-9.830592016601562,0.9576806640625,0,0,0,0
1.8885945759975584,0.05027823486328125,-9.871293444824218,0.9744400756835937,0,0,0,0
1.889511436005705,0.09576806640624999,-9.859322436523437,0.9744400756835937,0,0,0,0
1.8904268509941176,0.040701428222656245,-9.821015209960937,1.0534487304687499,0,0,0,0
1.8913423019985203,0.076614453125,-9.804255798339844,1.0534487304687499,0,0,0,0
1.89237923399196,0.033518823242187495,-9.80665,1.189918225097656,0,0,0,0
1.8933415369974682,-0.0143652099609375,-9.83777462158203,1.1252747802734375,0,0,0,0
1.8944431910058483,0.011971008300781249,-9.897629663085937,1.120486376953125,0,0,0,0
1.8953712910006288,0.08379705810546874,-9.871293444824218,1.1540052001953125,0,0,0,0
1.8962971680011833,0.055066638183593745,-9.885658654785155,1.1133037719726562,0,0,0,0
1.897214676006115,0.06464344482421874,-9.892841259765625,1.16837041015625,0,0,0,0
1.898209588995087,0.055066638183593745,-9.866505041503906,1.16837041015625,0,0,0,0
1.899428333999822,-0.011971008300781249,-9.880870251464843,1.0797849487304687,0,0,0,0
1.9003947479941417,0.0,-9.859322436523437,1.0271125122070313,0,0,0,0
1.9014251990010962,0.02633621826171875,-9.892841259765625,1.0797849487304687,0,0,0,0
1.903050307999365,0.02154781494140625,-9.753977563476562,1.149216796875,0,0,0,0
1.9041944979981054,0.15562310791015624,-9.773131176757811,1.1875240234375,0,0,0,0
1.905369668995263,0.055066638183593745,-9.813832604980469,0.9935936889648437,0,0,0,0
1.907523828005651,0.05985504150390625,-9.919177478027343,1.1109095703125,0,0,0,0
1.9086172779934714,0.028730419921875,-9.919177478027343,1.1611878051757811,0,0,0,0
1.9095648959919345,0.0,-9.87608184814453,0.9648632690429687,0,0,0,0
1.9116326119983569,0.0430956298828125,-9.801861596679688,1.1276689819335937,0,0,0,0
1.9131169269967359,0.04548983154296875,-9.888052856445311,1.180341418457031,0,0,0,0
1.9145318170048995,0.0143652099609375,-9.813832604980469,1.149216796875,0,0,0,0
1.9158887819939991,0.05027823486328125,-9.82580361328125,1.1252747802734375,0,0,0,0
1.9174008749978384,0.1197100830078125,-9.809044201660155,1.1755530151367186,0,0,0,0
1.9186464149970561,0.105344873046875,-9.82580361328125,1.158793603515625,0,0,0,0
1.920409597994876,0.02154781494140625,-9.883264453125,1.180341418457031,0,0,0,0
1.9213842900062446,0.10295067138671875,-9.873687646484374,1.1659762084960936,0,0,0,0
1.923083232002682,-0.14604630126953125,-9.852139831542969,1.0319009155273438,0,0,0,0
1.9247976560000097,0.0430956298828125,-9.81862100830078,1.1468225952148436,0,0,0,0
1.9264316729968414,0.02633621826171875,-9.828197814941406,1.1276689819335937,0,0,0,0
1.9279506909952033,0.105344873046875,-9.85692823486328,1.0342951171875,0,0,0,0
1.9292855090025114,0.10773907470703124,-9.859322436523437,1.0390835205078124,0,0,0,0
1.9308086200035177,0.143652099609375,-9.878476049804688,1.218648645019531,0,0,0,0
1.9324561370012816,0.06703764648437499,-9.907206469726562,1.180341418457031,0,0,0,0
1.934069876006106,-0.1388636962890625,-9.821015209960937,0.9983820922851562,0,0,0,0
1.9360170010040747,0.02633621826171875,-9.828197814941406,0.9935936889648437,0,0,0,0
1.937901477998821,0.05746083984375,-9.816226806640625,1.0630255371093749,0,0,0,0
1.9389457060024142,0.1005564697265625,-9.859322436523437,1.1037269653320312,0,0,0,0
1.9399267679982586,0.031124621582031248,-9.828197814941406,1.120486376953125,0,0,0,0
1.9408511460060254,0.076614453125,-9.950302099609374,1.1133037719726562,0,0,0,0
1.941779097993276,0.055066638183593745,-9.789890588378906,1.0965443603515623,0,0,0,0
1.9427864739991492,0.105344873046875,-9.950302099609374,1.1133037719726562,0,0,0,0
1.943961108001531,0.08140285644531249,-9.9215716796875,1.0438719238281249,0,0,0,0
1.9450443910027388,-0.04548983154296875,-9.842563024902343,1.0462661254882812,0,0,0,0
1.9460608420049539,0.1005564697265625,-9.756371765136718,1.120486376953125,0,0,0,0
1.9470009789947653,0.11731588134765625,-9.816226806640625,1.2210428466796874,0,0,0,0
1.9479686889972072,0.11731588134765625,-9.797073193359374,1.1037269653320312,0,0,0,0
1.9490085099969292,-0.1292868896484375,-9.801861596679688,1.0773907470703123,0,0,0,0
1.949984035003581,0.016759411621093748,-9.840168823242188,1.0223241088867188,0,0,0,0
1.9509739490022184,0.16998831787109375,-9.785102185058593,1.1085153686523437,0,0,0,0
1.951906438000151,0.08140285644531249,-9.926360083007811,1.158793603515625,0,0,0,0
