Time (s),Accel X,Accel Y,Accel Z,Gyro X,Gyro Y,Gyro Z,Temperature (C)
0.012118081998778507,0.07302315063476562,-9.858125335693359,1.1372457885742187,0,0,0,0
0.014349207005579956,0.06943184814453125,-9.85692823486328,1.1384428894042968,0,0,0,0
0.016643091992591508,0.06584054565429687,-9.853336932373047,1.1360486877441405,0,0,0,0
0.01853420199768152,0.06584054565429687,-9.849745629882811,1.1360486877441405,0,0,0,0
0.020506664004642516,0.06703764648437499,-9.85094273071289,1.1348515869140625,0,0,0,0
0.023003323993179947,0.07422025146484375,-9.854534033203125,1.1288660827636718,0,0,0,0
0.024891879002097994,0.07541735229492187,-9.85692823486328,1.1276689819335937,0,0,0,0
0.02681324900186155,0.07541735229492187,-9.85692823486328,1.1288660827636718,0,0,0,0
0.029254576002131216,0.07422025146484375,-9.853336932373047,1.131260284423828,0,0,0,0
0.031180741993011907,0.07422025146484375,-9.853336932373047,1.1288660827636718,0,0,0,0
0.03439098699891474,0.07541735229492187,-9.858125335693359,1.1252747802734375,0,0,0,0
0.03683820299920626,0.07422025146484375,-9.860519537353515,1.1240776794433593,0,0,0,0
0.03981400700286031,0.0718260498046875,-9.85692823486328,1.1276689819335937,0,0,0,0
0.04175102399312891,0.0718260498046875,-9.853336932373047,1.131260284423828,0,0,0,0
0.04377611499512568,0.06943184814453125,-9.853336932373047,1.1324573852539062,0,0,0,0
0.046064702997682616,0.06943184814453125,-9.852139831542969,1.131260284423828,0,0,0,0
0.04820862600172404,0.07062894897460938,-9.860519537353515,1.131260284423828,0,0,0,0
0.051042153005255386,0.07302315063476562,-9.858125335693359,1.13006318359375,0,0,0,0
0.05329476000042632,0.07302315063476562,-9.855731134033203,1.1336544860839843,0,0,0,0
0.056144879999919794,0.07422025146484375,-9.855731134033203,1.1360486877441405,0,0,0,0
0.05809176700131502,0.07541735229492187,-9.855731134033203,1.1324573852539062,0,0,0,0
0.0601220060052583,0.07422025146484375,-9.858125335693359,1.131260284423828,0,0,0,0
0.062147060001734644,0.0718260498046875,-9.858125335693359,1.131260284423828,0,0,0,0
0.06422320600540843,0.07062894897460938,-9.854534033203125,1.131260284423828,0,0,0,0
0.06624968499818351,0.0718260498046875,-9.852139831542969,1.1324573852539062,0,0,0,0
0.068268849994638,0.07422025146484375,-9.852139831542969,1.1324573852539062,0,0,0,0
0.07107637799344957,0.07422025146484375,-9.852139831542969,1.1228805786132812,0,0,0,0
0.07388329399691429,0.076614453125,-9.849745629882811,1.1180921752929687,0,0,0,0
0.07699813299404923,0.07422025146484375,-9.8449572265625,1.120486376953125,0,0,0,0
0.07904055700055324,0.07541735229492187,-9.842563024902343,1.121683477783203,0,0,0,0
0.08108242499292828,0.07900865478515624,-9.847351428222655,1.1228805786132812,0,0,0,0
0.08411369100213051,0.07900865478515624,-9.85094273071289,1.121683477783203,0,0,0,0
0.08616435500152875,0.08020575561523437,-9.852139831542969,1.1252747802734375,0,0,0,0
0.08821322399307974,0.07900865478515624,-9.848548529052733,1.13006318359375,0,0,0,0
0.09036009099509101,0.076614453125,-9.847351428222655,1.131260284423828,0,0,0,0
0.09258588300144766,0.076614453125,-9.849745629882811,1.1348515869140625,0,0,0,0
0.09488335999776609,0.07781155395507812,-9.849745629882811,1.1336544860839843,0,0,0,0
0.09702865300641861,0.076614453125,-9.853336932373047,1.1324573852539062,0,0,0,0
0.09902950399555266,0.07541735229492187,-9.852139831542969,1.1348515869140625,0,0,0,0
0.10158182999293786,0.076614453125,-9.8449572265625,1.1372457885742187,0,0,0,0
0.10330775700276718,0.076614453125,-9.8449572265625,1.1336544860839843,0,0,0,0
0.10495027700380888,0.07541735229492187,-9.846154327392577,1.1324573852539062,0,0,0,0
0.10690057299507316,0.07541735229492187,-9.85094273071289,1.13006318359375,0,0,0,0
0.10854829699383117,0.07422025146484375,-9.852139831542969,1.13006318359375,0,0,0,0
0.1102190950041404,0.0718260498046875,-9.849745629882811,1.131260284423828,0,0,0,0
0.11312456599262077,0.07302315063476562,-9.846154327392577,1.131260284423828,0,0,0,0
0.11495699199440423,0.07422025146484375,-9.8449572265625,1.131260284423828,0,0,0,0
0.11711021099472418,0.07422025146484375,-9.846154327392577,1.13006318359375,0,0,0,0
0.11889785899256822,0.07422025146484375,-9.85094273071289,1.13006318359375,0,0,0,0
0.12053399099386297,0.07422025146484375,-9.853336932373047,1.13006318359375,0,0,0,0
0.122606655000709,0.07422025146484375,-9.852139831542969,1.1288660827636718,0,0,0,0
0.12442150700371712,0.07541735229492187,-9.848548529052733,1.13006318359375,0,0,0,0
0.1261283609928796,0.07781155395507812,-9.847351428222655,1.131260284423828,0,0,0,0
0.12777417700272053,0.07781155395507812,-9.848548529052733,1.1324573852539062,0,0,0,0
0.1293946980003966,0.07900865478515624,-9.852139831542969,1.1348515869140625,0,0,0,0
0.13115877300151624,0.07781155395507812,-9.853336932373047,1.1324573852539062,0,0,0,0
0.13288558900239877,0.076614453125,-9.855731134033203,1.1336544860839843,0,0,0,0
0.13449477699759882,0.076614453125,-9.854534033203125,1.1348515869140625,0,0,0,0
0.13674951299617533,0.07541735229492187,-9.852139831542969,1.1360486877441405,0,0,0,0
0.1384681810013717,0.076614453125,-9.85094273071289,1.1336544860839843,0,0,0,0
0.14014114599558525,0.07781155395507812,-9.85094273071289,1.1348515869140625,0,0,0,0
0.1417572219943395,0.07900865478515624,-9.852139831542969,1.1324573852539062,0,0,0,0
0.14337133499793708,0.08020575561523437,-9.853336932373047,1.1336544860839843,0,0,0,0
0.14505998499225825,0.08020575561523437,-9.854534033203125,1.1324573852539062,0,0,0,0
0.14706863100582268,0.08020575561523437,-9.85094273071289,1.1360486877441405,0,0,0,0
0.1488364469987573,0.08020575561523437,-9.849745629882811,1.1384428894042968,0,0,0,0
0.15064850299677346,0.08140285644531249,-9.849745629882811,1.1372457885742187,0,0,0,0
0.15236767100577708,0.08499415893554688,-9.849745629882811,1.1336544860839843,0,0,0,0
0.15448644600110129,0.08738836059570312,-9.852139831542969,1.13006318359375,0,0,0,0
0.1563547789992299,0.08738836059570312,-9.852139831542969,1.1288660827636718,0,0,0,0
0.15872366199619137,0.08858546142578125,-9.848548529052733,1.1264718811035155,0,0,0,0
0.16046666300098877,0.08858546142578125,-9.846154327392577,1.1276689819335937,0,0,0,0
0.16215379499772098,0.0909796630859375,-9.847351428222655,1.1288660827636718,0,0,0,0
0.1643322729942156,0.08978256225585937,-9.847351428222655,1.1288660827636718,0,0,0,0
0.16613986599259079,0.08858546142578125,-9.849745629882811,1.1288660827636718,0,0,0,0
0.16779423800471704,0.08858546142578125,-9.852139831542969,1.131260284423828,0,0,0,0
0.16959814599249512,0.086191259765625,-9.849745629882811,1.1372457885742187,0,0,0,0
0.1720170100015821,0.08738836059570312,-9.847351428222655,1.139639990234375,0,0,0,0
0.17397704599716235,0.0909796630859375,-9.843760125732421,1.1420341918945311,0,0,0,0
0.17622696800390258,0.0909796630859375,-9.846154327392577,1.1420341918945311,0,0,0,0
0.17792913599987514,0.08978256225585937,-9.849745629882811,1.1420341918945311,0,0,0,0
0.1795882669975981,0.08858546142578125,-9.85094273071289,1.1348515869140625,0,0,0,0
0.18165398700512014,0.086191259765625,-9.85094273071289,1.1336544860839843,0,0,0,0
0.18331784100155346,0.08379705810546874,-9.849745629882811,1.1348515869140625,0,0,0,0
0.18496065799263306,0.08140285644531249,-9.847351428222655,1.1360486877441405,0,0,0,0
0.18671082500077318,0.08140285644531249,-9.848548529052733,1.139639990234375,0,0,0,0
0.18841340100334492,0.08140285644531249,-9.849745629882811,1.1372457885742187,0,0,0,0
0.1901564019935904,0.08140285644531249,-9.852139831542969,1.1348515869140625,0,0,0,0
0.1931252609938383,0.08020575561523437,-9.852139831542969,1.1336544860839843,0,0,0,0
0.19482161400082987,0.08140285644531249,-9.85094273071289,1.1348515869140625,0,0,0,0
0.1965318379952805,0.08140285644531249,-9.848548529052733,1.1360486877441405,0,0,0,0
0.19841300399275497,0.08020575561523437,-9.848548529052733,1.1360486877441405,0,0,0,0
0.20009030199435074,0.08140285644531249,-9.852139831542969,1.1372457885742187,0,0,0,0
0.2017751179955667,0.08140285644531249,-9.85692823486328,1.1372457885742187,0,0,0,0
0.2044054989964934,0.07900865478515624,-9.858125335693359,1.1348515869140625,0,0,0,0
0.20765626299544238,0.07781155395507812,-9.854534033203125,1.1324573852539062,0,0,0,0
0.20958639099262655,0.076614453125,-9.854534033203125,1.13006318359375,0,0,0,0
0.21130198499304242,0.07781155395507812,-9.854534033203125,1.1276689819335937,0,0,0,0
0.21296783900470473,0.07541735229492187,-9.858125335693359,1.1264718811035155,0,0,0,0
0.21475196900428273,0.07422025146484375,-9.861716638183593,1.1264718811035155,0,0,0,0
0.21720761100004893,0.07302315063476562,-9.86411083984375,1.121683477783203,0,0,0,0
0.2203996339958394,0.07422025146484375,-9.859322436523437,1.1240776794433593,0,0,0,0
0.22288383200066164,0.07781155395507812,-9.85692823486328,1.1288660827636718,0,0,0,0
0.2258828390040435,0.08020575561523437,-9.86291373901367,1.1288660827636718,0,0,0,0
0.228372739002225,0.07781155395507812,-9.866505041503906,1.121683477783203,0,0,0,0
0.23164976200496312,0.07422025146484375,-9.86291373901367,1.120486376953125,0,0,0,0
0.23412155199912377,0.07422025146484375,-9.860519537353515,1.1180921752929687,0,0,0,0
0.2364706020016456,0.07302315063476562,-9.86291373901367,1.1145008728027344,0,0,0,0
0.23817793700436596,0.0718260498046875,-9.866505041503906,1.1133037719726562,0,0,0,0
0.23980784699961077,0.0718260498046875,-9.866505041503906,1.1133037719726562,0,0,0,0
0.24143059000198264,0.07302315063476562,-9.865307940673828,1.1192892761230469,0,0,0,0
0.24327010799606796,0.0718260498046875,-9.86411083984375,1.121683477783203,0,0,0,0
0.245085756003391,0.07062894897460938,-9.858125335693359,1.121683477783203,0,0,0,0
0.2468458869989263,0.07062894897460938,-9.85692823486328,1.121683477783203,0,0,0,0
0.24868707200221252,0.07062894897460938,-9.858125335693359,1.120486376953125,0,0,0,0
0.2504892760043731,0.06943184814453125,-9.860519537353515,1.121683477783203,0,0,0,0
0.25219042600656394,0.06823474731445311,-9.86411083984375,1.1240776794433593,0,0,0,0
0.2539040749979904,0.06943184814453125,-9.86291373901367,1.1240776794433593,0,0,0,0
0.25573300100222696,0.06943184814453125,-9.860519537353515,1.1276689819335937,0,0,0,0
0.2574137810006505,0.06943184814453125,-9.859322436523437,1.1252747802734375,0,0,0,0
0.25916468899231404,0.07302315063476562,-9.860519537353515,1.1228805786132812,0,0,0,0
0.26086568999744486,0.07422025146484375,-9.861716638183593,1.1168950744628905,0,0,0,0
0.2624910440063104,0.07541735229492187,-9.861716638183593,1.1145008728027344,0,0,0,0
0.2641142869979376,0.07422025146484375,-9.858125335693359,1.1133037719726562,0,0,0,0
0.26595295399602037,0.07422025146484375,-9.85692823486328,1.112106671142578,0,0,0,0
0.2677626210061135,0.07422025146484375,-9.853336932373047,1.1192892761230469,0,0,0,0
0.26939938199939206,0.07781155395507812,-9.85094273071289,1.1252747802734375,0,0,0,0
0.2711029950005468,0.08020575561523437,-9.852139831542969,1.1252747802734375,0,0,0,0
0.2727930520049995,0.08020575561523437,-9.853336932373047,1.1264718811035155,0,0,0,0
0.2744188320066314,0.08020575561523437,-9.853336932373047,1.1252747802734375,0,0,0,0
0.27612624000175856,0.08020575561523437,-9.852139831542969,1.1240776794433593,0,0,0,0
0.27828475600108504,0.08140285644531249,-9.848548529052733,1.1240776794433593,0,0,0,0
0.28016353299608454,0.07900865478515624,-9.847351428222655,1.1228805786132812,0,0,0,0
0.2818866640009219,0.08020575561523437,-9.847351428222655,1.1240776794433593,0,0,0,0
0.2835223330039298,0.07781155395507812,-9.848548529052733,1.1252747802734375,0,0,0,0
0.2851442419923842,0.07781155395507812,-9.849745629882811,1.1240776794433593,0,0,0,0
0.2868374289973872,0.076614453125,-9.853336932373047,1.120486376953125,0,0,0,0
0.2890362030011602,0.07781155395507812,-9.854534033203125,1.1180921752929687,0,0,0,0
0.29086461100087035,0.08020575561523437,-9.849745629882811,1.1180921752929687,0,0,0,0
0.2925831299944548,0.08140285644531249,-9.848548529052733,1.1156979736328125,0,0,0,0
0.2942139469960239,0.08020575561523437,-9.846154327392577,1.1145008728027344,0,0,0,0
0.2965757380006835,0.08140285644531249,-9.85094273071289,1.112106671142578,0,0,0,0
0.2995601159927901,0.07900865478515624,-9.849745629882811,1.1145008728027344,0,0,0,0
0.30131900499691255,0.07781155395507812,-9.848548529052733,1.120486376953125,0,0,0,0
0.30310217299847864,0.076614453125,-9.843760125732421,1.1228805786132812,0,0,0,0
0.3048297659988748,0.076614453125,-9.840168823242188,1.1264718811035155,0,0,0,0
0.3064537320024101,0.076614453125,-9.840168823242188,1.1288660827636718,0,0,0,0
0.3080696779943537,0.076614453125,-9.842563024902343,1.1288660827636718,0,0,0,0
0.3097562909970293,0.07541735229492187,-9.846154327392577,1.1252747802734375,0,0,0,0
0.31183980699279346,0.07422025146484375,-9.8449572265625,1.1240776794433593,0,0,0,0
0.3135114939941559,0.07541735229492187,-9.8449572265625,1.1264718811035155,0,0,0,0
0.3156750460038893,0.07541735229492187,-9.841365924072266,1.1288660827636718,0,0,0,0
0.3174714170017978,0.07541735229492187,-9.841365924072266,1.1288660827636718,0,0,0,0
0.31918267799483147,0.076614453125,-9.843760125732421,1.1276689819335937,0,0,0,0
0.32080108700029086,0.076614453125,-9.85094273071289,1.1276689819335937,0,0,0,0
0.3232487289933488,0.0718260498046875,-9.852139831542969,1.1264718811035155,0,0,0,0
0.32505902599950787,0.07302315063476562,-9.849745629882811,1.1264718811035155,0,0,0,0
0.3267526379931951,0.0718260498046875,-9.847351428222655,1.1288660827636718,0,0,0,0
0.32889993200660683,0.06943184814453125,-9.846154327392577,1.1324573852539062,0,0,0,0
0.331072946995846,0.06943184814453125,-9.847351428222655,1.13006318359375,0,0,0,0
0.33282570699520875,0.06943184814453125,-9.85094273071289,1.1264718811035155,0,0,0,0
0.33452652300184127,0.0718260498046875,-9.85094273071289,1.1240776794433593,0,0,0,0
0.33719184799701907,0.07541735229492187,-9.853336932373047,1.1240776794433593,0,0,0,0
0.3391845320002176,0.076614453125,-9.853336932373047,1.1240776794433593,0,0,0,0
0.34084231199813075,0.07781155395507812,-9.852139831542969,1.120486376953125,0,0,0,0
0.3443976830021711,0.07541735229492187,-9.855731134033203,1.1180921752929687,0,0,0,0
0.34614940600295085,0.0718260498046875,-9.858125335693359,1.1180921752929687,0,0,0,0
0.34820953400048893,0.0718260498046875,-9.859322436523437,1.121683477783203,0,0,0,0
0.35009364399593323,0.07422025146484375,-9.858125335693359,1.121683477783203,0,0,0,0
0.3520006439939607,0.07422025146484375,-9.852139831542969,1.1264718811035155,0,0,0,0
0.3546559319947846,0.07422025146484375,-9.853336932373047,1.1288660827636718,0,0,0,0
0.3563755999930436,0.07302315063476562,-9.85692823486328,1.1264718811035155,0,0,0,0
0.35805213800631464,0.0718260498046875,-9.859322436523437,1.1228805786132812,0,0,0,0
0.35972025099908933,0.07062894897460938,-9.859322436523437,1.120486376953125,0,0,0,0
0.361409659992205,0.07062894897460938,-9.85692823486328,1.1228805786132812,0,0,0,0
0.3642312239971943,0.07541735229492187,-9.853336932373047,1.1252747802734375,0,0,0,0
0.36659107099694666,0.14724340209960937,-9.89523546142578,1.054645831298828,0,0,0,0
0.36843710800167173,0.2980781066894531,-9.957484704589843,1.0139444030761717,0,0,0,0
0.37101291499857325,0.3172317199707031,-9.975441217041014,0.51714755859375,0,0,0,0
0.3728067119955085,0.2166752502441406,-10.1131078125,0.09457096557617187,0,0,0,0
0.37454913900000975,0.10893617553710937,-9.944316595458984,-0.3495534423828125,0,0,0,0
0.37617460399633273,0.12330138549804687,-9.932345587158203,-0.5793968017578125,0,0,0,0
0.3778259579994483,-0.047884033203124995,-9.949104998779296,-1.005564697265625,0,0,0,0
0.3797043280064827,-0.08259995727539061,-9.97184991455078,-1.4018050720214843,0,0,0,0
0.3813932180055417,-0.076614453125,-9.969455712890625,-1.590947003173828,0,0,0,0
0.3830761639983393,-0.040701428222656245,-9.962273107910155,-1.887828009033203,0,0,0,0
0.38480129500385374,-0.13646949462890623,-9.807847100830077,-2.090138049316406,0,0,0,0
0.3864522969961399,-0.4213794921875,-9.712079034423828,-2.072181536865234,0,0,0,0
0.38813672499964014,-0.5626373901367188,-9.566032733154296,-1.945288848876953,0,0,0,0
0.38984244799939916,-0.4644751220703125,-9.513360296630859,-1.4472949035644531,0,0,0,0
0.39147467300063,0.020350714111328123,-9.526528405761718,-1.1192892761230469,0,0,0,0
0.3932981169928098,0.44412440795898434,-9.570821136474608,-0.5327098693847656,0,0,0,0
0.3950526550033828,0.47285482788085936,-9.639055883789062,-0.13646949462890623,0,0,0,0
0.39671404600085225,0.38307226562499996,-9.68454571533203,0.1484405029296875,0,0,0,0
0.39833291800459847,0.4560954162597656,-9.756371765136718,0.19871873779296872,0,0,0,0
0.40004377100558486,0.5015852478027344,-9.763554370117188,0.3890577697753906,0,0,0,0
0.4019268270058092,0.4608838195800781,-9.71686743774414,0.16879121704101563,0,0,0,0
0.404341764995479,-0.009576806640625,-9.807847100830077,0.04668693237304687,0,0,0,0
0.4063621709938161,-0.15083470458984374,-10.073603485107421,-0.2609679809570312,0,0,0,0
0.4083803910034476,-0.1197100830078125,-10.28549033203125,-0.2549824768066406,0,0,0,0
0.4101461329992162,-0.143652099609375,-10.256759912109374,-0.21188684692382811,0,0,0,0
0.41204824300075416,-0.20231004028320312,-10.127473022460936,-0.06584054565429687,0,0,0,0
0.41413394499977585,-0.28730419921875,-10.0748005859375,0.2885013000488281,0,0,0,0
0.4164011440007016,0.06584054565429687,-10.156203442382813,0.34715924072265625,0,0,0,0
0.41829505100031383,0.17357962036132812,-10.152612139892577,0.4800374328613281,0,0,0,0
0.4203200299962191,0.18315642700195311,-9.988609326171874,0.7134720947265625,0,0,0,0
0.42232469499867875,0.26336218261718747,-9.771934075927733,0.7350199096679687,0,0,0,0
0.4243573970015859,0.3016694091796875,-9.622296472167967,0.6584054565429687,0,0,0,0
0.42674866899324115,0.15562310791015624,-9.576806640625,0.4991910461425781,0,0,0,0
0.42883614799939096,-0.05746083984375,-9.630676177978515,0.37708676147460934,0,0,0,0
0.4306867039995268,-0.037110125732421874,-9.637858782958984,0.3842693664550781,0,0,0,0
0.43281164500513114,0.086191259765625,-9.617508068847656,0.4417302062988281,0,0,0,0
0.43457307199423667,0.04908113403320312,-9.612719665527344,0.5207388610839844,0,0,0,0
0.43691451199993026,-0.07062894897460938,-9.71686743774414,0.6631938598632812,0,0,0,0
0.4390843599976506,0.020350714111328123,-9.847351428222655,0.8678981018066406,0,0,0,0
0.44092393400205765,0.20350714111328125,-9.91438907470703,1.0091559997558592,0,0,0,0
0.4427319160022307,0.20949264526367187,-9.815029705810547,1.016338604736328,0,0,0,0
0.4446828039945103,0.08020575561523437,-10.01015714111328,0.9852139831542969,0,0,0,0
0.4464973230060423,0.14604630126953125,-10.092757098388672,0.967257470703125,0,0,0,0
0.4485896900005173,0.201112939453125,-10.121487518310547,0.8702923034667969,0,0,0,0
0.45052841199503746,0.0047884033203125,-10.08677159423828,0.7134720947265625,0,0,0,0
0.4523320419975789,-0.06464344482421874,-10.052055670166014,0.6584054565429687,0,0,0,0
0.45413894900411833,-0.201112939453125,-10.047267266845703,0.6548141540527344,0,0,0,0
0.4559980229969369,-0.010773907470703125,-10.014945544433592,0.719457598876953,0,0,0,0
0.45782920900091995,0.08020575561523437,-10.070012182617187,0.7709329345703124,0,0,0,0
0.4597438000055263,-0.04668693237304687,-9.874884747314452,0.843956085205078,0,0,0,0
0.4615880780038424,-0.03591302490234375,-9.811438403320311,1.0139444030761717,0,0,0,0
0.4635927250055829,0.17238251953125,-9.767145672607422,1.1623849060058593,0,0,0,0
0.46549318700272124,0.2741360900878906,-9.67856021118164,1.1767501159667968,0,0,0,0
0.4674142970034154,0.1292868896484375,-9.649829791259766,1.1097124694824219,0,0,0,0
0.4693655739974929,0.11252747802734374,-9.68454571533203,1.0953472595214844,0,0,0,0
0.4712917029974051,0.2597708801269531,-9.737218151855469,1.0881646545410155,0,0,0,0
0.47311155499482993,0.2932897033691406,-9.727641345214844,1.0223241088867188,0,0,0,0
0.47496548100025393,0.11611878051757812,-9.726444244384766,0.8858546142578124,0,0,0,0
0.4768143510009395,-0.14484920043945312,-9.667786303710937,0.8152256652832031,0,0,0,0
0.4785757960053161,-0.08858546142578125,-9.884461553955077,0.8822633117675781,0,0,0,0
0.48046794399851933,0.12449848632812499,-9.969455712890625,0.958877764892578,0,0,0,0
0.4826053480064729,0.09337386474609374,-9.94671079711914,0.9732429748535155,0,0,0,0
0.4845470690052025,-0.08858546142578125,-9.952696301269532,1.0283096130371092,0,0,0,0
0.48631681100232527,-0.01915361328125,-10.01015714111328,1.0941501586914062,0,0,0,0
0.48822288399969693,0.022744915771484374,-10.043675964355469,1.2138602416992186,0,0,0,0
0.4901718649925897,0.19871873779296872,-9.970652813720703,1.2198457458496093,0,0,0,0
0.49193305100197904,0.022744915771484374,-9.913191973876952,1.131260284423828,0,0,0,0
0.4937805319932522,-0.06105214233398437,-9.90241806640625,1.1085153686523437,0,0,0,0
0.49573392000456806,0.09457096557617187,-9.897629663085937,1.1276689819335937,0,0,0,0
0.4975703639938729,0.20709844360351562,-9.813832604980469,1.0809820495605469,0,0,0,0
0.499354568994022,0.017956512451171875,-9.732429748535155,1.025915411376953,0,0,0,0
0.5011967169994023,-0.07781155395507812,-9.74799205932617,0.9552864624023437,0,0,0,0
0.5030206060037017,-0.05746083984375,-9.658209497070311,1.0019733947753906,0,0,0,0
0.5047441070055356,0.1580173095703125,-9.821015209960937,1.0678139404296874,0,0,0,0
0.5064813299977686,0.18435352783203124,-9.767145672607422,1.0749965454101562,0,0,0,0
0.5081803869979922,0.10893617553710937,-9.728838446044922,1.064222637939453,0,0,0,0
0.5098884629987879,0.031124621582031248,-9.743203656005859,1.112106671142578,0,0,0,0
0.5115125390002504,0.19153613281249998,-9.819818109130859,1.1480196960449218,0,0,0,0
0.5132105219963705,0.28490999755859375,-9.8449572265625,1.1707646118164061,0,0,0,0
0.5150019110005815,0.21906945190429686,-9.849745629882811,1.0702081420898437,0,0,0,0
0.5168662259966368,-0.005985504150390624,-9.87009634399414,0.9852139831542969,0,0,0,0
0.5186085790046491,-0.00718260498046875,-9.94072529296875,1.006761798095703,0,0,0,0
0.5203686720051337,0.13407529296874998,-9.973047015380859,1.0330980163574217,0,0,0,0
0.5221042659977684,0.15083470458984374,-9.926360083007811,1.0486603271484374,0,0,0,0
0.5238130819925573,-0.0047884033203125,-9.909600671386718,1.024718310546875,0,0,0,0
0.5254983799968613,-0.10175357055664062,-9.94072529296875,1.0414777221679687,0,0,0,0
0.5275247849931475,0.058657940673828124,-10.005368737792969,1.1827356201171875,0,0,0,0
0.5296971710049547,0.21787235107421873,-9.951499200439452,1.209071838378906,0,0,0,0
0.5313725430023624,0.258573779296875,-9.852139831542969,1.1791443176269532,0,0,0,0
0.5329915449983673,0.029927520751953124,-9.955090502929687,1.1240776794433593,0,0,0,0
0.5351043569971807,0.031124621582031248,-9.815029705810547,1.1372457885742187,0,0,0,0
0.5370817999937572,0.16759411621093748,-9.807847100830077,1.1336544860839843,0,0,0,0
0.5388817259954521,0.15682020874023436,-9.785102185058593,1.0630255371093749,0,0,0,0
0.5428728900005808,-0.00239420166015625,-9.75517466430664,1.0330980163574217,0,0,0,0
0.5460608389985282,0.18076222534179687,-9.781510882568359,1.1133037719726562,0,0,0,0
0.5495519520045491,0.010773907470703125,-9.804255798339844,1.1228805786132812,0,0,0,0
0.5514380079985131,0.0718260498046875,-9.867702142333984,1.1755530151367186,0,0,0,0
0.5537805579951964,0.16519991455078123,-9.886855755615233,1.1947066284179686,0,0,0,0
0.5562713660037844,0.08499415893554688,-9.89523546142578,1.159990704345703,0,0,0,0
0.5579630720021669,0.00239420166015625,-9.934739788818359,1.159990704345703,0,0,0,0
0.5603691209980752,0.11133037719726561,-9.968258612060547,1.1827356201171875,0,0,0,0
0.5621286039968254,0.1304839904785156,-9.932345587158203,1.1707646118164061,0,0,0,0
0.5641780279984232,0.04548983154296875,-9.90241806640625,1.1192892761230469,0,0,0,0
0.56601750900154,-0.009576806640625,-9.892841259765625,1.1145008728027344,0,0,0,0
0.5678177319932729,0.08978256225585937,-9.89523546142578,1.1336544860839843,0,0,0,0
0.5703657989943167,0.30047230834960936,-9.846154327392577,1.1073182678222655,0,0,0,0
0.5724761659948854,0.023942016601562498,-9.836577520751952,1.0366893188476562,0,0,0,0
0.5741241499927128,0.008379705810546874,-9.855731134033203,1.0127473022460938,0,0,0,0
0.5759032240021043,0.07541735229492187,-9.834183319091796,1.0414777221679687,0,0,0,0
0.5779033519938821,0.16160861206054686,-9.81263550415039,1.0510545288085937,0,0,0,0
0.5795308920060052,0.09816226806640624,-9.791087689208984,1.0211270080566406,0,0,0,0
0.5826496939989738,0.05985504150390625,-9.828197814941406,1.0594342346191405,0,0,0,0
0.5843968429981032,0.11372457885742186,-9.847351428222655,1.0917559570312498,0,0,0,0
0.5861053809931036,0.11731588134765625,-9.835380419921874,1.1432312927246093,0,0,0,0
0.5877874750003684,0.06105214233398437,-9.83897172241211,1.1707646118164061,0,0,0,0
0.5894042550062295,0.076614453125,-9.85094273071289,1.1911153259277343,0,0,0,0
0.5910135909944074,0.105344873046875,-9.861716638183593,1.2150573425292968,0,0,0,0
0.5926746479963185,0.13407529296874998,-9.87608184814453,1.2006921325683593,0,0,0,0
0.5951086790009867,0.058657940673828124,-9.90840357055664,1.1635820068359375,0,0,0,0
0.5968945500062546,-0.011971008300781249,-9.9215716796875,1.1563994018554686,0,0,0,0
0.5990375289984513,0.040701428222656245,-9.938331091308592,1.1563994018554686,0,0,0,0
0.6013988750055432,0.055066638183593745,-9.897629663085937,1.1336544860839843,0,0,0,0
0.6031963569985237,0.009576806640625,-9.879673150634765,1.0989385620117187,0,0,0,0
0.6056149810028728,0.02154781494140625,-9.879673150634765,1.1156979736328125,0,0,0,0
0.607484555002884,0.12330138549804687,-9.860519537353515,1.158793603515625,0,0,0,0
0.6093152590037789,0.143652099609375,-9.821015209960937,1.139639990234375,0,0,0,0
0.6117570859933039,0.017956512451171875,-9.809044201660155,1.1037269653320312,0,0,0,0
0.6136086780024925,0.04908113403320312,-9.81862100830078,1.1085153686523437,0,0,0,0
0.6154834000044502,0.15083470458984374,-9.815029705810547,1.120486376953125,0,0,0,0
0.6179575980058871,0.15682020874023436,-9.791087689208984,1.0785878479003905,0,0,0,0
0.6208763460017508,-0.011971008300781249,-9.83178911743164,1.0558429321289062,0,0,0,0
0.623665835999418,0.12330138549804687,-9.878476049804688,1.1109095703125,0,0,0,0
0.6270088029996259,0.07302315063476562,-9.868899243164062,1.1252747802734375,0,0,0,0
0.6294727409986081,0.06943184814453125,-9.917980377197265,1.1444283935546875,0,0,0,0
0.6317348659940762,0.17477672119140625,-9.945513696289062,1.1647791076660157,0,0,0,0
0.6337495309999213,0.1352723937988281,-9.911994873046874,1.1061211669921875,0,0,0,0
0.6353817560011521,0.05027823486328125,-9.886855755615233,1.071405242919922,0,0,0,0
0.6370358499989379,-0.04908113403320312,-9.904812268066406,1.061828436279297,0,0,0,0
0.6390304600063246,0.06105214233398437,-9.904812268066406,1.1013327636718748,0,0,0,0
0.6410635320062283,0.16280571289062498,-9.847351428222655,1.0965443603515623,0,0,0,0
0.6431302889977815,0.04548983154296875,-9.830592016601562,1.0582371337890624,0,0,0,0
0.6448684929928277,-0.06344634399414062,-9.8449572265625,0.948103857421875,0,0,0,0
0.6464786620053928,-0.07062894897460938,-9.871293444824218,1.1516109985351561,0,0,0,0
0.6481420719937887,0.16998831787109375,-9.83897172241211,1.216254443359375,0,0,0,0
0.6500724409997929,0.20350714111328125,-9.805452899169921,1.1839327209472656,0,0,0,0
0.6516985729977023,0.016759411621093748,-9.779116680908203,1.1252747802734375,0,0,0,0
0.6537150710064452,0.01915361328125,-9.840168823242188,1.1480196960449218,0,0,0,0
0.6556554959970526,0.16041151123046873,-9.866505041503906,1.1647791076660157,0,0,0,0
0.6573600900010206,0.19393033447265623,-9.816226806640625,1.1456254943847655,0,0,0,0
0.6589939069963293,0.0526724365234375,-9.792284790039062,1.0726023437499999,0,0,0,0
0.660659389992361,-0.07422025146484375,-9.816226806640625,1.0582371337890624,0,0,0,0
0.6625587970047491,-0.10773907470703124,-9.87608184814453,1.1049240661621094,0,0,0,0
0.6643729820061708,0.12449848632812499,-9.87608184814453,1.159990704345703,0,0,0,0
0.6660448360053124,0.14963760375976562,-9.853336932373047,1.149216796875,0,0,0,0
0.6679928719968302,-0.001197100830078125,-9.841365924072266,1.1252747802734375,0,0,0,0
0.6696345219970681,-0.001197100830078125,-9.87009634399414,1.1420341918945311,0,0,0,0
0.6713332640065346,0.07422025146484375,-9.885658654785155,1.1947066284179686,0,0,0,0
0.6736699259927263,0.17956512451171874,-9.843760125732421,1.149216796875,0,0,0,0
0.6757187570037786,-0.008379705810546874,-9.832986218261718,1.1049240661621094,0,0,0,0
0.6775698499986902,-0.037110125732421874,-9.882067352294921,1.0797849487304687,0,0,0,0
0.6795807739981683,0.1304839904785156,-9.913191973876952,1.1324573852539062,0,0,0,0
0.6813534039974911,0.19393033447265623,-9.861716638183593,1.1516109985351561,0,0,0,0
0.6835281050007325,0.15083470458984374,-9.83178911743164,1.0977414611816405,0,0,0,0
0.6854924920044141,-0.055066638183593745,-9.854534033203125,1.102529864501953,0,0,0,0
0.6873105480044615,0.04548983154296875,-9.873687646484374,1.1887211242675781,0,0,0,0
0.6891313630039804,0.2346317626953125,-9.835380419921874,1.2246341491699217,0,0,0,0
0.690993954995065,0.18076222534179687,-9.821015209960937,1.150413897705078,0,0,0,0
0.692763159997412,0.00239420166015625,-9.883264453125,1.083376251220703,0,0,0,0
0.6956499079969944,0.10175357055664062,-9.89523546142578,1.092953057861328,0,0,0,0
0.6988001360005001,0.11731588134765625,-9.79946739501953,1.1887211242675781,0,0,0,0
0.7024889689928386,-0.08140285644531249,-9.911994873046874,1.0330980163574217,0,0,0,0
0.7052600900060497,0.15442600708007811,-9.884461553955077,1.1635820068359375,0,0,0,0
0.7083108369988622,0.07422025146484375,-9.78629928588867,1.149216796875,0,0,0,0
0.7117149690020597,0.11252747802734374,-9.872490545654296,1.1815385192871093,0,0,0,0
0.714279591004015,0.18914193115234373,-9.871293444824218,1.150413897705078,0,0,0,0
0.7169464720063843,-0.040701428222656245,-9.860519537353515,1.2198457458496093,0,0,0,0
0.7192147269961424,-0.008379705810546874,-9.879673150634765,1.0989385620117187,0,0,0,0
0.7218795889930334,0.1484405029296875,-9.873687646484374,1.1228805786132812,0,0,0,0
0.7240269750036532,0.023942016601562498,-9.85094273071289,1.0965443603515623,0,0,0,0
0.7258248639991507,-0.03232172241210937,-9.846154327392577,1.1109095703125,0,0,0,0
0.7281386190006742,0.10414777221679687,-9.868899243164062,1.2078747375488281,0,0,0,0
0.730248912004754,0.21308394775390624,-9.86291373901367,1.1982979309082031,0,0,0,0
0.7321152639924549,0.086191259765625,-9.859322436523437,1.1180921752929687,0,0,0,0
0.7348850319976918,0.02633621826171875,-9.868899243164062,1.0989385620117187,0,0,0,0
0.736920123003074,0.13407529296874998,-9.85692823486328,1.1097124694824219,0,0,0,0
0.7387199939985294,0.11611878051757812,-9.848548529052733,1.0917559570312498,0,0,0,0
0.7410865989950253,-0.017956512451171875,-9.86291373901367,1.0271125122070313,0,0,0,0
0.7428263600013452,-0.0047884033203125,-9.897629663085937,1.0438719238281249,0,0,0,0
0.7444739539932925,0.047884033203124995,-9.890447058105469,1.1097124694824219,0,0,0,0
0.7460919940058375,0.14963760375976562,-9.847351428222655,1.1516109985351561,0,0,0,0
0.7482136570033617,0.10175357055664062,-9.829394915771484,1.139639990234375,0,0,0,0
0.749906306999037,0.047884033203124995,-9.836577520751952,1.1336544860839843,0,0,0,0
0.7515241609944496,0.08499415893554688,-9.872490545654296,1.139639990234375,0,0,0,0
0.7540469509985996,0.1304839904785156,-9.872490545654296,1.1264718811035155,0,0,0,0
0.7556986379931914,0.06703764648437499,-9.843760125732421,1.1061211669921875,0,0,0,0
0.7573468799964758,0.03950432739257812,-9.828197814941406,1.0869675537109373,0,0,0,0
0.7600966299942229,0.07302315063476562,-9.85692823486328,1.0917559570312498,0,0,0,0
0.7627211600047303,0.06943184814453125,-9.86411083984375,1.0845733520507812,0,0,0,0
0.7662715680053225,0.0047884033203125,-9.854534033203125,1.1348515869140625,0,0,0,0
0.7694535729970085,0.14604630126953125,-9.81263550415039,1.197100830078125,0,0,0,0
0.7716119590040762,0.11851298217773437,-9.789890588378906,1.1755530151367186,0,0,0,0
0.7736937900044722,0.03950432739257812,-9.811438403320311,1.1552023010253905,0,0,0,0
0.7766356859938242,0.13168109130859373,-9.835380419921874,1.1623849060058593,0,0,0,0
0.7783970760065131,0.12569558715820311,-9.817423907470703,1.131260284423828,0,0,0,0
0.7801375580020249,0.017956512451171875,-9.816226806640625,1.0773907470703123,0,0,0,0
0.7818405409925617,-0.00239420166015625,-9.830592016601562,1.0726023437499999,0,0,0,0
0.7835149689926766,0.023942016601562498,-9.85692823486328,1.0941501586914062,0,0,0,0
0.7854674859991064,0.086191259765625,-9.841365924072266,1.1252747802734375,0,0,0,0
0.7874908730009338,0.058657940673828124,-9.858125335693359,1.1336544860839843,0,0,0,0
0.7892850030038971,0.031124621582031248,-9.886855755615233,1.1540052001953125,0,0,0,0
0.7910189669928513,0.08858546142578125,-9.891644158935547,1.1767501159667968,0,0,0,0
0.7926659319928149,0.12808978881835936,-9.872490545654296,1.1659762084960936,0,0,0,0
0.794861835995107,0.06105214233398437,-9.854534033203125,1.1264718811035155,0,0,0,0
0.7967452059965581,0.037110125732421874,-9.865307940673828,1.1001356628417969,0,0,0,0
0.8000490429985803,0.10773907470703124,-9.840168823242188,1.0821791503906248,0,0,0,0
0.8022699099965394,0.07781155395507812,-9.817423907470703,1.054645831298828,0,0,0,0
0.8040015040023718,-0.010773907470703125,-9.813832604980469,1.061828436279297,0,0,0,0
0.8056342829950154,-0.001197100830078125,-9.822212310791015,1.0881646545410155,0,0,0,0
0.8073132849967806,0.14963760375976562,-9.830592016601562,1.1420341918945311,0,0,0,0
0.8096919829986291,0.29448680419921874,-9.803058697509766,1.1552023010253905,0,0,0,0
0.8114145769941388,0.076614453125,-9.666589202880859,1.1168950744628905,0,0,0,0
0.8141817900032038,0.044292730712890624,-9.847351428222655,1.1444283935546875,0,0,0,0
0.815918384003453,0.12090718383789062,-9.848548529052733,1.158793603515625,0,0,0,0
0.8175346640055068,0.13766659545898435,-9.834183319091796,1.150413897705078,0,0,0,0
0.8191682769975159,0.04668693237304687,-9.843760125732421,1.1073182678222655,0,0,0,0
0.8208590190042742,0.14963760375976562,-9.903615167236328,1.1085153686523437,0,0,0,0
0.8237313050049124,0.08738836059570312,-9.931148486328125,1.1360486877441405,0,0,0,0
0.8255641940049827,0.10175357055664062,-9.873687646484374,1.1432312927246093,0,0,0,0
0.8274584900063928,0.016759411621093748,-9.85094273071289,1.131260284423828,0,0,0,0
0.8292750639957376,0.001197100830078125,-9.860519537353515,1.1528080993652343,0,0,0,0
0.8310560649988474,0.10295067138671875,-9.87009634399414,1.1731588134765625,0,0,0,0
0.8329678049922222,0.16041151123046873,-9.865307940673828,1.1372457885742187,0,0,0,0
0.8352146149991313,0.03232172241210937,-9.8449572265625,1.0809820495605469,0,0,0,0
0.8370634119928582,-0.01915361328125,-9.85094273071289,1.092953057861328,0,0,0,0
0.8388826709997375,0.08140285644531249,-9.848548529052733,1.1145008728027344,0,0,0,0
0.840548227992258,0.13168109130859373,-9.828197814941406,1.1264718811035155,0,0,0,0
0.8421731569978874,0.09696516723632811,-9.811438403320311,1.0845733520507812,0,0,0,0
0.8438864729978377,0.09576806640624999,-9.821015209960937,1.0654197387695312,0,0,0,0
0.8455630849930458,-0.062249243164062495,-9.867702142333984,1.0977414611816405,0,0,0,0
0.8472447719977936,0.09217676391601562,-9.878476049804688,1.1743559143066407,0,0,0,0
0.8489588100055698,0.201112939453125,-9.867702142333984,1.1731588134765625,0,0,0,0
0.8516205609921599,0.044292730712890624,-9.858125335693359,1.1085153686523437,0,0,0,0
0.8536122819932643,-0.047884033203124995,-9.898826763916015,1.1109095703125,0,0,0,0
0.8556289660045877,0.07062894897460938,-9.89523546142578,1.149216796875,0,0,0,0
0.8573520039935829,0.17238251953125,-9.871293444824218,1.1348515869140625,0,0,0,0
0.8590380420064321,0.027533319091796873,-9.827000714111328,1.0821791503906248,0,0,0,0
0.8609787640016293,-0.04548983154296875,-9.86411083984375,1.0821791503906248,0,0,0,0
0.8626764689979609,0.003591302490234375,-9.890447058105469,1.1432312927246093,0,0,0,0
0.8643609889986692,0.14484920043945312,-9.874884747314452,1.1982979309082031,0,0,0,0
0.8669863880058983,0.07422025146484375,-9.805452899169921,1.1839327209472656,0,0,0,0
0.8687714629922993,0.010773907470703125,-9.841365924072266,1.1575965026855468,0,0,0,0
0.87047276100202,0.05027823486328125,-9.87727894897461,1.1839327209472656,0,0,0,0
0.8721769840049092,0.1580173095703125,-9.86411083984375,1.1911153259277343,0,0,0,0
0.8738250419992255,0.2932897033691406,-9.810241302490233,1.1671733093261718,0,0,0,0
0.87545191400568,0.055066638183593745,-9.804255798339844,1.0893617553710937,0,0,0,0
0.8771600269974442,-0.04548983154296875,-9.82580361328125,0.9217676391601562,0,0,0,0
0.8793049679952674,0.04668693237304687,-9.87009634399414,1.112106671142578,0,0,0,0
0.8814607240055921,0.28012159423828126,-9.832986218261718,1.1192892761230469,0,0,0,0
0.8835951840010239,0.033518823242187495,-9.836577520751952,1.0869675537109373,0,0,0,0
0.8853010369930416,-0.06703764648437499,-9.858125335693359,1.131260284423828,0,0,0,0
0.8869886869943002,0.062249243164062495,-9.886855755615233,1.177947216796875,0,0,0,0
0.8891925350035308,0.21308394775390624,-9.87727894897461,1.235408056640625,0,0,0,0
0.8909164619981311,0.2454056701660156,-9.835380419921874,1.2018892333984375,0,0,0,0
0.8926173340005334,0.00718260498046875,-9.854534033203125,1.1348515869140625,0,0,0,0
0.8943350390036358,-0.023942016601562498,-9.883264453125,1.1420341918945311,0,0,0,0
0.8963768889952917,0.10893617553710937,-9.884461553955077,1.1707646118164061,0,0,0,0
0.8981113899935735,0.1592144104003906,-9.830592016601562,1.1264718811035155,0,0,0,0
0.8998428729973966,0.13287819213867186,-9.81263550415039,1.2150573425292968,0,0,0,0
0.901880777993938,-0.06344634399414062,-9.867702142333984,1.064222637939453,0,0,0,0
0.9035556320013711,-0.00718260498046875,-9.903615167236328,1.121683477783203,0,0,0,0
0.9052695400023367,0.16160861206054686,-9.890447058105469,1.1635820068359375,0,0,0,0
0.9069484859937802,0.25139117431640623,-9.816226806640625,1.1360486877441405,0,0,0,0
0.908931465994101,0.13646949462890623,-9.813832604980469,1.1276689819335937,0,0,0,0
0.9114441819983767,0.044292730712890624,-9.87608184814453,1.1647791076660157,0,0,0,0
0.9132550520007499,0.1927332336425781,-9.87009634399414,1.16837041015625,0,0,0,0
0.9150893119949615,0.10893617553710937,-9.816226806640625,1.1001356628417969,0,0,0,0
0.9169382929976564,0.1292868896484375,-9.804255798339844,1.0690110412597655,0,0,0,0
0.9193171770020854,0.011971008300781249,-9.853336932373047,1.0881646545410155,0,0,0,0
0.9211100849934155,0.14963760375976562,-9.87009634399414,1.1156979736328125,0,0,0,0
0.9229073629976483,0.08978256225585937,-9.830592016601562,1.1061211669921875,0,0,0,0
0.9249910460057436,-0.033518823242187495,-9.83178911743164,1.0797849487304687,0,0,0,0
0.9268496190052247,-0.12569558715820311,-9.888052856445311,1.1180921752929687,0,0,0,0
0.9291367629921297,0.17836802368164062,-9.916783276367187,1.1743559143066407,0,0,0,0
0.931120020992239,0.11611878051757812,-9.872490545654296,1.1336544860839843,0,0,0,0
0.9328837810026016,0.15203180541992187,-9.859322436523437,1.1145008728027344,0,0,0,0
0.9348056500020903,-0.011971008300781249,-9.867702142333984,1.1168950744628905,0,0,0,0
0.9364419670018833,0.08020575561523437,-9.879673150634765,1.140837091064453,0,0,0,0
0.938109598995652,0.13766659545898435,-9.841365924072266,1.139639990234375,0,0,0,0
0.9400764309975784,0.03591302490234375,-9.81862100830078,1.0965443603515623,0,0,0,0
0.9416822850034805,-0.003591302490234375,-9.836577520751952,1.0761936462402344,0,0,0,0
0.9433816380042117,0.005985504150390624,-9.854534033203125,1.1097124694824219,0,0,0,0
0.9453186369937612,0.10175357055664062,-9.86411083984375,1.1552023010253905,0,0,0,0
0.9471904520032695,0.09457096557617187,-9.822212310791015,1.1623849060058593,0,0,0,0
0.9491320990055101,0.047884033203124995,-9.822212310791015,1.1528080993652343,0,0,0,0
0.951516722998349,0.04548983154296875,-9.87608184814453,1.149216796875,0,0,0,0
0.9537681819929276,0.1197100830078125,-9.871293444824218,1.1372457885742187,0,0,0,0
0.9556068859965308,0.07541735229492187,-9.841365924072266,1.1013327636718748,0,0,0,0
0.9576313650031807,0.011971008300781249,-9.832986218261718,1.0821791503906248,0,0,0,0
0.959470236004563,0.020350714111328123,-9.840168823242188,1.1001356628417969,0,0,0,0
0.9613176059938269,0.09337386474609374,-9.858125335693359,1.1168950744628905,0,0,0,0
0.9634746770025231,0.06105214233398437,-9.85094273071289,1.1145008728027344,0,0,0,0
0.9652265479962807,0.022744915771484374,-9.859322436523437,1.158793603515625,0,0,0,0
0.9685301629942842,0.1197100830078125,-9.867702142333984,1.1863269226074218,0,0,0,0
0.9708243990025949,0.13646949462890623,-9.846154327392577,1.1552023010253905,0,0,0,0
0.9726287509984104,0.040701428222656245,-9.85094273071289,1.1109095703125,0,0,0,0
0.9755455370031996,0.07302315063476562,-9.882067352294921,1.0941501586914062,0,0,0,0
0.9780328820052091,0.07900865478515624,-9.861716638183593,1.0857704528808594,0,0,0,0
0.9803391739988001,0.00718260498046875,-9.852139831542969,1.0630255371093749,0,0,0,0
0.9821008599974448,0.029927520751953124,-9.866505041503906,1.0761936462402344,0,0,0,0
0.9838977860054001,0.07062894897460938,-9.874884747314452,1.1156979736328125,0,0,0,0
0.985744600999169,0.08978256225585937,-9.843760125732421,1.1516109985351561,0,0,0,0
0.9873750289989403,0.055066638183593745,-9.823409411621093,1.1743559143066407,0,0,0,0
0.9891582150012255,0.07302315063476562,-9.835380419921874,1.1959037292480468,0,0,0,0
0.9909987699938938,0.10893617553710937,-9.874884747314452,1.1947066284179686,0,0,0,0
0.9927179569931468,0.12449848632812499,-9.873687646484374,1.1731588134765625,0,0,0,0
0.9944951240031514,0.062249243164062495,-9.83777462158203,1.1240776794433593,0,0,0,0
0.9964363079925533,-0.01915361328125,-9.835380419921874,1.1049240661621094,0,0,0,0
0.9981408470048336,0.040701428222656245,-9.8449572265625,1.1097124694824219,0,0,0,0
0.9998361259931698,0.07422025146484375,-9.871293444824218,1.1145008728027344,0,0,0,0
1.0017361439968226,0.08140285644531249,-9.879673150634765,1.0905588562011719,0,0,0,0
1.0034298859973205,-0.023942016601562498,-9.878476049804688,1.083376251220703,0,0,0,0
1.0052175349992467,-0.02154781494140625,-9.885658654785155,1.1432312927246093,0,0,0,0
1.0069317400048021,0.08140285644531249,-9.884461553955077,1.1755530151367186,0,0,0,0
1.008595167004387,0.12689268798828124,-9.87727894897461,1.2042834350585936,0,0,0,0
1.0102057439944474,0.1005564697265625,-9.852139831542969,1.1659762084960936,0,0,0,0
1.0124204989988357,0.003591302490234375,-9.868899243164062,1.1348515869140625,0,0,0,0
1.0142002780048642,0.04668693237304687,-9.874884747314452,1.1432312927246093,0,0,0,0
1.0159590380062582,0.1304839904785156,-9.853336932373047,1.140837091064453,0,0,0,0
1.0176731499959715,0.13168109130859373,-9.81263550415039,1.0989385620117187,0,0,0,0
1.0193963920028182,0.003591302490234375,-9.805452899169921,1.0414777221679687,0,0,0,0
1.0211781520047225,-0.0143652099609375,-9.847351428222655,1.0534487304687499,0,0,0,0
1.0236097570013953,0.06703764648437499,-9.8449572265625,1.0989385620117187,0,0,0,0
1.0255454409925733,0.10175357055664062,-9.816226806640625,1.120486376953125,0,0,0,0
1.027435793002951,0.017956512451171875,-9.797073193359374,1.1336544860839843,0,0,0,0
1.0292360710009234,0.047884033203124995,-9.854534033203125,1.1767501159667968,0,0,0,0
1.0310472559940536,0.14963760375976562,-9.87009634399414,1.1923124267578125,0,0,0,0
1.0328229050064692,0.17118541870117188,-9.840168823242188,1.1767501159667968,0,0,0,0
1.0347312749945559,0.08738836059570312,-9.83897172241211,1.1145008728027344,0,0,0,0
1.036752421001438,-0.03591302490234375,-9.90122096557617,1.0797849487304687,0,0,0,0
1.0387836409936426,0.023942016601562498,-9.925162982177733,1.0977414611816405,0,0,0,0
1.0405565120017854,0.10295067138671875,-9.896432562255859,1.1013327636718748,0,0,0,0
1.0424758629960706,0.06464344482421874,-9.853336932373047,1.0630255371093749,0,0,0,0
1.0442891230050009,-0.05985504150390625,-9.855731134033203,1.071405242919922,0,0,0,0
1.0460202719987137,-0.15083470458984374,-9.882067352294921,1.1049240661621094,0,0,0,0
1.0478209019929636,0.08020575561523437,-9.890447058105469,1.177947216796875,0,0,0,0
1.0497878640017007,0.1927332336425781,-9.852139831542969,1.1863269226074218,0,0,0,0
1.0516412339929957,0.06703764648437499,-9.830592016601562,1.1348515869140625,0,0,0,0
1.0533491429960122,-0.020350714111328123,-9.840168823242188,1.1324573852539062,0,0,0,0
1.0552032349951332,0.09576806640624999,-9.861716638183593,1.1563994018554686,0,0,0,0
1.0570388839987572,0.16639701538085935,-9.82460651245117,1.1516109985351561,0,0,0,0
1.0587680140015436,0.1005564697265625,-9.79946739501953,1.0893617553710937,0,0,0,0
1.060546644992428,-0.05985504150390625,-9.821015209960937,1.0570400329589844,0,0,0,0
1.0624319780035876,-0.003591302490234375,-9.879673150634765,1.1013327636718748,0,0,0,0
1.0642336449964205,0.11013327636718749,-9.884461553955077,1.1252747802734375,0,0,0,0
1.0659666459978325,0.12449848632812499,-9.834183319091796,1.1432312927246093,0,0,0,0
1.0677528679952957,0.03950432739257812,-9.813832604980469,1.1288660827636718,0,0,0,0
1.0696282199933194,0.009576806640625,-9.841365924072266,1.1528080993652343,0,0,0,0
1.0714884600020014,0.09217676391601562,-9.854534033203125,1.1863269226074218,0,0,0,0
1.073293609006214,0.17357962036132812,-9.861716638183593,1.1659762084960936,0,0,0,0
1.075049591003335,0.03591302490234375,-9.83777462158203,1.1336544860839843,0,0,0,0
1.0768112590012606,-0.034715924072265626,-9.840168823242188,1.1001356628417969,0,0,0,0
1.0785807969950838,0.003591302490234375,-9.8449572265625,1.1420341918945311,0,0,0,0
1.0803689080057666,0.15562310791015624,-9.858125335693359,1.1623849060058593,0,0,0,0
1.0822292230004678,0.12569558715820311,-9.843760125732421,1.112106671142578,0,0,0,0
1.0841302219923818,0.09816226806640624,-9.86291373901367,1.0845733520507812,0,0,0,0
1.0860131660010666,-0.03232172241210937,-9.889249957275391,1.1085153686523437,0,0,0,0
1.087820296001155,0.05027823486328125,-9.886855755615233,1.1839327209472656,0,0,0,0
1.0895938519970514,0.19632453613281248,-9.85692823486328,1.1982979309082031,0,0,0,0
1.0914840559998993,0.08978256225585937,-9.809044201660155,1.1288660827636718,0,0,0,0
1.0933858509961283,-0.025139117431640625,-9.83777462158203,1.112106671142578,0,0,0,0
1.0952083699958166,0.06344634399414062,-9.861716638183593,1.1288660827636718,0,0,0,0
1.0971294060000218,0.022744915771484374,-9.827000714111328,1.1552023010253905,0,0,0,0
1.0991098859958583,0.058657940673828124,-9.80665,1.1073182678222655,0,0,0,0
1.1010147750057513,-0.02154781494140625,-9.832986218261718,1.0594342346191405,0,0,0,0
1.1028116819943534,-0.027533319091796873,-9.867702142333984,1.0869675537109373,0,0,0,0
1.1044587210053578,0.11731588134765625,-9.853336932373047,1.1156979736328125,0,0,0,0
1.1057140789926052,0.16759411621093748,-9.816226806640625,1.1432312927246093,0,0,0,0
1.1070450660045026,0.14604630126953125,-9.764751470947266,1.1276689819335937,0,0,0,0
1.1084204219951062,0.001197100830078125,-9.781510882568359,1.1085153686523437,0,0,0,0
1.1096457990061026,-0.015562310791015624,-9.815029705810547,1.1180921752929687,0,0,0,0
1.110886637994554,0.011971008300781249,-9.847351428222655,1.1384428894042968,0,0,0,0
1.112143495993223,0.12689268798828124,-9.86411083984375,1.1575965026855468,0,0,0,0
1.1133749650034588,0.1640028137207031,-9.847351428222655,1.1659762084960936,0,0,0,0
1.1145633419946535,0.1388636962890625,-9.829394915771484,1.1540052001953125,0,0,0,0
1.1156878680048976,0.062249243164062495,-9.815029705810547,1.0953472595214844,0,0,0,0
1.1168445229995996,-0.011971008300781249,-9.816226806640625,1.0821791503906248,0,0,0,0
1.1180004369962262,-0.03950432739257812,-9.867702142333984,1.0869675537109373,0,0,0,0
1.1190888330020243,-0.023942016601562498,-9.89523546142578,1.102529864501953,0,0,0,0
1.120328820994473,0.07900865478515624,-9.907206469726562,1.1228805786132812,0,0,0,0
1.1215462899999693,0.12090718383789062,-9.892841259765625,1.1384428894042968,0,0,0,0
1.1227084639976965,0.10295067138671875,-9.87009634399414,1.121683477783203,0,0,0,0
1.1238183969981037,0.040701428222656245,-9.849745629882811,1.1073182678222655,0,0,0,0
1.1249154410033952,-0.02154781494140625,-9.841365924072266,1.1073182678222655,0,0,0,0
1.1261058920063078,-0.0383072265625,-9.855731134033203,1.1252747802734375,0,0,0,0
1.1273081580002327,0.062249243164062495,-9.868899243164062,1.1540052001953125,0,0,0,0
1.1284922390041174,0.14125789794921875,-9.871293444824218,1.1815385192871093,0,0,0,0
1.1296065240021562,0.18435352783203124,-9.86291373901367,1.1959037292480468,0,0,0,0
1.1306876430026023,0.1580173095703125,-9.85094273071289,1.1875240234375,0,0,0,0
1.1319118340034038,0.086191259765625,-9.848548529052733,1.1228805786132812,0,0,0,0
1.1332613389968174,0.13407529296874998,-9.861716638183593,1.1013327636718748,0,0,0,0
1.1344965669995872,-0.016759411621093748,-9.878476049804688,1.0941501586914062,0,0,0,0
1.1356924440042349,0.015562310791015624,-9.89523546142578,1.0977414611816405,0,0,0,0
1.1367767479969189,0.06823474731445311,-9.897629663085937,1.1097124694824219,0,0,0,0
1.1378497190016787,0.10773907470703124,-9.879673150634765,1.1037269653320312,0,0,0,0
1.1390484290022869,0.10175357055664062,-9.843760125732421,1.0845733520507812,0,0,0,0
1.1403130090038758,0.15203180541992187,-9.8449572265625,1.0630255371093749,0,0,0,0
1.141543866993743,-0.025139117431640625,-9.858125335693359,1.054645831298828,0,0,0,0
1.1426356150041102,-0.016759411621093748,-9.878476049804688,1.0630255371093749,0,0,0,0
1.1437271970062284,0.01915361328125,-9.894038360595703,1.0845733520507812,0,0,0,0
1.1448012040054891,0.07302315063476562,-9.891644158935547,1.1444283935546875,0,0,0,0
1.145873526998912,0.11252747802734374,-9.87009634399414,1.1623849060058593,0,0,0,0
1.147125199000584,0.11013327636718749,-9.813832604980469,1.1635820068359375,0,0,0,0
1.1482807989959838,0.04189852905273437,-9.794678991699218,1.158793603515625,0,0,0,0
1.1493583249975927,0.034715924072265626,-9.782707983398437,1.1611878051757811,0,0,0,0
1.1504306660062866,0.055066638183593745,-9.788693487548828,1.1707646118164061,0,0,0,0
1.1515123959979974,0.09576806640624999,-9.809044201660155,1.1791443176269532,0,0,0,0
1.1527407910034526,0.14245499877929688,-9.82580361328125,1.1851298217773436,0,0,0,0
1.153845299006207,0.16160861206054686,-9.834183319091796,1.158793603515625,0,0,0,0
1.1549660470045637,0.13646949462890623,-9.832986218261718,1.1276689819335937,0,0,0,0
1.1561841639922932,0.07900865478515624,-9.829394915771484,1.0953472595214844,0,0,0,0
1.1574243549985113,-0.0143652099609375,-9.82580361328125,1.0773907470703123,0,0,0,0
1.1585983429977205,-0.02154781494140625,-9.829394915771484,1.073799444580078,0,0,0,0
1.159716758003924,0.009576806640625,-9.843760125732421,1.0821791503906248,0,0,0,0
1.1607892100000754,0.06344634399414062,-9.853336932373047,1.112106671142578,0,0,0,0
1.1618594400060829,0.09696516723632811,-9.853336932373047,1.1156979736328125,0,0,0,0
1.1629307260009227,0.08499415893554688,-9.849745629882811,1.1085153686523437,0,0,0,0
1.1641927500022575,0.04668693237304687,-9.853336932373047,1.1037269653320312,0,0,0,0
1.1653529049945064,0.14963760375976562,-9.858125335693359,1.1085153686523437,0,0,0,0
1.1664458939922042,0.009576806640625,-9.86291373901367,1.1264718811035155,0,0,0,0
1.1675376609928207,0.047884033203124995,-9.872490545654296,1.1516109985351561,0,0,0,0
1.168624557001749,0.10175357055664062,-9.874884747314452,1.1815385192871093,0,0,0,0
1.1699045809946256,0.13407529296874998,-9.868899243164062,1.2054805358886718,0,0,0,0
1.1712534749967745,0.08140285644531249,-9.848548529052733,1.1935095275878906,0,0,0,0
1.1724925549933687,0.047884033203124995,-9.840168823242188,1.177947216796875,0,0,0,0
1.1737569870019797,0.03591302490234375,-9.83178911743164,1.1611878051757811,0,0,0,0
1.1750329000060447,0.04189852905273437,-9.841365924072266,1.1540052001953125,0,0,0,0
1.1762958129984327,0.09935936889648436,-9.841365924072266,1.150413897705078,0,0,0,0
1.1775025789975189,0.11013327636718749,-9.829394915771484,1.1444283935546875,0,0,0,0
1.1787112339952728,0.08259995727539061,-9.821015209960937,1.1288660827636718,0,0,0,0
1.1799808320065495,0.040701428222656245,-9.822212310791015,1.0905588562011719,0,0,0,0
1.1812356900045415,0.015562310791015624,-9.85094273071289,1.083376251220703,0,0,0,0
1.1824624919972848,0.03591302490234375,-9.861716638183593,1.0845733520507812,0,0,0,0
1.1836728869966464,0.05626373901367187,-9.866505041503906,1.0869675537109373,0,0,0,0
1.1849408749985741,0.06943184814453125,-9.861716638183593,1.0941501586914062,0,0,0,0
1.1863671189930756,0.023942016601562498,-9.835380419921874,1.0953472595214844,0,0,0,0
1.1877135319955414,-0.005985504150390624,-9.827000714111328,1.1168950744628905,0,0,0,0
1.1890831850032555,-0.003591302490234375,-9.822212310791015,1.1432312927246093,0,0,0,0
1.190404374996433,0.06344634399414062,-9.83178911743164,1.1731588134765625,0,0,0,0
1.1917306950053899,0.09457096557617187,-9.847351428222655,1.2018892333984375,0,0,0,0
1.1930767930025468,0.11731588134765625,-9.834183319091796,1.2018892333984375,0,0,0,0
1.194449168004212,0.08259995727539061,-9.815029705810547,1.1935095275878906,0,0,0,0
1.1956940999953076,0.0430956298828125,-9.803058697509766,1.180341418457031,0,0,0,0
1.1968112369941082,0.033518823242187495,-9.797073193359374,1.1671733093261718,0,0,0,0
1.1980298169946764,0.05626373901367187,-9.795876092529296,1.16837041015625,0,0,0,0
1.1992248599999584,0.08978256225585937,-9.817423907470703,1.1611878051757811,0,0,0,0
1.2004042000044137,0.12330138549804687,-9.829394915771484,1.1444283935546875,0,0,0,0
1.201672151000821,0.09457096557617187,-9.83178911743164,1.1180921752929687,0,0,0,0
1.2029776190029224,0.028730419921875,-9.83777462158203,1.0558429321289062,0,0,0,0
1.2041932180000003,-0.03591302490234375,-9.854534033203125,1.0438719238281249,0,0,0,0
1.2053696509974543,-0.037110125732421874,-9.852139831542969,1.0558429321289062,0,0,0,0
1.2064522139990004,0.0143652099609375,-9.848548529052733,1.0821791503906248,0,0,0,0
1.207537869006046,0.07062894897460938,-9.847351428222655,1.1085153686523437,0,0,0,0
1.20872346899705,0.11372457885742186,-9.841365924072266,1.13006318359375,0,0,0,0
1.2099838260037359,0.11851298217773437,-9.83178911743164,1.1384428894042968,0,0,0,0
1.2111388329940382,0.08020575561523437,-9.83897172241211,1.1288660827636718,0,0,0,0
1.212239080996369,0.028730419921875,-9.858125335693359,1.1228805786132812,0,0,0,0
1.2133303110022098,0.00718260498046875,-9.87608184814453,1.13006318359375,0,0,0,0
1.2145255030045519,0.0383072265625,-9.885658654785155,1.1468225952148436,0,0,0,0
1.2158238230040297,0.07422025146484375,-9.884461553955077,1.16837041015625,0,0,0,0
1.2169741450052243,0.10295067138671875,-9.87009634399414,1.1671733093261718,0,0,0,0
1.2181351519975578,0.09696516723632811,-9.813832604980469,1.1540052001953125,0,0,0,0
1.2193781209934969,0.001197100830078125,-9.80066449584961,1.1324573852539062,0,0,0,0
1.2206004229956307,-0.013168109130859374,-9.798270294189452,1.1168950744628905,0,0,0,0
1.2216880420019152,0.013168109130859374,-9.789890588378906,1.1156979736328125,0,0,0,0
1.2227619379991665,0.062249243164062495,-9.770736975097655,1.120486376953125,0,0,0,0
1.2238366130040959,0.11013327636718749,-9.74799205932617,1.1228805786132812,0,0,0,0
1.2249127319955733,0.13407529296874998,-9.721655841064452,1.1037269653320312,0,0,0,0
1.2261344050057232,0.12449848632812499,-9.804255798339844,1.0857704528808594,0,0,0,0
1.2273040040017804,0.08499415893554688,-9.635464581298828,1.0678139404296874,0,0,0,0
1.2284453070024028,0.023942016601562498,-9.636661682128906,1.061828436279297,0,0,0,0
1.2296652210061438,0.044292730712890624,-9.64025298461914,1.071405242919922,0,0,0,0
1.230770358000882,0.08858546142578125,-9.645041387939452,1.0917559570312498,0,0,0,0
1.2319877349946182,0.14006079711914063,-9.662997900390625,1.1097124694824219,0,0,0,0
1.2331758710060967,0.16998831787109375,-9.694122521972655,1.102529864501953,0,0,0,0
1.2342723040055716,0.15203180541992187,-9.728838446044922,1.0857704528808594,0,0,0,0
1.2353736999939429,0.00239420166015625,-9.785102185058593,1.0726023437499999,0,0,0,0
1.2365646510006627,-0.0430956298828125,-9.849745629882811,1.073799444580078,0,0,0,0
1.2377401770063443,-0.034715924072265626,-9.917980377197265,1.0953472595214844,0,0,0,0
1.2388354989961954,0.010773907470703125,-9.974244116210937,1.131260284423828,0,0,0,0
1.2399253399926238,0.06464344482421874,-10.018536846923828,1.1887211242675781,0,0,0,0
1.2410127920011291,0.09217676391601562,-10.041281762695311,1.1947066284179686,0,0,0,0
1.2422372050059494,0.06464344482421874,-10.029310754394531,1.1827356201171875,0,0,0,0
1.243409304996021,-0.09337386474609374,-10.046070166015625,1.16837041015625,0,0,0,0
1.2445022750034695,-0.12210428466796874,-10.081983190917969,1.16837041015625,0,0,0,0
1.2455879129993264,-0.0909796630859375,-10.116699114990233,1.1887211242675781,0,0,0,0
1.246839473998989,-0.022744915771484374,-10.143035333251953,1.0989385620117187,0,0,0,0
1.2481400910037337,0.0526724365234375,-10.153809240722655,1.2701239807128906,0,0,0,0
1.2493571889935993,0.09816226806640624,-10.116699114990233,1.2701239807128906,0,0,0,0
1.2504917519981973,0.04548983154296875,-10.066420880126952,1.2533645690917967,0,0,0,0
1.2515887780027697,-0.0143652099609375,-10.019733947753906,1.2294225524902342,0,0,0,0
1.2527920069987886,-0.0383072265625,-9.986215124511718,1.209071838378906,0,0,0,0
1.2539801609964343,-0.005985504150390624,-9.964667309570311,1.209071838378906,0,0,0,0
1.255075854001916,0.06105214233398437,-9.95389340209961,1.209071838378906,0,0,0,0
1.2562624349957332,0.12449848632812499,-9.90241806640625,1.1959037292480468,0,0,0,0
1.2575609399937093,0.1352723937988281,-9.860519537353515,1.1647791076660157,0,0,0,0
1.2587533729965799,0.076614453125,-9.835380419921874,1.121683477783203,0,0,0,0
1.2600211560056778,0.010773907470703125,-9.811438403320311,1.209071838378906,0,0,0,0
1.261180311004864,-0.020350714111328123,-9.757568865966796,1.0558429321289062,0,0,0,0
1.2623803180031246,0.0718260498046875,-9.749189160156249,1.0690110412597655,0,0,0,0
1.263656267998158,0.13646949462890623,-9.750386260986328,1.0797849487304687,0,0,0,0
1.2648002189962426,0.17477672119140625,-9.745597857666015,1.0857704528808594,0,0,0,0
1.2658928750024643,0.16041151123046873,-9.734823950195311,1.0797849487304687,0,0,0,0
1.2669834749976872,0.09217676391601562,-9.727641345214844,1.0486603271484374,0,0,0,0
1.2680795199994463,0.0143652099609375,-9.731232647705077,1.0510545288085937,0,0,0,0
1.2692922669957625,-0.02154781494140625,-9.752780462646484,1.0773907470703123,0,0,0,0
1.2704829949943814,0.06703764648437499,-9.777919580078125,1.1156979736328125,0,0,0,0
1.2716477979993215,0.14604630126953125,-9.810241302490233,1.150413897705078,0,0,0,0
1.2727877680008532,0.19393033447265623,-9.82580361328125,1.1731588134765625,0,0,0,0
1.2739177939947695,0.17238251953125,-9.822212310791015,1.1563994018554686,0,0,0,0
1.2752403729973594,0.08499415893554688,-9.83897172241211,1.13006318359375,0,0,0,0
1.2765127309976378,-0.07302315063476562,-9.860519537353515,1.120486376953125,0,0,0,0
1.2776370530045824,-0.06584054565429687,-9.884461553955077,1.1348515869140625,0,0,0,0
1.27880963399366,-0.008379705810546874,-9.916783276367187,1.1659762084960936,0,0,0,0
1.2799308450048557,0.07302315063476562,-9.958681805419921,1.1982979309082031,0,0,0,0
1.281021240996779,0.1352723937988281,-9.98501802368164,1.2198457458496093,0,0,0,0
1.2823191170027712,0.1304839904785156,-9.986215124511718,1.1947066284179686,0,0,0,0
1.2836466779990587,-0.03950432739257812,-9.986215124511718,1.1575965026855468,0,0,0,0
1.2849365909933113,-0.11013327636718749,-9.983820922851562,1.120486376953125,0,0,0,0
1.2862569660064764,-0.12330138549804687,-9.987412225341796,1.1384428894042968,0,0,0,0
1.2874905460048467,-0.14006079711914063,-9.986215124511718,1.1671733093261718,0,0,0,0
1.288956253993092,0.10414777221679687,-9.96586441040039,1.2054805358886718,0,0,0,0
1.2902218520030146,0.14006079711914063,-9.907206469726562,1.1875240234375,0,0,0,0
1.2913686929969117,0.00239420166015625,-9.891644158935547,1.150413897705078,0,0,0,0
1.2927068459975999,-0.0718260498046875,-9.880870251464843,1.1168950744628905,0,0,0,0
1.2939560369995888,-0.08978256225585937,-9.871293444824218,1.1168950744628905,0,0,0,0
1.2950550069945166,-0.04908113403320312,-9.86411083984375,1.140837091064453,0,0,0,0
1.2961471449962119,0.03950432739257812,-9.861716638183593,1.1647791076660157,0,0,0,0
1.2973754660051782,0.13766659545898435,-9.813832604980469,1.1767501159667968,0,0,0,0
1.2987489520019153,0.14484920043945312,-9.740809454345703,1.1348515869140625,0,0,0,0
1.3008947630005423,-0.01915361328125,-9.733626849365233,1.0881646545410155,0,0,0,0
1.3023644710046938,-0.04668693237304687,-9.77432827758789,1.0953472595214844,0,0,0,0
1.3041332309949212,0.058657940673828124,-9.79946739501953,1.1444283935546875,0,0,0,0
1.3054713099991204,0.027533319091796873,-9.783905084228515,1.1611878051757811,0,0,0,0
1.3066088539926568,0.14125789794921875,-9.764751470947266,1.1552023010253905,0,0,0,0
1.3077576569921803,0.06584054565429687,-9.752780462646484,1.1348515869140625,0,0,0,0
1.308897461000015,0.00239420166015625,-9.75517466430664,1.112106671142578,0,0,0,0
1.310067764003179,-0.022744915771484374,-9.7683427734375,1.1180921752929687,0,0,0,0
1.3111896600021282,0.0,-9.795876092529296,1.1372457885742187,0,0,0,0
1.3122634080064017,0.06105214233398437,-9.87727894897461,1.1563994018554686,0,0,0,0
1.3135793399997056,0.15442600708007811,-9.886855755615233,1.1671733093261718,0,0,0,0
1.3148695300042164,0.11372457885742186,-9.882067352294921,1.158793603515625,0,0,0,0
1.3160708140057977,0.0383072265625,-9.872490545654296,1.1156979736328125,0,0,0,0
1.3171637289924547,-0.025139117431640625,-9.873687646484374,1.1061211669921875,0,0,0,0
1.3184459570038598,-0.031124621582031248,-9.89523546142578,1.1145008728027344,0,0,0,0
1.319746926004882,0.02154781494140625,-9.911994873046874,1.13006318359375,0,0,0,0
1.3209501170058502,0.08738836059570312,-9.92755718383789,1.158793603515625,0,0,0,0
1.3221933449967764,0.1197100830078125,-9.929951385498047,1.149216796875,0,0,0,0
1.323299704992678,0.09457096557617187,-9.928754284667969,1.1228805786132812,0,0,0,0
1.3243880639929557,0.02633621826171875,-9.932345587158203,1.0989385620117187,0,0,0,0
1.3255865709943464,-0.051475335693359374,-9.929951385498047,1.0917559570312498,0,0,0,0
1.3268265030055773,-0.033518823242187495,-9.923965881347655,1.1049240661621094,0,0,0,0
1.327930343002663,0.01915361328125,-9.9215716796875,1.1528080993652343,0,0,0,0
1.3293897359981202,0.0909796630859375,-9.873687646484374,1.1731588134765625,0,0,0,0
1.3306528160028392,0.11013327636718749,-9.843760125732421,1.1743559143066407,0,0,0,0
1.3318272489996161,0.058657940673828124,-9.829394915771484,1.1563994018554686,0,0,0,0
1.3329874780029058,0.010773907470703125,-9.828197814941406,1.1348515869140625,0,0,0,0
1.3340779110003496,-0.005985504150390624,-9.836577520751952,1.1264718811035155,0,0,0,0
1.3351886960008414,0.005985504150390624,-9.848548529052733,1.1360486877441405,0,0,0,0
1.3363970539940055,0.04668693237304687,-9.8449572265625,1.150413897705078,0,0,0,0
1.3376247639971552,0.12569558715820311,-9.81862100830078,1.1575965026855468,0,0,0,0
1.3387204379978357,0.105344873046875,-9.781510882568359,1.1516109985351561,0,0,0,0
1.339811630998156,0.058657940673828124,-9.750386260986328,1.1348515869140625,0,0,0,0
1.3411562469991622,0.02154781494140625,-9.739612353515625,1.1037269653320312,0,0,0,0
1.342452882003272,0.0047884033203125,-9.76116016845703,1.102529864501953,0,0,0,0
1.3437104250042466,0.033518823242187495,-9.78629928588867,1.1073182678222655,0,0,0,0
1.3448175619996618,0.076614453125,-9.801861596679688,1.1192892761230469,0,0,0,0
1.3459009770012926,0.10175357055664062,-9.804255798339844,1.1276689819335937,0,0,0,0
1.3472665930021321,0.08499415893554688,-9.788693487548828,1.1156979736328125,0,0,0,0
1.3485652840026887,0.0047884033203125,-9.788693487548828,1.1097124694824219,0,0,0,0
1.3497322170005646,-0.009576806640625,-9.80066449584961,1.1133037719726562,0,0,0,0
1.3508212610031478,-0.003591302490234375,-9.827000714111328,1.1240776794433593,0,0,0,0
1.3519102319987724,0.027533319091796873,-9.861716638183593,1.139639990234375,0,0,0,0
1.3529902949958341,0.07422025146484375,-9.882067352294921,1.1575965026855468,0,0,0,0
1.3540747280057985,0.09935936889648436,-9.883264453125,1.16837041015625,0,0,0,0
1.3552727159985807,0.08140285644531249,-9.872490545654296,1.1540052001953125,0,0,0,0
1.3564499079948291,0.03591302490234375,-9.873687646484374,1.1360486877441405,0,0,0,0
1.3575466189940926,-0.023942016601562498,-9.878476049804688,1.1288660827636718,0,0,0,0
1.3586291829997208,-0.017956512451171875,-9.892841259765625,1.131260284423828,0,0,0,0
1.359724448993802,0.020350714111328123,-9.925162982177733,1.1468225952148436,0,0,0,0
1.361514301999705,0.09935936889648436,-9.913191973876952,1.150413897705078,0,0,0,0
1.362801715004025,0.0718260498046875,-9.892841259765625,1.140837091064453,0,0,0,0
1.3639127960050246,0.0047884033203125,-9.86411083984375,1.1240776794433593,0,0,0,0
1.3655390950007131,-0.12689268798828124,-9.794678991699218,1.1420341918945311,0,0,0,0
1.3667475080001168,-0.1771709228515625,-9.75517466430664,1.2006921325683593,0,0,0,0
1.3679819399985718,-0.21428104858398436,-9.725247143554688,1.294065997314453,0,0,0,0
1.3690777809970314,-0.21188684692382811,-9.707290631103515,1.4496891052246093,0,0,0,0
1.3701653629977955,-0.17238251953125,-9.69771382446289,1.8076222534179687,0,0,0,0
1.371316962002311,-0.10654197387695312,-9.695319622802733,2.032677209472656,0,0,0,0
1.372911243000999,0.03950432739257812,-9.682151513671874,2.2744915771484373,0,0,0,0
1.374144155997783,0.10414777221679687,-9.682151513671874,2.597708801269531,0,0,0,0
1.3753111999976682,0.16759411621093748,-9.80665,2.9855694702148434,0,0,0,0
1.3764713179989485,0.21428104858398436,-9.65342109375,3.1962592163085937,0,0,0,0
1.3776952689950122,0.3028665100097656,-9.65940659790039,3.388992449951172,0,0,0,0
1.3787864059995627,0.3315969299316406,-9.670180505371093,3.5494039611816404,0,0,0,0
1.3798727649991633,0.3447650390625,-9.698910925292969,3.6727053466796873,0,0,0,0
1.3809605690039461,0.32561142578124996,-9.719261639404296,3.755305303955078,0,0,0,0
1.3824887389928335,0.28371289672851563,-9.74200655517578,3.8091748413085935,0,0,0,0
1.3837217999971472,0.2059013427734375,-9.753977563476562,3.7900212280273435,0,0,0,0
1.3848663630051306,0.18435352783203124,-9.776722479248047,3.7517140014648436,0,0,0,0
1.385958758997731,0.181959326171875,-9.810241302490233,3.6906618591308593,0,0,0,0
1.3870436930010328,0.1879448303222656,-9.886855755615233,3.518279339599609,0,0,0,0
1.3886766579962568,0.17238251953125,-9.929951385498047,3.404554760742187,0,0,0,0
1.3900741249963176,0.1197100830078125,-9.968258612060547,3.284844677734375,0,0,0,0
1.391251002001809,0.03950432739257812,-9.995791931152343,2.990357873535156,0,0,0,0
1.392342639999697,-0.11013327636718749,-10.024522351074218,2.8622680847167965,0,0,0,0
1.3938872540020384,-0.14484920043945312,-10.001777435302733,2.6659435485839844,0,0,0,0
1.3959849550010404,-0.13646949462890623,-9.975441217041014,2.597708801269531,0,0,0,0
1.3971623870020267,-0.11851298217773437,-9.943119494628906,2.5007436340332028,0,0,0,0
1.3983269869931974,-0.105344873046875,-9.883264453125,2.463633508300781,0,0,0,0
1.3997121949942084,-0.08259995727539061,-9.86411083984375,2.437297290039062,0,0,0,0
1.4009685899945907,-0.058657940673828124,-9.853336932373047,2.4253262817382812,0,0,0,0
1.4020926340017468,-0.017956512451171875,-9.846154327392577,2.4289175842285156,0,0,0,0
1.4032826780021423,0.031124621582031248,-9.834183319091796,2.4349030883789062,0,0,0,0
1.404623256996274,0.11252747802734374,-9.777919580078125,2.43250888671875,0,0,0,0
1.4058486519934377,0.1304839904785156,-9.740809454345703,2.416946575927734,0,0,0,0
1.4069555110036163,0.13168109130859373,-9.70968483276367,2.3834277526855465,0,0,0,0
1.408043629999156,0.12449848632812499,-9.690531219482422,2.3331495178222657,0,0,0,0
1.4091294340032618,0.11372457885742186,-9.68454571533203,2.2014684265136717,0,0,0,0
1.4102845330053242,0.1005564697265625,-9.685742816162108,2.128445275878906,0,0,0,0
1.4116117049998138,0.08140285644531249,-9.702502227783203,2.0542250244140625,0,0,0,0
1.4127653790055774,0.07062894897460938,-9.712079034423828,1.9859902770996092,0,0,0,0
1.413910033996217,0.06105214233398437,-9.719261639404296,1.9237410339355467,0,0,0,0
1.4150055039935978,0.04908113403320312,-9.728838446044922,1.8722656982421875,0,0,0,0
1.416200862993719,0.03591302490234375,-9.744400756835937,1.7992425476074219,0,0,0,0
1.4173587770055747,0.022744915771484374,-9.801861596679688,1.7800889343261719,0,0,0,0
1.418454283993924,0.015562310791015624,-9.686939916992188,1.7717092285156248,0,0,0,0
1.4195439589966554,0.016759411621093748,-9.874884747314452,1.772906329345703,0,0,0,0
1.4206274479947751,0.03950432739257812,-9.90241806640625,1.782483135986328,0,0,0,0
1.4217899729992496,0.051475335693359374,-9.9215716796875,1.7944541442871094,0,0,0,0
1.4228937029984081,0.062249243164062495,-9.934739788818359,1.8076222534179687,0,0,0,0
1.4239949509938015,0.07422025146484375,-9.943119494628906,1.8195932617187498,0,0,0,0
1.4252889009949286,0.08858546142578125,-9.949104998779296,1.8327613708496093,0,0,0,0
1.426489555000444,0.10295067138671875,-9.957484704589843,1.8315642700195311,0,0,0,0
1.4276815430057468,0.11731588134765625,-9.964667309570311,1.8183961608886718,0,0,0,0
1.4287835139984963,0.10654197387695312,-9.97184991455078,1.7932570434570312,0,0,0,0
1.4298715769982664,0.08499415893554688,-9.974244116210937,1.7585411193847655,0,0,0,0
1.4309603620058624,0.058657940673828124,-9.97184991455078,1.714248388671875,0,0,0,0
1.4320517029991606,0.037110125732421874,-9.964667309570311,1.66636435546875,0,0,0,0
1.4332107469963375,0.022744915771484374,-9.951499200439452,1.5705962890624998,0,0,0,0
1.4343969759938773,0.015562310791015624,-9.903615167236328,1.5275006591796874,0,0,0,0
1.4355008720012847,0.013168109130859374,-9.87727894897461,1.4903905334472656,0,0,0,0
1.4365761579974787,0.010773907470703125,-9.85094273071289,1.4616601135253906,0,0,0,0
1.437650849999045,0.003591302490234375,-9.829394915771484,1.438915197753906,0,0,0,0
1.4389002079988131,0.001197100830078125,-9.81862100830078,1.4209586853027343,0,0,0,0
1.440022864000639,0.0,-9.811438403320311,1.4113818786621093,0,0,0,0
1.4411083529994357,0.001197100830078125,-9.807847100830077,1.4101847778320311,0,0,0,0
1.442198044998804,0.005985504150390624,-9.80066449584961,1.4281412902832031,0,0,0,0
1.4435056429938413,0.023942016601562498,-9.782707983398437,1.4413093994140624,0,0,0,0
1.444950555000105,0.03591302490234375,-9.773131176757811,1.456871710205078,0,0,0,0
1.4462355230061803,0.047884033203124995,-9.763554370117188,1.485602130126953,0,0,0,0
1.447344938002061,0.05985504150390625,-9.76235726928711,1.4939818359375,0,0,0,0
1.4490418469940778,0.07900865478515624,-9.79348189086914,1.4808137268066406,0,0,0,0
1.451527636992978,0.07422025146484375,-9.840168823242188,1.4688427185058592,0,0,0,0
1.4528826599998865,0.0526724365234375,-9.86411083984375,1.4508862060546874,0,0,0,0
1.4540721850062255,0.0383072265625,-9.884461553955077,1.4305354919433593,0,0,0,0
1.4552614699932747,0.025139117431640625,-9.90122096557617,1.3934253662109375,0,0,0,0
1.4565312530030496,0.016759411621093748,-9.9215716796875,1.3766659545898436,0,0,0,0
1.4576520010014065,0.008379705810546874,-9.929951385498047,1.3587094421386718,0,0,0,0
1.4589493950043106,0.0047884033203125,-9.93952819213867,1.3431471313476562,0,0,0,0
1.4602720300026704,0.0,-9.949104998779296,1.3156138122558594,0,0,0,0
1.4617089969979133,-0.0047884033203125,-9.963470208740233,1.3060370056152344,0,0,0,0
1.4628986330062617,-0.003591302490234375,-9.963470208740233,1.3024457031249999,0,0,0,0
1.4640835470054299,0.001197100830078125,-9.957484704589843,1.3060370056152344,0,0,0,0
1.4654937000013888,0.0047884033203125,-9.935936889648437,1.3096283081054687,0,0,0,0
1.4665855780040147,0.00718260498046875,-9.922768780517577,1.3096283081054687,0,0,0,0
1.467700141001842,0.008379705810546874,-9.906009368896484,1.3096283081054687,0,0,0,0
1.4687879260018235,0.013168109130859374,-9.87727894897461,1.303642803955078,0,0,0,0
1.471202660992276,0.031124621582031248,-9.866505041503906,1.291671795654297,0,0,0,0
1.4723833900061436,0.0383072265625,-9.855731134033203,1.2820949890136717,0,0,0,0
1.4737898759922246,0.04668693237304687,-9.829394915771484,1.2701239807128906,0,0,0,0
1.4752234170009615,0.04668693237304687,-9.95987890625,1.235408056640625,0,0,0,0
1.4766663649934344,0.0383072265625,-9.80066449584961,1.2174515441894531,0,0,0,0
1.4778066500002751,0.03591302490234375,-9.795876092529296,1.2042834350585936,0,0,0,0
1.4789090650010621,0.0383072265625,-9.791087689208984,1.1935095275878906,0,0,0,0
1.4801156269968487,0.040701428222656245,-9.789890588378906,1.1875240234375,0,0,0,0
1.4812788190029096,0.04548983154296875,-9.791087689208984,1.1863269226074218,0,0,0,0
1.4823679010005435,0.051475335693359374,-9.794678991699218,1.189918225097656,0,0,0,0
1.4834593150008004,0.05746083984375,-9.661800799560547,1.1947066284179686,0,0,0,0
1.4845434529997874,0.062249243164062495,-9.828197814941406,1.2018892333984375,0,0,0,0
1.4858537539985264,0.08140285644531249,-9.842563024902343,1.2114660400390624,0,0,0,0
1.4871880930004409,0.0909796630859375,-9.860519537353515,1.2234370483398436,0,0,0,0
1.488341265998315,0.09696516723632811,-9.892841259765625,1.246181964111328,0,0,0,0
1.4896317899983842,0.09696516723632811,-9.90840357055664,1.2509703674316406,0,0,0,0
1.4908611669961829,0.086191259765625,-9.922768780517577,1.2521674682617188,0,0,0,0
1.4922423009993508,0.07900865478515624,-9.937133990478515,1.2425906616210938,0,0,0,0
1.4934182519937167,0.07062894897460938,-9.947907897949218,1.2318167541503906,0,0,0,0
1.4945075010036817,0.062249243164062495,-9.957484704589843,1.2198457458496093,0,0,0,0
1.4955981749953935,0.0526724365234375,-9.958681805419921,1.2054805358886718,0,0,0,0
1.4966819599940209,0.0430956298828125,-9.958681805419921,1.189918225097656,0,0,0,0
1.4977657459967304,0.025139117431640625,-9.955090502929687,1.1767501159667968,0,0,0,0
1.4989504370023496,0.016759411621093748,-9.950302099609374,1.1659762084960936,0,0,0,0
1.5004902920045424,0.010773907470703125,-9.931148486328125,1.1552023010253905,0,0,0,0
1.5017076319927583,0.003591302490234375,-9.919177478027343,1.1528080993652343,0,0,0,0
1.5028823419997934,0.00239420166015625,-9.903615167236328,1.1540052001953125,0,0,0,0
1.504219791997457,0.0047884033203125,-9.886855755615233,1.159990704345703,0,0,0,0
1.5056719809945207,0.0143652099609375,-9.858125335693359,1.1755530151367186,0,0,0,0
1.5074837220017798,0.01915361328125,-9.828197814941406,1.1827356201171875,0,0,0,0
1.5086050249956315,0.022744915771484374,-9.81862100830078,1.189918225097656,0,0,0,0
1.5096954769978765,0.028730419921875,-9.810241302490233,1.1959037292480468,0,0,0,0
1.5108516509935725,0.033518823242187495,-9.803058697509766,1.1982979309082031,0,0,0,0
1.5121042499959003,0.03232172241210937,-9.798270294189452,1.199495031738281,0,0,0,0
1.5132706080039497,0.031124621582031248,-9.797073193359374,1.1947066284179686,0,0,0,0
1.5144480960007058,0.028730419921875,-9.79946739501953,1.1923124267578125,0,0,0,0
1.5161462830001255,0.02154781494140625,-9.807847100830077,1.1923124267578125,0,0,0,0
1.5174514730024384,0.01915361328125,-9.815029705810547,1.189918225097656,0,0,0,0
1.518804014995112,0.01915361328125,-9.836577520751952,1.1863269226074218,0,0,0,0
1.5207348849944538,0.022744915771484374,-9.86411083984375,1.180341418457031,0,0,0,0
1.5219751130061923,0.027533319091796873,-9.880870251464843,1.180341418457031,0,0,0,0
1.5232828959997278,0.03232172241210937,-9.898826763916015,1.1851298217773436,0,0,0,0
1.5246617899974808,0.03591302490234375,-9.928754284667969,1.1863269226074218,0,0,0,0
1.5258362220047275,0.03591302490234375,-9.93952819213867,1.1887211242675781,0,0,0,0
1.5269458410039078,0.034715924072265626,-9.945513696289062,1.1935095275878906,0,0,0,0
1.5281165140040684,0.034715924072265626,-9.947907897949218,1.1959037292480468,0,0,0,0
1.5293687800003681,0.0383072265625,-9.944316595458984,1.1959037292480468,0,0,0,0
1.5309073940006783,0.04668693237304687,-9.938331091308592,1.1935095275878906,0,0,0,0
1.5321264740050538,0.04908113403320312,-9.929951385498047,1.1875240234375,0,0,0,0
1.5332244809978874,0.051475335693359374,-9.920374578857421,1.180341418457031,0,0,0,0
1.534379506992991,0.05386953735351562,-9.913191973876952,1.159990704345703,0,0,0,0
1.5356892340059858,0.055066638183593745,-9.90122096557617,1.1480196960449218,0,0,0,0
1.5368216119968565,0.051475335693359374,-9.89523546142578,1.1360486877441405,0,0,0,0
1.537920396993286,0.04908113403320312,-9.885658654785155,1.1252747802734375,0,0,0,0
1.5390056269970955,0.04908113403320312,-9.871293444824218,1.1156979736328125,0,0,0,0
1.540174541005399,0.051475335693359374,-9.85094273071289,1.1049240661621094,0,0,0,0
1.5416733960009879,0.055066638183593745,-9.807847100830077,1.102529864501953,0,0,0,0
1.54280573700089,0.05985504150390625,-9.792284790039062,1.102529864501953,0,0,0,0
1.5439427999954205,0.06105214233398437,-9.781510882568359,1.1013327636718748,0,0,0,0
1.5450321399985114,0.06105214233398437,-9.775525378417969,1.0989385620117187,0,0,0,0
1.5465717549959663,0.06105214233398437,-9.767145672607422,1.102529864501953,0,0,0,0
1.5477755019965116,0.06344634399414062,-9.765948571777344,1.1085153686523437,0,0,0,0
1.5488998789951438,0.06584054565429687,-9.765948571777344,1.1180921752929687,0,0,0,0
1.5504228079953464,0.06703764648437499,-9.763554370117188,1.139639990234375,0,0,0,0
1.553500611000345,0.06464344482421874,-9.7683427734375,1.1552023010253905,0,0,0,0
1.55523305600218,0.05746083984375,-9.788693487548828,1.158793603515625,0,0,0,0
1.5567932440026198,0.04908113403320312,-9.815029705810547,1.1635820068359375,0,0,0,0
1.55917644299916,0.040701428222656245,-9.832986218261718,1.1659762084960936,0,0,0,0
1.5613946609955747,0.033518823242187495,-9.849745629882811,1.1647791076660157,0,0,0,0
1.5629617929953383,0.020350714111328123,-9.853336932373047,1.1635820068359375,0,0,0,0
1.5653312700014794,0.017956512451171875,-9.853336932373047,1.16837041015625,0,0,0,0
1.5673105089954333,0.023942016601562498,-9.848548529052733,1.1731588134765625,0,0,0,0
1.5688780670025153,0.03232172241210937,-9.847351428222655,1.1755530151367186,0,0,0,0
1.5709169170004316,0.033518823242187495,-9.85094273071289,1.180341418457031,0,0,0,0
1.5729229339922313,0.027533319091796873,-9.85692823486328,1.16837041015625,0,0,0,0
1.5745699539984344,0.02154781494140625,-9.834183319091796,1.1552023010253905,0,0,0,0
1.5766713589982828,0.022744915771484374,-9.809044201660155,1.1480196960449218,0,0,0,0
1.5783758610050427,0.034715924072265626,-9.79348189086914,1.140837091064453,0,0,0,0
1.5807501139934175,0.037110125732421874,-9.792284790039062,1.131260284423828,0,0,0,0
1.5826535579981282,0.03232172241210937,-9.803058697509766,1.1192892761230469,0,0,0,0
1.5842528200009838,0.033518823242187495,-9.804255798339844,1.1180921752929687,0,0,0,0
1.5861108200042509,0.0430956298828125,-9.801861596679688,1.1252747802734375,0,0,0,0
1.5873944549966836,0.05027823486328125,-9.797073193359374,1.1324573852539062,0,0,0,0
1.5886018500023056,0.05746083984375,-9.792284790039062,1.1324573852539062,0,0,0,0
1.5897788940055761,0.06105214233398437,-9.795876092529296,1.13006318359375,0,0,0,0
1.5909564750036225,0.05626373901367187,-9.804255798339844,1.1252747802734375,0,0,0,0
1.5925201259960886,0.051475335693359374,-9.816226806640625,1.1133037719726562,0,0,0,0
1.5938254829961807,0.04908113403320312,-9.836577520751952,1.1085153686523437,0,0,0,0
1.5950234710035147,0.05386953735351562,-9.841365924072266,1.1073182678222655,0,0,0,0
1.5962176250031916,0.05985504150390625,-9.841365924072266,1.1073182678222655,0,0,0,0
1.5974730390007608,0.06344634399414062,-9.83897172241211,1.112106671142578,0,0,0,0
1.5987184520054143,0.06464344482421874,-9.829394915771484,1.1133037719726562,0,0,0,0
1.5999049770034617,0.06105214233398437,-9.829394915771484,1.1133037719726562,0,0,0,0
1.6010810580046382,0.05985504150390625,-9.830592016601562,1.1156979736328125,0,0,0,0
1.6026567270018859,0.05746083984375,-9.835380419921874,1.1228805786132812,0,0,0,0
1.6040019359934377,0.055066638183593745,-9.836577520751952,1.1264718811035155,0,0,0,0
1.60522172000492,0.05626373901367187,-9.836577520751952,1.1276689819335937,0,0,0,0
1.606392818997847,0.05746083984375,-9.835380419921874,1.1336544860839843,0,0,0,0
1.6077338979957858,0.05746083984375,-9.83178911743164,1.1348515869140625,0,0,0,0
1.6094007339997916,0.05027823486328125,-9.830592016601562,1.1384428894042968,0,0,0,0
1.6107411830016645,0.044292730712890624,-9.835380419921874,1.140837091064453,0,0,0,0
1.6121549649978988,0.03591302490234375,-9.83777462158203,1.1420341918945311,0,0,0,0
1.6137356340041151,0.033518823242187495,-9.841365924072266,1.1468225952148436,0,0,0,0
1.615068398998119,0.028730419921875,-9.842563024902343,1.1480196960449218,0,0,0,0
1.6163096639938885,0.027533319091796873,-9.8449572265625,1.1480196960449218,0,0,0,0
1.6175033930048812,0.023942016601562498,-9.847351428222655,1.149216796875,0,0,0,0
1.6187588430038886,0.01915361328125,-9.85692823486328,1.1516109985351561,0,0,0,0
1.6200057749956613,0.011971008300781249,-9.86291373901367,1.1540052001953125,0,0,0,0
1.6211913370061666,0.011971008300781249,-9.868899243164062,1.1575965026855468,0,0,0,0
1.622927226999309,0.015562310791015624,-9.87009634399414,1.1611878051757811,0,0,0,0
1.6242502509994665,0.016759411621093748,-9.866505041503906,1.159990704345703,0,0,0,0
1.625843123998493,0.020350714111328123,-9.860519537353515,1.159990704345703,0,0,0,0
1.6270584629965015,0.023942016601562498,-9.855731134033203,1.1575965026855468,0,0,0,0
1.6284734679938992,0.02633621826171875,-9.853336932373047,1.1516109985351561,0,0,0,0
1.630116229003761,0.031124621582031248,-9.85692823486328,1.1456254943847655,0,0,0,0
1.6315210290049436,0.03232172241210937,-9.860519537353515,1.139639990234375,0,0,0,0
1.6327158880012576,0.03232172241210937,-9.859322436523437,1.139639990234375,0,0,0,0
1.6341822620015591,0.037110125732421874,-9.855731134033203,1.1420341918945311,0,0,0,0
1.63586946700525,0.0430956298828125,-9.842563024902343,1.1432312927246093,0,0,0,0
1.6371133249922423,0.044292730712890624,-9.83897172241211,1.1432312927246093,0,0,0,0
1.6385569590056548,0.04548983154296875,-9.836577520751952,1.1372457885742187,0,0,0,0
1.6400649249990238,0.047884033203124995,-9.841365924072266,1.1360486877441405,0,0,0,0
1.6412008949992014,0.04908113403320312,-9.8449572265625,1.1348515869140625,0,0,0,0
1.6422906429943396,0.04908113403320312,-9.848548529052733,1.1348515869140625,0,0,0,0
1.6437132589926478,0.04668693237304687,-9.854534033203125,1.1360486877441405,0,0,0,0
1.6449129130051006,0.04908113403320312,-9.855731134033203,1.1384428894042968,0,0,0,0
1.6460762899951078,0.05027823486328125,-9.855731134033203,1.140837091064453,0,0,0,0
1.6471978350018617,0.04908113403320312,-9.854534033203125,1.1420341918945311,0,0,0,0
1.648605783993844,0.047884033203124995,-9.853336932373047,1.1432312927246093,0,0,0,0
1.6498176970053464,0.04668693237304687,-9.854534033203125,1.1432312927246093,0,0,0,0
1.650983796993387,0.04668693237304687,-9.855731134033203,1.1420341918945311,0,0,0,0
1.6520733969955472,0.04908113403320312,-9.858125335693359,1.1384428894042968,0,0,0,0
1.6534724009979982,0.04908113403320312,-9.861716638183593,1.1288660827636718,0,0,0,0
1.6546700369945029,0.04668693237304687,-9.867702142333984,1.1264718811035155,0,0,0,0
1.6558315069996752,0.04548983154296875,-9.868899243164062,1.1240776794433593,0,0,0,0
1.6569259779935237,0.04548983154296875,-9.867702142333984,1.1240776794433593,0,0,0,0
1.6580088930058992,0.04548983154296875,-9.86411083984375,1.1240776794433593,0,0,0,0
1.6590904559998307,0.04548983154296875,-9.860519537353515,1.1264718811035155,0,0,0,0
1.6606207549921237,0.04548983154296875,-9.85692823486328,1.1288660827636718,0,0,0,0
1.6617907990003005,0.047884033203124995,-9.855731134033203,1.131260284423828,0,0,0,0
1.6628843619982945,0.04908113403320312,-9.855731134033203,1.1336544860839843,0,0,0,0
1.6639705919951666,0.047884033203124995,-9.855731134033203,1.1360486877441405,0,0,0,0
1.665401374004432,0.04668693237304687,-9.858125335693359,1.1384428894042968,0,0,0,0
1.6665911210002378,0.04548983154296875,-9.860519537353515,1.1420341918945311,0,0,0,0
1.6677437949983869,0.0430956298828125,-9.86411083984375,1.1444283935546875,0,0,0,0
1.6688421729922993,0.04189852905273437,-9.86291373901367,1.1480196960449218,0,0,0,0
1.6699258470034692,0.04189852905273437,-9.861716638183593,1.149216796875,0,0,0,0
1.671011743004783,0.040701428222656245,-9.859322436523437,1.150413897705078,0,0,0,0
1.672562541993102,0.0383072265625,-9.858125335693359,1.1552023010253905,0,0,0,0
1.6737285489944043,0.037110125732421874,-9.858125335693359,1.1563994018554686,0,0,0,0
1.6748268350056605,0.037110125732421874,-9.859322436523437,1.1563994018554686,0,0,0,0
1.6767796109925257,0.03591302490234375,-9.866505041503906,1.1552023010253905,0,0,0,0
1.6784052989969496,0.031124621582031248,-9.868899243164062,1.1528080993652343,0,0,0,0
1.679620712005999,0.029927520751953124,-9.87009634399414,1.1480196960449218,0,0,0,0
1.6807996819989057,0.028730419921875,-9.87009634399414,1.1480196960449218,0,0,0,0
1.6822521860012785,0.028730419921875,-9.867702142333984,1.150413897705078,0,0,0,0
1.6837188009958481,0.028730419921875,-9.86291373901367,1.150413897705078,0,0,0,0
1.6849331029952737,0.029927520751953124,-9.860519537353515,1.150413897705078,0,0,0,0
1.6861042399978032,0.031124621582031248,-9.859322436523437,1.1516109985351561,0,0,0,0
1.6875769100006437,0.03232172241210937,-9.860519537353515,1.1468225952148436,0,0,0,0
1.6890235809987644,0.037110125732421874,-9.86411083984375,1.1444283935546875,0,0,0,0
1.69024395699671,0.0383072265625,-9.865307940673828,1.140837091064453,0,0,0,0
1.6914212970004883,0.0383072265625,-9.86411083984375,1.1372457885742187,0,0,0,0
1.6928063389932504,0.03950432739257812,-9.86291373901367,1.131260284423828,0,0,0,0
1.6950852970039705,0.03950432739257812,-9.858125335693359,1.1288660827636718,0,0,0,0
1.6963267289975192,0.0430956298828125,-9.855731134033203,1.1288660827636718,0,0,0,0
1.6974861990020145,0.047884033203124995,-9.852139831542969,1.1276689819335937,0,0,0,0
1.6986455949954689,0.051475335693359374,-9.849745629882811,1.1252747802734375,0,0,0,0
1.7001579130010214,0.05746083984375,-9.853336932373047,1.1228805786132812,0,0,0,0
1.7012953090015799,0.058657940673828124,-9.860519537353515,1.1228805786132812,0,0,0,0
1.7023846310039517,0.06105214233398437,-9.866505041503906,1.1228805786132812,0,0,0,0
1.7034707690036157,0.06344634399414062,-9.868899243164062,1.121683477783203,0,0,0,0
1.7046118680009386,0.06464344482421874,-9.87009634399414,1.120486376953125,0,0,0,0
1.7057703009922989,0.06464344482421874,-9.865307940673828,1.1240776794433593,0,0,0,0
1.7072643410065211,0.06464344482421874,-9.861716638183593,1.1276689819335937,0,0,0,0
1.7084879769972758,0.06703764648437499,-9.858125335693359,1.1264718811035155,0,0,0,0
1.7098328529973514,0.06943184814453125,-9.859322436523437,1.1228805786132812,0,0,0,0
1.7111127469979692,0.06703764648437499,-9.861716638183593,1.1228805786132812,0,0,0,0
1.7123769009922398,0.06584054565429687,-9.86411083984375,1.1240776794433593,0,0,0,0
1.7137316839944106,0.06344634399414062,-9.871293444824218,1.1228805786132812,0,0,0,0
1.715161817992339,0.05985504150390625,-9.872490545654296,1.121683477783203,0,0,0,0
1.716525971001829,0.05746083984375,-9.872490545654296,1.1240776794433593,0,0,0,0
1.7179334749962436,0.05626373901367187,-9.87009634399414,1.1240776794433593,0,0,0,0
1.7192569059989182,0.04908113403320312,-9.868899243164062,1.1240776794433593,0,0,0,0
1.7205963369924575,0.04668693237304687,-9.867702142333984,1.1228805786132812,0,0,0,0
1.7218656949989963,0.044292730712890624,-9.86411083984375,1.1240776794433593,0,0,0,0
1.7230542570032412,0.040701428222656245,-9.86291373901367,1.1240776794433593,0,0,0,0
1.7242930780048482,0.0383072265625,-9.86411083984375,1.1240776794433593,0,0,0,0
1.725586212996859,0.034715924072265626,-9.865307940673828,1.1252747802734375,0,0,0,0
1.7267808119941037,0.033518823242187495,-9.865307940673828,1.1240776794433593,0,0,0,0
1.7278932079934748,0.034715924072265626,-9.86411083984375,1.1252747802734375,0,0,0,0
1.7289834010007326,0.034715924072265626,-9.861716638183593,1.1264718811035155,0,0,0,0
1.7300720750063192,0.034715924072265626,-9.858125335693359,1.131260284423828,0,0,0,0
1.731514208993758,0.034715924072265626,-9.854534033203125,1.1372457885742187,0,0,0,0
1.7326969929999905,0.03591302490234375,-9.854534033203125,1.1384428894042968,0,0,0,0
1.733796814995003,0.034715924072265626,-9.85692823486328,1.140837091064453,0,0,0,0
1.734883433993673,0.031124621582031248,-9.859322436523437,1.1432312927246093,0,0,0,0
1.7359758300008252,0.028730419921875,-9.86411083984375,1.1456254943847655,0,0,0,0
1.7374010380008258,0.029927520751953124,-9.87009634399414,1.1480196960449218,0,0,0,0
1.738612988992827,0.031124621582031248,-9.873687646484374,1.1516109985351561,0,0,0,0
1.739718755998183,0.03232172241210937,-9.87608184814453,1.150413897705078,0,0,0,0
1.7408068369986722,0.033518823242187495,-9.878476049804688,1.150413897705078,0,0,0,0
1.7418981600058032,0.031124621582031248,-9.880870251464843,1.1528080993652343,0,0,0,0
1.743312460006564,0.027533319091796873,-9.882067352294921,1.1540052001953125,0,0,0,0
1.7445300039980793,0.02633621826171875,-9.882067352294921,1.1516109985351561,0,0,0,0
1.7456254179996904,0.027533319091796873,-9.882067352294921,1.149216796875,0,0,0,0
1.7469258869969053,0.031124621582031248,-9.882067352294921,1.1480196960449218,0,0,0,0
1.7489253300009295,0.03591302490234375,-9.87727894897461,1.1432312927246093,0,0,0,0
1.7503172970027663,0.0383072265625,-9.874884747314452,1.140837091064453,0,0,0,0
1.7515101000026334,0.03950432739257812,-9.872490545654296,1.1384428894042968,0,0,0,0
1.752608737006085,0.03950432739257812,-9.868899243164062,1.131260284423828,0,0,0,0
1.753696800005855,0.040701428222656245,-9.860519537353515,1.131260284423828,0,0,0,0
1.755148359996383,0.044292730712890624,-9.855731134033203,1.13006318359375,0,0,0,0
1.7564935499976855,0.047884033203124995,-9.849745629882811,1.1276689819335937,0,0,0,0
1.7575856129988097,0.04908113403320312,-9.8449572265625,1.1228805786132812,0,0,0,0
1.7591884669964202,0.05027823486328125,-9.835380419921874,1.120486376953125,0,0,0,0
1.7603923620044952,0.04908113403320312,-9.834183319091796,1.1192892761230469,0,0,0,0
1.7614890550030395,0.04668693237304687,-9.83777462158203,1.1180921752929687,0,0,0,0
1.7625764520053053,0.04548983154296875,-9.83897172241211,1.1156979736328125,0,0,0,0
1.7636736069980543,0.044292730712890624,-9.842563024902343,1.1168950744628905,0,0,0,0
1.7653591639973456,0.044292730712890624,-9.841365924072266,1.1192892761230469,0,0,0,0
1.7665208560065366,0.04668693237304687,-9.840168823242188,1.1228805786132812,0,0,0,0
1.767618179001147,0.04908113403320312,-9.83777462158203,1.1288660827636718,0,0,0,0
1.7690002939925762,0.05027823486328125,-9.834183319091796,1.1324573852539062,0,0,0,0
1.7703573549952125,0.04668693237304687,-9.83777462158203,1.1360486877441405,0,0,0,0
1.7715195469936589,0.04668693237304687,-9.842563024902343,1.1372457885742187,0,0,0,0
1.7726106649934081,0.04548983154296875,-9.846154327392577,1.1372457885742187,0,0,0,0
1.7741921309934696,0.03950432739257812,-9.852139831542969,1.1372457885742187,0,0,0,0
1.7754084710031748,0.037110125732421874,-9.85094273071289,1.1384428894042968,0,0,0,0
1.7764880890026689,0.034715924072265626,-9.848548529052733,1.1384428894042968,0,0,0,0
1.7775542080053128,0.033518823242187495,-9.846154327392577,1.1384428894042968,0,0,0,0
1.7786235120001948,0.03232172241210937,-9.841365924072266,1.140837091064453,0,0,0,0
1.7797868899942841,0.031124621582031248,-9.83777462158203,1.1420341918945311,0,0,0,0
1.7818614239949966,0.029927520751953124,-9.834183319091796,1.1384428894042968,0,0,0,0
1.7831611699948553,0.028730419921875,-9.836577520751952,1.1372457885742187,0,0,0,0
1.78426547399431,0.028730419921875,-9.836577520751952,1.1372457885742187,0,0,0,0
1.7854266659996938,0.027533319091796873,-9.835380419921874,1.1384428894042968,0,0,0,0
1.7865956909954548,0.02633621826171875,-9.834183319091796,1.140837091064453,0,0,0,0
1.7876912920037284,0.023942016601562498,-9.832986218261718,1.149216796875,0,0,0,0
1.7887796510040062,0.022744915771484374,-9.83178911743164,1.1516109985351561,0,0,0,0
1.7898635290039238,0.02154781494140625,-9.828197814941406,1.1552023010253905,0,0,0,0
1.792607298004441,0.020350714111328123,-9.822212310791015,1.1623849060058593,0,0,0,0
1.7938401190040167,0.02154781494140625,-9.821015209960937,1.1623849060058593,0,0,0,0
1.7949926069995854,0.023942016601562498,-9.822212310791015,1.1635820068359375,0,0,0,0
1.7962164460041095,0.022744915771484374,-9.823409411621093,1.1635820068359375,0,0,0,0
1.7974870820034994,0.022744915771484374,-9.827000714111328,1.1623849060058593,0,0,0,0
1.7987586249946617,0.022744915771484374,-9.830592016601562,1.158793603515625,0,0,0,0
1.799976020003669,0.022744915771484374,-9.83178911743164,1.1563994018554686,0,0,0,0
1.8016095030034194,0.023942016601562498,-9.830592016601562,1.1540052001953125,0,0,0,0
1.8032253020064672,0.027533319091796873,-9.82580361328125,1.1552023010253905,0,0,0,0
1.8044462899997598,0.031124621582031248,-9.823409411621093,1.1540052001953125,0,0,0,0
1.8056247039930895,0.03232172241210937,-9.823409411621093,1.1528080993652343,0,0,0,0
1.8070956699957605,0.034715924072265626,-9.82580361328125,1.1456254943847655,0,0,0,0
1.8085834520024946,0.03591302490234375,-9.828197814941406,1.140837091064453,0,0,0,0
1.8099872890015831,0.03591302490234375,-9.832986218261718,1.1384428894042968,0,0,0,0
1.811156925992691,0.0383072265625,-9.832986218261718,1.1384428894042968,0,0,0,0
1.8123435430024983,0.040701428222656245,-9.830592016601562,1.1384428894042968,0,0,0,0
1.8135038839973276,0.044292730712890624,-9.827000714111328,1.1372457885742187,0,0,0,0
1.8146008170006098,0.04668693237304687,-9.82460651245117,1.1360486877441405,0,0,0,0
1.8157008800044423,0.047884033203124995,-9.823409411621093,1.1288660827636718,0,0,0,0
1.8168360349955037,0.04908113403320312,-9.822212310791015,1.1252747802734375,0,0,0,0
1.817995838006027,0.05027823486328125,-9.82580361328125,1.1228805786132812,0,0,0,0
1.8193284729932202,0.05027823486328125,-9.828197814941406,1.1228805786132812,0,0,0,0
1.8206388120015617,0.047884033203124995,-9.83178911743164,1.1228805786132812,0,0,0,0
1.8218783180054743,0.04668693237304687,-9.83777462158203,1.121683477783203,0,0,0,0
1.8229876590048661,0.044292730712890624,-9.83897172241211,1.1228805786132812,0,0,0,0
1.8240750919940183,0.04189852905273437,-9.840168823242188,1.1264718811035155,0,0,0,0
1.8254397449927637,0.04189852905273437,-9.841365924072266,1.1288660827636718,0,0,0,0
1.826900415995624,0.04189852905273437,-9.840168823242188,1.1288660827636718,0,0,0,0
1.828040181993856,0.040701428222656245,-9.842563024902343,1.1276689819335937,0,0,0,0
1.8291348380007548,0.037110125732421874,-9.8449572265625,1.1264718811035155,0,0,0,0
1.8303483619965846,0.037110125732421874,-9.849745629882811,1.1276689819335937,0,0,0,0
1.832061604000046,0.037110125732421874,-9.859322436523437,1.1288660827636718,0,0,0,0
1.833298518002266,0.03591302490234375,-9.86411083984375,1.131260284423828,0,0,0,0
1.8344117660017218,0.033518823242187495,-9.865307940673828,1.1348515869140625,0,0,0,0
1.835650438995799,0.031124621582031248,-9.86411083984375,1.1384428894042968,0,0,0,0
1.8370330540055875,0.03232172241210937,-9.86291373901367,1.140837091064453,0,0,0,0
1.838128561998019,0.033518823242187495,-9.861716638183593,1.1432312927246093,0,0,0,0
1.8392263470013859,0.034715924072265626,-9.861716638183593,1.1444283935546875,0,0,0,0
1.8404261310060974,0.033518823242187495,-9.86291373901367,1.1420341918945311,0,0,0,0
1.8418137099943124,0.03232172241210937,-9.86411083984375,1.1384428894042968,0,0,0,0
1.8430021980020683,0.03232172241210937,-9.868899243164062,1.1384428894042968,0,0,0,0
1.8442782039928716,0.03591302490234375,-9.871293444824218,1.139639990234375,0,0,0,0
1.8455164879997028,0.037110125732421874,-9.871293444824218,1.139639990234375,0,0,0,0
1.846733401005622,0.037110125732421874,-9.872490545654296,1.1384428894042968,0,0,0,0
1.8478352230013115,0.03591302490234375,-9.871293444824218,1.1372457885742187,0,0,0,0
1.8489217500027735,0.034715924072265626,-9.867702142333984,1.1360486877441405,0,0,0,0
1.8500086090061814,0.033518823242187495,-9.866505041503906,1.1360486877441405,0,0,0,0
1.8512593369960086,0.034715924072265626,-9.86411083984375,1.1372457885742187,0,0,0,0
1.8524288070038892,0.034715924072265626,-9.86291373901367,1.1372457885742187,0,0,0,0
1.8535480730060954,0.03591302490234375,-9.86291373901367,1.1384428894042968,0,0,0,0
1.854666172992438,0.03591302490234375,-9.86411083984375,1.139639990234375,0,0,0,0
1.8558674939995399,0.03591302490234375,-9.867702142333984,1.140837091064453,0,0,0,0
1.857116371000302,0.037110125732421874,-9.868899243164062,1.139639990234375,0,0,0,0
1.8582859699963592,0.037110125732421874,-9.871293444824218,1.1384428894042968,0,0,0,0
1.8593948110064957,0.0383072265625,-9.872490545654296,1.1372457885742187,0,0,0,0
1.8606555389997084,0.03950432739257812,-9.87009634399414,1.1336544860839843,0,0,0,0
1.861911247993703,0.03950432739257812,-9.867702142333984,1.13006318359375,0,0,0,0
1.8631419400044251,0.03950432739257812,-9.86291373901367,1.1252747802734375,0,0,0,0
1.8643457800062606,0.040701428222656245,-9.86291373901367,1.1228805786132812,0,0,0,0
1.8656866550009,0.04189852905273437,-9.86291373901367,1.1192892761230469,0,0,0,0
1.8669157910044305,0.0430956298828125,-9.86291373901367,1.1168950744628905,0,0,0,0
1.868191740999464,0.04548983154296875,-9.867702142333984,1.1156979736328125,0,0,0,0
1.869357507006498,0.04548983154296875,-9.866505041503906,1.1145008728027344,0,0,0,0
1.870528921004734,0.04668693237304687,-9.866505041503906,1.1133037719726562,0,0,0,0
1.87182748199848,0.04908113403320312,-9.86411083984375,1.1109095703125,0,0,0,0
1.8730007669946644,0.0526724365234375,-9.85692823486328,1.1145008728027344,0,0,0,0
1.8741909209929872,0.05386953735351562,-9.854534033203125,1.1156979736328125,0,0,0,0
1.8754479460039875,0.0526724365234375,-9.853336932373047,1.1133037719726562,0,0,0,0
1.8765463599993382,0.0526724365234375,-9.854534033203125,1.1109095703125,0,0,0,0
1.877703329999349,0.0526724365234375,-9.855731134033203,1.1073182678222655,0,0,0,0
1.8789050589984981,0.051475335693359374,-9.858125335693359,1.1061211669921875,0,0,0,0
1.8800011220009765,0.051475335693359374,-9.861716638183593,1.1061211669921875,0,0,0,0
1.8812880350014893,0.05027823486328125,-9.86291373901367,1.1085153686523437,0,0,0,0
1.8824474120046943,0.04908113403320312,-9.861716638183593,1.1097124694824219,0,0,0,0
1.883765566002694,0.047884033203124995,-9.861716638183593,1.1109095703125,0,0,0,0
1.884913294998114,0.04668693237304687,-9.861716638183593,1.1097124694824219,0,0,0,0
1.8860043210006552,0.04668693237304687,-9.858125335693359,1.1085153686523437,0,0,0,0
1.887090125004761,0.04548983154296875,-9.85692823486328,1.1109095703125,0,0,0,0
1.8885331100027543,0.04548983154296875,-9.858125335693359,1.1156979736328125,0,0,0,0
1.8899746509996476,0.04548983154296875,-9.860519537353515,1.1145008728027344,0,0,0,0
1.8911544169968693,0.04548983154296875,-9.86291373901367,1.112106671142578,0,0,0,0
1.892776438005967,0.04548983154296875,-9.865307940673828,1.1133037719726562,0,0,0,0
1.894105165003566,0.044292730712890624,-9.867702142333984,1.1133037719726562,0,0,0,0
1.8952789309987566,0.03950432739257812,-9.866505041503906,1.112106671142578,0,0,0,0
1.896392549999291,0.0383072265625,-9.865307940673828,1.112106671142578,0,0,0,0
1.8977493319980567,0.037110125732421874,-9.859322436523437,1.112106671142578,0,0,0,0
1.8996456650056643,0.037110125732421874,-9.858125335693359,1.1145008728027344,0,0,0,0
1.9008033760037506,0.037110125732421874,-9.858125335693359,1.1156979736328125,0,0,0,0
1.9020673259947216,0.03591302490234375,-9.861716638183593,1.1133037719726562,0,0,0,0
1.9039414739963831,0.03591302490234375,-9.86411083984375,1.1156979736328125,0,0,0,0
1.90510196199466,0.034715924072265626,-9.867702142333984,1.1168950744628905,0,0,0,0
1.9061933769989992,0.03591302490234375,-9.867702142333984,1.1192892761230469,0,0,0,0
1.9072823290043743,0.03591302490234375,-9.867702142333984,1.120486376953125,0,0,0,0
1.9086027049925178,0.037110125732421874,-9.865307940673828,1.1228805786132812,0,0,0,0
1.9100366159982514,0.037110125732421874,-9.860519537353515,1.1252747802734375,0,0,0,0
1.911340343998745,0.0383072265625,-9.859322436523437,1.1240776794433593,0,0,0,0
1.9126531819929369,0.0383072265625,-9.859322436523437,1.1228805786132812,0,0,0,0
1.9138169850048143,0.03950432739257812,-9.860519537353515,1.1240776794433593,0,0,0,0
1.9149773810058832,0.040701428222656245,-9.866505041503906,1.1240776794433593,0,0,0,0
1.9162903310061665,0.037110125732421874,-9.868899243164062,1.1228805786132812,0,0,0,0
1.9173861900053453,0.037110125732421874,-9.871293444824218,1.120486376953125,0,0,0,0
1.918713602994103,0.03950432739257812,-9.87009634399414,1.1180921752929687,0,0,0,0
1.920577102995594,0.040701428222656245,-9.868899243164062,1.1156979736328125,0,0,0,0
1.9218021830020007,0.04189852905273437,-9.865307940673828,1.112106671142578,0,0,0,0
1.9229021719947923,0.0430956298828125,-9.860519537353515,1.1097124694824219,0,0,0,0
1.923994679003954,0.0430956298828125,-9.855731134033203,1.1085153686523437,0,0,0,0
1.9252371299953666,0.0430956298828125,-9.854534033203125,1.1049240661621094,0,0,0,0
1.9263998219976202,0.04668693237304687,-9.853336932373047,1.1037269653320312,0,0,0,0
1.9275974949996453,0.04668693237304687,-9.853336932373047,1.1037269653320312,0,0,0,0
1.9287763530010125,0.047884033203124995,-9.853336932373047,1.1013327636718748,0,0,0,0
1.9299110830033896,0.04908113403320312,-9.853336932373047,1.102529864501953,0,0,0,0
1.9312002740043681,0.05027823486328125,-9.848548529052733,1.102529864501953,0,0,0,0
1.9325322229997255,0.05027823486328125,-9.846154327392577,1.102529864501953,0,0,0,0
1.9337005449924618,0.04908113403320312,-9.841365924072266,1.102529864501953,0,0,0,0
1.9348018849996151,0.05027823486328125,-9.83777462158203,1.102529864501953,0,0,0,0
1.935896855997271,0.051475335693359374,-9.836577520751952,1.1037269653320312,0,0,0,0
1.9369888819928747,0.0526724365234375,-9.83777462158203,1.1049240661621094,0,0,0,0
1.938237462003599,0.0526724365234375,-9.841365924072266,1.1049240661621094,0,0,0,0
1.939526615999057,0.051475335693359374,-9.8449572265625,1.1061211669921875,0,0,0,0
1.9407022149971453,0.05027823486328125,-9.848548529052733,1.1061211669921875,0,0,0,0
1.9418775740050478,0.04908113403320312,-9.852139831542969,1.112106671142578,0,0,0,0
1.9429721740016248,0.04668693237304687,-9.854534033203125,1.1168950744628905,0,0,0,0
1.9442281049996382,0.04668693237304687,-9.855731134033203,1.1228805786132812,0,0,0,0
1.9454569999943487,0.05027823486328125,-9.854534033203125,1.1264718811035155,0,0,0,0
1.9465544340055203,0.05027823486328125,-9.853336932373047,1.1276689819335937,0,0,0,0
1.9480492709990358,0.05027823486328125,-9.855731134033203,1.1324573852539062,0,0,0,0
1.9494576639990555,0.05027823486328125,-9.858125335693359,1.13006318359375,0,0,0,0
1.9507465030037565,0.04908113403320312,-9.861716638183593,1.1264718811035155,0,0,0,0
1.9520649899932323,0.047884033203124995,-9.866505041503906,1.1276689819335937,0,0,0,0
1.9532987179991324,0.0430956298828125,-9.866505041503906,1.13006318359375,0,0,0,0
1.9544791319931392,0.040701428222656245,-9.865307940673828,1.131260284423828,0,0,0,0
1.955734618997667,0.03950432739257812,-9.86291373901367,1.131260284423828,0,0,0,0
1.95688984800654,0.0383072265625,-9.858125335693359,1.1360486877441405,0,0,0,0
1.9579985970049165,0.0383072265625,-9.854534033203125,1.1372457885742187,0,0,0,0
1.95907369699853,0.0383072265625,-9.852139831542969,1.1372457885742187,0,0,0,0
1.9601584640040528,0.037110125732421874,-9.849745629882811,1.1360486877441405,0,0,0,0
1.9615767460054485,0.037110125732421874,-9.849745629882811,1.1348515869140625,0,0,0,0
1.962858361992403,0.037110125732421874,-9.85094273071289,1.1348515869140625,0,0,0,0
1.9639619619993027,0.037110125732421874,-9.853336932373047,1.1348515869140625,0,0,0,0
1.965112802994554,0.034715924072265626,-9.854534033203125,1.1348515869140625,0,0,0,0
1.9666187319962773,0.03591302490234375,-9.853336932373047,1.1372457885742187,0,0,0,0
1.9679079039924545,0.0383072265625,-9.85094273071289,1.140837091064453,0,0,0,0
1.9690030039928388,0.0383072265625,-9.847351428222655,1.140837091064453,0,0,0,0
1.9713285360048758,0.04189852905273437,-9.841365924072266,1.139639990234375,0,0,0,0
1.9725582279934315,0.0430956298828125,-9.840168823242188,1.1384428894042968,0,0,0,0
1.9736534760013456,0.044292730712890624,-9.841365924072266,1.1372457885742187,0,0,0,0
1.9747361689951504,0.0430956298828125,-9.842563024902343,1.1360486877441405,0,0,0,0
1.9758218799979659,0.0430956298828125,-9.8449572265625,1.1372457885742187,0,0,0,0
1.976914572995156,0.040701428222656245,-9.848548529052733,1.1348515869140625,0,0,0,0
1.9786628889996791,0.0430956298828125,-9.847351428222655,1.1336544860839843,0,0,0,0
1.9799480420042528,0.044292730712890624,-9.846154327392577,1.1360486877441405,0,0,0,0
1.9810468280047644,0.04548983154296875,-9.843760125732421,1.1372457885742187,0,0,0,0
1.9821357239998179,0.047884033203124995,-9.841365924072266,1.1372457885742187,0,0,0,0
1.9839202799921622,0.04908113403320312,-9.841365924072266,1.1336544860839843,0,0,0,0
1.9850308250024682,0.051475335693359374,-9.842563024902343,1.1324573852539062,0,0,0,0
1.986115516992868,0.05027823486328125,-9.847351428222655,1.13006318359375,0,0,0,0
1.9872296730027301,0.04908113403320312,-9.849745629882811,1.1276689819335937,0,0,0,0
1.9889747109991731,0.04908113403320312,-9.852139831542969,1.1276689819335937,0,0,0,0
1.990314993992797,0.04908113403320312,-9.852139831542969,1.1276689819335937,0,0,0,0
1.9915170000022044,0.05027823486328125,-9.848548529052733,1.1276689819335937,0,0,0,0
1.9926174519932829,0.05027823486328125,-9.843760125732421,1.13006318359375,0,0,0,0
1.9940810300031444,0.051475335693359374,-9.83897172241211,1.131260284423828,0,0,0,0
1.9960568060050718,0.051475335693359374,-9.83897172241211,1.131260284423828,0,0,0,0
1.9972007759934058,0.051475335693359374,-9.840168823242188,1.131260284423828,0,0,0,0
1.998670779998065,0.05027823486328125,-9.843760125732421,1.131260284423828,0,0,0,0
1.9999740450002719,0.04908113403320312,-9.847351428222655,1.1276689819335937,0,0,0,0
2.001404975002515,0.044292730712890624,-9.846154327392577,1.1252747802734375,0,0,0,0
2.002539148001233,0.0430956298828125,-9.8449572265625,1.1252747802734375,0,0,0,0
2.0036395259958226,0.04189852905273437,-9.843760125732421,1.1288660827636718,0,0,0,0
2.005207417998463,0.03950432739257812,-9.841365924072266,1.13006318359375,0,0,0,0
2.006374442993547,0.0383072265625,-9.841365924072266,1.1288660827636718,0,0,0,0
2.009354024005006,0.03232172241210937,-9.847351428222655,1.1324573852539062,0,0,0,0
2.0107383069989737,0.029927520751953124,-9.85094273071289,1.1324573852539062,0,0,0,0
2.012146421999205,0.029927520751953124,-9.852139831542969,1.131260284423828,0,0,0,0
2.013352687994484,0.028730419921875,-9.853336932373047,1.13006318359375,0,0,0,0
2.0146063230058644,0.028730419921875,-9.852139831542969,1.131260284423828,0,0,0,0
2.01584518099844,0.031124621582031248,-9.85094273071289,1.1324573852539062,0,0,0,0
2.0169419290032238,0.031124621582031248,-9.849745629882811,1.1360486877441405,0,0,0,0
2.01831573000527,0.03232172241210937,-9.847351428222655,1.1372457885742187,0,0,0,0
2.0194941259978805,0.033518823242187495,-9.847351428222655,1.1372457885742187,0,0,0,0
2.020648448000429,0.034715924072265626,-9.848548529052733,1.1360486877441405,0,0,0,0
2.021746213998995,0.03591302490234375,-9.849745629882811,1.1360486877441405,0,0,0,0
2.0228316290013026,0.03591302490234375,-9.853336932373047,1.1348515869140625,0,0,0,0
2.0239250260055996,0.037110125732421874,-9.854534033203125,1.1336544860839843,0,0,0,0
2.0254722880054032,0.0383072265625,-9.853336932373047,1.1324573852539062,0,0,0,0
2.0266312580060912,0.03950432739257812,-9.85094273071289,1.13006318359375,0,0,0,0
2.027731487993151,0.0383072265625,-9.848548529052733,1.13006318359375,0,0,0,0
2.029047788993921,0.037110125732421874,-9.846154327392577,1.1348515869140625,0,0,0,0
2.0302809800050454,0.037110125732421874,-9.8449572265625,1.1348515869140625,0,0,0,0
2.031492320005782,0.037110125732421874,-9.846154327392577,1.1348515869140625,0,0,0,0
2.03283173199452,0.03950432739257812,-9.846154327392577,1.1348515869140625,0,0,0,0
2.0339298699982464,0.040701428222656245,-9.847351428222655,1.1324573852539062,0,0,0,0
2.0350394139968557,0.04189852905273437,-9.848548529052733,1.1324573852539062,0,0,0,0
2.0361997360014357,0.0430956298828125,-9.848548529052733,1.1324573852539062,0,0,0,0
2.037369650002802,0.044292730712890624,-9.848548529052733,1.1336544860839843,0,0,0,0
2.0385285270021996,0.04548983154296875,-9.846154327392577,1.1324573852539062,0,0,0,0
2.0396345899935113,0.047884033203124995,-9.843760125732421,1.1324573852539062,0,0,0,0
2.0407515599945327,0.047884033203124995,-9.842563024902343,1.131260284423828,0,0,0,0
2.0418538819940295,0.04668693237304687,-9.841365924072266,1.131260284423828,0,0,0,0
2.0429464829940116,0.04548983154296875,-9.841365924072266,1.1288660827636718,0,0,0,0
2.0445077259937534,0.044292730712890624,-9.8449572265625,1.1276689819335937,0,0,0,0
2.045657177994144,0.044292730712890624,-9.847351428222655,1.1264718811035155,0,0,0,0
2.046754017996136,0.0430956298828125,-9.85094273071289,1.1276689819335937,0,0,0,0
2.0478348589967936,0.0430956298828125,-9.853336932373047,1.1264718811035155,0,0,0,0
2.0489093299984233,0.04189852905273437,-9.854534033203125,1.1276689819335937,0,0,0,0
2.0500703919969965,0.04189852905273437,-9.854534033203125,1.13006318359375,0,0,0,0
2.05129902799672,0.03950432739257812,-9.853336932373047,1.131260284423828,0,0,0,0
2.0527125139924465,0.03950432739257812,-9.849745629882811,1.1336544860839843,0,0,0,0
2.0538384840037907,0.03950432739257812,-9.848548529052733,1.1360486877441405,0,0,0,0
2.0553323210042436,0.03950432739257812,-9.849745629882811,1.1348515869140625,0,0,0,0
2.056561531004263,0.040701428222656245,-9.849745629882811,1.1324573852539062,0,0,0,0
2.057724889004021,0.040701428222656245,-9.85094273071289,1.13006318359375,0,0,0,0
2.0588251930021215,0.03950432739257812,-9.852139831542969,1.1288660827636718,0,0,0,0
2.060213863995159,0.0383072265625,-9.85094273071289,1.1288660827636718,0,0,0,0
2.0614650740026264,0.03591302490234375,-9.85094273071289,1.1288660827636718,0,0,0,0
2.062594895993243,0.034715924072265626,-9.848548529052733,1.1288660827636718,0,0,0,0
2.063692144001834,0.03232172241210937,-9.846154327392577,1.13006318359375,0,0,0,0
2.064775263002957,0.029927520751953124,-9.842563024902343,1.131260284423828,0,0,0,0
2.066231599994353,0.029927520751953124,-9.840168823242188,1.1324573852539062,0,0,0,0
2.067437624995364,0.03232172241210937,-9.842563024902343,1.1324573852539062,0,0,0,0
2.0685968909965595,0.03232172241210937,-9.8449572265625,1.1324573852539062,0,0,0,0
2.0696868800005177,0.03232172241210937,-9.849745629882811,1.1324573852539062,0,0,0,0
2.070774627994979,0.029927520751953124,-9.854534033203125,1.1336544860839843,0,0,0,0
2.0718728579959134,0.029927520751953124,-9.858125335693359,1.1348515869140625,0,0,0,0
2.0730466060049366,0.031124621582031248,-9.859322436523437,1.1372457885742187,0,0,0,0
2.0746066459978465,0.03232172241210937,-9.85692823486328,1.1384428894042968,0,0,0,0
2.0757469670061255,0.03232172241210937,-9.854534033203125,1.1420341918945311,0,0,0,0
2.077195619000122,0.034715924072265626,-9.852139831542969,1.1456254943847655,0,0,0,0
2.078413144001388,0.037110125732421874,-9.852139831542969,1.1456254943847655,0,0,0,0
2.079625946993474,0.04189852905273437,-9.854534033203125,1.1480196960449218,0,0,0,0
2.081109673003084,0.04189852905273437,-9.855731134033203,1.1468225952148436,0,0,0,0
2.0822086989937816,0.040701428222656245,-9.858125335693359,1.1456254943847655,0,0,0,0
2.083303669001907,0.040701428222656245,-9.860519537353515,1.1456254943847655,0,0,0,0
2.084462472004816,0.040701428222656245,-9.860519537353515,1.1456254943847655,0,0,0,0
2.0856388120009797,0.0430956298828125,-9.859322436523437,1.1444283935546875,0,0,0,0
2.087133018998429,0.044292730712890624,-9.855731134033203,1.140837091064453,0,0,0,0
2.0882803040003637,0.04668693237304687,-9.847351428222655,1.140837091064453,0,0,0,0
2.0898830289952457,0.04908113403320312,-9.8449572265625,1.1384428894042968,0,0,0,0
2.091051109993714,0.05027823486328125,-9.8449572265625,1.1324573852539062,0,0,0,0
2.0921470250032144,0.05027823486328125,-9.8449572265625,1.131260284423828,0,0,0,0
2.0932347729976755,0.05027823486328125,-9.846154327392577,1.131260284423828,0,0,0,0
2.0947587020054925,0.051475335693359374,-9.846154327392577,1.13006318359375,0,0,0,0
2.0959269119921373,0.051475335693359374,-9.846154327392577,1.1288660827636718,0,0,0,0
2.0972842140035937,0.051475335693359374,-9.843760125732421,1.1264718811035155,0,0,0,0
2.0984513870062074,0.051475335693359374,-9.841365924072266,1.1264718811035155,0,0,0,0
2.100154443993233,0.05027823486328125,-9.836577520751952,1.1264718811035155,0,0,0,0
2.1014603200019337,0.051475335693359374,-9.834183319091796,1.1252747802734375,0,0,0,0
2.1026147899974603,0.05027823486328125,-9.835380419921874,1.1264718811035155,0,0,0,0
2.1037995549995685,0.04908113403320312,-9.83777462158203,1.1252747802734375,0,0,0,0
2.1049752660037484,0.04668693237304687,-9.840168823242188,1.1228805786132812,0,0,0,0
2.1063312890037196,0.0430956298828125,-9.8449572265625,1.1228805786132812,0,0,0,0
2.1076644050044706,0.03950432739257812,-9.847351428222655,1.1228805786132812,0,0,0,0
2.109041076997528,0.03950432739257812,-9.848548529052733,1.1288660827636718,0,0,0,0
2.110206509998534,0.040701428222656245,-9.848548529052733,1.1348515869140625,0,0,0,0
2.1115195890015457,0.040701428222656245,-9.841365924072266,1.1360486877441405,0,0,0,0
2.112867242001812,0.03950432739257812,-9.83897172241211,1.1360486877441405,0,0,0,0
2.114362134001567,0.03950432739257812,-9.83897172241211,1.1348515869140625,0,0,0,0
2.11576095399505,0.04189852905273437,-9.841365924072266,1.1348515869140625,0,0,0,0
2.117063996003708,0.0430956298828125,-9.843760125732421,1.1384428894042968,0,0,0,0
2.118533369997749,0.040701428222656245,-9.848548529052733,1.139639990234375,0,0,0,0
2.120077687999583,0.03950432739257812,-9.849745629882811,1.1384428894042968,0,0,0,0
2.12133941600041,0.037110125732421874,-9.849745629882811,1.1384428894042968,0,0,0,0
2.1225707179983146,0.034715924072265626,-9.847351428222655,1.1384428894042968,0,0,0,0
2.124256738999975,0.033518823242187495,-9.8449572265625,1.140837091064453,0,0,0,0
2.1256580210028915,0.033518823242187495,-9.843760125732421,1.140837091064453,0,0,0,0
2.1269239889952587,0.034715924072265626,-9.843760125732421,1.140837091064453,0,0,0,0
2.128146792005282,0.037110125732421874,-9.8449572265625,1.140837091064453,0,0,0,0
2.129365760993096,0.03950432739257812,-9.847351428222655,1.1420341918945311,0,0,0,0
2.1306537850032328,0.03591302490234375,-9.848548529052733,1.1420341918945311,0,0,0,0
2.1319827529951,0.034715924072265626,-9.848548529052733,1.1420341918945311,0,0,0,0
2.1332164449995616,0.034715924072265626,-9.848548529052733,1.1432312927246093,0,0,0,0
2.1344028400053503,0.03591302490234375,-9.8449572265625,1.1432312927246093,0,0,0,0
2.1356099950062344,0.0383072265625,-9.841365924072266,1.1444283935546875,0,0,0,0
2.136895445000846,0.03950432739257812,-9.83897172241211,1.1432312927246093,0,0,0,0
2.1383058189967414,0.040701428222656245,-9.83777462158203,1.1444283935546875,0,0,0,0
2.1395321029995102,0.0430956298828125,-9.83897172241211,1.1456254943847655,0,0,0,0
2.1407140539959073,0.044292730712890624,-9.840168823242188,1.1456254943847655,0,0,0,0
2.1418006180028897,0.044292730712890624,-9.841365924072266,1.1480196960449218,0,0,0,0
2.143027012993116,0.04189852905273437,-9.843760125732421,1.1468225952148436,0,0,0,0
2.1442468890018063,0.040701428222656245,-9.8449572265625,1.1444283935546875,0,0,0,0
2.145330451996415,0.0430956298828125,-9.8449572265625,1.1444283935546875,0,0,0,0
2.1464072380040307,0.044292730712890624,-9.843760125732421,1.1444283935546875,0,0,0,0
2.147612985005253,0.0430956298828125,-9.842563024902343,1.1432312927246093,0,0,0,0
2.1487889730051393,0.04189852905273437,-9.841365924072266,1.1420341918945311,0,0,0,0
2.149869981003576,0.04189852905273437,-9.841365924072266,1.139639990234375,0,0,0,0
2.150956839992432,0.04189852905273437,-9.843760125732421,1.1360486877441405,0,0,0,0
2.152037737003411,0.0430956298828125,-9.8449572265625,1.13006318359375,0,0,0,0
2.153233780001756,0.044292730712890624,-9.846154327392577,1.1288660827636718,0,0,0,0
2.1544382680003764,0.04668693237304687,-9.848548529052733,1.1288660827636718,0,0,0,0
2.1555350160051603,0.04668693237304687,-9.848548529052733,1.1288660827636718,0,0,0,0
2.15660930199374,0.044292730712890624,-9.848548529052733,1.13006318359375,0,0,0,0
2.1576806619996205,0.044292730712890624,-9.847351428222655,1.13006318359375,0,0,0,0
2.1588898159970995,0.04548983154296875,-9.846154327392577,1.13006318359375,0,0,0,0
2.16010984100285,0.047884033203124995,-9.8449572265625,1.1360486877441405,0,0,0,0
2.1611973300023237,0.04908113403320312,-9.843760125732421,1.1372457885742187,0,0,0,0
2.162275134003721,0.05027823486328125,-9.842563024902343,1.1384428894042968,0,0,0,0
2.163529176992597,0.047884033203124995,-9.841365924072266,1.1384428894042968,0,0,0,0
2.1648344040004304,0.047884033203124995,-9.842563024902343,1.139639990234375,0,0,0,0
2.165973540992127,0.047884033203124995,-9.843760125732421,1.1384428894042968,0,0,0,0
2.1670541780040367,0.04548983154296875,-9.846154327392577,1.1360486877441405,0,0,0,0
2.1682683139952132,0.04189852905273437,-9.848548529052733,1.1372457885742187,0,0,0,0
2.1694477279961575,0.03950432739257812,-9.85094273071289,1.1384428894042968,0,0,0,0
2.1705328469979577,0.0383072265625,-9.849745629882811,1.1384428894042968,0,0,0,0
2.171625168994069,0.0383072265625,-9.848548529052733,1.139639990234375,0,0,0,0
2.1727012699993793,0.0383072265625,-9.847351428222655,1.1432312927246093,0,0,0,0
2.1737764999998035,0.0383072265625,-9.846154327392577,1.1444283935546875,0,0,0,0
2.175007227997412,0.0383072265625,-9.847351428222655,1.1456254943847655,0,0,0,0
2.176237677995232,0.037110125732421874,-9.85094273071289,1.1456254943847655,0,0,0,0
2.1773203530028695,0.0383072265625,-9.853336932373047,1.1444283935546875,0,0,0,0
2.178399657001137,0.03950432739257812,-9.859322436523437,1.1444283935546875,0,0,0,0
2.179697607003618,0.040701428222656245,-9.859322436523437,1.1432312927246093,0,0,0,0
