Time (s),Accel X1,Accel Y1,Accel Z1,Accel X2,Accel Y2,Accel Z2
9.512799988442566e-05,0,0,1.5179238525390624,0,0,0.0765625
0.003687718000037421,0,0,1.1252747802734375,0,0,1.1484375
0.0073124370001096395,0,0,1.3910311645507811,0,0,0.3828125
0.010876008000195725,0,0,1.6017209106445311,0,0,0.6890625
0.014462283000284515,0,0,1.446097802734375,0,0,1.1484375
0.01830507399972703,0,0,1.5083470458984374,0,0,0.9953125
0.022037995000573574,0,0,1.5035586425781249,0,0,0.5359375000000001
0.025730213000315416,0,0,1.3766659545898436,0,0,1.3015625000000002
0.029593485000077635,0,0,1.2378022583007813,0,0,0.9953125
0.03325424100057717,0,0,1.2042834350585936,0,0,1.225
0.03681297900038771,0,0,1.2425906616210938,0,0,0.22968750000000002
0.04056138200030546,0,0,1.3048399047851562,0,0,1.0718750000000001
0.04426695199981623,0,0,1.2761094848632812,0,0,0.22968750000000002
0.04877151300024707,0,0,1.429338391113281,0,0,0.6890625
0.05253073000039876,0,0,1.3407529296874998,0,0,1.1484375
0.056201762999990024,0,0,1.2282254516601563,0,0,0.22968750000000002
0.05976568700043572,0,0,1.4030021728515625,0,0,1.0718750000000001
0.06356344100004208,0,0,1.1444283935546875,0,0,0.6125
0.06722067800001241,0,0,1.4173673828125,0,0,0.6890625
0.07097046899980342,0,0,1.4341267944335936,0,0,0.9187500000000001
0.07445289400038746,0,0,1.4030021728515625,0,0,1.0718750000000001
0.07873919800022122,0,0,1.3383587280273437,0,0,1.0718750000000001
0.08240050899985363,0,0,1.6160861206054686,0,0,1.1484375
0.08528508800009149,0,0,1.235408056640625,0,0,1.225
0.08856284800003777,0,0,1.4125789794921875,0,0,0.5359375000000001
0.09153590700043424,0,0,1.3742717529296875,0,0,0.6890625
0.09478696400037734,0,0,1.3192051147460937,0,0,0.6890625
0.09772046800026146,0,0,1.3479355346679687,0,0,0.22968750000000002
0.10075889700055995,0,0,1.6352397338867186,0,0,0.9953125
0.10405063800044445,0,0,1.4317325927734375,0,0,1.0718750000000001
0.10731773200041062,0,0,1.1923124267578125,0,0,0.6125
0.11086532199988142,0,0,1.5131354492187499,0,0,0.6890625
0.11385880699981499,0,0,1.5897499023437498,0,0,0.6890625
0.11671571999977459,0,0,1.3455413330078123,0,0,0.6125
0.11966314999972383,0,0,1.2976572998046874,0,0,0.153125
0.12269159800052876,0,0,1.3120225097656248,0,0,0.6890625
0.12569502699989243,0,0,1.2737152832031249,0,0,0.765625
0.128580014000363,0,0,1.2808978881835937,0,0,0.3828125
0.13152277700010018,0,0,1.6352397338867186,0,0,0.9953125
0.1347845000000234,0,0,1.4149731811523436,0,0,1.1484375
0.1378424479999012,0,0,1.20667763671875,0,0,0.8421875000000001
0.14072813799975847,0,0,1.4939818359375,0,0,0.6890625
0.14388821400007146,0,0,1.2306196533203124,0,0,1.3015625000000002
0.14824423899972317,0,0,1.24498486328125,0,0,0.9187500000000001
0.15126894700006233,0,0,1.3120225097656248,0,0,0.5359375000000001
0.15407265600060782,0,0,1.2808978881835937,0,0,0.9953125
0.1570500859997992,0,0,1.2473790649414063,0,0,0.8421875000000001
0.16002314599973033,0,0,1.3335703247070312,0,0,0.9187500000000001
0.16298429800008307,0,0,1.426944189453125,0,0,0.6125
0.16605989300023793,0,0,1.5131354492187499,0,0,0.8421875000000001
0.16904961900036142,0,0,1.1827356201171875,0,0,1.0718750000000001
0.17211175200009166,0,0,1.2785036865234374,0,0,1.225
0.1750814220004031,0,0,1.369483349609375,0,0,1.1484375
0.1781290919998355,0,0,1.43652099609375,0,0,0.9187500000000001
0.18120116899990535,0,0,1.465251416015625,0,0,0.9953125
0.18422569100039254,0,0,1.4173673828125,0,0,0.9187500000000001
0.18730578600025183,0,0,1.177947216796875,0,0,0.5359375000000001
0.19050486200012529,0,0,1.3263877197265623,0,0,0.765625
0.19347314400056348,0,0,1.4939818359375,0,0,0.6890625
0.1963930560004883,0,0,1.675941162109375,0,0,0.45937500000000003
0.1994595960004517,0,0,1.2593500732421874,0,0,0.30625
0.20245304400032182,0,0,1.484405029296875,0,0,0.0765625
0.2053396410001369,0,0,1.2880804931640624,0,0,1.1484375
0.2083360900005573,0,0,1.1372457885742187,0,0,0.6125
0.2115780909998648,0,0,1.3048399047851562,0,0,1.225
0.21446029900016583,0,0,1.4341267944335936,0,0,1.1484375
0.21909184000014648,0,0,1.24498486328125,0,0,0.765625
0.22200125200015464,0,0,1.2593500732421874,0,0,1.3015625000000002
0.22505058900060249,0,0,1.5442600708007812,0,0,0.8421875000000001
0.22800794500017219,0,0,1.4149731811523436,0,0,0.9187500000000001
0.23089726499983954,0,0,1.2401964599609374,0,0,1.3015625000000002
0.2339350829997784,0,0,1.4413093994140624,0,0,1.0718750000000001
0.2369386790005592,0,0,1.4987702392578124,0,0,1.0718750000000001
0.24001042200052325,0,0,1.2641384765625,0,0,0.8421875000000001
0.24311336899972957,0,0,1.3670891479492187,0,0,1.1484375
0.24613078000038513,0,0,1.5610194824218748,0,0,1.1484375
0.24911922899991623,0,0,1.2521674682617188,0,0,0.765625
0.25229361899982905,0,0,1.5107412475585937,0,0,0.5359375000000001
0.2554829170003359,0,0,1.4867992309570313,0,0,0.6890625
0.25855814199985616,0,0,1.2497732666015624,0,0,0.9187500000000001
0.26163616299982095,0,0,1.3120225097656248,0,0,0.9953125
0.2647304990005068,0,0,1.4006079711914061,0,0,1.3015625000000002
0.26767681799992715,0,0,1.39821376953125,0,0,1.1484375
0.2705802680002307,0,0,1.2569558715820313,0,0,0.9187500000000001
0.27349212399985845,0,0,1.3335703247070312,0,0,1.0718750000000001
0.2765443309999682,0,0,1.426944189453125,0,0,1.225
0.27954831599981844,0,0,1.2737152832031249,0,0,1.3015625000000002
0.28252465300010954,0,0,1.2904746948242187,0,0,0.6890625
0.2852480490000744,0,0,1.2569558715820313,0,0,0.30625
0.2880492210006196,0,0,1.2306196533203124,0,0,0.6890625
0.2906756550000864,0,0,1.3742717529296875,0,0,0.6890625
0.29340829100056,0,0,1.2856862915039062,0,0,0.8421875000000001
0.2960713359998408,0,0,1.4939818359375,0,0,1.0718750000000001
0.2989207669997995,0,0,1.5107412475585937,0,0,1.4546875000000001
0.301626311000291,0,0,1.2976572998046874,0,0,0.9953125
0.30441302100007306,0,0,1.3359645263671873,0,0,0.6890625
0.307056343000113,0,0,1.5370774658203123,0,0,0.8421875000000001
0.30995816300037404,0,0,1.3862427612304686,0,0,0.45937500000000003
0.31277339100051904,0,0,1.218648645019531,0,0,0.45937500000000003
0.31554004500048904,0,0,1.3910311645507811,0,0,0.45937500000000003
0.31852427100056957,0,0,1.2880804931640624,0,0,0.9187500000000001
0.32148038700051984,0,0,1.3311761230468748,0,0,0.3828125
0.3242502630000672,0,0,1.369483349609375,0,0,0.9187500000000001
0.3275286710004366,0,0,1.5107412475585937,0,0,0.5359375000000001
0.3302396779999981,0,0,1.426944189453125,0,0,0.765625
0.33292407400040247,0,0,1.3168109130859373,0,0,1.1484375
0.33552882300045894,0,0,1.438915197753906,0,0,0.9187500000000001
0.3389527290000842,0,0,1.4963760375976562,0,0,0.6890625
0.34180080900023313,0,0,1.2497732666015624,0,0,1.1484375
0.3444411870004842,0,0,1.3287819213867187,0,0,0.30625
0.3469961210003021,0,0,1.2904746948242187,0,0,0.5359375000000001
0.349818516000596,0,0,1.2330138549804688,0,0,0.9187500000000001
0.3529988320005941,0,0,1.2713210815429687,0,0,0.6890625
0.35567606200038426,0,0,1.3670891479492187,0,0,0.45937500000000003
0.3584076980005193,0,0,1.5107412475585937,0,0,0.6890625
0.36112425999999687,0,0,1.4939818359375,0,0,1.0718750000000001
0.3639259139999922,0,0,1.2952630981445312,0,0,0.9187500000000001
0.36663001400029316,0,0,1.3742717529296875,0,0,1.7609375
0.36960035100037203,0,0,1.3383587280273437,0,0,0.9953125
0.37238056099977257,0,0,1.5538368774414062,0,0,0.0
0.3755792849997306,0,0,1.3646949462890625,0,0,1.0718750000000001
0.37848082700020313,0,0,1.39821376953125,0,0,0.765625
0.38109929700021894,0,0,1.3670891479492187,0,0,0.9953125
0.38412922699990304,0,0,1.2521674682617188,0,0,0.8421875000000001
0.38689810300002137,0,0,1.20667763671875,0,0,0.45937500000000003
0.38961053599996376,0,0,1.5203180541992187,0,0,0.30625
0.3923198210004557,0,0,1.6711527587890624,0,0,0.6125
0.3950865860006161,0,0,1.2617442749023438,0,0,0.6890625
0.39792499899976974,0,0,1.3000515014648437,0,0,1.1484375
0.4005521740000404,0,0,1.37906015625,0,0,0.6890625
0.403529232999972,0,0,1.2808978881835937,0,0,0.8421875000000001
0.4063779980006075,0,0,1.2497732666015624,0,0,0.6890625
0.40901296799984266,0,0,1.3168109130859373,0,0,0.22968750000000002
0.4116212910003014,0,0,1.3479355346679687,0,0,-2.0
0.41430937299992365,0,0,1.2593500732421874,0,0,0.6890625
0.4173547830005191,0,0,1.3096283081054687,0,0,0.45937500000000003
0.4201391220003643,0,0,1.5011644409179687,0,0,1.3015625000000002
0.42275674200027424,0,0,1.448492004394531,0,0,1.0718750000000001
0.42543667500012816,0,0,1.2713210815429687,0,0,0.9953125
0.4282995869998558,0,0,1.3072341064453123,0,0,1.3015625000000002
0.43104124199999205,0,0,1.608903515625,0,0,0.22968750000000002
0.433630045999962,0,0,1.455674609375,0,0,0.9187500000000001
0.43648423700051353,0,0,1.1611878051757811,0,0,0.6890625
0.43932216800021706,0,0,1.3120225097656248,0,0,0.765625
0.4420925080003144,0,0,1.419761584472656,0,0,0.5359375000000001
0.4449004950001836,0,0,1.1324573852539062,0,0,1.0718750000000001
0.44797186800042255,0,0,1.180341418457031,0,0,1.0718750000000001
0.45078035599999566,0,0,1.5083470458984374,0,0,1.1484375
0.45349167699987447,0,0,1.5945383056640625,0,0,0.9187500000000001
0.45620942500045203,0,0,1.3287819213867187,0,0,0.3828125
0.45900554200034094,0,0,1.3479355346679687,0,0,0.3828125
0.4616536419998738,0,0,1.6352397338867186,0,0,0.6890625
0.46464875699984987,0,0,1.5969325073242187,0,0,0.45937500000000003
0.4690116530000523,0,0,1.4532804077148436,0,0,0.45937500000000003
0.4718183989998579,0,0,1.4413093994140624,0,0,0.9953125
0.4744965730005788,0,0,1.714248388671875,0,0,1.0718750000000001
0.4774418369997875,0,0,1.2785036865234374,0,0,1.1484375
0.4800958069999979,0,0,1.2425906616210938,0,0,0.9187500000000001
0.48291914600031305,0,0,1.4604630126953124,0,0,0.8421875000000001
0.48568178200002876,0,0,1.2880804931640624,0,0,0.8421875000000001
0.4886966559997745,0,0,1.4939818359375,0,0,0.6125
0.4913798859997769,0,0,1.3287819213867187,0,0,0.0
0.49412135500006116,0,0,1.5179238525390624,0,0,0.9953125
0.49674378899999283,0,0,1.3215993164062498,0,0,0.9953125
0.4995617390004554,0,0,1.3910311645507811,0,0,0.9953125
0.5126953890003279,0,0,1.4915876342773438,0,0,1.225
0.5154615620003824,0,0,1.6112977172851561,0,0,0.8421875000000001
0.5182097719998637,0,0,1.3072341064453123,0,0,0.9187500000000001
0.521198553999966,0,0,1.3239935180664062,0,0,0.8421875000000001
0.5241086510004607,0,0,1.47482822265625,0,0,0.6125
0.5270628779999242,0,0,1.4101847778320311,0,0,0.5359375000000001
0.5301329169997189,0,0,1.2856862915039062,0,0,0.8421875000000001
0.5330697370000053,0,0,1.3215993164062498,0,0,0.765625
0.5361670729998878,0,0,1.2689268798828124,0,0,0.8421875000000001
0.5390750590004245,0,0,1.3742717529296875,0,0,1.3015625000000002
0.5421045809998759,0,0,1.3311761230468748,0,0,1.0718750000000001
0.5449399560002348,0,0,1.4006079711914061,0,0,0.8421875000000001
0.5478663869998854,0,0,1.5011644409179687,0,0,1.225
0.5506680779999442,0,0,1.3096283081054687,0,0,0.6890625
0.5535367500006032,0,0,1.438915197753906,0,0,0.153125
0.5564564579999569,0,0,1.4891934326171874,0,0,0.6125
0.5599995849997867,0,0,1.5203180541992187,0,0,1.3015625000000002
0.5627308140001333,0,0,1.2976572998046874,0,0,1.225
0.5655251349999162,0,0,1.5179238525390624,0,0,1.225
0.5681242170003316,0,0,1.6424223388671875,0,0,0.30625
0.5711980900005074,0,0,1.2497732666015624,0,0,0.6890625
0.574004318000334,0,0,1.455674609375,0,0,0.0
0.5767145469999377,0,0,1.2282254516601563,0,0,0.9953125
0.5795263870004419,0,0,1.3048399047851562,0,0,0.765625
0.5827551649999805,0,0,1.3072341064453123,0,0,0.8421875000000001
0.5852793780004504,0,0,1.369483349609375,0,0,1.1484375
0.5875773340003434,0,0,1.4604630126953124,0,0,0.9953125
0.5899017900001127,0,0,1.3287819213867187,0,0,1.3015625000000002
0.592295985000419,0,0,1.2737152832031249,0,0,0.765625
0.5949082900006033,0,0,1.4245499877929686,0,0,0.5359375000000001
0.5971231539997461,0,0,1.5083470458984374,0,0,1.3015625000000002
0.5994884789997741,0,0,1.2401964599609374,0,0,0.45937500000000003
0.6017687690000457,0,0,1.2473790649414063,0,0,0.9187500000000001
0.6040386320000835,0,0,1.3407529296874998,0,0,0.45937500000000003
0.6063927169998351,0,0,1.4987702392578124,0,0,0.765625
0.6088310790000833,0,0,1.678335363769531,0,0,1.3015625000000002
0.611182609000025,0,0,1.3048399047851562,0,0,0.45937500000000003
0.613399806000416,0,0,1.2880804931640624,0,0,0.9953125
0.6158255569998801,0,0,1.3311761230468748,0,0,0.8421875000000001
0.6183651030005421,0,0,1.4772224243164063,0,0,0.765625
0.6207562979998329,0,0,1.1109095703125,0,0,1.225
0.6232086600002731,0,0,1.1061211669921875,0,0,0.6890625
0.6254638390000764,0,0,1.4149731811523436,0,0,0.9953125
0.6278991079998377,0,0,1.4820108276367188,0,0,1.1484375
0.6302068780005357,0,0,1.5370774658203123,0,0,0.22968750000000002
0.6324445199998081,0,0,1.2617442749023438,0,0,1.3015625000000002
0.6347510320001675,0,0,1.3431471313476562,0,0,0.0765625
0.6371059310004057,0,0,1.5298948608398437,0,0,1.225
0.6393121470000551,0,0,1.3623007446289062,0,0,0.765625
0.6415736589997323,0,0,1.2856862915039062,0,0,1.0718750000000001
0.6439376700000139,0,0,1.3192051147460937,0,0,0.30625
0.6461499420001928,0,0,1.3479355346679687,0,0,1.1484375
0.6487081169998419,0,0,1.3239935180664062,0,0,0.9187500000000001
0.6510096100000737,0,0,1.39821376953125,0,0,0.153125
0.6532090299997435,0,0,1.3311761230468748,0,0,1.0718750000000001
0.6554699119997167,0,0,1.3670891479492187,0,0,0.3828125
0.6578057200003968,0,0,1.4915876342773438,0,0,0.9187500000000001
0.6600331950003238,0,0,1.2856862915039062,0,0,1.3015625000000002
0.6628329410004881,0,0,1.2473790649414063,0,0,0.5359375000000001
0.6651684710004702,0,0,1.2928688964843749,0,0,1.1484375
0.6674699080003847,0,0,1.407790576171875,0,0,0.0
0.6697120130002077,0,0,1.1923124267578125,0,0,1.0718750000000001
0.672184171000481,0,0,1.2952630981445312,0,0,0.6890625
0.6745079970005463,0,0,1.2593500732421874,0,0,0.6890625
0.6767117870003858,0,0,1.3407529296874998,0,0,0.9187500000000001
0.6790077610003209,0,0,1.4700398193359374,0,0,0.6125
0.6812548110001444,0,0,1.5298948608398437,0,0,1.225
0.6835090630002014,0,0,1.3814543579101561,0,0,0.765625
0.6867812860000413,0,0,1.3072341064453123,0,0,2.0671875
0.689843734000533,0,0,1.426944189453125,0,0,0.5359375000000001
0.6929840869997861,0,0,1.3623007446289062,0,0,0.45937500000000003
0.6961596999999529,0,0,1.2282254516601563,0,0,0.153125
0.6994147010000233,0,0,1.4245499877929686,0,0,0.6890625
0.702578739999808,0,0,1.2928688964843749,0,0,1.3015625000000002
0.7054541899997275,0,0,1.2306196533203124,0,0,0.30625
0.7085481180001807,0,0,1.4053963745117186,0,0,0.9187500000000001
0.7115998990002481,0,0,1.6160861206054686,0,0,1.0718750000000001
0.7146027730004789,0,0,1.2569558715820313,0,0,1.3015625000000002
0.7178713479997896,0,0,1.3575123413085937,0,0,0.5359375000000001
0.721009609000248,0,0,1.4724340209960938,0,0,0.6125
0.7241760739998426,0,0,1.2713210815429687,0,0,0.9187500000000001
0.7274093900005028,0,0,1.37906015625,0,0,1.53125
0.7306816500004061,0,0,1.5490484741210937,0,0,0.9953125
0.7336260980000588,0,0,1.3551181396484375,0,0,1.4546875000000001
0.7368616550002116,0,0,1.24498486328125,0,0,1.6078125
0.7399839540003086,0,0,1.5059528442382812,0,0,1.1484375
0.7429479020001963,0,0,1.438915197753906,0,0,1.0718750000000001
0.7459293689998958,0,0,1.22583125,0,0,0.9187500000000001
0.7489917980001337,0,0,1.3215993164062498,0,0,0.6125
0.7521797070003231,0,0,1.4173673828125,0,0,0.8421875000000001
0.7554119120004543,0,0,1.388636962890625,0,0,0.45937500000000003
0.7586125240004549,0,0,1.24498486328125,0,0,0.3828125
0.7617731000000276,0,0,1.467645617675781,0,0,0.5359375000000001
0.7649027879997448,0,0,1.2832920898437499,0,0,1.0718750000000001
0.7680214570000317,0,0,1.3383587280273437,0,0,1.1484375
0.7711084410002513,0,0,1.3862427612304686,0,0,0.9187500000000001
0.7741650360003405,0,0,1.4221557861328125,0,0,0.8421875000000001
0.7773092420002286,0,0,1.3144167114257812,0,0,0.5359375000000001
0.7809583309999653,0,0,1.3287819213867187,0,0,0.8421875000000001
0.7842006470000342,0,0,1.2832920898437499,0,0,1.0718750000000001
0.7881719920005708,0,0,1.1348515869140625,0,0,0.6125
0.7910442370002784,0,0,1.5131354492187499,0,0,0.3828125
0.7943620710002506,0,0,1.158793603515625,0,0,0.9187500000000001
0.797217410000485,0,0,1.3048399047851562,0,0,0.6890625
0.7998857689999568,0,0,1.3144167114257812,0,0,0.0
0.8026717929997176,0,0,1.429338391113281,0,0,0.6125
0.8053256709999914,0,0,1.4125789794921875,0,0,0.6125
0.8081241589998172,0,0,1.3048399047851562,0,0,0.8421875000000001
0.8107854250001765,0,0,1.4006079711914061,0,0,1.7609375
0.8135868389999814,0,0,1.4006079711914061,0,0,0.8421875000000001
0.8162182719997872,0,0,1.637633935546875,0,0,0.6125
0.8192263500004628,0,0,1.0821791503906248,0,0,0.6125
0.8219817270000931,0,0,1.43652099609375,0,0,0.0
0.8246981780002898,0,0,1.3000515014648437,0,0,0.8421875000000001
0.8273202230002425,0,0,1.2713210815429687,0,0,0.9187500000000001
0.8300699330002317,0,0,1.4030021728515625,0,0,0.9953125
0.8329435120003836,0,0,1.37906015625,0,0,1.3015625000000002
0.8358021100002588,0,0,1.4724340209960938,0,0,1.1484375
0.8385956160000205,0,0,1.2832920898437499,0,0,0.9187500000000001
0.8413732520002668,0,0,1.4508862060546874,0,0,0.30625
0.8439664449997508,0,0,1.455674609375,0,0,0.5359375000000001
0.8467963399998553,0,0,1.5586252807617187,0,0,0.5359375000000001
0.8494399580004028,0,0,1.2617442749023438,0,0,0.45937500000000003
0.8524616650001917,0,0,1.4006079711914061,0,0,0.3828125
0.8552785600004427,0,0,1.448492004394531,0,0,1.1484375
0.857992195999941,0,0,1.3311761230468748,0,0,1.0718750000000001
0.8607540729999528,0,0,1.2976572998046874,0,0,0.5359375000000001
0.8636200040000404,0,0,1.3742717529296875,0,0,0.5359375000000001
0.8663659370004098,0,0,1.2904746948242187,0,0,1.1484375
0.869584068000222,0,0,1.2378022583007813,0,0,0.6890625
0.8722415560005174,0,0,1.4101847778320311,0,0,0.0
0.8749453780001204,0,0,1.6017209106445311,0,0,0.6125
0.877701774000343,0,0,1.5346832641601562,0,0,0.6890625
0.8804400760000135,0,0,1.149216796875,0,0,1.0718750000000001
0.8830671400000938,0,0,1.35990654296875,0,0,1.1484375
0.8857966650002709,0,0,1.3958195678710936,0,0,0.8421875000000001
0.8887650950000534,0,0,1.1851298217773436,0,0,1.1484375
0.8915123050001057,0,0,1.4437036010742186,0,0,0.22968750000000002
0.8942739230005827,0,0,1.7094599853515624,0,0,0.0765625
0.8971833530004005,0,0,1.4939818359375,0,0,0.3828125
0.9004309279998779,0,0,1.388636962890625,0,0,1.0718750000000001
0.9031467679997149,0,0,1.8028338500976562,0,0,0.6125
0.9060477359998913,0,0,1.1228805786132812,0,0,0.6125
0.9090025550003702,0,0,2.0661960327148434,0,0,0.765625
0.9117885050000041,0,0,1.4820108276367188,0,0,0.30625
0.9144761790003031,0,0,1.2378022583007813,0,0,0.8421875000000001
0.9170545950000815,0,0,1.649604943847656,0,0,0.9187500000000001
0.9198937299997851,0,0,1.455674609375,0,0,1.0718750000000001
0.922619329000554,0,0,1.1276689819335937,0,0,0.45937500000000003
0.9253190220006218,0,0,1.4006079711914061,0,0,0.0
0.9278966600004424,0,0,1.3742717529296875,0,0,1.378125
0.9304967970001599,0,0,1.2856862915039062,0,0,1.53125
0.9332437299999583,0,0,1.3239935180664062,0,0,0.9187500000000001
0.9359739219999028,0,0,1.5251064575195312,0,0,1.4546875000000001
0.9386592810005823,0,0,1.4149731811523436,0,0,0.6890625
0.9422893880000629,0,0,1.3072341064453123,0,0,0.6890625
0.9452453559997593,0,0,1.254561669921875,0,0,1.7609375
0.9479559179999342,0,0,1.6112977172851561,0,0,1.1484375
0.9506863140004498,0,0,1.3192051147460937,0,0,1.225
0.9533127840004454,0,0,1.4939818359375,0,0,0.5359375000000001
0.9560706980000759,0,0,1.467645617675781,0,0,0.0
0.9588203710000016,0,0,1.2473790649414063,0,0,0.3828125
0.9615664889997788,0,0,1.5131354492187499,0,0,1.0718750000000001
0.9645356780001748,0,0,1.3623007446289062,0,0,0.153125
0.9676923280003393,0,0,1.4053963745117186,0,0,0.30625
0.9706367950002459,0,0,1.5490484741210937,0,0,0.45937500000000003
0.9733547280002313,0,0,1.2928688964843749,0,0,0.9953125
0.9761798449999333,0,0,1.4508862060546874,0,0,1.53125
0.9789639800001169,0,0,1.5658078857421873,0,0,0.6890625
0.9818309299998873,0,0,1.2928688964843749,0,0,1.53125
0.9846604360000129,0,0,1.4245499877929686,0,0,1.3015625000000002
0.9875750700002754,0,0,1.5873557006835937,0,0,1.0718750000000001
0.9902520220002771,0,0,1.2904746948242187,0,0,1.0718750000000001
0.9933458020004764,0,0,1.438915197753906,0,0,0.9953125
0.9961768450002637,0,0,1.2617442749023438,0,0,0.765625
0.999025924000307,0,0,1.6352397338867186,0,0,0.765625
1.001720616000057,0,0,1.5777788940429687,0,0,0.765625
1.0050994120001633,0,0,1.1851298217773436,0,0,0.30625
1.0080131020004046,0,0,1.438915197753906,0,0,1.225
1.0114397490006013,0,0,1.618480322265625,0,0,0.9187500000000001
1.0143269580003107,0,0,1.4101847778320311,0,0,1.0718750000000001
1.0171360000003915,0,0,1.637633935546875,0,0,2.1437500000000003
1.0200021540003945,0,0,1.5562310791015623,0,0,0.9953125
1.0228797330000816,0,0,1.484405029296875,0,0,1.1484375
1.0258671440005855,0,0,1.189918225097656,0,0,0.6125
1.0287809999999808,0,0,1.3239935180664062,0,0,0.30625
1.0314183230002527,0,0,1.2330138549804688,0,0,1.225
1.0340523679997204,0,0,1.3718775512695311,0,0,0.6890625
1.03680278200045,0,0,1.5035586425781249,0,0,1.3015625000000002
1.039470567000535,0,0,1.7501614135742187,0,0,0.9953125
1.0422181470003125,0,0,1.438915197753906,0,0,1.4546875000000001
1.0449230619997252,0,0,1.4317325927734375,0,0,0.6125
1.0476539760002197,0,0,1.2928688964843749,0,0,0.45937500000000003
1.050323778999882,0,0,1.3742717529296875,0,0,0.9187500000000001
1.0537137050005185,0,0,1.3072341064453123,0,0,0.30625
1.0564496560000407,0,0,1.3766659545898436,0,0,0.5359375000000001
1.059652398000253,0,0,1.4101847778320311,0,0,0.765625
1.062459052000122,0,0,1.6232687255859375,0,0,1.0718750000000001
1.0653184459997647,0,0,1.4772224243164063,0,0,1.1484375
1.0687600000001112,0,0,1.3479355346679687,0,0,0.9953125
1.0719339090001085,0,0,1.4772224243164063,0,0,0.9187500000000001
1.0749650790003216,0,0,1.1156979736328125,0,0,1.225
1.0779023240002061,0,0,1.2473790649414063,0,0,1.53125
1.08076990400059,0,0,1.5969325073242187,0,0,1.4546875000000001
1.0836539270003414,0,0,1.8435352783203125,0,0,0.8421875000000001
1.0862995830002546,0,0,1.5538368774414062,0,0,0.6890625
1.0880148969999937,0,0,1.4245499877929686,0,0,0.0765625
1.0897051749998354,0,0,1.2282254516601563,0,0,0.0
1.091534598999715,0,0,1.2114660400390624,0,0,0.6890625
1.0933788000002096,0,0,0.9409212524414062,0,0,0.8421875000000001
1.0950632820004103,0,0,1.209071838378906,0,0,0.8421875000000001
1.0967367630000808,0,0,1.20667763671875,0,0,1.0718750000000001
1.0983232449998468,0,0,1.3766659545898436,0,0,1.1484375
1.0998550060003254,0,0,1.668758557128906,0,0,1.1484375
1.1016144499999427,0,0,1.8171990600585937,0,0,0.45937500000000003
1.1034011150004517,0,0,1.7980454467773437,0,0,1.3015625000000002
1.1050852440002927,0,0,1.8842367065429686,0,0,1.0718750000000001
1.106626523000159,0,0,1.3958195678710936,0,0,1.0718750000000001
1.1081895249999434,0,0,1.2617442749023438,0,0,0.5359375000000001
1.109842116999971,0,0,1.1372457885742187,0,0,0.8421875000000001
1.1116311530004168,0,0,1.158793603515625,0,0,0.0
1.1133002080005099,0,0,1.1707646118164061,0,0,0.9187500000000001
1.11495793100039,0,0,1.6304513305664061,0,0,1.378125
1.1169840190004834,0,0,1.5442600708007812,0,0,1.8375000000000001
1.118625093999981,0,0,1.7836802368164062,0,0,1.378125
1.1202640940000492,0,0,1.7908628417968748,0,0,0.9953125
1.1221528690002742,0,0,1.8052280517578123,0,0,0.0
1.123810924999816,0,0,1.4796166259765624,0,0,0.6125
1.1254296659999454,0,0,1.5945383056640625,0,0,0.765625
1.1271167209997657,0,0,1.1228805786132812,0,0,0.5359375000000001
1.1286528900000121,0,0,0.7565677246093749,0,0,0.6890625
1.130327834000127,0,0,0.8068459594726562,0,0,1.225
1.1320505370003957,0,0,1.350329736328125,0,0,0.45937500000000003
1.1336047599997983,0,0,1.4053963745117186,0,0,1.0718750000000001
1.1354671099998086,0,0,1.6998831787109374,0,0,1.6078125
1.1372524610005712,0,0,1.6543933471679686,0,0,1.4546875000000001
1.1388836460000675,0,0,1.5418658691406248,0,0,1.3015625000000002
1.1404828140002792,0,0,1.369483349609375,0,0,0.9187500000000001
1.142408124999747,0,0,1.2617442749023438,0,0,0.0
1.1440618110000287,0,0,1.3838485595703125,0,0,0.765625
1.145604960000128,0,0,1.5969325073242187,0,0,0.9953125
1.1471573500002705,0,0,1.3742717529296875,0,0,1.225
1.1489049789997807,0,0,1.3646949462890625,0,0,1.225
1.1505117389997395,0,0,1.426944189453125,0,0,2.2203125000000004
1.1520506289998593,0,0,1.4221557861328125,0,0,1.378125
1.153731850999975,0,0,1.7956512451171873,0,0,1.225
1.1553957030000674,0,0,1.3862427612304686,0,0,0.6890625
1.157025889000579,0,0,1.3263877197265623,0,0,0.6890625
1.1586816110002474,0,0,0.9361328491210937,0,0,0.45937500000000003
1.160325499999999,0,0,1.0271125122070313,0,0,0.5359375000000001
1.1619800190001115,0,0,1.4173673828125,0,0,0.6890625
1.1635736489997726,0,0,1.687912170410156,0,0,0.8421875000000001
1.1651598720000038,0,0,1.5298948608398437,0,0,0.9187500000000001
1.1668026690003899,0,0,1.6639701538085936,0,0,1.0718750000000001
1.1684821500002727,0,0,1.5083470458984374,0,0,1.225
1.1701117250004245,0,0,1.2569558715820313,0,0,1.1484375
1.1717982990003293,0,0,1.2306196533203124,0,0,0.5359375000000001
1.1735602050002854,0,0,1.465251416015625,0,0,0.45937500000000003
1.1754047949998494,0,0,1.4221557861328125,0,0,0.765625
1.176991444000123,0,0,1.848323681640625,0,0,1.3015625000000002
1.1786138150000625,0,0,1.4915876342773438,0,0,1.3015625000000002
1.1803908330002741,0,0,1.369483349609375,0,0,0.9187500000000001
1.1819786850001037,0,0,1.458068811035156,0,0,0.9187500000000001
1.183596722999937,0,0,1.5394716674804687,0,0,0.3828125
1.1853638330003378,0,0,1.4915876342773438,0,0,0.6890625
1.1869838889997482,0,0,1.407790576171875,0,0,0.6890625
1.188602666999941,0,0,1.254561669921875,0,0,1.1484375
1.1903009260004183,0,0,1.1013327636718748,0,0,1.1484375
1.1919395370005077,0,0,1.3192051147460937,0,0,1.0718750000000001
1.1936674810003751,0,0,1.4149731811523436,0,0,1.0718750000000001
1.1953803329997754,0,0,1.426944189453125,0,0,0.9953125
1.1969369819998974,0,0,1.4508862060546874,0,0,1.225
1.1985739640003885,0,0,1.5418658691406248,0,0,1.225
1.2002314270002898,0,0,1.8267758666992187,0,0,0.9953125
1.2018798899998728,0,0,1.429338391113281,0,0,0.8421875000000001
1.2034289100001843,0,0,1.3024457031249999,0,0,0.45937500000000003
1.2050608730005479,0,0,1.675941162109375,0,0,0.30625
1.2067142619998776,0,0,1.6160861206054686,0,0,0.6125
1.2083054849999826,0,0,1.7022773803710936,0,0,1.0718750000000001
1.209833042000355,0,0,0.9983820922851562,0,0,1.0718750000000001
1.2115384489998178,0,0,1.0941501586914062,0,0,0.765625
1.2132212639999125,0,0,1.1013327636718748,0,0,-9.034375
1.2147632280002654,0,0,1.6041151123046875,0,0,0.30625
1.2163874509997186,0,0,1.7166425903320313,0,0,0.6125
1.218032765999851,0,0,1.9680337646484374,0,0,0.9187500000000001
1.2197547470004793,0,0,1.4125789794921875,0,0,1.1484375
1.2214180239998313,0,0,1.2976572998046874,0,0,1.3015625000000002
1.223072673000388,0,0,1.4772224243164063,0,0,1.3015625000000002
1.2246121560001484,0,0,1.484405029296875,0,0,1.3015625000000002
1.2261927489998925,0,0,1.5490484741210937,0,0,2.2203125000000004
1.2278997670000535,0,0,1.4604630126953124,0,0,0.6890625
1.2295005089999904,0,0,1.1923124267578125,0,0,0.153125
1.2310332880006172,0,0,1.2617442749023438,0,0,0.153125
1.2326570290006202,0,0,1.388636962890625,0,0,0.45937500000000003
1.234301159000097,0,0,1.3096283081054687,0,0,2.45
1.2359571030001462,0,0,1.4341267944335936,0,0,1.4546875000000001
1.2376280660000702,0,0,1.2521674682617188,0,0,0.45937500000000003
1.2392434929997762,0,0,1.5083470458984374,0,0,0.6125
1.2408748269999705,0,0,1.419761584472656,0,0,0.5359375000000001
1.2425401230002535,0,0,1.5634136840820312,0,0,1.0718750000000001
1.244156364000446,0,0,1.407790576171875,0,0,1.0718750000000001
1.2457474020002337,0,0,1.6041151123046875,0,0,0.3828125
1.2475679740000487,0,0,1.3311761230468748,0,0,1.1484375
1.2491415120002785,0,0,1.5514426757812498,0,0,-9.1875
1.2506836990005468,0,0,1.6160861206054686,0,0,0.6890625
1.2522656629998892,0,0,1.6065093139648436,0,0,1.0718750000000001
1.253982551000263,0,0,1.3431471313476562,0,0,1.225
1.2555330519999188,0,0,1.2401964599609374,0,0,1.9140625000000002
1.2570721460006098,0,0,1.2665326782226562,0,0,1.1484375
1.2587869240005602,0,0,1.4173673828125,0,0,0.765625
1.2604492380005468,0,0,1.3670891479492187,0,0,0.3828125
1.2620590540000194,0,0,1.5179238525390624,0,0,0.6125
1.2637007020002784,0,0,1.6232687255859375,0,0,0.6890625
1.2653366660006213,0,0,1.6543933471679686,0,0,0.9953125
1.2668682600005923,0,0,1.7405846069335937,0,0,1.1484375
1.2684168530004172,0,0,1.446097802734375,0,0,0.6890625
1.2700141140003325,0,0,1.2880804931640624,0,0,0.5359375000000001
1.2716627990002962,0,0,1.2785036865234374,0,0,0.8421875000000001
1.2732391150002513,0,0,1.4772224243164063,0,0,0.8421875000000001
1.2747643749999042,0,0,1.5227122558593749,0,0,1.0718750000000001
1.276389043000563,0,0,1.5203180541992187,0,0,0.45937500000000003
1.2781324859997767,0,0,1.0031704956054688,0,0,0.6890625
1.2796646910001073,0,0,1.2401964599609374,0,0,0.8421875000000001
1.281245322000359,0,0,1.1252747802734375,0,0,0.765625
1.2830512279997492,0,0,1.6424223388671875,0,0,1.225
1.2845948399999543,0,0,1.7908628417968748,0,0,1.6843750000000002
1.2863027290004538,0,0,1.6424223388671875,0,0,2.2203125000000004
1.2880019690001063,0,0,1.455674609375,0,0,1.1484375
1.2896177840002565,0,0,1.6711527587890624,0,0,0.6125
1.2911479710001004,0,0,1.5011644409179687,0,0,0.3828125
1.2928051380004035,0,0,1.4820108276367188,0,0,0.45937500000000003
1.2945450630004416,0,0,1.3335703247070312,0,0,0.8421875000000001
1.296149804000379,0,0,1.2282254516601563,0,0,1.1484375
1.2977247500002704,0,0,1.2425906616210938,0,0,0.45937500000000003
1.2993518060002316,0,0,0.9959878906249999,0,0,0.8421875000000001
1.3009478809999564,0,0,1.5442600708007812,0,0,1.0718750000000001
1.302676213000268,0,0,1.7022773803710936,0,0,1.7609375
1.3044155460002003,0,0,1.7429788085937499,0,0,1.53125
1.3060666940000374,0,0,1.5514426757812498,0,0,1.53125
1.307647194999845,0,0,1.2114660400390624,0,0,-0.22968750000000002
1.309236640000563,0,0,1.199495031738281,0,0,0.0
1.3109811390004324,0,0,1.7381904052734374,0,0,0.765625
1.312722935000238,0,0,1.62805712890625,0,0,1.378125
1.3151109079999515,0,0,1.2210428466796874,0,0,1.0718750000000001
1.3169698319998133,0,0,0.82360537109375,0,0,0.9953125
1.3185692770002788,0,0,1.1755530151367186,0,0,0.8421875000000001
1.3201640190000035,0,0,1.2641384765625,0,0,1.0718750000000001
1.3221666070003266,0,0,1.8938135131835936,0,0,1.378125
1.3239398840005379,0,0,1.5634136840820312,0,0,1.8375000000000001
1.3255194040002607,0,0,1.2234370483398436,0,0,1.0718750000000001
1.3273621979997188,0,0,1.2617442749023438,0,0,1.225
1.3289174580004328,0,0,1.8028338500976562,0,0,0.5359375000000001
1.3309463800005688,0,0,2.0973206542968748,0,0,0.8421875000000001
1.3327738039997712,0,0,1.216254443359375,0,0,1.0718750000000001
1.3343156760001875,0,0,1.0654197387695312,0,0,0.30625
1.3358458439997776,0,0,0.8882488159179687,0,0,0.6890625
1.3377970450001158,0,0,1.4796166259765624,0,0,1.6843750000000002
1.339465433999976,0,0,2.020706201171875,0,0,1.990625
1.3413582459997997,0,0,1.9680337646484374,0,0,1.7609375
1.3429899130005651,0,0,1.0917559570312498,0,0,0.6890625
1.3445294140001351,0,0,1.0606313354492187,0,0,0.22968750000000002
1.3461616000004142,0,0,1.3120225097656248,0,0,2.1437500000000003
1.3479881909997857,0,0,1.8698714965820311,0,0,1.8375000000000001
1.3496743390005577,0,0,1.426944189453125,0,0,1.4546875000000001
1.3514931330000763,0,0,0.8092401611328125,0,0,0.5359375000000001
1.3532658730000549,0,0,0.45010991210937495,0,0,0.30625
1.3550139460003265,0,0,1.3814543579101561,0,0,0.6890625
1.3566008730003887,0,0,2.003946789550781,0,0,1.53125
1.358400723000159,0,0,1.9776105712890624,0,0,2.5265625000000003
1.3601504070002193,0,0,1.1252747802734375,0,0,1.1484375
1.3617487970004731,0,0,1.5370774658203123,0,0,0.8421875000000001
1.3635569250000117,0,0,1.9800047729492187,0,0,0.9953125
1.3652325729999575,0,0,2.1595698974609374,0,0,1.0718750000000001
1.3668101849998493,0,0,1.4939818359375,0,0,0.9187500000000001
1.3686937570000737,0,0,0.4908113403320312,0,0,1.0718750000000001
1.3703849600005924,0,0,0.679953271484375,0,0,0.45937500000000003
1.3720065719999184,0,0,1.6232687255859375,0,0,1.1484375
1.3735448140005246,0,0,1.9991583862304687,0,0,1.4546875000000001
1.375324700999954,0,0,1.6112977172851561,0,0,1.1484375
1.3771836619998794,0,0,0.8307879760742187,0,0,0.765625
1.3787913109999863,0,0,1.2569558715820313,0,0,0.6125
1.380560587999753,0,0,2.0925322509765625,0,0,0.9187500000000001
1.3822560870003144,0,0,1.8363526733398436,0,0,0.9187500000000001
1.383859551000569,0,0,0.7996633544921875,0,0,0.5359375000000001
1.3854437549998693,0,0,0.40940848388671874,0,0,0.5359375000000001
1.387256513000466,0,0,1.0558429321289062,0,0,0.45937500000000003
1.388861014000213,0,0,1.9225439331054686,0,0,1.6078125
1.3905794950005657,0,0,1.7836802368164062,0,0,1.8375000000000001
1.3924899920002645,0,0,1.5155296508789062,0,0,1.53125
1.3941299919997618,0,0,1.3742717529296875,0,0,0.765625
1.3957662330003586,0,0,1.8052280517578123,0,0,0.8421875000000001
1.3973934000005102,0,0,1.8722656982421875,0,0,0.8421875000000001
1.3989462899999126,0,0,1.5514426757812498,0,0,0.30625
1.4008121960005155,0,0,0.9145850341796874,0,0,0.6890625
1.4025701760001539,0,0,1.4221557861328125,0,0,0.8421875000000001
1.404436378000355,0,0,1.915361328125,0,0,1.0718750000000001
1.406082174000403,0,0,1.5394716674804687,0,0,0.5359375000000001
1.4077747660003297,0,0,1.01514150390625,0,0,0.3828125
1.4095706719999725,0,0,1.3383587280273437,0,0,0.9953125
1.4114112630004456,0,0,1.7238251953125,0,0,1.378125
1.4131717800000843,0,0,1.446097802734375,0,0,0.9187500000000001
1.414841317000537,0,0,0.74699091796875,0,0,0.30625
1.4164553549999255,0,0,0.6560112548828124,0,0,0.765625
1.4179883380002138,0,0,1.3455413330078123,0,0,0.765625
1.4196456899999248,0,0,1.8818425048828125,0,0,0.9953125
1.421250061000137,0,0,1.8746598999023436,0,0,0.9187500000000001
1.4229000430004817,0,0,1.2306196533203124,0,0,0.9953125
1.424588746000154,0,0,1.608903515625,0,0,0.765625
1.4262023580004097,0,0,1.9393033447265624,0,0,1.4546875000000001
1.4277597290001722,0,0,1.714248388671875,0,0,1.378125
1.4293422119999377,0,0,1.2473790649414063,0,0,0.9187500000000001
1.4309774710000056,0,0,0.8475473876953125,0,0,0.45937500000000003
1.432566491000216,0,0,1.3000515014648437,0,0,0.8421875000000001
1.4342446939999718,0,0,1.7956512451171873,0,0,1.1484375
1.4359516009999425,0,0,1.407790576171875,0,0,0.6890625
1.4376104530001612,0,0,1.0295067138671874,0,0,1.4546875000000001
1.4394305619998704,0,0,1.3096283081054687,0,0,0.8421875000000001
1.4412973750004312,0,0,1.388636962890625,0,0,0.0765625
1.4429905970000618,0,0,1.3455413330078123,0,0,0.9187500000000001
1.4449220750002496,0,0,1.2401964599609374,0,0,0.9187500000000001
1.4465972980005972,0,0,1.5083470458984374,0,0,1.378125
1.448275186000501,0,0,1.4317325927734375,0,0,1.990625
1.4498635199997807,0,0,1.3527239379882812,0,0,1.6078125
1.4515806489998795,0,0,1.4413093994140624,0,0,0.22968750000000002
1.4533215749997908,0,0,1.9895815795898437,0,0,0.8421875000000001
1.4548883349998505,0,0,2.1595698974609374,0,0,1.0718750000000001
1.4564956129997881,0,0,1.2665326782226562,0,0,0.5359375000000001
1.4580834289999984,0,0,1.0127473022460938,0,0,1.0718750000000001
1.4599594640003488,0,0,1.3814543579101561,0,0,1.225
1.4615550759999678,0,0,1.8770541015625,0,0,1.990625
1.4630880770000658,0,0,1.7429788085937499,0,0,1.53125
1.4649267969998618,0,0,1.1731588134765625,0,0,0.45937500000000003
1.4666304080001282,0,0,1.3359645263671873,0,0,0.22968750000000002
1.4693992479997178,0,0,1.3287819213867187,0,0,0.5359375000000001
1.471146969000074,0,0,0.7134720947265625,0,0,0.30625
1.4727377099998193,0,0,1.1707646118164061,0,0,1.3015625000000002
1.4746564480001325,0,0,1.5658078857421873,0,0,0.9953125
1.4763220780005213,0,0,1.7980454467773437,0,0,1.3015625000000002
1.477915911999844,0,0,1.4245499877929686,0,0,1.3015625000000002
1.479608929999813,0,0,1.8459294799804686,0,0,1.378125
1.481314225999995,0,0,1.7932570434570312,0,0,0.6890625
1.4829459669999778,0,0,1.7381904052734374,0,0,0.3828125
1.4844904500005214,0,0,1.1037269653320312,0,0,0.6890625
1.4861146170005668,0,0,1.4772224243164063,0,0,0.9953125
1.4878134130003673,0,0,1.4437036010742186,0,0,0.9953125
1.4894376540005396,0,0,1.4341267944335936,0,0,1.0718750000000001
1.4910573220004153,0,0,1.1348515869140625,0,0,1.1484375
1.4925965270003871,0,0,1.5083470458984374,0,0,1.225
1.4941648049998548,0,0,1.5514426757812498,0,0,0.6890625
1.4958043240003462,0,0,1.2785036865234374,0,0,0.5359375000000001
1.4974407500003508,0,0,1.0295067138671874,0,0,0.5359375000000001
1.4990369730003295,0,0,1.3407529296874998,0,0,1.3015625000000002
1.500677658999848,0,0,1.4772224243164063,0,0,1.0718750000000001
1.503324055000121,0,0,1.5538368774414062,0,0,0.3828125
1.5048989080005413,0,0,1.455674609375,0,0,0.9187500000000001
1.506494334999843,0,0,1.9895815795898437,0,0,0.6125
1.5081387979998908,0,0,1.5705962890624998,0,0,0.9953125
1.5097611689998303,0,0,1.2737152832031249,0,0,0.9187500000000001
1.511402391000047,0,0,1.47482822265625,0,0,1.0718750000000001
1.513067169000351,0,0,1.5777788940429687,0,0,1.225
1.5147214099997655,0,0,1.6041151123046875,0,0,0.9953125
1.5164555580004162,0,0,1.2569558715820313,0,0,0.6125
1.518094984000527,0,0,1.6352397338867186,0,0,0.30625
1.5196148370005176,0,0,1.0079588989257813,0,0,0.22968750000000002
1.521322966000298,0,0,0.9840168823242187,0,0,0.0
1.523240407999765,0,0,1.0606313354492187,0,0,1.9140625000000002
1.5249143339997318,0,0,1.838746875,0,0,1.9140625000000002
1.5265087980005774,0,0,1.6735469604492186,0,0,1.4546875000000001
1.52813122400039,0,0,1.0965443603515623,0,0,0.765625
1.529678540000532,0,0,1.3431471313476562,0,0,0.9953125
1.531293781000386,0,0,1.7381904052734374,0,0,1.0718750000000001
1.5335750340000232,0,0,1.8219874633789062,0,0,1.990625
1.5353527180004676,0,0,1.6400281372070311,0,0,1.4546875000000001
1.5368989039998269,0,0,1.4437036010742186,0,0,0.9187500000000001
1.5388066240002445,0,0,1.2665326782226562,0,0,0.5359375000000001
1.540623695999784,0,0,1.3742717529296875,0,0,0.6125
1.5422005860000354,0,0,1.8004396484374998,0,0,0.6890625
1.5437618460000522,0,0,1.2952630981445312,0,0,1.3015625000000002
1.5457995639999353,0,0,0.74699091796875,0,0,0.6890625
1.5474236390000442,0,0,0.7206546997070312,0,0,0.9953125
1.549280655000075,0,0,1.5011644409179687,0,0,0.8421875000000001
1.551173208000364,0,0,1.5849614990234373,0,0,1.9140625000000002
1.5527619499998764,0,0,1.0271125122070313,0,0,1.1484375
1.5546315399997184,0,0,1.838746875,0,0,0.45937500000000003
1.5563560770006006,0,0,1.93451494140625,0,0,1.1484375
1.5580239840001013,0,0,2.0757728393554684,0,0,1.3015625000000002
1.5612875220003843,0,0,1.4987702392578124,0,0,1.378125
1.563377369000591,0,0,0.9576806640625,0,0,0.0
1.565061164999861,0,0,1.3527239379882812,0,0,0.0
1.5668724779998229,0,0,1.6448165405273436,0,0,0.8421875000000001
1.568737012999918,0,0,0.9624690673828125,0,0,0.765625
1.5703499769997507,0,0,0.5793968017578125,0,0,1.225
1.5718947929999558,0,0,1.3623007446289062,0,0,1.1484375
1.5735070709997672,0,0,1.35990654296875,0,0,1.4546875000000001
1.5752955699999802,0,0,1.4891934326171874,0,0,0.6890625
1.5769902920001186,0,0,1.7477672119140624,0,0,1.53125
1.5785785699999906,0,0,2.0278888061523435,0,0,1.1484375
1.580313661999753,0,0,1.6543933471679686,0,0,1.4546875000000001
1.5818605340000431,0,0,1.4628572143554686,0,0,1.378125
1.5835154779997538,0,0,1.484405029296875,0,0,1.225
1.5851213309997547,0,0,1.1372457885742187,0,0,1.6078125
1.5868613299999197,0,0,1.2713210815429687,0,0,0.6125
1.5887122909998652,0,0,1.8626888916015625,0,0,0.30625
1.5902989770002023,0,0,1.4317325927734375,0,0,0.6125
1.5921078270002909,0,0,0.6943184814453125,0,0,0.6125
1.5936902350003948,0,0,1.1707646118164061,0,0,1.4546875000000001
1.595283587999802,0,0,1.2785036865234374,0,0,1.3015625000000002
1.5970836790002068,0,0,1.5370774658203123,0,0,1.53125
1.5988278639997588,0,0,1.5729904907226562,0,0,1.378125
1.6005075860002762,0,0,1.7381904052734374,0,0,0.8421875000000001
1.602376990999801,0,0,1.7190367919921874,0,0,1.0718750000000001
1.6040880640002797,0,0,1.5394716674804687,0,0,0.6890625
1.606015024000044,0,0,1.5682020874023437,0,0,1.6843750000000002
1.60779411600015,0,0,1.2138602416992186,0,0,1.7609375
1.6093776349998734,0,0,1.0797849487304687,0,0,0.22968750000000002
1.611132281999744,0,0,1.1085153686523437,0,0,0.45937500000000003
1.6128253189999668,0,0,0.9265560424804687,0,0,0.6890625
1.6144366340004126,0,0,0.7900865478515624,0,0,0.9187500000000001
1.6159801170006176,0,0,1.5849614990234373,0,0,1.990625
1.6178285040004994,0,0,1.668758557128906,0,0,1.6078125
1.619467911999891,0,0,1.3144167114257812,0,0,2.6031250000000004
1.621050968000418,0,0,1.5155296508789062,0,0,0.765625
1.62295581699982,0,0,1.7381904052734374,0,0,0.9187500000000001
1.6246515020002334,0,0,1.8938135131835936,0,0,1.4546875000000001
1.6261915960003535,0,0,1.9393033447265624,0,0,1.3015625000000002
1.6277410049997343,0,0,1.3718775512695311,0,0,1.1484375
1.6294561889999386,0,0,0.8834604125976562,0,0,0.0
1.6311608000005435,0,0,1.3646949462890625,0,0,-0.22968750000000002
1.6327351350000754,0,0,1.0845733520507812,0,0,0.30625
1.634454208000534,0,0,0.9433154541015625,0,0,0.0
1.636248169999817,0,0,1.1923124267578125,0,0,1.6843750000000002
1.6380014280002797,0,0,1.7860744384765623,0,0,1.9140625000000002
1.6397305380005491,0,0,1.2234370483398436,0,0,1.378125
1.6414318340002865,0,0,1.4820108276367188,0,0,1.3015625000000002
1.642973613000322,0,0,1.7956512451171873,0,0,0.6890625
1.6446460580000348,0,0,2.1619640991210938,0,0,1.1484375
1.6462418729997808,0,0,2.1068974609374997,0,0,1.225
1.6479549100004078,0,0,1.8698714965820311,0,0,0.9187500000000001
1.64962616899993,0,0,0.6967126831054687,0,0,0.22968750000000002
1.6512425400005668,0,0,0.9457096557617187,0,0,0.22968750000000002
1.652894243999981,0,0,0.9816226806640624,0,0,0.22968750000000002
1.6545549290003692,0,0,0.9744400756835937,0,0,0.6125
1.656157541000539,0,0,0.8762778076171874,0,0,1.6078125
1.6576899680003407,0,0,1.5705962890624998,0,0,2.2203125000000004
1.6592683210001269,0,0,1.3168109130859373,0,0,1.7609375
1.6609185249999427,0,0,1.2593500732421874,0,0,0.9953125
1.6624571930005914,0,0,1.5849614990234373,0,0,0.9187500000000001
1.6641122480004924,0,0,2.0087351928710935,0,0,1.378125
1.665820025999892,0,0,1.886630908203125,0,0,0.9187500000000001
1.6674125819999972,0,0,1.9584569580078124,0,0,2.296875
1.6689494540005398,0,0,1.7693150268554687,0,0,1.1484375
1.6704746960003831,0,0,1.2808978881835937,0,0,0.3828125
1.6720679930003826,0,0,1.16837041015625,0,0,0.0
1.6736661610002557,0,0,0.7996633544921875,0,0,0.45937500000000003
1.6752946799997517,0,0,0.7517793212890624,0,0,0.153125
1.676895976999731,0,0,1.3862427612304686,0,0,1.9140625000000002
1.678520829000263,0,0,1.3670891479492187,0,0,1.6843750000000002
1.680187847000525,0,0,1.1085153686523437,0,0,1.3015625000000002
1.6818639580005765,0,0,1.5346832641601562,0,0,1.3015625000000002
1.6835019400004967,0,0,1.714248388671875,0,0,0.9953125
1.6850463860000673,0,0,2.001552587890625,0,0,1.0718750000000001
1.686674442000367,0,0,2.473210314941406,0,0,2.0671875
1.6883260900003734,0,0,2.4875755249023435,0,0,2.6796875
1.6899592760000814,0,0,1.446097802734375,0,0,1.0718750000000001
1.6915301839999302,0,0,1.005564697265625,0,0,0.22968750000000002
1.6931930179998744,0,0,0.612915625,0,0,9.4171875
1.6949004620000778,0,0,0.8451531860351562,0,0,9.340625000000001
1.6964797770006044,0,0,1.0917559570312498,0,0,1.3015625000000002
1.69810127799974,0,0,1.426944189453125,0,0,1.225
1.6997833890000038,0,0,0.8475473876953125,0,0,0.8421875000000001
1.701430443999925,0,0,0.5674257934570313,0,0,1.1484375
1.7029739640001935,0,0,1.5179238525390624,0,0,-8.6515625
1.7045822979998775,0,0,2.1404162841796874,0,0,1.8375000000000001
1.7062316870005816,0,0,2.3630770385742186,0,0,2.2203125000000004
1.7078665030003322,0,0,2.0278888061523435,0,0,2.296875
1.7094090959999448,0,0,1.429338391113281,0,0,0.45937500000000003
1.7109333570006129,0,0,1.1851298217773436,0,0,0.0
1.7126507640005002,0,0,1.1324573852539062,0,0,0.153125
1.7142946160001884,0,0,0.70868369140625,0,0,9.340625000000001
1.7158834870006103,0,0,1.4796166259765624,0,0,0.6125
1.7177370220006196,0,0,1.1659762084960936,0,0,2.296875
1.719367634000264,0,0,0.6727706665039062,0,0,1.378125
1.721013282000058,0,0,1.2641384765625,0,0,0.765625
1.7248164439997709,0,0,2.3870190551757813,0,0,2.1437500000000003
1.7276817270003448,0,0,1.6208745239257811,0,0,1.1484375
1.730063181999867,0,0,0.9648632690429687,0,0,-0.3828125
1.732152491999841,0,0,0.9576806640625,0,0,0.0
1.7343978369999604,0,0,1.4030021728515625,0,0,1.378125
1.7365118140005507,0,0,0.8786720092773437,0,0,1.6843750000000002
1.738093222000316,0,0,0.36391865234375,0,0,1.3015625000000002
1.7396673530001863,0,0,1.0869675537109373,0,0,1.4546875000000001
1.7413244819999818,0,0,1.4891934326171874,0,0,1.7609375
1.7429868159997568,0,0,2.2098481323242187,0,0,1.7609375
1.7445102800002132,0,0,2.3343466186523436,0,0,1.378125
1.7465013510000063,0,0,1.1875240234375,0,0,0.6890625
1.7484827730004326,0,0,0.7781155395507812,0,0,0.0765625
1.7500361820002581,0,0,0.8643067993164062,0,0,0.0
1.7516014049997466,0,0,1.3192051147460937,0,0,0.6125
1.7536855110001852,0,0,1.9967641845703124,0,0,1.53125
1.7554041960001996,0,0,1.254561669921875,0,0,1.1484375
1.7572941190001075,0,0,0.7589619262695312,0,0,0.9187500000000001
1.7589663050002855,0,0,0.9313444458007812,0,0,0.9953125
1.7605673240004762,0,0,2.068590234375,0,0,0.9953125
1.762097659000574,0,0,2.887407202148437,0,0,2.296875
1.7637506589999248,0,0,2.061407629394531,0,0,1.53125
1.7654044000000795,0,0,1.3814543579101561,0,0,0.6890625
1.767153750000034,0,0,0.354341845703125,0,0,-0.153125
1.7689246010004354,0,0,0.7445967163085937,0,0,-0.765625
1.7706340270005967,0,0,2.109291662597656,0,0,1.990625
1.772356469999977,0,0,2.109291662597656,0,0,2.1437500000000003
1.7738870270004554,0,0,1.1133037719726562,0,0,1.0718750000000001
1.7756115640004282,0,0,0.59376201171875,0,0,0.153125
1.7773525070006144,0,0,0.6919242797851562,0,0,0.8421875000000001
1.7788903239998035,0,0,2.176329309082031,0,0,1.1484375
1.7805537680005727,0,0,2.786850732421875,0,0,1.6843750000000002
1.7822585640005855,0,0,2.2026655273437497,0,0,2.1437500000000003
1.7837919539997529,0,0,1.0199299072265624,0,0,0.0
1.7854288990001805,0,0,0.6655880615234374,0,0,-0.45937500000000003
1.787445136000315,0,0,0.5626373901367188,0,0,0.5359375000000001
1.7890725249999377,0,0,1.9704279663085937,0,0,0.45937500000000003
1.7907160989998374,0,0,1.5705962890624998,0,0,0.6125
1.7927120220001598,0,0,0.7781155395507812,0,0,1.378125
1.7943853180004226,0,0,0.4165910888671875,0,0,1.3015625000000002
1.796064244000263,0,0,1.5370774658203123,0,0,0.45937500000000003
1.7976068010002564,0,0,3.0023288818359375,0,0,2.2203125000000004
1.7994387799999458,0,0,2.703053674316406,0,0,1.53125
1.8010731510003097,0,0,1.2401964599609374,0,0,0.6125
1.8028272239998842,0,0,0.507570751953125,0,0,0.22968750000000002
1.8046493700003339,0,0,1.216254443359375,0,0,0.9187500000000001
1.8065294420002829,0,0,1.908178723144531,0,0,1.6843750000000002
1.808498346000306,0,0,0.9265560424804687,0,0,0.8421875000000001
1.810384807000446,0,0,0.9169792358398436,0,0,0.6890625
1.8123491550004474,0,0,0.5051765502929687,0,0,0.0
1.8139923039998394,0,0,2.2002713256835937,0,0,1.3015625000000002
1.815667859000314,0,0,2.7341782958984373,0,0,1.4546875000000001
1.8173330440004065,0,0,1.9584569580078124,0,0,1.53125
1.8188692310004626,0,0,0.5123591552734374,0,0,0.0
1.8204926389998946,0,0,0.21787235107421873,0,0,-0.8421875000000001
1.8222197310005868,0,0,0.93852705078125,0,0,0.9953125
1.824016747999849,0,0,2.43250888671875,0,0,2.2203125000000004
1.8257770800000799,0,0,1.7741034301757812,0,0,1.9140625000000002
1.827503338000497,0,0,0.6943184814453125,0,0,0.9187500000000001
1.8292587450005158,0,0,0.70868369140625,0,0,0.765625
1.8312953330005257,0,0,1.886630908203125,0,0,1.53125
1.8332298860004812,0,0,2.403778466796875,0,0,0.6125
1.8350538470003812,0,0,1.5466542724609373,0,0,0.8421875000000001
1.8368167529997663,0,0,0.19632453613281248,0,0,0.0765625
1.838530752999759,0,0,0.8810662109374999,0,0,0.9187500000000001
1.8402857330002007,0,0,1.4413093994140624,0,0,0.9953125
1.842176397000003,0,0,2.0278888061523435,0,0,0.6125
1.8440012480004953,0,0,1.637633935546875,0,0,1.225
1.8457939310001166,0,0,1.0223241088867188,0,0,0.9953125
1.8474249689998032,0,0,1.7334020019531249,0,0,1.53125
1.848974229000305,0,0,2.1811177124023438,0,0,0.9953125
1.8507280989997525,0,0,1.9009961181640624,0,0,0.9187500000000001
1.8523519689997556,0,0,0.9624690673828125,0,0,0.22968750000000002
1.8538900820003619,0,0,0.1197100830078125,0,0,-1.3015625000000002
1.8556372849998297,0,0,1.2880804931640624,0,0,0.45937500000000003
1.857260118999875,0,0,2.0470424194335934,0,0,1.8375000000000001
1.8587956199999098,0,0,1.5921441040039062,0,0,1.53125
1.860540267000033,0,0,0.8188169677734375,0,0,1.4546875000000001
1.8621490089999497,0,0,0.814028564453125,0,0,1.3015625000000002
1.8636838250004075,0,0,2.3032219970703123,0,0,1.6078125
1.8654015100000834,0,0,2.482787121582031,0,0,0.765625
1.867017603000022,0,0,2.327164013671875,0,0,0.22968750000000002
1.8685603080002693,0,0,0.97683427734375,0,0,0.6890625
1.8702307889998337,0,0,0.38786066894531246,0,0,-0.22968750000000002
1.8720207320002373,0,0,0.8595183959960937,0,0,0.5359375000000001
1.873785990000215,0,0,1.4532804077148436,0,0,0.6890625
1.8754250829997545,0,0,1.4628572143554686,0,0,1.6843750000000002
1.8772114710000096,0,0,0.8595183959960937,0,0,0.9953125
1.8787606570003845,0,0,1.2378022583007813,0,0,0.3828125
1.8802927880005882,0,0,1.8626888916015625,0,0,1.1484375
1.8818781970003329,0,0,2.1260510742187497,0,0,0.8421875000000001
1.8836329180003304,0,0,1.446097802734375,0,0,0.9187500000000001
1.88520888200037,0,0,1.0965443603515623,0,0,0.0
1.886909752000065,0,0,0.6560112548828124,0,0,0.3828125
1.8887500279997766,0,0,1.4173673828125,0,0,0.9187500000000001
1.890417915999933,0,0,1.8267758666992187,0,0,0.9187500000000001
1.8919825100001617,0,0,1.197100830078125,0,0,0.8421875000000001
1.8936371400004646,0,0,0.6607996582031249,0,0,0.153125
1.895287510000344,0,0,1.5251064575195312,0,0,0.9187500000000001
1.8968276229998082,0,0,2.1643583007812497,0,0,0.765625
1.8984589570000026,0,0,2.133233679199219,0,0,1.3015625000000002
1.9004315460006183,0,0,1.2210428466796874,0,0,0.45937500000000003
1.9022006559998772,0,0,0.09576806640624999,0,0,-9.8
1.9040688020004382,0,0,1.3048399047851562,0,0,0.3828125
1.905801689999862,0,0,1.9847931762695312,0,0,1.6078125
1.9075637260002622,0,0,1.3215993164062498,0,0,1.6078125
1.9094154639997214,0,0,0.6607996582031249,0,0,0.153125
1.9114092199997685,0,0,1.484405029296875,0,0,1.225
1.9130901090002226,0,0,2.5354595581054684,0,0,0.5359375000000001
1.9147187569997186,0,0,1.927332336425781,0,0,1.53125
1.916313165000247,0,0,1.0031704956054688,0,0,0.8421875000000001
1.9178457779999007,0,0,-0.05985504150390625,0,0,-0.5359375000000001
1.9194483709998167,0,0,0.8379705810546875,0,0,0.22968750000000002
1.9210940009998012,0,0,1.7908628417968748,0,0,1.7609375
1.9227041310005006,0,0,1.4030021728515625,0,0,0.5359375000000001
1.9242454850000286,0,0,1.0079588989257813,0,0,1.990625
1.925805689000299,0,0,0.9409212524414062,0,0,0.3828125
1.9275108190004175,0,0,2.2744915771484373,0,0,1.4546875000000001
1.929183021999961,0,0,2.786850732421875,0,0,1.6843750000000002
1.9307234679999965,0,0,2.0159177978515626,0,0,1.1484375
1.9322530810004537,0,0,1.1563994018554686,0,0,0.3828125
1.9344659079997655,0,0,-0.0909796630859375,0,0,0.0
1.9362529440004437,0,0,1.2952630981445312,0,0,0.0
1.9378051300000152,0,0,1.5227122558593749,0,0,0.9953125
1.9400487530001556,0,0,1.1444283935546875,0,0,1.3015625000000002
1.9417027720000988,0,0,0.9888052856445312,0,0,1.53125
1.94323749600062,0,0,1.6543933471679686,0,0,1.53125
1.9447636820004846,0,0,2.499546533203125,0,0,1.4546875000000001
1.946909436000169,0,0,2.1906945190429687,0,0,0.8421875000000001
1.9486491210000167,0,0,1.0223241088867188,0,0,0.30625
1.950227936000374,0,0,0.584185205078125,0,0,0.0765625
1.9525239109998438,0,0,1.1252747802734375,0,0,0.765625
1.9542799470000318,0,0,1.3575123413085937,0,0,0.6890625
1.9559901500006163,0,0,0.737414111328125,0,0,0.5359375000000001
1.958224273000269,0,0,0.8499415893554687,0,0,0.9187500000000001
1.9598459779999757,0,0,2.50912333984375,0,0,2.296875
1.9614296820000163,0,0,2.3511060302734372,0,0,1.3015625000000002
1.9632180879998486,0,0,2.166752502441406,0,0,0.765625
1.9650482160004685,0,0,1.0342951171875,0,0,0.3828125
1.9666761979997318,0,0,0.8954314208984374,0,0,0.22968750000000002
1.9683262349999495,0,0,1.8052280517578123,0,0,0.9953125
1.9705299140005081,0,0,1.1755530151367186,0,0,1.0718750000000001
1.9735061769997628,0,0,0.507570751953125,0,0,2.75625
1.975192861999858,0,0,1.484405029296875,0,0,1.6843750000000002
1.9768725840003754,0,0,2.3415292236328122,0,0,0.9953125
1.9784999370003788,0,0,2.0183119995117185,0,0,1.378125
1.9802637319999121,0,0,1.4245499877929686,0,0,0.9953125
1.9819856760004768,0,0,0.09337386474609374,0,0,0.22968750000000002
1.9836753420004243,0,0,1.6998831787109374,0,0,0.6125
1.9854531370001496,0,0,1.697488977050781,0,0,1.4546875000000001
1.987021304999871,0,0,0.9864110839843749,0,0,1.225
1.9888343220000024,0,0,0.833182177734375,0,0,1.0718750000000001
1.9906666349997977,0,0,1.9321207397460936,0,0,1.4546875000000001
1.992513281000356,0,0,2.29843359375,0,0,1.7609375
1.9943193350000001,0,0,1.9847931762695312,0,0,1.53125
1.9959107250006127,0,0,1.3192051147460937,0,0,0.8421875000000001
1.997680704999766,0,0,0.18435352783203124,0,0,-1.225
1.9995694990002448,0,0,1.5131354492187499,0,0,0.765625
2.001239758000338,0,0,1.9536685546875,0,0,1.53125
2.0028326660003586,0,0,1.209071838378906,0,0,1.9140625000000002
2.004495870000028,0,0,0.6775590698242188,0,0,1.225
2.0061021480005365,0,0,1.0462661254882812,0,0,1.53125
2.007633297999746,0,0,2.4253262817382812,0,0,2.0671875
2.0092295760005072,0,0,2.578555187988281,0,0,1.0718750000000001
2.0113276090005456,0,0,2.4349030883789062,0,0,0.765625
2.0130518120004126,0,0,0.5602431884765625,0,0,0.0765625
2.0146784420003314,0,0,0.38786066894531246,0,0,0.153125
2.0164328850005404,0,0,1.5203180541992187,0,0,0.9953125
2.0180406270001185,0,0,1.3527239379882812,0,0,1.225
2.019570127999941,0,0,0.9433154541015625,0,0,1.990625
2.0211725549997936,0,0,0.6512228515624999,0,0,1.225
2.023046108000017,0,0,1.5777788940429687,0,0,0.9187500000000001
2.0246589050002513,0,0,2.3726538452148436,0,0,1.3015625000000002
2.026236757999868,0,0,2.3439234252929686,0,0,1.0718750000000001
2.027947590000622,0,0,1.687912170410156,0,0,0.30625
2.0294939989998966,0,0,1.0295067138671874,0,0,-0.6125
2.0310196299997187,0,0,0.5027823486328125,0,0,0.153125
2.032765889000075,0,0,1.465251416015625,0,0,0.6890625
2.0345751089998885,0,0,0.9121908325195311,0,0,0.8421875000000001
2.036263349999899,0,0,0.8092401611328125,0,0,0.765625
2.037918035000075,0,0,0.7565677246093749,0,0,1.378125
2.039745699999912,0,0,2.3630770385742186,0,0,1.6078125
2.0415219209999123,0,0,2.710236279296875,0,0,1.7609375
2.0431866059998356,0,0,2.3032219970703123,0,0,0.5359375000000001
2.044809181000346,0,0,0.833182177734375,0,0,-0.22968750000000002
2.0466651970000385,0,0,0.679953271484375,0,0,0.3828125
2.048404696000034,0,0,1.2856862915039062,0,0,1.6843750000000002
2.0500716960004866,0,0,1.5538368774414062,0,0,0.5359375000000001
2.0516630299998724,0,0,1.1156979736328125,0,0,1.225
2.0533201230000486,0,0,0.7062894897460937,0,0,0.9953125
2.054963475000477,0,0,1.0175357055664063,0,0,1.1484375
2.056602548999763,0,0,2.2553379638671873,0,0,1.7609375
2.05833423400054,0,0,1.9919757812499999,0,0,1.378125
2.0602019349998955,0,0,1.927332336425781,0,0,0.9953125
2.0619785640001282,0,0,0.4740519287109375,0,0,-0.45937500000000003
2.0637993950003874,0,0,1.7908628417968748,0,0,0.30625
2.06566459700025,0,0,1.62805712890625,0,0,0.5359375000000001
2.0674667620005494,0,0,1.1013327636718748,0,0,1.7609375
2.0692842050002582,0,0,0.5219359619140624,0,0,0.6890625
2.071184665000146,0,0,1.1061211669921875,0,0,1.225
2.0729398680005033,0,0,2.300827795410156,0,0,1.0718750000000001
2.0746430340004736,0,0,2.0877438476562498,0,0,1.53125
2.0765163089999987,0,0,0.6919242797851562,0,0,1.1484375
2.0782826229997227,0,0,0.14125789794921875,0,0,0.30625
2.079937808000068,0,0,1.5370774658203123,0,0,0.6125
2.0816036790001817,0,0,1.6543933471679686,0,0,1.3015625000000002
2.0833213820005767,0,0,1.7597382202148437,0,0,1.6843750000000002
2.0850723439998546,0,0,0.9911994873046874,0,0,0.9187500000000001
2.0867634180003733,0,0,0.967257470703125,0,0,1.225
2.0886766929997975,0,0,2.1811177124023438,0,0,1.378125
2.090592468000068,0,0,2.35589443359375,0,0,0.6890625
2.0923070600001665,0,0,1.47482822265625,0,0,0.6890625
2.094006762999925,0,0,0.296881005859375,0,0,-0.45937500000000003
2.0958918349997475,0,0,1.4772224243164063,0,0,0.0765625
2.0977744250003525,0,0,1.419761584472656,0,0,0.5359375000000001
2.09988121600054,0,0,1.0199299072265624,0,0,2.296875
2.1017597509999177,0,0,0.9959878906249999,0,0,1.0718750000000001
2.103778247000264,0,0,2.31758720703125,0,0,1.990625
2.1056026900005236,0,0,2.4516625,0,0,1.378125
2.107393948000208,0,0,2.042254016113281,0,0,0.9187500000000001
2.1092381309999837,0,0,0.63206923828125,0,0,-1.0718750000000001
2.111282626000502,0,0,0.4285620971679687,0,0,0.0
2.113076514000568,0,0,1.678335363769531,0,0,1.6078125
2.1149329010004294,0,0,1.3575123413085937,0,0,1.53125
2.116698937000365,0,0,0.4525041137695312,0,0,0.6125
2.1184335100006138,0,0,0.4261678955078125,0,0,0.8421875000000001
2.120168397999805,0,0,2.059013427734375,0,0,1.53125
2.121911600999738,0,0,2.5234885498046875,0,0,2.0671875
2.1235747489999994,0,0,1.8722656982421875,0,0,1.0718750000000001
2.1252357490002396,0,0,1.0606313354492187,0,0,0.153125
2.1268609529997775,0,0,0.6919242797851562,0,0,0.3828125
2.128437528000177,0,0,1.3742717529296875,0,0,0.3828125
2.1299600110005485,0,0,1.5275006591796874,0,0,0.8421875000000001
2.131573734000085,0,0,1.1923124267578125,0,0,0.30625
2.1332296790005785,0,0,0.9097966308593749,0,0,0.6125
2.134772401999726,0,0,1.2856862915039062,0,0,0.765625
2.1363942180005324,0,0,1.5801730957031248,0,0,1.4546875000000001
2.1380154590005986,0,0,1.7884686401367187,0,0,1.3015625000000002
2.139566830000149,0,0,1.24498486328125,0,0,0.6125
2.141170183000213,0,0,0.8283937744140625,0,0,0.5359375000000001
2.1427864799998133,0,0,1.3575123413085937,0,0,0.5359375000000001
2.1444473130004553,0,0,2.0638018310546875,0,0,1.6843750000000002
2.1459782960000666,0,0,2.1715409057617188,0,0,0.5359375000000001
2.1476000190004925,0,0,0.9265560424804687,0,0,0.8421875000000001
2.149375758000133,0,0,0.28490999755859375,0,0,0.30625
2.150914370999999,0,0,0.7565677246093749,0,0,0.0
2.1525284270001066,0,0,2.2026655273437497,0,0,0.45937500000000003
2.1542717960001028,0,0,2.2553379638671873,0,0,3.4453125000000004
2.155999370000245,0,0,1.3168109130859373,0,0,1.378125
2.1578091649998896,0,0,0.0,0,0,-0.30625
2.1595582380005,0,0,1.6304513305664061,0,0,0.5359375000000001
2.1612831630000073,0,0,1.917755529785156,0,0,1.53125
2.1634161210004095,0,0,2.1212626708984375,0,0,1.6843750000000002
2.1651616200006174,0,0,1.1707646118164061,0,0,0.8421875000000001
2.1668787300004624,0,0,0.9911994873046874,0,0,1.0718750000000001
2.1687378950000493,0,0,1.8052280517578123,0,0,0.9187500000000001
2.1704697639997903,0,0,2.133233679199219,0,0,2.3734375
2.172220078000464,0,0,1.3168109130859373,0,0,1.53125
2.173881188999985,0,0,0.4165910888671875,0,0,0.0
2.175484948999838,0,0,0.8954314208984374,0,0,0.9953125
2.177186931000506,0,0,1.6831237670898436,0,0,0.9953125
2.178888096999799,0,0,1.1228805786132812,0,0,0.9187500000000001
2.1806009669999185,0,0,0.9648632690429687,0,0,0.765625
2.182205189999877,0,0,0.8259995727539062,0,0,1.4546875000000001
2.1842024819998187,0,0,2.090138049316406,0,0,1.7609375
2.1858669640005246,0,0,2.6384102294921874,0,0,1.378125
2.1874057610002637,0,0,2.360682836914062,0,0,0.22968750000000002
2.189094168000338,0,0,0.5147533569335937,0,0,-0.6125
2.190812186000585,0,0,0.6655880615234374,0,0,-0.153125
2.1924900750000234,0,0,1.656787548828125,0,0,1.53125
2.1942402220001895,0,0,1.89620771484375,0,0,0.5359375000000001
2.1959817400002066,0,0,1.2138602416992186,0,0,0.6125
2.1976094259998717,0,0,0.17477672119140625,0,0,0.6125
2.199169964000248,0,0,0.8571241943359375,0,0,0.8421875000000001
2.2008055200003582,0,0,1.9991583862304687,0,0,0.765625
2.202483427000516,0,0,2.2290017456054687,0,0,1.6078125
2.2041365200002474,0,0,1.7190367919921874,0,0,1.3015625000000002
2.205769557000167,0,0,0.5339069702148437,0,0,-0.30625
2.207475852999778,0,0,1.199495031738281,0,0,0.8421875000000001
2.209070965000137,0,0,1.8650830932617186,0,0,1.4546875000000001
2.2106449660004728,0,0,1.5035586425781249,0,0,1.1484375
2.2123590020000847,0,0,1.0821791503906248,0,0,0.22968750000000002
2.2139926509998986,0,0,0.7852981445312499,0,0,-0.153125
2.2155303930003356,0,0,1.8842367065429686,0,0,0.9953125
2.2170643939998627,0,0,2.281674182128906,0,0,0.765625
2.2188837069998044,0,0,1.6639701538085936,0,0,0.9187500000000001
2.2205448189997696,0,0,0.6584054565429687,0,0,1.1484375
2.222178652000366,0,0,0.143652099609375,0,0,-9.723437500000001
2.2238631709997208,0,0,2.0757728393554684,0,0,0.9953125
2.225688909999917,0,0,1.7621324218749999,0,0,1.0718750000000001
2.2274713900005736,0,0,1.7645266235351562,0,0,1.225
2.229119315999924,0,0,0.9121908325195311,0,0,0.6890625
2.230668928000341,0,0,1.1109095703125,0,0,0.5359375000000001
2.232408075999956,0,0,1.8722656982421875,0,0,1.378125
2.2339992619999975,0,0,1.8267758666992187,0,0,1.3015625000000002
2.235650743000406,0,0,1.1563994018554686,0,0,0.9953125
2.237387576000401,0,0,0.603338818359375,0,0,9.646875000000001
2.2390179459998762,0,0,0.622492431640625,0,0,0.765625
2.2406616320004105,0,0,1.5275006591796874,0,0,1.53125
2.2423520950005695,0,0,1.7190367919921874,0,0,1.1484375
2.2439773730002344,0,0,1.618480322265625,0,0,1.7609375
2.245522152000376,0,0,0.9648632690429687,0,0,0.9953125
2.2472847059998458,0,0,1.1348515869140625,0,0,1.3015625000000002
2.24891726199985,0,0,2.250549560546875,0,0,0.3828125
2.2504937630001223,0,0,2.1906945190429687,0,0,1.0718750000000001
2.2520673380004155,0,0,1.3455413330078123,0,0,0.30625
2.253679987000396,0,0,-0.023942016601562498,0,0,-0.8421875000000001
2.2552595249999285,0,0,0.3902548706054687,0,0,-0.0765625
2.256896654999764,0,0,1.3742717529296875,0,0,0.9953125
2.258566377000534,0,0,1.5298948608398437,0,0,1.53125
2.260213637000561,0,0,1.3431471313476562,0,0,2.1437500000000003
2.2618466559997614,0,0,0.8307879760742187,0,0,1.3015625000000002
2.2637770970004567,0,0,2.068590234375,0,0,1.225
2.265423190000547,0,0,2.35589443359375,0,0,0.0
2.2671893369997633,0,0,2.250549560546875,0,0,0.765625
2.2688389479999387,0,0,1.0414777221679687,0,0,0.5359375000000001
2.2704990040001576,0,0,0.15322890625,0,0,0.45937500000000003
2.2721475970001848,0,0,1.0510545288085937,0,0,0.0765625
2.273695597999904,0,0,1.2976572998046874,0,0,0.8421875000000001
2.2753128760004984,0,0,1.1276689819335937,0,0,1.225
2.2771235230002276,0,0,0.7972691528320313,0,0,1.0718750000000001
2.2787243749999107,0,0,1.7669208251953124,0,0,1.4546875000000001
2.2803010610005003,0,0,2.059013427734375,0,0,1.6843750000000002
2.2819487839997237,0,0,2.4157494750976563,0,0,1.6078125
2.2836418209999465,0,0,1.6998831787109374,0,0,0.5359375000000001
2.2853568380005527,0,0,1.0678139404296874,0,0,-0.8421875000000001
2.287148170000364,0,0,0.7637503295898437,0,0,0.153125
2.288698041999851,0,0,1.838746875,0,0,0.6890625
2.290275246999954,0,0,2.070984436035156,0,0,0.9187500000000001
2.292000301999906,0,0,0.9959878906249999,0,0,1.1484375
2.293632746000185,0,0,0.07900865478515624,0,0,0.0
2.2952653950005697,0,0,0.8667010009765624,0,0,1.9140625000000002
2.2970417269998507,0,0,2.473210314941406,0,0,0.3828125
2.2985768580001604,0,0,2.645592834472656,0,0,1.6843750000000002
2.3002646909999385,0,0,1.8722656982421875,0,0,1.0718750000000001
2.3020599680003215,0,0,0.0526724365234375,0,0,-0.5359375000000001
2.303603264999765,0,0,1.6519991455078125,0,0,-0.22968750000000002
2.3051348409999264,0,0,1.8698714965820311,0,0,0.6890625
2.306819063000148,0,0,1.6735469604492186,0,0,1.1484375
2.30841278600019,0,0,1.458068811035156,0,0,0.3828125
2.3099815460000173,0,0,0.8954314208984374,0,0,0.45937500000000003
2.311891303000266,0,0,1.8148048583984373,0,0,1.6843750000000002
2.313573006000297,0,0,2.288856787109375,0,0,0.9187500000000001
2.3151870620004047,0,0,1.7764976318359373,0,0,0.22968750000000002
2.3167915630001517,0,0,0.3854664672851562,0,0,0.0
2.3184782850003103,0,0,-0.0718260498046875,0,0,-0.3828125
2.320291339000505,0,0,1.7717092285156248,0,0,0.765625
2.3219307469998967,0,0,2.185906115722656,0,0,1.7609375
2.3238730210005087,0,0,1.4724340209960938,0,0,2.1437500000000003
2.3255390579997766,0,0,0.5626373901367188,0,0,1.9140625000000002
2.3271425399998407,0,0,1.4891934326171874,0,0,0.30625
2.329036871000426,0,0,2.492363928222656,0,0,0.765625
2.331014460000006,0,0,2.2864625854492187,0,0,0.6890625
2.3332378989998688,0,0,0.5243301635742187,0,0,-0.153125
2.3349708980003925,0,0,0.258573779296875,0,0,0.3828125
2.336598509000396,0,0,1.2282254516601563,0,0,0.8421875000000001
2.3383158610004102,0,0,1.8339584716796873,0,0,1.7609375
2.3407691299998987,0,0,0.9792284790039062,0,0,1.1484375
2.3424185370004125,0,0,0.8714894042968749,0,0,1.3015625000000002
2.3440702600000805,0,0,2.176329309082031,0,0,1.990625
2.3461329769997974,0,0,2.2840683837890623,0,0,0.9953125
2.3479510130000563,0,0,1.3862427612304686,0,0,0.0765625
2.3496187159998954,0,0,-0.086191259765625,0,0,-1.3015625000000002
2.3515968800002156,0,0,1.3311761230468748,0,0,0.0
2.353625319999992,0,0,1.8770541015625,0,0,1.225
2.3552251910004998,0,0,1.4987702392578124,0,0,1.7609375
2.356762895999964,0,0,0.5099649536132812,0,0,0.8421875000000001
2.358787502999803,0,0,1.5921441040039062,0,0,1.3015625000000002
2.360833647000618,0,0,2.7724855224609373,0,0,1.1484375
2.362536813000588,0,0,2.2649147705078123,0,0,1.53125
2.3644077180006207,0,0,1.2976572998046874,0,0,0.765625
2.365996145000281,0,0,-0.14125789794921875,0,0,-0.30625
2.3675291649997234,0,0,1.3934253662109375,0,0,0.5359375000000001
2.369349849000173,0,0,2.0661960327148434,0,0,1.7609375
2.371097365999958,0,0,1.8100164550781248,0,0,1.8375000000000001
2.3727029410001705,0,0,0.2753331909179687,0,0,0.153125
2.37471384499986,0,0,0.8667010009765624,0,0,0.765625
2.3763644740001837,0,0,1.9800047729492187,0,0,1.1484375
2.377941345999716,0,0,2.291250988769531,0,0,1.990625
2.379471403000025,0,0,2.3127988037109373,0,0,0.9187500000000001
2.3810624220004684,0,0,0.9026140258789062,0,0,0.0
2.3829949560004025,0,0,0.5003881469726562,0,0,0.30625
2.3847284180001225,0,0,1.678335363769531,0,0,0.8421875000000001
2.3863294009997844,0,0,1.915361328125,0,0,0.9953125
2.3881043620003766,0,0,1.209071838378906,0,0,1.378125
2.389694215000418,0,0,0.689530078125,0,0,0.6890625
2.3912718460005635,0,0,1.01514150390625,0,0,1.1484375
2.392969344999983,0,0,2.3127988037109373,0,0,1.225
2.3944988840003134,0,0,2.2481553588867187,0,0,1.9140625000000002
2.396116828999766,0,0,1.2569558715820313,0,0,1.378125
2.3977277000003596,0,0,-0.06703764648437499,0,0,0.0
2.399807194999994,0,0,1.7286135986328124,0,0,0.22968750000000002
2.4015171020000707,0,0,2.291250988769531,0,0,1.1484375
2.4030654550006147,0,0,1.8842367065429686,0,0,1.8375000000000001
2.40470864100007,0,0,0.852335791015625,0,0,1.1484375
2.406306271000176,0,0,0.47884033203125,0,0,0.6890625
2.407839661000253,0,0,1.8507178833007811,0,0,1.3015625000000002
2.4100019710003835,0,0,2.231395947265625,0,0,2.75625
2.4116968409998663,0,0,1.2808978881835937,0,0,0.30625
2.4134068590001334,0,0,0.8547299926757812,0,0,-1.225
2.4152975409997453,0,0,0.37828386230468747,0,0,0.6125
2.4169478190005975,0,0,1.388636962890625,0,0,1.378125
2.41858743100056,0,0,1.254561669921875,0,0,1.1484375
2.420261967999977,0,0,1.24498486328125,0,0,1.225
2.4217953209999905,0,0,0.8188169677734375,0,0,0.9953125
2.4235089129997505,0,0,2.729389892578125,0,0,2.0671875
2.42521002400008,0,0,2.987963671875,0,0,1.4546875000000001
2.426745210000263,0,0,2.47081611328125,0,0,1.0718750000000001
2.428784669000379,0,0,0.6368576416015624,0,0,-9.1875
2.4304015590005292,0,0,-0.08858546142578125,0,0,-1.53125
2.431939041000078,0,0,1.2042834350585936,0,0,0.0
2.4337945389997913,0,0,1.7836802368164062,0,0,1.0718750000000001
2.4364914719999433,0,0,0.9169792358398436,0,0,1.0718750000000001
2.438433525000619,0,0,0.430956298828125,0,0,0.9953125
2.4412428820005516,0,0,2.6216508178710938,0,0,1.6078125
2.443813706000583,0,0,2.0063409912109376,0,0,1.0718750000000001
2.4459676260003107,0,0,0.028730419921875,0,0,9.4171875
2.448440691000542,0,0,1.1444283935546875,0,0,0.765625
2.450437391000378,0,0,1.2521674682617188,0,0,1.7609375
2.453259988999889,0,0,0.277727392578125,0,0,0.765625
2.4554529470005946,0,0,1.458068811035156,0,0,2.1437500000000003
2.457855216000098,0,0,2.7461493041992187,0,0,2.45
2.459592975000305,0,0,1.6112977172851561,0,0,1.225
2.4611595500000476,0,0,0.8164227661132812,0,0,-0.22968750000000002
2.4626983099997233,0,0,0.82360537109375,0,0,0.0765625
2.4644964569997683,0,0,1.6136919189453125,0,0,0.9953125
2.466277122000065,0,0,1.5562310791015623,0,0,0.9187500000000001
2.4679903260002902,0,0,0.9983820922851562,0,0,0.9953125
2.4697166949999882,0,0,0.2154781494140625,0,0,0.9187500000000001
2.4714725280000494,0,0,0.6368576416015624,0,0,0.5359375000000001
2.473349951000273,0,0,2.1021090576171875,0,0,0.9187500000000001
2.4751174869998067,0,0,2.626439221191406,0,0,1.0718750000000001
2.477328351000324,0,0,1.0390835205078124,0,0,-0.45937500000000003
2.4790961469998365,0,0,0.6584054565429687,0,0,0.45937500000000003
2.4808464420002565,0,0,1.8124106567382812,0,0,1.990625
2.4829532700005075,0,0,1.6424223388671875,0,0,1.53125
2.484738954000022,0,0,0.8762778076171874,0,0,1.225
2.4863826210003026,0,0,0.32082302246093747,0,0,0.6890625
2.488064027999826,0,0,1.637633935546875,0,0,1.225
2.4896538250004596,0,0,2.3127988037109373,0,0,1.3015625000000002
2.4911917899999025,0,0,2.231395947265625,0,0,1.378125
2.492793512999924,0,0,0.948103857421875,0,0,1.1484375
2.4945528449998164,0,0,0.6464344482421874,0,0,9.49375
2.496193363999737,0,0,1.3838485595703125,0,0,0.0
2.497753401999944,0,0,1.7693150268554687,0,0,1.3015625000000002
2.4994061240004157,0,0,1.4030021728515625,0,0,1.8375000000000001
2.501040347000526,0,0,0.5865794067382812,0,0,1.0718750000000001
2.5026242370004184,0,0,1.2306196533203124,0,0,0.0
2.5042712180002127,0,0,2.224213342285156,0,0,1.6843750000000002
2.5060232920004637,0,0,2.6479870361328124,0,0,1.9140625000000002
2.507624570000189,0,0,1.438915197753906,0,0,1.3015625000000002
2.5092026640004406,0,0,0.5291185668945312,0,0,-0.30625
2.5107979610002076,0,0,0.5458779785156249,0,0,0.45937500000000003
2.512671866000346,0,0,1.9416975463867185,0,0,0.9953125
2.514350125000419,0,0,1.8650830932617186,0,0,1.6843750000000002
2.5161767159997908,0,0,1.3335703247070312,0,0,1.225
2.5180727500001012,0,0,0.10773907470703124,0,0,0.9187500000000001
2.519769360999817,0,0,1.9776105712890624,0,0,1.6843750000000002
2.52151473000049,0,0,2.5546131713867184,0,0,1.53125
2.5234281160001046,0,0,2.683900061035156,0,0,0.45937500000000003
2.524972506999802,0,0,0.9217676391601562,0,0,0.9187500000000001
2.5266307849997247,0,0,0.689530078125,0,0,0.0
2.5284569120003653,0,0,1.4149731811523436,0,0,0.9187500000000001
2.530140283000037,0,0,1.7286135986328124,0,0,1.0718750000000001
2.531977354999981,0,0,1.0007762939453124,0,0,1.0718750000000001
2.5336333360000935,0,0,0.5410895751953124,0,0,9.264062500000001
2.5353991500005577,0,0,1.2234370483398436,0,0,1.378125
2.5371210379998956,0,0,2.4205378784179685,0,0,1.3015625000000002
2.5387141689998316,0,0,2.3151930053710936,0,0,2.1437500000000003
2.5402883550004844,0,0,1.6256629272460936,0,0,1.6843750000000002
2.5419355220001307,0,0,0.2609679809570312,0,0,0.0765625
2.543549392999921,0,0,1.8315642700195311,0,0,0.22968750000000002
2.545080171999871,0,0,1.9800047729492187,0,0,1.378125
2.5467009129997678,0,0,1.9943699829101562,0,0,1.225
2.548327858000448,0,0,1.3311761230468748,0,0,0.8421875000000001
2.549962914000389,0,0,0.0047884033203125,0,0,0.0765625
2.551638468999954,0,0,1.4963760375976562,0,0,1.378125
2.553258785000253,0,0,2.0278888061523435,0,0,1.9140625000000002
2.5550567830005093,0,0,2.27927998046875,0,0,1.4546875000000001
2.5566818209999838,0,0,0.9193734375,0,0,1.53125
2.5582966179999858,0,0,0.17956512451171874,0,0,9.5703125
2.5599754690001646,0,0,1.687912170410156,0,0,0.6125
2.561862485000347,0,0,2.1739351074218747,0,0,1.3015625000000002
2.5637309459998505,0,0,1.3838485595703125,0,0,2.2203125000000004
2.5653183360000185,0,0,0.689530078125,0,0,0.6125
2.5668446150002637,0,0,1.0271125122070313,0,0,0.5359375000000001
2.568506171000081,0,0,2.1691467041015624,0,0,0.6125
2.5701812260003862,0,0,2.4396914916992185,0,0,1.6078125
2.571732190000148,0,0,1.0749965454101562,0,0,0.3828125
2.5734198010004548,0,0,0.30406361083984373,0,0,-1.378125
2.5751188379999803,0,0,0.6751648681640625,0,0,0.22968750000000002
2.5767131900001914,0,0,1.8004396484374998,0,0,1.225
2.5783441909998146,0,0,2.4396914916992185,0,0,1.378125
2.5799589690004723,0,0,1.2761094848632812,0,0,1.6843750000000002
2.5816380989999743,0,0,0.34715924072265625,0,0,0.9187500000000001
2.5833083019997503,0,0,1.1228805786132812,0,0,1.1484375
2.585278131999985,0,0,2.770091320800781,0,0,0.8421875000000001
2.5869274659999064,0,0,2.233790148925781,0,0,0.9187500000000001
2.5885777809999126,0,0,0.4165910888671875,0,0,0.8421875000000001
2.5901811519997864,0,0,-0.44053310546874996,0,0,0.153125
2.591737968000416,0,0,1.369483349609375,0,0,0.5359375000000001
2.593679704999886,0,0,1.6424223388671875,0,0,0.9953125
2.5955630549997295,0,0,1.1947066284179686,0,0,0.9953125
2.597107907999998,0,0,0.3902548706054687,0,0,0.22968750000000002
2.59872646399981,0,0,1.37906015625,0,0,0.9953125
2.6003913530003047,0,0,2.4061726684570313,0,0,1.9140625000000002
2.6019192620005924,0,0,2.5330653564453125,0,0,1.6843750000000002
2.6035253919999377,0,0,2.4253262817382812,0,0,0.765625
2.605237632000353,0,0,0.5386953735351562,0,0,-9.264062500000001
2.6069589099997756,0,0,0.7445967163085937,0,0,0.6125
2.608609427999909,0,0,2.214636535644531,0,0,1.0718750000000001
2.6101998550002463,0,0,1.898601916503906,0,0,1.4546875000000001
2.6121087410001564,0,0,0.8595183959960937,0,0,0.8421875000000001
2.6138499630005754,0,0,0.2154781494140625,0,0,0.45937500000000003
2.615903605999847,0,0,2.4588451049804685,0,0,1.0718750000000001
2.6175498100001278,0,0,2.308010400390625,0,0,1.8375000000000001
2.619126440999935,0,0,2.252943762207031,0,0,0.9953125
2.6207641999999396,0,0,0.201112939453125,0,0,0.5359375000000001
2.6223012199998266,0,0,-0.25139117431640623,0,0,0.0
2.6240285160001804,0,0,1.9009961181640624,0,0,0.5359375000000001
2.6256409610004994,0,0,2.269703173828125,0,0,1.990625
2.6275925689997166,0,0,1.3000515014648437,0,0,2.1437500000000003
2.629387697000311,0,0,0.43574470214843747,0,0,0.3828125
2.6310227160001887,0,0,0.6919242797851562,0,0,0.0765625
2.632629587000338,0,0,2.308010400390625,0,0,0.765625
2.6341657370003304,0,0,2.43250888671875,0,0,1.4546875000000001
2.635764348000521,0,0,1.218648645019531,0,0,0.5359375000000001
2.637372997000057,0,0,0.5243301635742187,0,0,-0.6890625
2.6390522010005952,0,0,0.19871873779296872,0,0,0.6890625
2.6410046979999606,0,0,2.039859814453125,0,0,1.4546875000000001
2.642652567999903,0,0,1.917755529785156,0,0,1.8375000000000001
2.6442441620001773,0,0,1.678335363769531,0,0,1.7609375
2.645772255999873,0,0,0.488417138671875,0,0,0.22968750000000002
2.6473813860002338,0,0,1.3168109130859373,0,0,0.22968750000000002
2.6489669789998516,0,0,2.3415292236328122,0,0,0.3828125
2.6504928330004986,0,0,2.50912333984375,0,0,1.1484375
2.6520757230000527,0,0,1.0797849487304687,0,0,0.9187500000000001
2.654141885000172,0,0,-0.5434837768554687,0,0,-0.22968750000000002
2.6557629589997305,0,0,1.0486603271484374,0,0,0.153125
2.657739400000537,0,0,2.051830822753906,0,0,1.6843750000000002
2.660121244000038,0,0,1.5442600708007812,0,0,1.6078125
2.6617177449998053,0,0,0.55545478515625,0,0,0.8421875000000001
2.6633377269999983,0,0,1.438915197753906,0,0,1.3015625000000002
2.665067447999718,0,0,2.6767174560546874,0,0,0.6890625
2.6666976900005466,0,0,2.4779987182617185,0,0,1.0718750000000001
2.6682371169999897,0,0,1.5825672973632812,0,0,0.5359375000000001
2.6700307450000764,0,0,-0.5482721801757812,0,0,-1.378125
2.671794281000075,0,0,1.0773907470703123,0,0,-0.22968750000000002
2.6734022079999704,0,0,1.4700398193359374,0,0,1.53125
2.6749344310001106,0,0,1.5107412475585937,0,0,2.0671875
2.676559432000431,0,0,0.5530605834960938,0,0,1.3015625000000002
2.6782020620003095,0,0,0.6344634399414062,0,0,0.30625
2.6797603040004105,0,0,2.1691467041015624,0,0,1.4546875000000001
2.681461506999767,0,0,2.887407202148437,0,0,1.378125
2.6831580990001385,0,0,2.4061726684570313,0,0,1.1484375
2.684701397000026,0,0,0.7445967163085937,0,0,0.9187500000000001
2.686315323000599,0,0,0.17477672119140625,0,0,-0.6890625
2.687976897000226,0,0,1.0893617553710937,0,0,-9.1875
2.689871117000621,0,0,1.6998831787109374,0,0,0.9953125
2.6915047840002444,0,0,1.4317325927734375,0,0,1.4546875000000001
2.693551669000044,0,0,0.41419688720703124,0,0,1.1484375
2.695180743000492,0,0,1.1947066284179686,0,0,1.4546875000000001
2.6967197080002734,0,0,2.310404602050781,0,0,1.1484375
2.6988317579998693,0,0,2.3343466186523436,0,0,0.5359375000000001
2.70054749800056,0,0,1.599326708984375,0,0,0.765625
2.7021622580004987,0,0,0.0047884033203125,0,0,9.1875
2.7038645350003208,0,0,1.2138602416992186,0,0,0.6125
2.705545497999992,0,0,1.4700398193359374,0,0,1.4546875000000001
2.707191184000294,0,0,1.3527239379882812,0,0,1.53125
2.7087364070002877,0,0,0.928950244140625,0,0,0.9953125
2.7104195920001075,0,0,1.0223241088867188,0,0,0.765625
2.712139610000122,0,0,2.300827795410156,0,0,1.1484375
2.7136873710005602,0,0,2.24097275390625,0,0,0.9187500000000001
2.7152724090001357,0,0,1.9967641845703124,0,0,0.0
2.717072852000456,0,0,0.5985504150390625,0,0,-9.8
2.7187092780004605,0,0,0.16759411621093748,0,0,0.6125
2.7202493530003267,0,0,1.4101847778320311,0,0,0.765625
2.7218322620001345,0,0,1.70467158203125,0,0,1.3015625000000002
2.7235764090000885,0,0,1.3215993164062498,0,0,1.9140625000000002
2.7254337209997175,0,0,0.622492431640625,0,0,0.6890625
2.7272711830000844,0,0,1.6112977172851561,0,0,0.9953125
2.7294319180000457,0,0,2.480392919921875,0,0,1.0718750000000001
2.7311576760002936,0,0,2.0087351928710935,0,0,0.153125
2.7327687140004855,0,0,0.5291185668945312,0,0,0.45937500000000003
2.73448558400014,0,0,-0.19871873779296872,0,0,9.646875000000001
2.736385044000599,0,0,1.2282254516601563,0,0,0.9187500000000001
2.737979303999964,0,0,1.4700398193359374,0,0,1.1484375
2.739609823000137,0,0,1.2617442749023438,0,0,1.3015625000000002
2.7416075970004385,0,0,0.7972691528320313,0,0,0.6890625
2.74325450500055,0,0,1.936909143066406,0,0,1.378125
2.744909505000578,0,0,2.6575638427734374,0,0,1.225
2.746802984000169,0,0,2.2840683837890623,0,0,1.225
2.7485210200002257,0,0,1.4987702392578124,0,0,0.765625
2.7501822240001275,0,0,-0.2059013427734375,0,0,-0.9953125
2.7518565020000096,0,0,1.3431471313476562,0,0,0.0
2.7534335770005782,0,0,1.2928688964843749,0,0,1.3015625000000002
2.755339258999811,0,0,1.1563994018554686,0,0,1.0718750000000001
2.7569696860000477,0,0,0.15322890625,0,0,1.53125
2.7588120170003094,0,0,1.0893617553710937,0,0,1.53125
2.760758829000224,0,0,2.710236279296875,0,0,1.1484375
2.7622968670002592,0,0,2.834734765625,0,0,1.990625
2.763818608999827,0,0,1.946485949707031,0,0,0.8421875000000001
2.765425573000357,0,0,0.6775590698242188,0,0,-1.1484375
2.767109942999923,0,0,0.45010991210937495,0,0,0.30625
2.7687180729999454,0,0,1.4700398193359374,0,0,0.6125
2.7703325740003493,0,0,1.4317325927734375,0,0,1.6078125
2.7719605190004586,0,0,0.8810662109374999,0,0,1.378125
2.7736315000001923,0,0,0.7900865478515624,0,0,0.8421875000000001
2.7754404990000694,0,0,1.62805712890625,0,0,1.9140625000000002
2.777065703000517,0,0,2.578555187988281,0,0,1.225
2.778735683999912,0,0,2.4684219116210935,0,0,0.8421875000000001
2.7805152569999336,0,0,1.3192051147460937,0,0,0.22968750000000002
2.7821197390003363,0,0,0.0383072265625,0,0,-1.0718750000000001
2.783903645000464,0,0,1.7214309936523438,0,0,0.22968750000000002
2.785566755999753,0,0,1.419761584472656,0,0,1.0718750000000001
2.7871024610003587,0,0,1.01514150390625,0,0,2.2203125000000004
2.7887391100002787,0,0,0.28969840087890625,0,0,0.8421875000000001
2.7904654980002306,0,0,0.229843359375,0,0,0.0
2.7921511459999238,0,0,2.152387292480469,0,0,0.45937500000000003
2.793811923999783,0,0,2.4061726684570313,0,0,1.1484375
2.7953524439999455,0,0,2.7533319091796873,0,0,0.765625
2.796881889999895,0,0,0.6967126831054687,0,0,0.22968750000000002
2.7984962239997913,0,0,0.0047884033203125,0,0,0.45937500000000003
2.8001541680005175,0,0,1.3192051147460937,0,0,0.9187500000000001
2.8017022620006173,0,0,1.6304513305664061,0,0,1.0718750000000001
2.803378855000119,0,0,1.5131354492187499,0,0,1.53125
2.8050830580004913,0,0,0.6296750366210937,0,0,1.378125
2.8066150220001873,0,0,1.3311761230468748,0,0,0.6125
2.808186246000332,0,0,2.473210314941406,0,0,1.4546875000000001
2.8102709450004113,0,0,2.712630480957031,0,0,0.9187500000000001
2.812445049999951,0,0,1.448492004394531,0,0,-9.49375
2.8143361590000495,0,0,-0.12689268798828124,0,0,9.4171875
2.816207064000082,0,0,1.838746875,0,0,0.153125
2.817805509000209,0,0,1.8219874633789062,0,0,1.225
2.8195635450001646,0,0,0.9528922607421875,0,0,2.0671875
2.8211611750002703,0,0,0.06703764648437499,0,0,0.3828125
2.8232526520005194,0,0,1.668758557128906,0,0,1.7609375
2.825016577000497,0,0,2.528276953125,0,0,1.225
2.8266177810000954,0,0,2.4779987182617185,0,0,1.225
2.828284781000548,0,0,1.4700398193359374,0,0,1.53125
2.8300562240001454,0,0,-0.201112939453125,0,0,-1.3015625000000002
2.831676040000275,0,0,1.2569558715820313,0,0,0.0
2.8332906699997693,0,0,1.4724340209960938,0,0,0.9187500000000001
2.834876855999937,0,0,1.1156979736328125,0,0,1.9140625000000002
2.836416709000332,0,0,0.9959878906249999,0,0,1.378125
2.838014746999761,0,0,0.430956298828125,0,0,1.0718750000000001
2.839659266000126,0,0,2.3726538452148436,0,0,1.7609375
2.8412009149997175,0,0,2.741360900878906,0,0,1.3015625000000002
2.8430608019998544,0,0,2.511517541503906,0,0,1.9140625000000002
2.844743431000097,0,0,0.8475473876953125,0,0,-0.153125
2.8464592640002593,0,0,-0.15562310791015624,0,0,0.0765625
2.8482365410000057,0,0,1.675941162109375,0,0,0.6890625
2.849967447000381,0,0,1.4125789794921875,0,0,0.45937500000000003
2.851505819000522,0,0,0.8307879760742187,0,0,1.225
2.853227966999839,0,0,0.00718260498046875,0,0,1.3015625000000002
2.854905467000208,0,0,1.62805712890625,0,0,1.225
2.856497060000038,0,0,2.442085693359375,0,0,1.378125
2.858248948000437,0,0,2.882618798828125,0,0,2.1437500000000003
2.8599855399997978,0,0,1.5083470458984374,0,0,0.8421875000000001
2.8615645780000705,0,0,0.4740519287109375,0,0,-0.9953125
2.863093783000295,0,0,0.7517793212890624,0,0,0.0
2.8646741909997218,0,0,1.8124106567382812,0,0,0.0
2.8662660250001863,0,0,1.7166425903320313,0,0,1.0718750000000001
2.867812471000434,0,0,0.9600748657226562,0,0,0.9187500000000001
2.8694092129999262,0,0,-0.05746083984375,0,0,0.6890625
2.871319932000006,0,0,0.8714894042968749,0,0,1.225
2.872918600000048,0,0,2.3918074584960936,0,0,1.6078125
2.874516545000006,0,0,2.612074011230469,0,0,2.6031250000000004
2.8761381379999875,0,0,1.5753846923828123,0,0,1.1484375
2.8776803239998117,0,0,0.229843359375,0,0,-1.0718750000000001
2.8792803810001715,0,0,0.7158662963867187,0,0,0.0765625
2.8808930109998983,0,0,1.8626888916015625,0,0,1.3015625000000002
2.882596473000376,0,0,1.199495031738281,0,0,0.8421875000000001
2.8842651029999615,0,0,1.0366893188476562,0,0,1.225
2.8858901410003455,0,0,0.3495534423828125,0,0,1.0718750000000001
2.887610343999768,0,0,2.0781670410156248,0,0,1.3015625000000002
2.8892397879999407,0,0,2.4133552734375,0,0,0.9187500000000001
2.890902936999737,0,0,2.3870190551757813,0,0,1.6843750000000002
2.892478919000496,0,0,1.6136919189453125,0,0,0.9187500000000001
2.894309954000164,0,0,-0.229843359375,0,0,-1.225
2.895984954000596,0,0,1.6615759521484375,0,0,0.0
2.897595492000619,0,0,2.118868469238281,0,0,1.7609375
2.899181141000554,0,0,1.3838485595703125,0,0,1.9140625000000002
2.900979658000324,0,0,0.4955997436523437,0,0,0.765625
2.902847821999785,0,0,0.5817910034179687,0,0,0.153125
2.904562636999799,0,0,1.8267758666992187,0,0,1.53125
2.906510096000602,0,0,2.849099975585937,0,0,1.990625
2.908234373000596,0,0,1.5682020874023437,0,0,1.1484375
2.9099129100004575,0,0,-0.011971008300781249,0,0,-0.6890625
2.911735722999765,0,0,0.928950244140625,0,0,0.153125
2.9134004269999423,0,0,1.7836802368164062,0,0,0.45937500000000003
2.9150153540003885,0,0,1.5562310791015623,0,0,0.45937500000000003
2.9170559419999336,0,0,0.97683427734375,0,0,0.9187500000000001
2.918662609000421,0,0,0.6296750366210937,0,0,1.0718750000000001
2.9202485360001447,0,0,1.2785036865234374,0,0,0.5359375000000001
2.9219054619998133,0,0,2.808398547363281,0,0,1.378125
2.9236775910003416,0,0,2.3295582153320313,0,0,1.7609375
2.9253670349999084,0,0,1.697488977050781,0,0,9.5703125
2.9271786999997857,0,0,0.38307226562499996,0,0,-1.0718750000000001
2.928730127000563,0,0,1.3024457031249999,0,0,0.765625
2.9303187940004136,0,0,2.0159177978515626,0,0,0.9187500000000001
2.932086497000455,0,0,1.024718310546875,0,0,1.0718750000000001
2.933611553999981,0,0,0.43574470214843747,0,0,0.8421875000000001
2.9351230560005206,0,0,0.05746083984375,0,0,0.6125
2.9368779440001163,0,0,1.6352397338867186,0,0,0.30625
2.938480241000434,0,0,2.7724855224609373,0,0,2.0671875
2.940094130000034,0,0,2.664746447753906,0,0,2.6031250000000004
2.941915536000124,0,0,1.2904746948242187,0,0,1.1484375
2.943537924999873,0,0,0.4525041137695312,0,0,0.0
2.9450658900004782,0,0,0.33758243408203126,0,0,9.1875
2.94683311100016,0,0,2.3535002319335936,0,0,0.765625
2.948452499999803,0,0,2.2194249389648437,0,0,2.45
2.9499786870001117,0,0,0.40940848388671874,0,0,1.3015625000000002
2.951677500999722,0,0,-0.1484405029296875,0,0,-0.153125
2.9532938720003585,0,0,0.354341845703125,0,0,0.3828125
2.954824540000118,0,0,2.47081611328125,0,0,0.9187500000000001
2.956574095000178,0,0,3.0142998901367184,0,0,1.1484375
2.958151855000324,0,0,2.114080065917969,0,0,1.6078125
2.959680357000252,0,0,0.38786066894531246,0,0,-0.3828125
2.9614750959999583,0,0,0.411802685546875,0,0,-1.0718750000000001
2.9634285930005717,0,0,0.9744400756835937,0,0,1.0718750000000001
2.9652942200000325,0,0,2.269703173828125,0,0,2.3734375
2.967079293000097,0,0,0.6440402465820312,0,0,0.8421875000000001
2.9686951640005645,0,0,0.5003881469726562,0,0,0.45937500000000003
2.970522551000613,0,0,0.34237083740234375,0,0,0.765625
2.972326752999834,0,0,1.8435352783203125,0,0,1.990625
2.974138215000494,0,0,2.6599580444335937,0,0,2.0671875
2.97620687700055,0,0,1.3383587280273437,0,0,0.765625
2.9780589120000514,0,0,0.38786066894531246,0,0,-0.45937500000000003
2.9798287989997334,0,0,0.7445967163085937,0,0,-0.9187500000000001
2.9814445780002643,0,0,1.465251416015625,0,0,1.4546875000000001
2.9833025570005702,0,0,1.8243816650390623,0,0,2.45
2.985032055999909,0,0,0.3950432739257812,0,0,1.378125
2.986784907000583,0,0,0.44053310546874996,0,0,0.45937500000000003
2.988381130000562,0,0,0.7781155395507812,0,0,0.6125
2.9900477040000624,0,0,2.2481553588867187,0,0,1.0718750000000001
2.991640872000062,0,0,2.913743420410156,0,0,2.2203125000000004
2.9932248909999544,0,0,1.6017209106445311,0,0,1.378125
2.994907150000472,0,0,0.40462008056640625,0,0,-0.22968750000000002
2.996492076999857,0,0,0.4429273071289062,0,0,-0.3828125
2.998020930000166,0,0,0.5865794067382812,0,0,-0.5359375000000001
2.9997754109999732,0,0,2.1978771240234374,0,0,1.990625
3.0014138369997454,0,0,1.89620771484375,0,0,2.45
3.0029455049998433,0,0,0.7445967163085937,0,0,1.1484375
3.0046045609997236,0,0,0.7134720947265625,0,0,1.225
3.006208802000401,0,0,0.8858546142578124,0,0,1.1484375
3.0077678590005235,0,0,1.8698714965820311,0,0,0.3828125
3.009423821999917,0,0,2.521094348144531,0,0,1.3015625000000002
3.0110193600003186,0,0,1.9752163696289062,0,0,1.53125
3.0125493800005643,0,0,1.2737152832031249,0,0,0.3828125
3.014143492000585,0,0,0.4381389038085937,0,0,-0.45937500000000003
3.0158757130002414,0,0,0.584185205078125,0,0,1.7609375
3.01742528900013,0,0,0.9983820922851562,0,0,9.49375
3.0189511050002693,0,0,1.9680337646484374,0,0,1.6078125
3.02073930700044,0,0,1.2665326782226562,0,0,2.296875
3.0223439379997217,0,0,0.38786066894531246,0,0,0.6125
3.0238794580000103,0,0,1.149216796875,0,0,0.3828125
3.025541179999891,0,0,1.3718775512695311,0,0,1.53125
3.027139550999891,0,0,1.8411410766601561,0,0,0.765625
3.0287749220005935,0,0,2.3127988037109373,0,0,0.765625
3.030428607000431,0,0,1.7453730102539062,0,0,0.45937500000000003
3.0321986610006206,0,0,0.8355763793945312,0,0,0.5359375000000001
3.0337458849999166,0,0,0.565031591796875,0,0,-0.45937500000000003
3.0355126619997463,0,0,0.5961562133789062,0,0,-0.5359375000000001
3.037375345000328,0,0,1.1444283935546875,0,0,1.7609375
3.039025863000461,0,0,1.6735469604492186,0,0,1.6843750000000002
3.0408493980003186,0,0,0.6919242797851562,0,0,0.45937500000000003
3.04267780400005,0,0,1.1947066284179686,0,0,1.0718750000000001
3.044419544000448,0,0,1.3192051147460937,0,0,1.378125
3.046084859000075,0,0,1.6927005737304686,0,0,0.6890625
3.0480903919997218,0,0,2.521094348144531,0,0,0.8421875000000001
3.04977203999988,0,0,1.20667763671875,0,0,0.8421875000000001
3.0514916880001692,0,0,0.6177040283203125,0,0,0.6125
3.053284352999981,0,0,0.5506663818359374,0,0,-0.30625
3.0549131679999846,0,0,0.7829039428710937,0,0,0.0
3.056490873000257,0,0,0.852335791015625,0,0,0.8421875000000001
3.0581430950005597,0,0,1.5921441040039062,0,0,1.3015625000000002
3.0600367960005315,0,0,1.139639990234375,0,0,1.225
3.062048384999798,0,0,1.2306196533203124,0,0,1.53125
3.063687496000057,0,0,1.8435352783203125,0,0,0.6125
3.065248757000518,0,0,1.8650830932617186,0,0,0.45937500000000003
3.066773610000382,0,0,2.4899697265625,0,0,1.7609375
3.0683885180005745,0,0,1.9919757812499999,0,0,1.1484375
3.0704729389999557,0,0,0.7613561279296874,0,0,9.49375
3.0722294940005668,0,0,0.8667010009765624,0,0,-0.0765625
3.0741945649997433,0,0,0.8882488159179687,0,0,0.3828125
3.0757867319998695,0,0,0.948103857421875,0,0,0.45937500000000003
3.0777368770004614,0,0,1.5586252807617187,0,0,0.9187500000000001
3.07975385500049,0,0,0.9337386474609375,0,0,2.2203125000000004
3.0813125040003797,0,0,0.6368576416015624,0,0,1.4546875000000001
3.0832293350003965,0,0,1.675941162109375,0,0,0.6125
3.0849514820001787,0,0,2.521094348144531,0,0,0.9187500000000001
3.0865425940000932,0,0,2.2026655273437497,0,0,1.1484375
3.088089855000362,0,0,1.9632453613281249,0,0,0.6890625
3.08999031500025,0,0,0.5195417602539062,0,0,0.153125
3.0916243709998525,0,0,0.6296750366210937,0,0,0.6125
3.0931677610005863,0,0,1.0438719238281249,0,0,-0.3828125
3.0948427049997917,0,0,1.1563994018554686,0,0,0.5359375000000001
3.096525427000415,0,0,0.8092401611328125,0,0,1.378125
3.0981190580005205,0,0,1.1324573852539062,0,0,0.9953125
3.0996566889998576,0,0,1.4867992309570313,0,0,1.6843750000000002
3.101266671000303,0,0,1.1252747802734375,0,0,0.765625
3.102847226999984,0,0,1.8124106567382812,0,0,1.0718750000000001
3.104409542999747,0,0,1.7764976318359373,0,0,0.8421875000000001
3.1059199339997576,0,0,2.2074539306640624,0,0,0.5359375000000001
3.107679765999819,0,0,2.0757728393554684,0,0,1.6078125
3.1093770440002118,0,0,1.5921441040039062,0,0,0.9953125
3.1109175450001203,0,0,0.7709329345703124,0,0,0.30625
3.1127767280004264,0,0,0.7565677246093749,0,0,-0.6125
3.1144902460000594,0,0,0.6536170532226562,0,0,0.3828125
3.1162652080001862,0,0,1.139639990234375,0,0,0.3828125
3.118477628000619,0,0,0.9959878906249999,0,0,1.6843750000000002
3.1200896099999227,0,0,1.6472107421875,0,0,1.53125
3.121665740000026,0,0,1.0797849487304687,0,0,1.225
3.1238635680001607,0,0,1.7190367919921874,0,0,0.9187500000000001
3.125447032000011,0,0,1.8339584716796873,0,0,0.45937500000000003
3.127043940000476,0,0,1.8124106567382812,0,0,0.6890625
3.128692107000461,0,0,1.9967641845703124,0,0,1.225
3.1304771049999545,0,0,1.848323681640625,0,0,1.378125
3.132126717000574,0,0,1.0175357055664063,0,0,0.30625
3.133797939000033,0,0,0.8858546142578124,0,0,0.153125
3.135413513000458,0,0,0.5770026000976562,0,0,-0.30625
3.137094679999791,0,0,0.6177040283203125,0,0,0.153125
3.1387978829998247,0,0,1.3862427612304686,0,0,0.8421875000000001
3.140440531999957,0,0,1.3646949462890625,0,0,2.296875
3.142088309999963,0,0,1.6400281372070311,0,0,2.296875
3.143805476000125,0,0,1.235408056640625,0,0,0.0
3.145431865000319,0,0,1.1923124267578125,0,0,1.1484375
3.146972106999783,0,0,2.0973206542968748,0,0,0.5359375000000001
3.1488706600002843,0,0,2.29843359375,0,0,1.378125
3.1506655470002443,0,0,1.8219874633789062,0,0,1.6843750000000002
3.1524329169997145,0,0,1.24498486328125,0,0,0.5359375000000001
3.154261026000313,0,0,0.3758896606445312,0,0,-0.8421875000000001
3.1559345260002374,0,0,0.44053310546874996,0,0,0.153125
3.1575346380004703,0,0,1.2952630981445312,0,0,0.6125
3.1593287470004725,0,0,1.4987702392578124,0,0,1.4546875000000001
3.160992859000544,0,0,0.8355763793945312,0,0,1.3015625000000002
3.162619155000357,0,0,1.2904746948242187,0,0,2.2203125000000004
3.1643555990003733,0,0,1.7693150268554687,0,0,1.225
3.1659263219999048,0,0,1.6304513305664061,0,0,1.0718750000000001
3.167533564000223,0,0,1.388636962890625,0,0,0.9187500000000001
3.169298748000074,0,0,1.8650830932617186,0,0,0.0765625
3.170901285000582,0,0,1.4173673828125,0,0,0.5359375000000001
3.1726113770000666,0,0,1.0366893188476562,0,0,0.5359375000000001
3.174250025999754,0,0,1.2569558715820313,0,0,2.0671875
3.175820489999751,0,0,1.1156979736328125,0,0,0.6890625
3.1773450099999536,0,0,0.6703764648437499,0,0,0.22968750000000002
3.1789368810004817,0,0,0.852335791015625,0,0,0.30625
3.180601122000553,0,0,1.438915197753906,0,0,0.3828125
3.182228067000324,0,0,1.5945383056640625,0,0,0.8421875000000001
3.183867511999779,0,0,1.0606313354492187,0,0,0.45937500000000003
3.185566140999981,0,0,1.177947216796875,0,0,1.1484375
3.1871666600000026,0,0,1.5634136840820312,0,0,0.9953125
3.188818567999988,0,0,1.2306196533203124,0,0,0.30625
3.1910327280002093,0,0,1.5083470458984374,0,0,1.4546875000000001
3.1931842780004445,0,0,1.5729904907226562,0,0,0.6890625
3.1949849620004898,0,0,1.5466542724609373,0,0,1.378125
3.1967277760004436,0,0,1.4030021728515625,0,0,1.1484375
3.198337054000149,0,0,1.197100830078125,0,0,0.8421875000000001
3.200654416999896,0,0,0.7996633544921875,0,0,0.6125
3.2024728790001973,0,0,0.8667010009765624,0,0,0.45937500000000003
3.204202470999917,0,0,1.7693150268554687,0,0,0.5359375000000001
3.206875441000193,0,0,0.7709329345703124,0,0,0.5359375000000001
3.208625588000359,0,0,0.928950244140625,0,0,0.8421875000000001
3.210253496000405,0,0,1.3910311645507811,0,0,1.225
3.2118788110001333,0,0,1.4341267944335936,0,0,1.4546875000000001
3.2140422310003487,0,0,1.0749965454101562,0,0,0.9187500000000001
3.21591280299981,0,0,1.6615759521484375,0,0,0.5359375000000001
3.217514877999747,0,0,1.898601916503906,0,0,1.1484375
3.2191821000005802,0,0,2.1691467041015624,0,0,1.225
3.220863544000167,0,0,1.0199299072265624,0,0,1.0718750000000001
3.2224571560000186,0,0,1.024718310546875,0,0,0.5359375000000001
3.224184396000055,0,0,0.967257470703125,0,0,0.3828125
3.2261878560002515,0,0,0.9744400756835937,0,0,0.0
3.227853800000048,0,0,1.7214309936523438,0,0,0.6125
3.2297863900002994,0,0,1.458068811035156,0,0,1.3015625000000002
3.2315887400000065,0,0,0.5123591552734374,0,0,0.9953125
3.233347832000618,0,0,0.38786066894531246,0,0,0.6125
3.2350239980005426,0,0,1.5322890624999999,0,0,1.6078125
3.2366942389999167,0,0,1.7022773803710936,0,0,0.9187500000000001
3.2383355350002603,0,0,1.2928688964843749,0,0,0.9953125
3.2399708689999898,0,0,1.4987702392578124,0,0,1.1484375
3.2418055890002506,0,0,1.7693150268554687,0,0,1.1484375
3.243485034000514,0,0,1.659181750488281,0,0,1.6078125
3.2452673660000073,0,0,1.2904746948242187,0,0,2.2203125000000004
3.246810886000276,0,0,1.22583125,0,0,0.9187500000000001
3.24839449800038,0,0,1.37906015625,0,0,0.45937500000000003
3.250171143999978,0,0,1.5346832641601562,0,0,0.6125
3.2517311090005023,0,0,1.2785036865234374,0,0,0.22968750000000002
3.2533126650005215,0,0,1.4245499877929686,0,0,0.765625
3.255303253999955,0,0,1.448492004394531,0,0,0.9187500000000001
3.2569075880001037,0,0,0.7326257080078125,0,0,-9.1109375
3.25849853300042,0,0,0.5267243652343749,0,0,-9.8
3.260124829999768,0,0,1.3718775512695311,0,0,0.765625
3.2616693130003114,0,0,1.5849614990234373,0,0,0.9187500000000001
3.2632603880001625,0,0,1.3862427612304686,0,0,0.8421875000000001
3.265324271999816,0,0,1.0558429321289062,0,0,0.8421875000000001
3.266925476999859,0,0,1.6256629272460936,0,0,1.3015625000000002
3.2685158849999425,0,0,1.9512743530273435,0,0,1.0718750000000001
3.2701527560002432,0,0,1.3431471313476562,0,0,1.0718750000000001
3.2720000310000614,0,0,1.005564697265625,0,0,0.8421875000000001
3.2738085480004884,0,0,1.2713210815429687,0,0,0.3828125
3.2754394749999847,0,0,1.678335363769531,0,0,0.6890625
3.2769958280005085,0,0,1.189918225097656,0,0,1.378125
3.278741512000124,0,0,1.3359645263671873,0,0,0.9187500000000001
3.2803743829999803,0,0,1.3838485595703125,0,0,0.8421875000000001
3.2820328269999663,0,0,1.4125789794921875,0,0,-9.1875
3.2837499930001286,0,0,0.59376201171875,0,0,-0.3828125
3.285492066000188,0,0,0.5434837768554687,0,0,0.0
3.287119585000255,0,0,1.3575123413085937,0,0,1.0718750000000001
3.288736364000215,0,0,1.675941162109375,0,0,0.8421875000000001
3.290466456000104,0,0,1.2473790649414063,0,0,1.1484375
3.2920921969998744,0,0,0.9696516723632812,0,0,0.9953125
3.2937614000002213,0,0,1.5777788940429687,0,0,0.9953125
3.295394067000416,0,0,1.9009961181640624,0,0,1.378125
3.2971091409999644,0,0,1.697488977050781,0,0,0.9187500000000001
3.298722679000093,0,0,1.0103531005859374,0,0,0.30625
3.300426067000444,0,0,0.7996633544921875,0,0,0.5359375000000001
3.3021058260001155,0,0,1.7764976318359373,0,0,0.765625
3.3036607720005122,0,0,1.6735469604492186,0,0,1.3015625000000002
3.305217328999788,0,0,1.1372457885742187,0,0,1.1484375
3.306865069000196,0,0,1.0462661254882812,0,0,1.3015625000000002
3.308686215999842,0,0,1.4508862060546874,0,0,0.22968750000000002
3.3105889349999416,0,0,1.3958195678710936,0,0,0.5359375000000001
3.3125142469998536,0,0,1.1156979736328125,0,0,0.6125
3.314169303000199,0,0,0.9959878906249999,0,0,1.0718750000000001
3.3157779330003905,0,0,1.8171990600585937,0,0,1.6843750000000002
3.31741824799974,0,0,1.5322890624999999,0,0,1.6843750000000002
3.3192736170003627,0,0,1.0749965454101562,0,0,0.6125
3.3209267090005596,0,0,1.1180921752929687,0,0,0.6890625
3.3225087099999655,0,0,1.7118541870117185,0,0,1.378125
3.3245213360005437,0,0,2.128445275878906,0,0,1.53125
3.3261269290005657,0,0,1.1659762084960936,0,0,1.225
3.327659727000537,0,0,0.5219359619140624,0,0,0.6890625
3.3292461540004297,0,0,0.8188169677734375,0,0,0.30625
3.331013023000196,0,0,2.042254016113281,0,0,1.0718750000000001
3.3325567100000626,0,0,1.9033903198242186,0,0,1.225
3.334077933000117,0,0,0.9744400756835937,0,0,1.0718750000000001
3.335686545000499,0,0,0.7613561279296874,0,0,0.153125
3.337313396999889,0,0,1.2665326782226562,0,0,0.3828125
3.338844029000029,0,0,1.5275006591796874,0,0,0.45937500000000003
3.340493898999739,0,0,1.448492004394531,0,0,0.5359375000000001
3.342095548000543,0,0,0.5458779785156249,0,0,-0.0765625
3.343684919000225,0,0,0.8475473876953125,0,0,0.153125
3.3452914199997394,0,0,1.467645617675781,0,0,1.4546875000000001
3.346887421000247,0,0,1.6328455322265625,0,0,1.8375000000000001
3.348426033000578,0,0,1.5107412475585937,0,0,1.3015625000000002
3.349988979000045,0,0,0.9241618408203125,0,0,0.3828125
3.351887884000462,0,0,1.4173673828125,0,0,1.0718750000000001
3.3535526610003217,0,0,2.3032219970703123,0,0,1.3015625000000002
3.355092589000378,0,0,2.2194249389648437,0,0,1.6843750000000002
3.3567239220001284,0,0,0.8212111694335937,0,0,1.0718750000000001
3.3583964589997777,0,0,0.5051765502929687,0,0,0.765625
3.359929201000341,0,0,1.180341418457031,0,0,0.45937500000000003
3.3616841630000636,0,0,2.231395947265625,0,0,1.3015625000000002
3.363301794000108,0,0,2.0733786376953125,0,0,1.1484375
3.364829054000438,0,0,0.9648632690429687,0,0,0.8421875000000001
3.3664464989997214,0,0,0.7900865478515624,0,0,0.6125
3.368181184000605,0,0,1.6160861206054686,0,0,0.45937500000000003
3.3697272780000276,0,0,1.2210428466796874,0,0,1.0718750000000001
3.3713295750003454,0,0,1.2569558715820313,0,0,0.0765625
3.3730662779998966,0,0,-0.19393033447265623,0,0,0.0
3.374607945999742,0,0,0.41898529052734373,0,0,0.0
3.376168632000372,0,0,1.8842367065429686,0,0,0.8421875000000001
3.3779061499999443,0,0,2.0278888061523435,0,0,1.7609375
3.3794528180005727,0,0,1.7860744384765623,0,0,1.6843750000000002
3.3809824300005857,0,0,0.8595183959960937,0,0,0.9187500000000001
3.382596301000376,0,0,0.6153098266601562,0,0,0.45937500000000003
3.3842240980002316,0,0,1.6352397338867186,0,0,0.5359375000000001
3.3857670070001404,0,0,2.5330653564453125,0,0,1.378125
3.387785095000254,0,0,1.8195932617187498,0,0,0.30625
3.3910695590002433,0,0,0.8188169677734375,0,0,0.5359375000000001
3.3940365630005545,0,0,1.9512743530273435,0,0,1.53125
3.3959974670005977,0,0,1.5921441040039062,0,0,1.0718750000000001
3.3976228379997337,0,0,1.209071838378906,0,0,0.8421875000000001
3.399240579000434,0,0,1.1659762084960936,0,0,0.8421875000000001
3.401147743000365,0,0,1.5562310791015623,0,0,0.765625
3.4028821500005506,0,0,1.4030021728515625,0,0,0.45937500000000003
3.4044695210004647,0,0,0.7805097412109374,0,0,0.0
3.406265168000573,0,0,0.3758896606445312,0,0,-0.3828125
3.407970166999803,0,0,1.0127473022460938,0,0,0.3828125
3.409707165999862,0,0,1.659181750488281,0,0,1.0718750000000001
3.411515980000331,0,0,1.4915876342773438,0,0,1.990625
3.4130730360002417,0,0,1.3646949462890625,0,0,1.1484375
3.414643240999794,0,0,1.656787548828125,0,0,0.765625
3.416278075000264,0,0,1.2569558715820313,0,0,0.0
3.417872908999925,0,0,1.944091748046875,0,0,1.3015625000000002
3.4195074460003525,0,0,2.1643583007812497,0,0,1.3015625000000002
3.421334130000105,0,0,1.3000515014648437,0,0,0.6890625
3.4229374269998516,0,0,0.8714894042968749,0,0,0.0765625
3.4255029910000303,0,0,0.9600748657226562,0,0,0.765625
3.4272813229999883,0,0,1.22583125,0,0,0.5359375000000001
3.429072914000244,0,0,1.4173673828125,0,0,0.9187500000000001
3.4307758760005527,0,0,0.9648632690429687,0,0,1.3015625000000002
3.432378098999834,0,0,0.9145850341796874,0,0,9.4171875
3.43405554400033,0,0,1.2569558715820313,0,0,0.0765625
3.4355915639998784,0,0,1.4437036010742186,0,0,0.30625
3.4372643779997816,0,0,1.5825672973632812,0,0,1.225
3.439043025000501,0,0,1.216254443359375,0,0,1.1484375
3.4412895740006206,0,0,0.7589619262695312,0,0,832.8468750000001
3.44338153300032,0,0,0.9648632690429687,0,0,0.30625
3.445181920000323,0,0,1.6543933471679686,0,0,1.6078125
3.4467320510002537,0,0,1.7286135986328124,0,0,1.9140625000000002
3.448588012000073,0,0,1.6400281372070311,0,0,0.8421875000000001
3.4502443270002914,0,0,1.0654197387695312,0,0,0.45937500000000003
3.4518058829999063,0,0,1.1659762084960936,0,0,0.0
3.453372439999839,0,0,1.4101847778320311,0,0,0.6125
3.4556108970000423,0,0,2.176329309082031,0,0,0.30625
3.4572318420005104,0,0,1.6112977172851561,0,0,1.6843750000000002
3.4588114540001698,0,0,0.9145850341796874,0,0,0.5359375000000001
3.4605688600004214,0,0,0.7110778930664062,0,0,-9.8
3.4621097870003723,0,0,0.8571241943359375,0,0,0.153125
3.4636289000000033,0,0,1.6256629272460936,0,0,0.9187500000000001
3.46533384400027,0,0,1.7741034301757812,0,0,1.3015625000000002
3.4676554659999965,0,0,1.2138602416992186,0,0,1.0718750000000001
3.4693527810004525,0,0,1.0702081420898437,0,0,0.30625
3.473202997000044,0,0,1.6136919189453125,0,0,0.6890625
3.4755341010004486,0,0,1.8650830932617186,0,0,1.4546875000000001
3.477790556999935,0,0,0.8499415893554687,0,0,0.5359375000000001
3.480046921000394,0,0,0.3854664672851562,0,0,0.153125
3.4821197870005562,0,0,0.9624690673828125,0,0,0.6890625
3.483949821999886,0,0,1.7238251953125,0,0,0.6890625
3.4859308370005238,0,0,1.8842367065429686,0,0,1.0718750000000001
3.487699447000523,0,0,1.024718310546875,0,0,1.3015625000000002
3.490259363000405,0,0,0.9002198242187499,0,0,0.765625
3.492218471000342,0,0,1.438915197753906,0,0,0.3828125
3.4938363970004502,0,0,1.7238251953125,0,0,0.30625
3.4960339099998237,0,0,1.4030021728515625,0,0,1.0718750000000001
3.497898186000384,0,0,1.1516109985351561,0,0,1.0718750000000001
3.499615315000483,0,0,0.5458779785156249,0,0,0.6125
3.501316480999776,0,0,0.4860229370117187,0,0,-9.646875000000001
3.5030046290003156,0,0,1.4700398193359374,0,0,0.765625
3.504889718999948,0,0,2.001552587890625,0,0,1.6078125
3.5065615150006124,0,0,1.637633935546875,0,0,0.8421875000000001
3.508468494000226,0,0,1.2641384765625,0,0,1.0718750000000001
3.5101868640003886,0,0,1.1851298217773436,0,0,0.45937500000000003
3.5119000849999793,0,0,1.3096283081054687,0,0,0.30625
3.5135909919999904,0,0,1.2617442749023438,0,0,0.0765625
3.5157838380000612,0,0,1.3359645263671873,0,0,0.3828125
3.517482115999883,0,0,1.2425906616210938,0,0,0.6125
3.519260707000285,0,0,1.0031704956054688,0,0,0.8421875000000001
3.5210595950002244,0,0,0.948103857421875,0,0,0.6125
3.5227054650003993,0,0,1.20667763671875,0,0,0.6890625
3.5244803340001454,0,0,1.2593500732421874,0,0,0.22968750000000002
3.526120464000087,0,0,1.3742717529296875,0,0,0.5359375000000001
3.5276665210003557,0,0,1.7669208251953124,0,0,1.1484375
3.5293147439997483,0,0,1.4628572143554686,0,0,1.4546875000000001
3.530999169000097,0,0,1.37906015625,0,0,0.9953125
3.5326068370004577,0,0,1.2042834350585936,0,0,0.6125
3.5341357080005764,0,0,0.9313444458007812,0,0,0.6890625
3.5357840970000325,0,0,1.5227122558593749,0,0,0.6890625
3.5373758390005605,0,0,1.5849614990234373,0,0,0.45937500000000003
3.538946024999859,0,0,1.4413093994140624,0,0,0.153125
3.540572878000603,0,0,1.3742717529296875,0,0,2.296875
3.5421580450001784,0,0,0.8930372192382812,0,0,1.1484375
3.543737193999732,0,0,1.0773907470703123,0,0,0.6890625
3.5453574170005595,0,0,1.2952630981445312,0,0,0.3828125
3.546932955000557,0,0,1.62805712890625,0,0,0.8421875000000001
3.5485729920001177,0,0,1.68551796875,0,0,0.9953125
3.550148141000136,0,0,1.3934253662109375,0,0,0.5359375000000001
3.551799253000354,0,0,1.1875240234375,0,0,0.5359375000000001
3.5534168270005466,0,0,1.1540052001953125,0,0,0.765625
3.5549447550001787,0,0,1.2473790649414063,0,0,1.1484375
3.5565656999997373,0,0,1.467645617675781,0,0,0.45937500000000003
3.558169034000457,0,0,1.4915876342773438,0,0,0.30625
3.559782108000036,0,0,1.2928688964843749,0,0,0.30625
3.561447959999896,0,0,1.5227122558593749,0,0,0.3828125
3.5630696090001948,0,0,1.2497732666015624,0,0,0.45937500000000003
3.564709961000517,0,0,1.0845733520507812,0,0,0.45937500000000003
3.5663509240002895,0,0,1.1109095703125,0,0,0.6890625
3.5681027380005617,0,0,1.197100830078125,0,0,0.5359375000000001
3.569705867999801,0,0,1.2928688964843749,0,0,0.9187500000000001
3.5712782030004746,0,0,1.4724340209960938,0,0,0.9187500000000001
3.5730332020002606,0,0,1.4221557861328125,0,0,0.765625
3.5746036660002574,0,0,1.3551181396484375,0,0,0.45937500000000003
3.576280369000415,0,0,1.2234370483398436,0,0,0.5359375000000001
3.57812807099981,0,0,1.0726023437499999,0,0,0.45937500000000003
3.579761015999793,0,0,1.4532804077148436,0,0,1.1484375
3.5813490910004475,0,0,1.4820108276367188,0,0,1.225
3.5831111640000017,0,0,1.2880804931640624,0,0,0.765625
3.5846851650003373,0,0,1.3623007446289062,0,0,0.9953125
3.5863587570001982,0,0,1.39821376953125,0,0,-852.8296875000001
3.588058516000274,0,0,1.407790576171875,0,0,0.765625
3.589663720000317,0,0,1.388636962890625,0,0,-9.034375
3.591329423999923,0,0,0.9864110839843749,0,0,0.6125
3.592967184000372,0,0,0.97683427734375,0,0,0.5359375000000001
3.594512888999816,0,0,1.2761094848632812,0,0,0.8421875000000001
3.596182833000057,0,0,1.4053963745117186,0,0,0.22968750000000002
3.597840647999874,0,0,1.4030021728515625,0,0,0.8421875000000001
3.599423186000422,0,0,1.4101847778320311,0,0,0.8421875000000001
3.6009597990005204,0,0,1.2378022583007813,0,0,0.5359375000000001
3.60251542900005,0,0,1.2665326782226562,0,0,0.30625
3.604446963000555,0,0,1.4796166259765624,0,0,0.5359375000000001
3.606217444000322,0,0,1.1635820068359375,0,0,0.5359375000000001
3.60796475799998,0,0,1.3407529296874998,0,0,0.45937500000000003
3.6101099369998337,0,0,1.4915876342773438,0,0,1.378125
3.61168512400036,0,0,1.3646949462890625,0,0,1.0718750000000001
3.6132518840004195,0,0,1.3024457031249999,0,0,0.9187500000000001
3.61477960800039,0,0,1.5729904907226562,0,0,0.8421875000000001
3.6166963269997723,0,0,1.4867992309570313,0,0,0.0765625
3.61835192000035,0,0,1.5203180541992187,0,0,0.3828125
3.619949235000604,0,0,1.6041151123046875,0,0,0.5359375000000001
3.62201026799994,0,0,1.1061211669921875,0,0,0.765625
3.62470131200007,0,0,1.0295067138671874,0,0,0.0
3.626477107000028,0,0,1.1372457885742187,0,0,1.378125
3.628169607000018,0,0,1.5011644409179687,0,0,1.1484375
3.6299648650001473,0,0,1.7262193969726563,0,0,0.9187500000000001
3.6319146949999777,0,0,1.254561669921875,0,0,0.9187500000000001
3.6337297300005957,0,0,1.13006318359375,0,0,0.8421875000000001
3.635878206000598,0,0,1.0917559570312498,0,0,0.22968750000000002
3.6376438530005544,0,0,1.3766659545898436,0,0,0.765625
3.639290613000412,0,0,1.2521674682617188,0,0,0.9187500000000001
3.640944132000186,0,0,1.4053963745117186,0,0,1.3015625000000002
3.6427563150000424,0,0,1.35990654296875,0,0,1.6078125
3.644401925999773,0,0,1.2761094848632812,0,0,1.225
3.6460568520005836,0,0,1.3048399047851562,0,0,0.9187500000000001
3.647671112000353,0,0,1.6903063720703124,0,0,0.5359375000000001
3.6493535380004687,0,0,1.5801730957031248,0,0,1.4546875000000001
3.6509950010004104,0,0,1.6328455322265625,0,0,1.0718750000000001
3.652579595000134,0,0,1.1037269653320312,0,0,0.5359375000000001
3.654131781000615,0,0,0.814028564453125,0,0,0.22968750000000002
3.655790781000178,0,0,0.9457096557617187,0,0,0.8421875000000001
3.657407745000455,0,0,1.0486603271484374,0,0,0.765625
3.658939857000405,0,0,1.3335703247070312,0,0,0.6125
3.661028501000146,0,0,1.6543933471679686,0,0,1.225
3.6630576449997534,0,0,1.5035586425781249,0,0,1.6078125
3.664683793000222,0,0,1.3311761230468748,0,0,1.4546875000000001
3.666825844000414,0,0,1.5083470458984374,0,0,0.45937500000000003
3.668493177000528,0,0,1.6615759521484375,0,0,0.30625
3.6701655100005155,0,0,1.2641384765625,0,0,0.0765625
3.6720622299999377,0,0,1.177947216796875,0,0,0.6125
3.673711397000261,0,0,0.8451531860351562,0,0,0.5359375000000001
3.675304490000599,0,0,0.8978256225585937,0,0,0.45937500000000003
3.677531891000399,0,0,1.0965443603515623,0,0,1.3015625000000002
3.6790800409999065,0,0,1.4245499877929686,0,0,0.0765625
3.6807642630001283,0,0,1.7310078002929687,0,0,0.9953125
3.6824667440005214,0,0,1.7214309936523438,0,0,1.0718750000000001
3.684409852000499,0,0,1.6065093139648436,0,0,0.5359375000000001
3.686126444000365,0,0,1.4245499877929686,0,0,0.0765625
3.68778879599995,0,0,1.388636962890625,0,0,0.765625
3.689709496999967,0,0,1.235408056640625,0,0,0.3828125
3.6915462719998686,0,0,1.1611878051757811,0,0,0.765625
3.693365418999747,0,0,0.9121908325195311,0,0,0.6890625
3.6952377500001603,0,0,0.9576806640625,0,0,1.378125
3.697029062999718,0,0,1.1324573852539062,0,0,0.9187500000000001
3.698784209999758,0,0,1.3455413330078123,0,0,0.8421875000000001
3.700604561000546,0,0,1.4532804077148436,0,0,1.0718750000000001
3.702546743000312,0,0,1.8291700683593748,0,0,0.9953125
3.7043181300005017,0,0,1.4628572143554686,0,0,0.765625
3.7060114820005765,0,0,1.4006079711914061,0,0,0.153125
3.708014108000498,0,0,1.2617442749023438,0,0,0.6125
3.7097241259998555,0,0,1.3407529296874998,0,0,0.22968750000000002
3.7115676610001174,0,0,1.1324573852539062,0,0,0.6125
3.713669526000558,0,0,1.2425906616210938,0,0,0.9953125
3.715316656000141,0,0,1.1635820068359375,0,0,0.6125
3.7169460080003773,0,0,1.197100830078125,0,0,0.6125
3.718560545999935,0,0,1.1947066284179686,0,0,0.6890625
3.7201603060002526,0,0,1.4006079711914061,0,0,0.45937500000000003
3.7217135850005434,0,0,1.5514426757812498,0,0,0.6890625
3.723425787999986,0,0,1.254561669921875,0,0,0.6125
3.7255153390005944,0,0,1.1731588134765625,0,0,0.9187500000000001
3.7273900780000986,0,0,1.2593500732421874,0,0,0.9187500000000001
3.7291314840003906,0,0,1.438915197753906,0,0,0.0
3.7308448350004255,0,0,1.3766659545898436,0,0,0.765625
3.732524242999716,0,0,1.6519991455078125,0,0,1.0718750000000001
3.73447107300035,0,0,1.1420341918945311,0,0,0.9187500000000001
3.736468865000461,0,0,1.218648645019531,0,0,0.6890625
3.7384211030002916,0,0,1.199495031738281,0,0,1.0718750000000001
3.7405432460000156,0,0,1.419761584472656,0,0,0.3828125
3.7424797800003944,0,0,1.2808978881835937,0,0,0.9187500000000001
3.7445128500003193,0,0,1.1827356201171875,0,0,0.8421875000000001
3.7463528300004327,0,0,1.120486376953125,0,0,1.1484375
3.748233641999832,0,0,1.3910311645507811,0,0,0.765625
3.7499663079997845,0,0,1.407790576171875,0,0,0.45937500000000003
3.751646400000027,0,0,1.2497732666015624,0,0,1.1484375
3.753588063999814,0,0,1.47482822265625,0,0,0.765625
3.7552959710001232,0,0,1.0917559570312498,0,0,1.3015625000000002
3.7569808220005143,0,0,1.254561669921875,0,0,0.9953125
3.7587567470000067,0,0,1.2114660400390624,0,0,0.5359375000000001
3.7604667470004642,0,0,1.3479355346679687,0,0,1.0718750000000001
3.7620367850004186,0,0,1.3144167114257812,0,0,1.1484375
3.764008467000167,0,0,1.3742717529296875,0,0,0.9187500000000001
3.7656289110000216,0,0,1.4006079711914061,0,0,1.1484375
3.7671438389998,0,0,1.446097802734375,0,0,0.9187500000000001
3.7688804859999436,0,0,1.369483349609375,0,0,0.8421875000000001
3.7707765209997888,0,0,1.43652099609375,0,0,0.9187500000000001
3.7725328349997653,0,0,1.1180921752929687,0,0,0.45937500000000003
3.7742167599999448,0,0,1.5227122558593749,0,0,0.9187500000000001
3.776111275999938,0,0,1.2856862915039062,0,0,0.6125
3.778040551000231,0,0,1.0941501586914062,0,0,0.5359375000000001
3.780013807000614,0,0,1.2521674682617188,0,0,0.3828125
3.781671028999881,0,0,1.369483349609375,0,0,2.0671875
3.78385422700012,0,0,1.4724340209960938,0,0,0.9953125
3.7856582260001232,0,0,1.24498486328125,0,0,1.3015625000000002
3.7873830030002864,0,0,1.0797849487304687,0,0,0.9187500000000001
3.7890080770002896,0,0,1.1540052001953125,0,0,0.9187500000000001
3.790711299000577,0,0,1.4915876342773438,0,0,0.153125
3.792453724000552,0,0,1.3862427612304686,0,0,1.0718750000000001
3.7941324280000117,0,0,1.5083470458984374,0,0,1.378125
3.796240312000009,0,0,1.3000515014648437,0,0,0.765625
3.7983374740006184,0,0,1.3646949462890625,0,0,0.5359375000000001
3.8001439720001144,0,0,1.3383587280273437,0,0,1.1484375
3.8018140459998904,0,0,1.350329736328125,0,0,0.5359375000000001
3.8038901899999473,0,0,1.5179238525390624,0,0,1.225
3.80559874499977,0,0,1.1540052001953125,0,0,0.6890625
3.807134265000059,0,0,1.1348515869140625,0,0,0.22968750000000002
3.8087890430006155,0,0,1.3742717529296875,0,0,0.6125
3.8109287040006166,0,0,1.429338391113281,0,0,0.0
3.8126534630000606,0,0,1.3431471313476562,0,0,1.1484375
3.8145039790006194,0,0,1.6208745239257811,0,0,0.6890625
3.816137886999968,0,0,1.2713210815429687,0,0,0.765625
3.8177359800001796,0,0,1.4245499877929686,0,0,1.225
3.8194135359999564,0,0,1.3359645263671873,0,0,0.8421875000000001
3.821065998999984,0,0,1.2689268798828124,0,0,0.3828125
3.822635610999896,0,0,1.4963760375976562,0,0,0.45937500000000003
3.8241620569997394,0,0,1.5107412475585937,0,0,0.9187500000000001
3.8257769829997414,0,0,1.180341418457031,0,0,0.3828125
3.827487557000495,0,0,1.3239935180664062,0,0,0.3828125
3.829017169000508,0,0,1.4700398193359374,0,0,0.8421875000000001
3.8306296330001715,0,0,1.350329736328125,0,0,0.9187500000000001
3.832488723000097,0,0,1.3000515014648437,0,0,0.5359375000000001
3.8341075019998243,0,0,1.5538368774414062,0,0,0.8421875000000001
3.8358601489999273,0,0,1.3263877197265623,0,0,0.765625
3.8376476849998653,0,0,0.9433154541015625,0,0,0.6125
3.8393233510005302,0,0,0.9816226806640624,0,0,0.765625
3.8409596850005983,0,0,1.2234370483398436,0,0,1.53125
3.8427504609999232,0,0,1.6472107421875,0,0,0.8421875000000001
3.844556736999948,0,0,1.618480322265625,0,0,0.9953125
3.8463029590002407,0,0,1.1851298217773436,0,0,0.6125
3.8478409600002124,0,0,0.833182177734375,0,0,0.22968750000000002
3.8496081630000845,0,0,1.1851298217773436,0,0,0.153125
3.851551271000062,0,0,1.4724340209960938,0,0,0.153125
3.853116957000566,0,0,1.465251416015625,0,0,0.765625
3.8548136230001546,0,0,1.3383587280273437,0,0,1.1484375
3.856876711000041,0,0,1.2569558715820313,0,0,0.6890625
3.8584447680004814,0,0,1.3311761230468748,0,0,0.8421875000000001
3.85997836200022,0,0,1.8219874633789062,0,0,0.8421875000000001
3.861795341999823,0,0,1.6807295654296874,0,0,-9.49375
3.8634009910001623,0,0,1.2785036865234374,0,0,-852.8296875000001
3.864942621999944,0,0,1.216254443359375,0,0,0.22968750000000002
3.8670586170001116,0,0,1.0845733520507812,0,0,0.22968750000000002
3.868658987999879,0,0,1.24498486328125,0,0,0.8421875000000001
3.8703721350002525,0,0,1.254561669921875,0,0,0.6890625
3.8726371100001415,0,0,1.5298948608398437,0,0,1.1484375
3.874401404999844,0,0,1.4437036010742186,0,0,0.8421875000000001
3.8760560540004008,0,0,1.7094599853515624,0,0,0.9953125
3.8778411820003384,0,0,1.4939818359375,0,0,0.9187500000000001
3.879488978000154,0,0,1.2976572998046874,0,0,0.6890625
3.881028998000147,0,0,1.3239935180664062,0,0,0.22968750000000002
3.8826338509998095,0,0,1.4006079711914061,0,0,0.765625
3.884578385000168,0,0,1.3623007446289062,0,0,0.6125
3.886290958000245,0,0,1.2832920898437499,0,0,1.0718750000000001
3.8879701060004663,0,0,1.2928688964843749,0,0,0.9953125
3.889524199999869,0,0,1.3551181396484375,0,0,1.0718750000000001
3.8911213860001226,0,0,1.3120225097656248,0,0,1.0718750000000001
3.8927785710002354,0,0,1.5083470458984374,0,0,0.22968750000000002
3.8943893309997293,0,0,1.5275006591796874,0,0,1.0718750000000001
3.896170181999878,0,0,1.707065783691406,0,0,1.0718750000000001
3.897760109000046,0,0,1.3670891479492187,0,0,0.8421875000000001
3.8994051460003902,0,0,1.1061211669921875,0,0,0.6125
3.901152108000133,0,0,1.1659762084960936,0,0,0.9953125
