Time (s),Accel X,Accel Y,Accel Z,Gyro X,Gyro Y,Gyro Z,Temperature (C)
0.014123408996965736,0.11013327636718749,-9.943119494628906,1.1085153686523437,0,0,0,0
0.016959448999841698,0.062249243164062495,-9.873687646484374,1.158793603515625,0,0,0,0
0.019536677995347418,0.07900865478515624,-9.816226806640625,1.0295067138671874,0,0,0,0
0.02209362998837605,0.062249243164062495,-9.943119494628906,1.0175357055664063,0,0,0,0
0.024484508991008624,0.12449848632812499,-9.80665,1.0678139404296874,0,0,0,0
0.02683207498921547,0.143652099609375,-9.967061511230469,1.0821791503906248,0,0,0,0
0.02950835799856577,0.1388636962890625,-9.8449572265625,1.1109095703125,0,0,0,0
0.03204240198829211,0.09337386474609374,-9.830592016601562,1.1611878051757811,0,0,0,0
0.03454700300062541,0.09337386474609374,-9.897629663085937,1.0749965454101562,0,0,0,0
0.037210526992566884,0.12689268798828124,-9.878476049804688,0.9935936889648437,0,0,0,0
0.0399543649982661,0.031124621582031248,-9.880870251464843,1.0821791503906248,0,0,0,0
0.042603982001310214,0.08140285644531249,-9.890447058105469,1.1276689819335937,0,0,0,0
0.04512800798693206,0.040701428222656245,-9.797073193359374,1.0175357055664063,0,0,0,0
0.04772888499428518,0.047884033203124995,-9.830592016601562,0.9528922607421875,0,0,0,0
0.050249170992174186,0.12689268798828124,-9.861716638183593,1.1228805786132812,0,0,0,0
0.05292886099778116,0.1149216796875,-9.888052856445311,1.1611878051757811,0,0,0,0
0.05544170198845677,0.0,-9.823409411621093,1.0295067138671874,0,0,0,0
0.05844881499069743,0.09816226806640624,-9.880870251464843,1.0534487304687499,0,0,0,0
0.061599185995873995,0.09816226806640624,-9.888052856445311,1.0414777221679687,0,0,0,0
0.06452255899785087,0.02633621826171875,-9.816226806640625,1.0342951171875,0,0,0,0
0.06808733199432027,0.09576806640624999,-9.947907897949218,1.1516109985351561,0,0,0,0
0.07085531800112221,0.258573779296875,-9.885658654785155,1.1109095703125,0,0,0,0
0.07435233298747335,0.08140285644531249,-9.835380419921874,1.0462661254882812,0,0,0,0
0.07781553298991639,-0.08858546142578125,-9.842563024902343,1.0462661254882812,0,0,0,0
0.08119006799825002,0.16280571289062498,-9.86411083984375,1.0342951171875,0,0,0,0
0.08391981299791951,0.16759411621093748,-9.835380419921874,1.1420341918945311,0,0,0,0
0.08638680299918633,0.00718260498046875,-9.873687646484374,1.01514150390625,0,0,0,0
0.08967448699695524,0.13407529296874998,-9.674968908691406,1.0941501586914062,0,0,0,0
0.09267671099223662,0.04548983154296875,-9.789890588378906,1.0342951171875,0,0,0,0
0.0956778419931652,0.028730419921875,-9.94072529296875,1.0319009155273438,0,0,0,0
0.09840455099765677,0.033518823242187495,-9.890447058105469,1.0606313354492187,0,0,0,0
0.10199547199590597,0.1005564697265625,-9.773131176757811,1.0702081420898437,0,0,0,0
0.10401076299604028,0.047884033203124995,-9.87608184814453,1.0127473022460938,0,0,0,0
0.10553165299643297,0.09337386474609374,-9.813832604980469,0.9528922607421875,0,0,0,0
0.10756161098834127,0.12689268798828124,-9.849745629882811,1.1109095703125,0,0,0,0
0.10933397899498232,0.10295067138671875,-9.849745629882811,1.1180921752929687,0,0,0,0
0.11088116400060244,0.08379705810546874,-9.943119494628906,1.209071838378906,0,0,0,0
0.11242359099560417,0.0526724365234375,-9.813832604980469,1.1013327636718748,0,0,0,0
0.11446902999887243,0.15322890625,-9.662997900390625,0.9552864624023437,0,0,0,0
0.11629115599498618,-0.011971008300781249,-9.832986218261718,1.1372457885742187,0,0,0,0
0.117822989996057,0.13646949462890623,-9.79946739501953,1.0989385620117187,0,0,0,0
0.11995839099108707,0.1149216796875,-9.94072529296875,1.1635820068359375,0,0,0,0
0.12153170599776786,0.06464344482421874,-9.892841259765625,1.1252747802734375,0,0,0,0
0.12304696599312592,0.03591302490234375,-9.852139831542969,1.0749965454101562,0,0,0,0
0.12498188798781484,0.12449848632812499,-9.83777462158203,1.0295067138671874,0,0,0,0
0.1267769409896573,-0.15322890625,-9.866505041503906,1.1324573852539062,0,0,0,0
0.12862078999751247,0.11731588134765625,-9.811438403320311,1.0917559570312498,0,0,0,0
0.1307072839990724,0.12689268798828124,-9.840168823242188,0.9648632690429687,0,0,0,0
0.13244305999251083,0.08858546142578125,-9.885658654785155,1.1827356201171875,0,0,0,0
0.13396196799294557,0.047884033203124995,-9.90241806640625,1.1037269653320312,0,0,0,0
0.13547330199799035,0.02633621826171875,-9.868899243164062,1.1707646118164061,0,0,0,0
0.13764086899755057,0.0718260498046875,-9.832986218261718,1.1228805786132812,0,0,0,0
0.13915594399441034,0.06943184814453125,-9.727641345214844,1.20667763671875,0,0,0,0
0.14069001899042632,0.16280571289062498,-9.888052856445311,1.1085153686523437,0,0,0,0
0.142197908993694,0.05027823486328125,-9.871293444824218,1.1563994018554686,0,0,0,0
0.14425960699736606,0.11731588134765625,-9.94072529296875,1.0534487304687499,0,0,0,0
0.14597204999881797,0.07422025146484375,-9.861716638183593,1.0582371337890624,0,0,0,0
0.14748421699914616,0.055066638183593745,-9.878476049804688,1.0606313354492187,0,0,0,0
0.15050647799216677,0.07900865478515624,-9.823409411621093,1.1875240234375,0,0,0,0
0.15216016198974103,0.10773907470703124,-9.878476049804688,1.0749965454101562,0,0,0,0
0.15371012598916423,0.18435352783203124,-9.821015209960937,1.1420341918945311,0,0,0,0
0.15521532999991905,0.13646949462890623,-9.952696301269532,1.1324573852539062,0,0,0,0
0.15677060799498577,0.040701428222656245,-9.897629663085937,1.0917559570312498,0,0,0,0
0.15838471899041906,0.06703764648437499,-9.885658654785155,1.0175357055664063,0,0,0,0
0.15992766398994718,0.040701428222656245,-9.885658654785155,1.0869675537109373,0,0,0,0
0.16144025699759368,0.09576806640624999,-9.854534033203125,1.139639990234375,0,0,0,0
0.16328258799330797,0.08858546142578125,-9.87608184814453,1.0749965454101562,0,0,0,0
0.16520582399971317,0.1005564697265625,-9.86411083984375,1.1875240234375,0,0,0,0
0.16686232399661094,0.05027823486328125,-9.93354268798828,1.0438719238281249,0,0,0,0
0.1685030449880287,0.08379705810546874,-9.909600671386718,1.139639990234375,0,0,0,0
0.17019183999218512,0.09337386474609374,-9.904812268066406,0.97683427734375,0,0,0,0
0.17171298898756504,0.040701428222656245,-9.816226806640625,1.1156979736328125,0,0,0,0
0.17378605699923355,0.05985504150390625,-9.710881933593749,1.1228805786132812,0,0,0,0
0.1756078879989218,0.05746083984375,-9.8449572265625,1.13006318359375,0,0,0,0
0.17719718399166595,0.17238251953125,-9.840168823242188,1.0869675537109373,0,0,0,0
0.17901619999611285,0.023942016601562498,-9.852139831542969,1.0366893188476562,0,0,0,0
0.18059123698913027,0.07422025146484375,-9.8449572265625,1.1947066284179686,0,0,0,0
0.18214425598853268,0.047884033203124995,-9.907206469726562,1.16837041015625,0,0,0,0
0.18416291699395515,0.09816226806640624,-9.840168823242188,1.0821791503906248,0,0,0,0
0.18608680200122762,0.028730419921875,-9.751583361816406,1.1061211669921875,0,0,0,0
0.1878860589931719,0.15083470458984374,-9.785102185058593,1.0630255371093749,0,0,0,0
0.19017132799490355,0.13168109130859373,-9.888052856445311,1.0462661254882812,0,0,0,0
0.19290440699842293,0.016759411621093748,-9.873687646484374,1.1468225952148436,0,0,0,0
0.19541032299457584,0.047884033203124995,-9.830592016601562,1.0821791503906248,0,0,0,0
0.19760992599185556,0.10773907470703124,-9.770736975097655,1.120486376953125,0,0,0,0
0.19921572199382354,0.08858546142578125,-9.811438403320311,1.2234370483398436,0,0,0,0
0.20083683299890254,0.09576806640624999,-9.840168823242188,1.1324573852539062,0,0,0,0
0.20336934000079054,0.028730419921875,-9.897629663085937,1.1133037719726562,0,0,0,0
0.20535640999150928,0.086191259765625,-9.816226806640625,1.1851298217773436,0,0,0,0
0.20798806399398018,0.023942016601562498,-9.880870251464843,1.13006318359375,0,0,0,0
0.21015026098757517,0.17477672119140625,-9.85692823486328,1.0582371337890624,0,0,0,0
0.212623398998403,0.08379705810546874,-9.9215716796875,1.0893617553710937,0,0,0,0
0.21488163199683186,0.24899697265624998,-9.840168823242188,1.0366893188476562,0,0,0,0
0.2169938659935724,0.016759411621093748,-9.97903251953125,1.0749965454101562,0,0,0,0
0.21900497199385427,0.076614453125,-9.832986218261718,0.9648632690429687,0,0,0,0
0.2214481289993273,0.05746083984375,-9.847351428222655,1.149216796875,0,0,0,0
0.22409398699528538,0.13407529296874998,-9.847351428222655,1.1444283935546875,0,0,0,0
0.22634845999709796,0.07900865478515624,-9.943119494628906,1.0797849487304687,0,0,0,0
0.22841336199780926,0.023942016601562498,-9.842563024902343,1.158793603515625,0,0,0,0
0.23031374700076412,0.047884033203124995,-9.859322436523437,1.1109095703125,0,0,0,0
0.23215048499696422,0.0718260498046875,-9.832986218261718,1.0654197387695312,0,0,0,0
0.2339467969868565,0.009576806640625,-9.715670336914062,1.0438719238281249,0,0,0,0
0.23631643599946983,0.1149216796875,-9.868899243164062,1.024718310546875,0,0,0,0
0.2382002099911915,0.11731588134765625,-9.923965881347655,1.1252747802734375,0,0,0,0
0.23996218999673147,0.04548983154296875,-9.892841259765625,1.0749965454101562,0,0,0,0
0.2419066849979572,0.040701428222656245,-9.78031378173828,1.1276689819335937,0,0,0,0
0.24376342300092801,0.033518823242187495,-9.804255798339844,1.0390835205078124,0,0,0,0
0.2456260679900879,0.1005564697265625,-9.823409411621093,1.0271125122070313,0,0,0,0
0.2480493359907996,0.181959326171875,-9.8449572265625,1.120486376953125,0,0,0,0
0.24984375899657607,0.031124621582031248,-9.8449572265625,1.0438719238281249,0,0,0,0
0.251683274997049,0.08140285644531249,-9.8449572265625,1.0558429321289062,0,0,0,0
0.253583270998206,0.00239420166015625,-9.86411083984375,1.197100830078125,0,0,0,0
0.2553940639918437,0.08140285644531249,-9.842563024902343,1.0941501586914062,0,0,0,0
0.2572149319894379,0.1149216796875,-9.758765966796874,1.1348515869140625,0,0,0,0
0.25962068198714405,0.1149216796875,-9.83777462158203,1.1420341918945311,0,0,0,0
0.26150527098798193,0.1197100830078125,-9.950302099609374,1.1109095703125,0,0,0,0
0.2633879339991836,0.031124621582031248,-9.91438907470703,1.0773907470703123,0,0,0,0
0.26521026399859693,0.08140285644531249,-9.789890588378906,1.0486603271484374,0,0,0,0
0.2669607249990804,0.023942016601562498,-9.832986218261718,1.0414777221679687,0,0,0,0
0.2688219629926607,0.040701428222656245,-9.878476049804688,1.1827356201171875,0,0,0,0
0.27066634899529163,0.05746083984375,-9.8449572265625,1.0510545288085937,0,0,0,0
0.27298908100055996,0.04548983154296875,-9.995791931152343,1.2018892333984375,0,0,0,0
0.2748682809906313,0.09816226806640624,-9.81862100830078,1.1372457885742187,0,0,0,0
0.27714514298713766,0.0047884033203125,-9.888052856445311,1.1468225952148436,0,0,0,0
0.27910295299079735,0.08379705810546874,-9.813832604980469,1.0989385620117187,0,0,0,0
0.28099798699258827,0.10295067138671875,-9.888052856445311,0.9792284790039062,0,0,0,0
0.2832976450008573,0.10295067138671875,-9.83777462158203,1.158793603515625,0,0,0,0
0.28512432699790224,0.11252747802734374,-9.859322436523437,1.1180921752929687,0,0,0,0
0.2869696019915864,0.0526724365234375,-9.938331091308592,1.0319009155273438,0,0,0,0
0.28932512999745086,0.07422025146484375,-9.78031378173828,1.0989385620117187,0,0,0,0
0.2911850159871392,0.12210428466796874,-9.801861596679688,1.2138602416992186,0,0,0,0
0.2930197719979333,0.12449848632812499,-9.785102185058593,1.189918225097656,0,0,0,0
0.29485728799772914,0.016759411621093748,-9.828197814941406,1.0342951171875,0,0,0,0
0.2966513959981967,0.1484405029296875,-9.842563024902343,1.0606313354492187,0,0,0,0
0.2984637079935055,0.028730419921875,-9.811438403320311,1.0917559570312498,0,0,0,0
0.30073042199364863,0.0383072265625,-9.849745629882811,1.1324573852539062,0,0,0,0
0.3026357329945313,0.06464344482421874,-9.720458740234374,1.1109095703125,0,0,0,0
0.30428112199297175,0.0383072265625,-9.797073193359374,1.1516109985351561,0,0,0,0
0.30590428799041547,0.10295067138671875,-9.873687646484374,1.0726023437499999,0,0,0,0
0.30743163998704404,0.06464344482421874,-9.911994873046874,1.0654197387695312,0,0,0,0
0.30897028899926227,0.07900865478515624,-9.859322436523437,1.0845733520507812,0,0,0,0
0.3106058619887335,0.033518823242187495,-9.861716638183593,1.0510545288085937,0,0,0,0
0.3126980789966183,0.0383072265625,-9.859322436523437,1.16837041015625,0,0,0,0
0.31430037500103936,0.047884033203124995,-9.85692823486328,1.0007762939453124,0,0,0,0
0.31590511499962304,0.0143652099609375,-9.79946739501953,1.0869675537109373,0,0,0,0
0.3177786859887419,0.13407529296874998,-9.804255798339844,0.948103857421875,0,0,0,0
0.3193407969956752,0.09816226806640624,-9.861716638183593,1.0606313354492187,0,0,0,0
0.3209423709922703,0.05985504150390625,-9.89523546142578,1.0390835205078124,0,0,0,0
0.32250331599789206,0.09337386474609374,-9.842563024902343,1.0797849487304687,0,0,0,0
0.32447645899083,0.0,-9.880870251464843,1.1133037719726562,0,0,0,0
0.3261275510012638,0.06464344482421874,-9.813832604980469,1.0917559570312498,0,0,0,0
0.3276840509934118,0.0909796630859375,-9.821015209960937,1.0869675537109373,0,0,0,0
0.32929056898865383,0.09337386474609374,-9.861716638183593,1.1109095703125,0,0,0,0
0.33088293999026064,0.12689268798828124,-9.81862100830078,1.1061211669921875,0,0,0,0
0.3324098289886024,0.0526724365234375,-9.928754284667969,1.0797849487304687,0,0,0,0
0.33394736699119676,-0.11731588134765625,-9.832986218261718,1.0702081420898437,0,0,0,0
0.3360075089876773,0.076614453125,-9.90241806640625,1.1085153686523437,0,0,0,0
0.33761128698824905,0.02154781494140625,-9.947907897949218,1.1731588134765625,0,0,0,0
0.33916502799547743,0.10295067138671875,-9.753977563476562,1.1444283935546875,0,0,0,0
0.3407608609995805,0.12210428466796874,-9.868899243164062,1.0941501586914062,0,0,0,0
0.34233411999593955,0.13168109130859373,-9.885658654785155,1.1061211669921875,0,0,0,0
0.34536441799718887,0.062249243164062495,-9.890447058105469,0.9959878906249999,0,0,0,0
0.34891604298900347,0.1149216796875,-9.854534033203125,1.1444283935546875,0,0,0,0
0.3517572689888766,0.09337386474609374,-9.835380419921874,1.1372457885742187,0,0,0,0
0.35382474499056116,0.076614453125,-9.868899243164062,1.1228805786132812,0,0,0,0
0.3555150769971078,0.12449848632812499,-9.904812268066406,1.1156979736328125,0,0,0,0
0.3571425209956942,0.05027823486328125,-9.871293444824218,1.0869675537109373,0,0,0,0
0.35867683599644806,0.023942016601562498,-9.883264453125,1.0702081420898437,0,0,0,0
0.3604294089891482,0.031124621582031248,-9.82580361328125,1.0749965454101562,0,0,0,0
0.36241131099814083,0.105344873046875,-9.828197814941406,1.1228805786132812,0,0,0,0
0.36411040199163835,0.12210428466796874,-9.928754284667969,1.0510545288085937,0,0,0,0
0.36619606299791485,1.9129671264648436,-10.998962426757812,-0.2705447875976562,0,0,0,0
0.3681540029938333,2.722207287597656,-10.845733520507812,-1.189918225097656,0,0,0,0
0.3697726509999484,1.7908628417968748,-10.065223779296874,-4.043806604003906,0,0,0,0
0.3713878729904536,-1.2401964599609374,-9.70369932861328,-6.179434484863281,0,0,0,0
0.37293472499004565,-1.4796166259765624,-9.469067565917967,-6.892906579589844,0,0,0,0
0.37444596699788235,-2.8419173706054686,-9.02135185546875,-7.493851196289062,0,0,0,0
0.37603454099735245,-3.385401147460937,-8.283937744140625,-6.093243225097656,0,0,0,0
0.37808577599935234,-1.9943699829101562,-9.045293872070312,-4.496310717773437,0,0,0,0
0.3796466089988826,-2.3295582153320313,-9.052476477050782,-1.2904746948242187,0,0,0,0
0.38120179499674123,-0.15562310791015624,-9.775525378417969,0.5746083984375,0,0,0,0
0.38279905400122516,1.6041151123046875,-9.627084875488281,5.073313317871094,0,0,0,0
0.38433779499609955,3.6200329101562496,-10.16338604736328,6.299144567871093,0,0,0,0
0.3858507400000235,4.422090466308593,-9.124302526855468,8.034940771484374,0,0,0,0
0.3881596579885809,2.839523168945312,-9.485826977539062,6.619967590332031,0,0,0,0
0.38979282398940995,2.2002713256835937,-10.165780249023436,4.359841223144531,0,0,0,0
0.3913713980000466,0.38307226562499996,-10.436325036621094,1.8148048583984373,0,0,0,0
0.392975545997615,0.33758243408203126,-9.80665,0.9361328491210937,0,0,0,0
0.39451634298893623,-1.419761584472656,-9.801861596679688,-2.327164013671875,0,0,0,0
0.396060712999315,-3.418919970703125,-10.122684619140625,-3.0933085449218747,0,0,0,0
0.3976637320010923,-1.917755529785156,-10.297461340332031,-2.770091320800781,0,0,0,0
0.3996652269997867,-1.886630908203125,-11.183315954589844,-2.50912333984375,0,0,0,0
0.4015252419922035,-2.540247961425781,-11.844115612792969,-0.5434837768554687,0,0,0,0
0.4032343519938877,-0.3591302490234375,-10.024522351074218,0.6775590698242188,0,0,0,0
0.40500386799976695,0.6177040283203125,-10.785878479003905,2.5234885498046875,0,0,0,0
0.4067510329914512,1.2473790649414063,-10.599130749511717,3.912125512695312,0,0,0,0
0.4086577879934339,1.5107412475585937,-9.809044201660155,4.149151477050781,0,0,0,0
0.4121890429960331,1.4508862060546874,-9.452308154296874,2.5450363647460934,0,0,0,0
0.41416990899597295,1.438915197753906,-8.022969763183593,1.9416975463867185,0,0,0,0
0.41600355399714317,0.5865794067382812,-9.255983618164063,-0.19871873779296872,0,0,0,0
0.41782601398881525,-0.7757213378906249,-9.45470235595703,-1.5801730957031248,0,0,0,0
0.419737713993527,-2.437297290039062,-8.389282617187499,-2.224213342285156,0,0,0,0
0.42161239599226974,-1.22583125,-8.741230261230468,-1.0319009155273438,0,0,0,0
0.4236059459944954,-0.8906430175781249,-8.923189587402343,0.3184288208007812,0,0,0,0
0.42547260998981073,-0.26815058593749996,-9.320627062988281,1.6112977172851561,0,0,0,0
0.4272787739901105,0.6679822631835937,-10.59194814453125,2.224213342285156,0,0,0,0
0.4294423409883166,1.5394716674804687,-10.498574279785156,3.689464758300781,0,0,0,0
0.4313992069946835,1.2473790649414063,-10.263942517089843,3.3255461059570313,0,0,0,0
0.4332357039966155,1.2785036865234374,-10.070012182617187,2.913743420410156,0,0,0,0
0.435029404994566,0.8595183959960937,-10.790666882324219,1.1468225952148436,0,0,0,0
0.43844886499573477,-0.9121908325195311,-10.445901843261717,-0.74699091796875,0,0,0,0
0.44041273099719547,-1.7788918334960937,-10.374075793457031,-0.8858546142578124,0,0,0,0
0.4424081709876191,-1.5538368774414062,-10.51533369140625,-0.5530605834960938,0,0,0,0
0.4442964819900226,-0.040701428222656245,-10.364498986816406,0.09576806640624999,0,0,0,0
0.44623827398754656,0.1580173095703125,-9.725247143554688,0.7015010864257812,0,0,0,0
0.4480754749965854,-0.040701428222656245,-9.842563024902343,1.3455413330078123,0,0,0,0
0.44984863899298944,0.01915361328125,-9.567229833984374,1.8938135131835936,0,0,0,0
0.451725061997422,0.3687070556640625,-9.418789331054686,2.1619640991210938,0,0,0,0
0.45367089098726865,1.5466542724609373,-9.160215551757812,2.233790148925781,0,0,0,0
0.45573055199929513,0.44053310546874996,-8.48505068359375,1.9201497314453124,0,0,0,0
0.4576523439900484,-0.00718260498046875,-9.081206896972656,1.7118541870117185,0,0,0,0
0.45958445098949596,1.2832920898437499,-9.749189160156249,1.3814543579101561,0,0,0,0
0.46141826298844535,0.07422025146484375,-9.749189160156249,0.38307226562499996,0,0,0,0
0.46324255599756725,-0.46208092041015625,-9.430760339355468,0.055066638183593745,0,0,0,0
0.4651374419918284,-0.201112939453125,-10.026916552734374,0.12689268798828124,0,0,0,0
0.46693845799018163,-0.5674257934570313,-10.599130749511717,-0.07422025146484375,0,0,0,0
0.4696462959982455,-0.4213794921875,-9.947907897949218,0.5770026000976562,0,0,0,0
0.47180395599571057,-0.33039982910156246,-10.647014782714843,1.16837041015625,0,0,0,0
0.47360580498934723,0.17956512451171874,-10.522516296386717,1.927332336425781,0,0,0,0
0.4756823739880929,0.5770026000976562,-10.73799444580078,2.2385785522460937,0,0,0,0
0.47752101899823174,1.1109095703125,-10.503362683105468,2.1164742675781247,0,0,0,0
0.47987623199878726,-0.18435352783203124,-10.070012182617187,1.5729904907226562,0,0,0,0
0.4819966149952961,0.076614453125,-9.8449572265625,1.2114660400390624,0,0,0,0
0.4837616679869825,-0.028730419921875,-10.129867224121092,0.430956298828125,0,0,0,0
0.4856183499941835,-0.6919242797851562,-9.619902270507811,0.10773907470703124,0,0,0,0
0.4876217339915456,-0.9983820922851562,-9.057264880371093,0.40940848388671874,0,0,0,0
0.4894023059896426,-0.6488286499023437,-9.514557397460937,0.97683427734375,0,0,0,0
0.4916683719930006,0.5051765502929687,-9.433154541015625,1.7645266235351562,0,0,0,0
0.4944843199918978,1.0582371337890624,-9.217676391601563,1.6112977172851561,0,0,0,0
0.4965186299959896,0.39743747558593745,-9.720458740234374,1.3144167114257812,0,0,0,0
0.4983588670002064,0.612915625,-9.437942944335937,1.2210428466796874,0,0,0,0
0.5004473059962038,0.27293898925781246,-10.077194787597655,0.411802685546875,0,0,0,0
0.5024706159892958,-0.3806780639648437,-9.428366137695312,0.2442085693359375,0,0,0,0
0.5041915029869415,-0.239420166015625,-9.459490759277344,0.3327940307617187,0,0,0,0
0.5058343169948785,-0.5698199951171875,-10.982203015136719,0.5578489868164063,0,0,0,0
0.5077591089939233,0.2753331909179687,-10.223241088867187,1.2904746948242187,0,0,0,0
0.5096435320010642,0.86191259765625,-10.486603271484375,1.429338391113281,0,0,0,0
0.5113095309934579,-0.3280056274414062,-10.771513269042968,1.1635820068359375,0,0,0,0
0.5129578079940984,-0.0383072265625,-10.510545288085936,1.5921441040039062,0,0,0,0
0.5147074540000176,0.1005564697265625,-10.014945544433592,1.2904746948242187,0,0,0,0
0.5164441739907488,0.02633621826171875,-10.242394702148436,0.9552864624023437,0,0,0,0
0.5184850949881366,-0.23223756103515625,-9.737218151855469,0.9600748657226562,0,0,0,0
0.5204257570003392,-0.1484405029296875,-9.591171850585937,1.2832920898437499,0,0,0,0
0.5223081979929702,-0.5243301635742187,-10.417171423339843,0.9696516723632812,0,0,0,0
0.5239434379909653,0.21308394775390624,-9.512163195800781,1.5298948608398437,0,0,0,0
0.5255668079917086,1.2785036865234374,-9.114725720214842,1.5083470458984374,0,0,0,0
0.5273077879974153,0.01915361328125,-9.6917283203125,0.9026140258789062,0,0,0,0
0.5294092819967773,-0.03591302490234375,-9.397241516113281,0.9792284790039062,0,0,0,0
0.5314864789979765,0.277727392578125,-9.452308154296874,0.430956298828125,0,0,0,0
0.5334992709977087,-0.4477157104492187,-9.634267480468749,0.354341845703125,0,0,0,0
0.5352134169952478,-0.5865794067382812,-9.028534460449219,0.5363011718749999,0,0,0,0
0.5371340059937211,-0.23702596435546874,-10.04846436767578,1.216254443359375,0,0,0,0
0.5391920739930356,0.4740519287109375,-10.28549033203125,1.5298948608398437,0,0,0,0
0.5410567749931943,1.3144167114257812,-9.311050256347656,2.085349645996094,0,0,0,0
0.543072732994915,0.63206923828125,-10.594342346191405,1.5251064575195312,0,0,0,0
0.5449693959963042,-0.229843359375,-10.474632263183594,1.4963760375976562,0,0,0,0
0.5468369109876221,0.411802685546875,-10.24000050048828,1.3383587280273437,0,0,0,0
0.5486431859899312,-0.229843359375,-10.455478649902343,0.59376201171875,0,0,0,0
0.5504746090009576,-0.5386953735351562,-9.775525378417969,0.7326257080078125,0,0,0,0
0.5526108429912711,-0.07900865478515624,-9.938331091308592,1.180341418457031,0,0,0,0
0.5545768939919071,-0.34237083740234375,-10.618284362792968,1.2569558715820313,0,0,0,0
0.556470815994544,1.0726023437499999,-9.586383447265625,1.5107412475585937,0,0,0,0
0.5583213130012155,0.2059013427734375,-9.65342109375,1.3455413330078123,0,0,0,0
0.560093940992374,-0.45010991210937495,-10.067617980957031,0.8379705810546875,0,0,0,0
0.5619774739898276,0.21787235107421873,-9.07163009033203,1.0606313354492187,0,0,0,0
0.5640092839894351,0.3591302490234375,-9.842563024902343,0.5099649536132812,0,0,0,0
0.5659552789875306,0.06703764648437499,-9.291896643066405,0.24660277099609373,0,0,0,0
0.5678317019919632,-0.5889736083984375,-9.871293444824218,0.5602431884765625,0,0,0,0
0.5698770299932221,-0.6464344482421874,-10.182539660644531,0.9864110839843749,0,0,0,0
0.5718724879989168,0.34715924072265625,-9.303867651367186,1.8100164550781248,0,0,0,0
0.5737165959872073,1.2856862915039062,-9.074024291992187,1.8291700683593748,0,0,0,0
0.5757064249919495,0.26336218261718747,-10.156203442382813,1.5705962890624998,0,0,0,0
0.5780260829924373,0.22744915771484372,-9.746794958496093,1.6448165405273436,0,0,0,0
0.5801177059911424,0.27293898925781246,-10.512939489746094,0.6488286499023437,0,0,0,0
0.5824439749994781,-0.36391865234375,-9.732429748535155,0.70868369140625,0,0,0,0
0.5846942819916876,-0.45489831542968745,-9.871293444824218,1.0749965454101562,0,0,0,0
0.5866454999923008,-0.6416460449218749,-10.632649572753905,1.2641384765625,0,0,0,0
0.5886534579913132,0.8283937744140625,-9.593566052246093,1.6903063720703124,0,0,0,0
0.5914547219872475,-0.07422025146484375,-10.69968721923828,1.2497732666015624,0,0,0,0
0.5932758479902986,0.1867477294921875,-9.945513696289062,1.2952630981445312,0,0,0,0
0.5955142299935687,0.2059013427734375,-9.720458740234374,0.603338818359375,0,0,0,0
0.597437299991725,-0.4572925170898437,-9.952696301269532,0.2705447875976562,0,0,0,0
0.5991824829980033,-0.3591302490234375,-8.80347950439453,0.5363011718749999,0,0,0,0
0.6024370369996177,-0.5506663818359374,-10.254365710449218,1.1731588134765625,0,0,0,0
0.6042554979940178,1.3383587280273437,-9.327809667968749,1.5418658691406248,0,0,0,0
0.6059128119959496,1.0654197387695312,-9.545682019042967,1.5729904907226562,0,0,0,0
0.6080723969935207,-0.22505495605468748,-9.90241806640625,1.3144167114257812,0,0,0,0
0.6099559680005768,0.30406361083984373,-9.3852705078125,1.484405029296875,0,0,0,0
0.6116028190008365,0.5482721801757812,-9.794678991699218,0.9959878906249999,0,0,0,0
0.6137434049887815,0.488417138671875,-9.746794958496093,0.7302315063476562,0,0,0,0
0.615645030993619,-0.7206546997070312,-9.200916979980468,0.3495534423828125,0,0,0,0
0.6172998260008171,-0.7757213378906249,-10.319009155273436,0.7422025146484375,0,0,0,0
0.6192892469989602,-0.239420166015625,-10.637437976074217,1.0414777221679687,0,0,0,0
0.6215163879969623,1.0510545288085937,-9.821015209960937,1.675941162109375,0,0,0,0
0.6232318309921538,0.0526724365234375,-10.292672937011718,1.3024457031249999,0,0,0,0
0.6247989979892736,-0.0718260498046875,-10.340556970214843,1.3024457031249999,0,0,0,0
0.6263835899881087,-0.0430956298828125,-9.840168823242188,1.5442600708007812,0,0,0,0
0.6280773670005146,0.16041151123046873,-10.347739575195313,0.9265560424804687,0,0,0,0
0.629676403987105,-0.2920926025390625,-9.828197814941406,0.8786720092773437,0,0,0,0
0.63128116299049,-0.2920926025390625,-8.942343200683593,0.9792284790039062,0,0,0,0
0.6328562179987784,-0.13168109130859373,-9.227253198242186,1.2761094848632812,0,0,0,0
0.6343646449968219,-0.02633621826171875,-10.103531005859374,1.149216796875,0,0,0,0
0.636107253987575,0.16998831787109375,-9.366116894531249,1.3455413330078123,0,0,0,0
0.6378407339943806,0.612915625,-9.387664709472656,1.4006079711914061,0,0,0,0
0.6397293229965726,0.1388636962890625,-9.97184991455078,1.2593500732421874,0,0,0,0
0.6414172660006443,0.2705447875976562,-9.744400756835937,1.2593500732421874,0,0,0,0
0.6433460580010433,0.3280056274414062,-9.746794958496093,1.0438719238281249,0,0,0,0
0.645092463993933,-0.2059013427734375,-9.730035546875,0.38786066894531246,0,0,0,0
0.6466270009987056,-0.6536170532226562,-9.586383447265625,0.5267243652343749,0,0,0,0
0.6481904829997802,-0.6368576416015624,-9.648632690429688,0.7398083129882812,0,0,0,0
0.6499579989904305,-0.42377369384765623,-10.587159741210938,1.1372457885742187,0,0,0,0
0.6516615719883703,0.5793968017578125,-10.330980163574218,1.9105729248046874,0,0,0,0
0.653419069989468,1.2928688964843749,-9.682151513671874,1.8938135131835936,0,0,0,0
0.6552283450000687,-0.33758243408203126,-10.505756884765624,1.3048399047851562,0,0,0,0
0.6569422139873495,-0.2920926025390625,-9.900023864746093,1.4772224243164063,0,0,0,0
0.6585958429932361,0.2059013427734375,-9.701305126953125,1.0510545288085937,0,0,0,0
0.6602232129953336,0.16041151123046873,-10.433930834960936,0.7398083129882812,0,0,0,0
0.6618754899973283,-0.1149216796875,-9.428366137695312,0.45010991210937495,0,0,0,0
0.6634913409943692,-0.6967126831054687,-9.188945971679686,0.48123453369140623,0,0,0,0
0.6651127109944355,-0.28969840087890625,-10.328585961914062,0.8738836059570312,0,0,0,0
0.6667065439978614,-1.0103531005859374,-10.493785876464843,1.2401964599609374,0,0,0,0
0.6682834889943479,0.8762778076171874,-9.37808790283203,1.687912170410156,0,0,0,0
0.6698558219941333,1.2880804931640624,-9.392453112792968,1.8459294799804686,0,0,0,0
0.6713540079945233,0.3016694091796875,-10.254365710449218,1.5107412475585937,0,0,0,0
0.673012340994319,0.258573779296875,-9.80665,1.6256629272460936,0,0,0,0
0.6746077479911037,0.44532150878906246,-9.557653027343749,1.20667763671875,0,0,0,0
0.6761731369915651,0.6081272216796875,-10.084377392578125,0.7445967163085937,0,0,0,0
0.677686785988044,-0.34715924072265625,-9.720458740234374,0.34237083740234375,0,0,0,0
0.6792636749887606,-0.5458779785156249,-8.913612780761719,0.4165910888671875,0,0,0,0
0.6808248969900887,0.076614453125,-9.7683427734375,0.7565677246093749,0,0,0,0
0.6830693519877968,-0.7230489013671875,-10.218452685546874,1.189918225097656,0,0,0,0
0.6865862189879408,0.30406361083984373,-10.352527978515624,1.39821376953125,0,0,0,0
0.6895042219985044,0.2705447875976562,-9.830592016601562,1.5562310791015623,0,0,0,0
0.6912301269912859,0.411802685546875,-9.777919580078125,1.3000515014648437,0,0,0,0
0.6930149580002762,0.5243301635742187,-9.911994873046874,0.8451531860351562,0,0,0,0
0.695168673992157,-0.25139117431640623,-9.536105212402344,0.679953271484375,0,0,0,0
0.6968826349911978,-0.076614453125,-9.964667309570311,1.0582371337890624,0,0,0,0
0.6985085979977157,-0.8810662109374999,-10.117896215820313,1.13006318359375,0,0,0,0
0.7006545170006575,0.718260498046875,-9.507374792480467,1.4030021728515625,0,0,0,0
0.7023579779925058,0.39743747558593745,-9.658209497070311,1.4101847778320311,0,0,0,0
0.7039755519945174,0.19632453613281248,-10.089165795898436,1.3024457031249999,0,0,0,0
0.7057221610011766,0.02633621826171875,-9.667786303710937,1.2689268798828124,0,0,0,0
0.7077291189925745,0.0383072265625,-9.943119494628906,0.7398083129882812,0,0,0,0
0.7094957649969729,-0.08379705810546874,-9.943119494628906,0.8738836059570312,0,0,0,0
0.7117395539971767,-0.13168109130859373,-9.270348828125,0.9169792358398436,0,0,0,0
0.7134365519887069,-0.373495458984375,-10.031704956054687,1.1707646118164061,0,0,0,0
0.7151207549904939,-0.6703764648437499,-10.070012182617187,1.0654197387695312,0,0,0,0
0.7171152689988958,0.8667010009765624,-9.516951599121093,1.350329736328125,0,0,0,0
0.7188747849868378,0.22744915771484372,-10.177751257324218,1.2042834350585936,0,0,0,0
0.7207810959953349,0.1580173095703125,-9.976638317871092,1.2808978881835937,0,0,0,0
0.7225949639978353,-0.08379705810546874,-9.87608184814453,0.93852705078125,0,0,0,0
0.7242227959941374,0.181959326171875,-10.096348400878906,0.8116343627929687,0,0,0,0
0.7258433139941189,0.1005564697265625,-9.797073193359374,0.59376201171875,0,0,0,0
0.72821474999364,-0.38307226562499996,-10.029310754394531,0.5746083984375,0,0,0,0
0.7300420429965016,-0.6847416748046875,-10.031704956054687,0.718260498046875,0,0,0,0
0.7317311709921341,0.2154781494140625,-10.012551342773437,1.5035586425781249,0,0,0,0
0.7336699449951993,0.7589619262695312,-9.552864624023437,1.5897499023437498,0,0,0,0
0.7353036479908042,0.06943184814453125,-10.0748005859375,1.426944189453125,0,0,0,0
0.7369271479983581,0.06943184814453125,-9.775525378417969,1.4030021728515625,0,0,0,0
0.7388564399880124,-0.033518823242187495,-9.689334118652344,0.9840168823242187,0,0,0,0
0.7404971239884617,0.32561142578124996,-10.091559997558592,0.7685387329101562,0,0,0,0
0.7421636229992146,0.28969840087890625,-9.45470235595703,0.612915625,0,0,0,0
0.7439692319894675,-0.36631285400390623,-10.067617980957031,0.47644613037109373,0,0,0,0
0.7456182869937038,-1.0438719238281249,-10.12507882080078,0.7254431030273437,0,0,0,0
0.7472863039874937,0.41419688720703124,-9.935936889648437,1.0821791503906248,0,0,0,0
0.7490972639934625,1.1420341918945311,-9.868899243164062,1.3670891479492187,0,0,0,0
0.7507342269964283,0.3758896606445312,-9.787496386718749,1.2018892333984375,0,0,0,0
0.7523983549908735,-0.07422025146484375,-9.804255798339844,1.43652099609375,0,0,0,0
0.7545015159994364,0.06464344482421874,-9.964667309570311,1.197100830078125,0,0,0,0
0.7563451419991907,0.36152445068359373,-10.139444030761718,0.9911994873046874,0,0,0,0
0.7581650099891704,0.2609679809570312,-9.411606726074218,0.8116343627929687,0,0,0,0
0.7600436549982987,-0.39743747558593745,-9.904812268066406,0.7589619262695312,0,0,0,0
0.7616764499980491,-0.7589619262695312,-9.952696301269532,0.8355763793945312,0,0,0,0
0.7633404489897657,0.05985504150390625,-9.809044201660155,1.0342951171875,0,0,0,0
0.7653047039930243,1.0295067138671874,-9.842563024902343,1.4772224243164063,0,0,0,0
0.7671399049868342,0.6057330200195312,-10.290278735351562,1.189918225097656,0,0,0,0
0.7688796619913774,-0.1197100830078125,-9.878476049804688,1.2761094848632812,0,0,0,0
0.7710665999911726,0.016759411621093748,-9.79946739501953,0.8714894042968749,0,0,0,0
0.7729085039900383,-0.2657563842773437,-9.495403784179686,0.7685387329101562,0,0,0,0
0.7745930769888218,0.17956512451171874,-9.421183532714844,0.7613561279296874,0,0,0,0
0.7764677589875646,0.229843359375,-10.002974536132811,1.0031704956054688,0,0,0,0
0.7781151279923506,-0.316034619140625,-10.402806213378906,0.9888052856445312,0,0,0,0
0.7797491279925453,0.5003881469726562,-9.627084875488281,1.4245499877929686,0,0,0,0
0.7816701789997751,0.8092401611328125,-10.0748005859375,1.1324573852539062,0,0,0,0
0.7837800989946118,-0.4381389038085937,-10.09395419921875,1.005564697265625,0,0,0,0
0.7857290949905291,-0.07900865478515624,-9.811438403320311,1.1228805786132812,0,0,0,0
0.7887060599896358,0.40940848388671874,-9.797073193359374,1.1659762084960936,0,0,0,0
0.7908989969873801,0.3136404174804687,-9.406818322753905,1.0893617553710937,0,0,0,0
0.7926745869917795,-0.011971008300781249,-10.172962854003906,1.1947066284179686,0,0,0,0
0.7948843949998263,-0.8020575561523438,-10.101136804199218,1.1947066284179686,0,0,0,0
0.7966629109869245,1.0079588989257813,-9.603142858886718,1.5490484741210937,0,0,0,0
0.798365112990723,0.8930372192382812,-9.457096557617186,0.9816226806640624,0,0,0,0
0.8008583799964981,-0.28012159423828126,-10.05564697265625,0.86191259765625,0,0,0,0
0.8027721729886252,-0.29448680419921874,-10.098742602539062,0.4836287353515625,0,0,0,0
0.8048234269954264,-0.4213794921875,-10.129867224121092,0.5961562133789062,0,0,0,0
0.8065897209889954,0.20350714111328125,-9.512163195800781,1.0510545288085937,0,0,0,0
0.8084183850005502,0.1771709228515625,-9.811438403320311,1.13006318359375,0,0,0,0
0.8107993939920561,-0.3902548706054687,-10.383652600097655,1.4867992309570313,0,0,0,0
0.8128099999885308,1.1755530151367186,-9.64623848876953,1.7980454467773437,0,0,0,0
0.8147712919890182,0.316034619140625,-9.9215716796875,1.1923124267578125,0,0,0,0
0.8165719739918131,-0.11252747802734374,-9.785102185058593,1.1875240234375,0,0,0,0
0.818435100998613,-0.055066638183593745,-9.83777462158203,1.0893617553710937,0,0,0,0
0.8204968169884523,-0.2657563842773437,-9.739612353515625,0.5195417602539062,0,0,0,0
0.8229183439980261,0.11731588134765625,-9.2320416015625,0.6177040283203125,0,0,0,0
0.8249908569996478,-0.0430956298828125,-10.091559997558592,0.8786720092773437,0,0,0,0
0.826813724997919,-0.6560112548828124,-10.28549033203125,1.1659762084960936,0,0,0,0
0.8286759249895113,1.216254443359375,-9.574412438964844,1.697488977050781,0,0,0,0
0.8306620869989274,0.45489831542968745,-9.880870251464843,1.2569558715820313,0,0,0,0
0.8324201779905707,0.105344873046875,-9.706093530273437,1.4053963745117186,0,0,0,0
0.8347948719892884,-0.12689268798828124,-9.981426721191406,0.8571241943359375,0,0,0,0
0.8370672529999865,-0.19632453613281248,-10.022128149414062,0.7613561279296874,0,0,0,0
0.8388526759954402,0.21308394775390624,-9.53131680908203,0.9121908325195311,0,0,0,0
0.840705505994265,-0.22266075439453123,-10.251971508789062,0.9935936889648437,0,0,0,0
0.8426638909877511,-0.6296750366210937,-10.347739575195313,1.2665326782226562,0,0,0,0
0.8449097529955907,1.1372457885742187,-9.732429748535155,1.4125789794921875,0,0,0,0
0.846930378000252,0.35673604736328124,-10.105925207519531,1.0079588989257813,0,0,0,0
0.8489750949956942,-0.09337386474609374,-9.823409411621093,1.0678139404296874,0,0,0,0
0.8507354259927524,-0.24899697265624998,-9.610325463867188,0.8762778076171874,0,0,0,0
0.8525795339955948,-0.17238251953125,-9.957484704589843,0.842758984375,0,0,0,0
0.8552229099877877,0.3687070556640625,-9.476250170898437,0.97683427734375,0,0,0,0
0.8573005709913559,-0.833182177734375,-10.060435375976562,0.9433154541015625,0,0,0,0
0.8594034359994112,0.6584054565429687,-9.70369932861328,1.5825672973632812,0,0,0,0
0.861187358997995,1.2737152832031249,-9.852139831542969,1.6256629272460936,0,0,0,0
0.8630170409887796,0.4477157104492187,-9.909600671386718,1.0103531005859374,0,0,0,0
0.8650731839879882,-0.24899697265624998,-9.830592016601562,1.1540052001953125,0,0,0,0
0.8677152089949232,-0.20829554443359374,-10.275913525390624,0.8499415893554687,0,0,0,0
0.8700808849971509,0.3399766357421875,-9.315838659667968,0.9337386474609375,0,0,0,0
0.872919795991038,-0.12449848632812499,-10.292672937011718,1.426944189453125,0,0,0,0
0.876752898999257,0.9241618408203125,-9.651026892089844,1.6232687255859375,0,0,0,0
0.8786657839955296,0.4740519287109375,-9.94072529296875,1.2952630981445312,0,0,0,0
0.880478780993144,0.1867477294921875,-9.662997900390625,1.3479355346679687,0,0,0,0
0.8822899639926618,0.5482721801757812,-9.763554370117188,0.6871358764648438,0,0,0,0
0.8845224379911087,-0.36152445068359373,-10.196904870605469,0.47165772705078124,0,0,0,0
0.8863325279962737,-0.15562310791015624,-9.380482104492186,0.5458779785156249,0,0,0,0
0.8882330789929256,-0.29448680419921874,-10.110713610839843,0.8212111694335937,0,0,0,0
0.8901876859890763,-0.5147533569335937,-9.988609326171874,1.1659762084960936,0,0,0,0
0.8920980900002178,0.82360537109375,-9.41639512939453,1.6711527587890624,0,0,0,0
0.8939709379919805,0.9265560424804687,-10.103531005859374,1.5298948608398437,0,0,0,0
0.89585374899616,-0.3280056274414062,-10.249577307128906,1.35990654296875,0,0,0,0
0.8976368579897098,0.3902548706054687,-9.909600671386718,1.0773907470703123,0,0,0,0
0.8995192619913723,-0.354341845703125,-9.995791931152343,0.6177040283203125,0,0,0,0
0.9013337590004085,0.11731588134765625,-9.3086560546875,0.7805097412109374,0,0,0,0
0.9031890149926767,-0.0383072265625,-9.706093530273437,0.7661445312499999,0,0,0,0
0.9049601799924858,-0.6177040283203125,-10.242394702148436,0.9217676391601562,0,0,0,0
0.906810972999665,-0.2657563842773437,-9.842563024902343,1.6472107421875,0,0,0,0
0.9091347789944848,1.37906015625,-10.05564697265625,1.6807295654296874,0,0,0,0
0.9117606189975049,-0.36152445068359373,-10.103531005859374,1.2856862915039062,0,0,0,0
0.9137227249884745,0.14604630126953125,-9.878476049804688,1.0702081420898437,0,0,0,0
0.9155702589923749,-0.06703764648437499,-10.503362683105468,0.49320554199218747,0,0,0,0
0.9175553289969685,0.05746083984375,-9.375693701171874,0.5099649536132812,0,0,0,0
0.9207667359878542,-0.6703764648437499,-10.026916552734374,0.6847416748046875,0,0,0,0
0.9226122319960268,-0.6679822631835937,-10.09395419921875,1.5275006591796874,0,0,0,0
0.9243806749873329,1.6136919189453125,-9.651026892089844,1.7597382202148437,0,0,0,0
0.9261079689895269,1.120486376953125,-10.084377392578125,1.7334020019531249,0,0,0,0
0.927927892000298,0.1149216796875,-9.976638317871092,1.5298948608398437,0,0,0,0
0.929748593000113,0.3327940307617187,-9.720458740234374,1.2425906616210938,0,0,0,0
0.9324006179958815,-0.17477672119140625,-10.16338604736328,0.38786066894531246,0,0,0,0
0.9342392999969888,-0.3854664672851562,-9.1554271484375,0.5339069702148437,0,0,0,0
0.9360156129987445,-0.5506663818359374,-10.259154113769531,0.565031591796875,0,0,0,0
0.9385702680010581,-0.3232172241210937,-10.158597644042969,1.4317325927734375,0,0,0,0
0.9409455179993529,1.3814543579101561,-9.483432775878907,1.7836802368164062,0,0,0,0
0.9441687949874904,-0.25139117431640623,-9.849745629882811,1.4508862060546874,0,0,0,0
0.9464654899929883,-0.08140285644531249,-9.792284790039062,1.2401964599609374,0,0,0,0
0.9487771299900487,-0.14125789794921875,-9.457096557617186,0.63206923828125,0,0,0,0
0.9509898629912641,0.09337386474609374,-9.392453112792968,0.948103857421875,0,0,0,0
0.9529060809873044,-0.20829554443359374,-10.156203442382813,1.0462661254882812,0,0,0,0
0.9558368619909743,1.0295067138671874,-9.890447058105469,1.4508862060546874,0,0,0,0
0.9584193499904359,-0.21068974609375,-9.967061511230469,1.0821791503906248,0,0,0,0
0.962163102987688,0.4477157104492187,-9.682151513671874,0.9337386474609375,0,0,0,0
0.9643046699929982,-0.0047884033203125,-10.053252770996092,0.7565677246093749,0,0,0,0
0.9662881099939113,0.411802685546875,-9.464279162597656,0.7398083129882812,0,0,0,0
0.9683472709875787,-0.6631938598632812,-10.359710583496094,1.0534487304687499,0,0,0,0
0.9707592979975743,-0.6703764648437499,-9.832986218261718,1.5538368774414062,0,0,0,0
0.9732698609877843,1.2928688964843749,-9.619902270507811,1.886630908203125,0,0,0,0
0.9751218399906065,0.3591302490234375,-10.175357055664062,1.1875240234375,0,0,0,0
0.9771599459927529,0.430956298828125,-9.85692823486328,1.4006079711914061,0,0,0,0
0.9792879579908913,-0.05027823486328125,-10.39322940673828,0.679953271484375,0,0,0,0
0.981381858990062,-0.21787235107421873,-9.524134204101562,0.5051765502929687,0,0,0,0
0.9837510349898366,-0.33518823242187495,-9.375693701171874,0.5746083984375,0,0,0,0
0.985940305996337,-0.9433154541015625,-9.95987890625,1.0726023437499999,0,0,0,0
0.9882410559948767,0.7685387329101562,-9.629479077148437,1.6998831787109374,0,0,0,0
0.9902789399930043,1.0079588989257813,-10.228029492187499,1.675941162109375,0,0,0,0
0.9923584899952402,0.2346317626953125,-9.550470422363281,1.5059528442382812,0,0,0,0
0.9950219029997243,-0.14125789794921875,-10.338162768554687,0.9313444458007812,0,0,0,0
0.9968207149941009,0.04548983154296875,-10.065223779296874,0.5219359619140624,0,0,0,0
0.9988408209901536,0.19632453613281248,-9.258377819824219,0.3950432739257812,0,0,0,0
1.0006333560013445,-0.6248866333007812,-10.350133776855468,0.6440402465820312,0,0,0,0
1.0023840020003263,-1.2114660400390624,-10.20887587890625,1.209071838378906,0,0,0,0
1.0050810629909392,1.0678139404296874,-9.85692823486328,1.7094599853515624,0,0,0,0
1.0072634449898032,0.7015010864257812,-9.976638317871092,1.4772224243164063,0,0,0,0
1.00891996199789,0.24660277099609373,-9.516951599121093,1.5179238525390624,0,0,0,0
1.010579035995761,-0.18435352783203124,-9.651026892089844,1.3646949462890625,0,0,0,0
1.012613382001291,0.10773907470703124,-10.235212097167969,0.8044517578125,0,0,0,0
1.0149211509997258,0.19871873779296872,-9.313444458007812,0.5363011718749999,0,0,0,0
1.0170493119949242,-0.55545478515625,-9.849745629882811,0.8212111694335937,0,0,0,0
1.0190577509929426,-0.59376201171875,-9.540893615722656,1.458068811035156,0,0,0,0
1.0208341929974267,1.216254443359375,-9.713276135253906,1.7381904052734374,0,0,0,0
1.0230178529891418,0.5530605834960938,-10.058041174316406,1.4987702392578124,0,0,0,0
1.0251509759982582,0.5099649536132812,-9.93354268798828,1.3168109130859373,0,0,0,0
1.0274506899877451,-0.21068974609375,-10.24000050048828,0.699106884765625,0,0,0,0
1.0296748859982472,-0.4740519287109375,-9.600748657226562,0.6296750366210937,0,0,0,0
1.031396346996189,-0.0430956298828125,-9.210493786621093,0.8355763793945312,0,0,0,0
1.0340052799874684,-0.7613561279296874,-10.12507882080078,0.9097966308593749,0,0,0,0
1.0357811479916563,0.7254431030273437,-9.765948571777344,1.4724340209960938,0,0,0,0
1.0388192419923143,0.2657563842773437,-10.081983190917969,1.0965443603515623,0,0,0,0
1.0408109220006736,-0.0143652099609375,-9.813832604980469,1.2641384765625,0,0,0,0
1.0425365499977488,-0.13646949462890623,-9.5384994140625,1.1013327636718748,0,0,0,0
1.0442907699907664,0.047884033203124995,-9.969455712890625,0.7517793212890624,0,0,0,0
1.0463168209971627,0.28969840087890625,-9.255983618164063,0.6248866333007812,0,0,0,0
1.0479786899959436,-0.28012159423828126,-10.137049829101562,0.7565677246093749,0,0,0,0
1.0510703949985327,-0.8092401611328125,-9.8449572265625,1.4939818359375,0,0,0,0
1.0528989659942454,1.1061211669921875,-9.636661682128906,1.908178723144531,0,0,0,0
1.0550046449934598,0.8283937744140625,-10.153809240722655,1.5682020874023437,0,0,0,0
1.056989362987224,0.20350714111328125,-9.823409411621093,1.4317325927734375,0,0,0,0
1.0587769159901654,0.0047884033203125,-10.04846436767578,0.9145850341796874,0,0,0,0
1.0608693729882361,-0.27293898925781246,-10.182539660644531,0.4740519287109375,0,0,0,0
1.0626261299912585,0.05027823486328125,-9.236830004882812,0.5578489868164063,0,0,0,0
1.0643933129904326,-0.296881005859375,-9.710881933593749,0.4860229370117187,0,0,0,0
1.0660865889949491,-0.7661445312499999,-10.256759912109374,0.6631938598632812,0,0,0,0
1.0682635639968794,0.086191259765625,-9.318232861328125,1.4245499877929686,0,0,0,0
1.0704499639978167,0.6584054565429687,-9.952696301269532,1.8148048583984373,0,0,0,0
1.0722184799960814,0.3687070556640625,-9.923965881347655,1.7238251953125,0,0,0,0
1.0745753230003174,0.3184288208007812,-9.533711010742186,1.618480322265625,0,0,0,0
1.0763560619961936,0.26815058593749996,-10.314220751953124,0.6607996582031249,0,0,0,0
1.078230242987047,-0.6009446166992187,-9.504980590820312,0.42377369384765623,0,0,0,0
1.0804841609933646,-0.45010991210937495,-9.737218151855469,0.5051765502929687,0,0,0,0
1.0822584929992445,-0.8451531860351562,-10.421959826660157,0.622492431640625,0,0,0,0
1.0840209529997082,0.5913678100585937,-9.821015209960937,1.1923124267578125,0,0,0,0
1.0858718389936257,0.8355763793945312,-10.108319409179687,1.216254443359375,0,0,0,0
1.087765946998843,-0.4285620971679687,-10.402806213378906,1.3383587280273437,0,0,0,0
1.08960285098874,-0.011971008300781249,-9.631873278808593,1.4987702392578124,0,0,0,0
1.091862046989263,0.3591302490234375,-10.184933862304687,1.1923124267578125,0,0,0,0
1.0937174689897802,0.5243301635742187,-9.72285294189453,1.0702081420898437,0,0,0,0
1.095540632988559,-0.076614453125,-9.524134204101562,0.928950244140625,0,0,0,0
1.097488721992704,-0.7661445312499999,-10.199299072265624,1.0702081420898437,0,0,0,0
1.099407698988216,-0.8379705810546875,-9.828197814941406,1.0726023437499999,0,0,0,0
1.1016859499941347,0.5003881469726562,-9.241618408203124,1.3455413330078123,0,0,0,0
1.1035727429989493,0.14125789794921875,-9.916783276367187,1.1348515869140625,0,0,0,0
1.1053402039979119,0.47165772705078124,-9.7683427734375,1.4915876342773438,0,0,0,0
1.1068689639942022,-0.17238251953125,-9.890447058105469,1.1755530151367186,0,0,0,0
1.108164281991776,-0.02154781494140625,-10.117896215820313,0.8690952026367187,0,0,0,0
1.109469748000265,0.1388636962890625,-9.87608184814453,0.8020575561523438,0,0,0,0
1.110745121986838,0.011971008300781249,-9.270348828125,0.9145850341796874,0,0,0,0
1.1120093289937358,-0.13407529296874998,-9.337386474609374,0.7900865478515624,0,0,0,0
1.1132237220008392,-0.15322890625,-9.801861596679688,1.0342951171875,0,0,0,0
1.1143280799878994,-0.8307879760742187,-10.043675964355469,0.842758984375,0,0,0,0
1.1154382339882432,-0.5578489868164063,-10.091559997558592,1.180341418457031,0,0,0,0
1.116511146989069,0.8762778076171874,-9.734823950195311,1.2713210815429687,0,0,0,0
1.1177391139935935,0.3399766357421875,-9.866505041503906,1.350329736328125,0,0,0,0
1.1190512100001797,0.258573779296875,-10.364498986816406,1.1276689819335937,0,0,0,0
1.1202878619951662,-0.17956512451171874,-9.86411083984375,1.350329736328125,0,0,0,0
1.1214461079944158,0.21308394775390624,-9.813832604980469,1.2617442749023438,0,0,0,0
1.1225275579927256,-0.26815058593749996,-9.746794958496093,1.1875240234375,0,0,0,0
1.1237894319929183,0.028730419921875,-10.290278735351562,0.928950244140625,0,0,0,0
1.1250163809891092,0.07422025146484375,-10.180145458984374,0.8020575561523438,0,0,0,0
1.1261388119892217,-0.08379705810546874,-9.504980590820312,0.8571241943359375,0,0,0,0
1.1272151329903863,0.023942016601562498,-9.361328491210937,0.8882488159179687,0,0,0,0
1.128292267996585,0.02154781494140625,-10.058041174316406,0.74699091796875,0,0,0,0
1.1295837899961043,-0.7661445312499999,-9.87608184814453,1.1013327636718748,0,0,0,0
1.1307578129926696,-0.2561795776367187,-10.146626635742187,1.0773907470703123,0,0,0,0
1.1318618009972852,0.9313444458007812,-9.765948571777344,1.4987702392578124,0,0,0,0
1.1329459919943474,1.180341418457031,-9.696516723632811,1.618480322265625,0,0,0,0
1.134019126999192,0.5722141967773438,-10.067617980957031,1.3431471313476562,0,0,0,0
1.1352119279908948,-0.0909796630859375,-10.043675964355469,1.1611878051757811,0,0,0,0
1.136386654994567,-0.39264907226562495,-9.679757312011718,1.3623007446289062,0,0,0,0
1.1374779749894515,0.17477672119140625,-9.713276135253906,1.2832920898437499,0,0,0,0
1.138705145989661,-0.1005564697265625,-9.782707983398437,1.177947216796875,0,0,0,0
1.139936723993742,0.11731588134765625,-10.192116467285155,0.8643067993164062,0,0,0,0
1.1411284139903728,0.21068974609375,-9.871293444824218,0.5985504150390625,0,0,0,0
1.1423709369992139,0.16041151123046873,-9.4618849609375,0.5602431884765625,0,0,0,0
1.143500348989619,-0.39264907226562495,-9.801861596679688,0.6703764648437499,0,0,0,0
1.1446215589967323,-0.7996633544921875,-10.137049829101562,0.5793968017578125,0,0,0,0
1.1458828589966288,-1.1516109985351561,-9.967061511230469,0.7709329345703124,0,0,0,0
1.1471478619932896,-0.5793968017578125,-9.952696301269532,1.5275006591796874,0,0,0,0
1.1482447749876883,0.9121908325195311,-9.387664709472656,1.714248388671875,0,0,0,0
1.1494354469905375,1.3072341064453123,-9.658209497070311,1.8722656982421875,0,0,0,0
1.1507822639978258,0.5003881469726562,-9.995791931152343,1.714248388671875,0,0,0,0
1.1520722679997561,0.1149216796875,-10.04846436767578,1.608903515625,0,0,0,0
1.1531846059951931,0.28490999755859375,-9.935936889648437,1.3934253662109375,0,0,0,0
1.154268593993038,0.29448680419921874,-9.8449572265625,1.3263877197265623,0,0,0,0
1.1553491550002946,0.09816226806640624,-10.455478649902343,0.7637503295898437,0,0,0,0
1.1564302719925763,0.08379705810546874,-10.081983190917969,0.6368576416015624,0,0,0,0
1.1575116669991985,-0.39983167724609375,-9.593566052246093,0.4836287353515625,0,0,0,0
1.1587264299887465,-0.086191259765625,-9.172186560058593,0.6655880615234374,0,0,0,0
1.159921119993669,-0.430956298828125,-9.478644372558593,0.5458779785156249,0,0,0,0
1.1611129389930284,-0.4740519287109375,-10.060435375976562,0.8810662109374999,0,0,0,0
1.1622859810013324,-0.833182177734375,-10.005368737792969,0.9265560424804687,0,0,0,0
1.1634178569947835,-0.3399766357421875,-9.751583361816406,1.2808978881835937,0,0,0,0
1.1646886379894568,1.2210428466796874,-9.677363110351562,1.426944189453125,0,0,0,0
1.165903642991907,0.5913678100585937,-10.041281762695311,1.4915876342773438,0,0,0,0
1.167193071989459,0.06464344482421874,-10.43153663330078,1.2473790649414063,0,0,0,0
1.1683867429965176,-0.3687070556640625,-9.734823950195311,1.43652099609375,0,0,0,0
1.1695533219899517,0.22026655273437498,-9.739612353515625,1.5083470458984374,0,0,0,0
1.170779029998812,-0.13168109130859373,-9.667786303710937,1.4891934326171874,0,0,0,0
1.1720317379949847,0.19871873779296872,-9.981426721191406,1.0821791503906248,0,0,0,0
1.1731591319985455,0.44053310546874996,-9.765948571777344,0.9840168823242187,0,0,0,0
1.1742409709986532,0.40462008056640625,-9.64623848876953,0.8188169677734375,0,0,0,0
1.1753218099911464,0.10773907470703124,-9.794678991699218,0.718260498046875,0,0,0,0
1.1766396469902247,-0.4429273071289062,-10.352527978515624,0.7015010864257812,0,0,0,0
1.177860354000586,-0.8738836059570312,-10.0748005859375,0.7781155395507812,0,0,0,0
1.1789899339928525,-0.5267243652343749,-10.070012182617187,0.6919242797851562,0,0,0,0
1.1800794769951608,0.5099649536132812,-9.603142858886718,1.180341418457031,0,0,0,0
1.1811642969987588,0.8882488159179687,-9.564835632324218,1.3000515014648437,0,0,0,0
1.1822524140006863,0.43574470214843747,-9.720458740234374,1.3024457031249999,0,0,0,0
1.1834266599908005,0.258573779296875,-10.046070166015625,1.0726023437499999,0,0,0,0
1.184593515994493,0.33758243408203126,-9.854534033203125,1.2617442749023438,0,0,0,0
1.1857894099957775,0.0383072265625,-9.746794958496093,1.3431471313476562,0,0,0,0
1.1869931549881585,-0.5267243652343749,-9.866505041503906,0.97683427734375,0,0,0,0
1.1883984899905045,0.055066638183593745,-9.76116016845703,1.0965443603515623,0,0,0,0
1.1897714559891028,0.6009446166992187,-9.490615380859374,1.2234370483398436,0,0,0,0
1.1911155139969196,0.4572925170898437,-9.361328491210937,1.197100830078125,0,0,0,0
1.1923049629986053,0.11731588134765625,-10.01733974609375,1.1109095703125,0,0,0,0
1.1935303559876047,-0.28730419921875,-10.007762939453125,1.2306196533203124,0,0,0,0
1.1947654159885133,-0.36391865234375,-10.175357055664062,1.0726023437499999,0,0,0,0
1.1960299939964898,0.6296750366210937,-10.01015714111328,1.1037269653320312,0,0,0,0
1.197234238992678,0.8164227661132812,-9.935936889648437,1.1468225952148436,0,0,0,0
1.1984952239872655,0.38786066894531246,-9.878476049804688,1.0223241088867188,0,0,0,0
1.199814207997406,-0.23702596435546874,-9.94072529296875,0.7876923461914062,0,0,0,0
1.2011526739952387,0.38786066894531246,-9.93354268798828,0.8714894042968749,0,0,0,0
1.2024578629934695,-0.031124621582031248,-9.938331091308592,0.5722141967773438,0,0,0,0
1.2037236629985273,-0.430956298828125,-10.333374365234375,0.34237083740234375,0,0,0,0
1.2049369449960068,-0.2346317626953125,-9.955090502929687,0.7110778930664062,0,0,0,0
1.2062510589894373,0.12449848632812499,-9.521740002441407,1.0941501586914062,0,0,0,0
1.2075316369882785,0.34237083740234375,-9.65342109375,1.2114660400390624,0,0,0,0
1.2087301040010061,-0.18435352783203124,-9.964667309570311,1.2976572998046874,0,0,0,0
1.2098153319966514,-0.47165772705078124,-9.682151513671874,1.5107412475585937,0,0,0,0
1.2110544839961221,-0.016759411621093748,-9.885658654785155,1.5466542724609373,0,0,0,0
1.2121661189885344,1.3479355346679687,-9.955090502929687,1.8004396484374998,0,0,0,0
1.2132936799898744,1.3144167114257812,-10.081983190917969,1.5969325073242187,0,0,0,0
1.2144602779881097,0.5099649536132812,-10.036493359375,1.2473790649414063,0,0,0,0
1.215577745999326,-0.239420166015625,-10.077194787597655,0.9121908325195311,0,0,0,0
1.2167927129921736,0.031124621582031248,-9.70369932861328,1.005564697265625,0,0,0,0
1.217979587992886,-0.3447650390625,-9.588777648925781,0.8379705810546875,0,0,0,0
1.2192896289925557,-0.6703764648437499,-9.789890588378906,0.4644751220703125,0,0,0,0
1.2205690209957538,-0.028730419921875,-9.674968908691406,0.5339069702148437,0,0,0,0
1.2217552849906497,0.1197100830078125,-9.354145886230468,0.6081272216796875,0,0,0,0
1.2229648999928031,0.33039982910156246,-9.17458076171875,0.6967126831054687,0,0,0,0
1.2241429790010443,-0.15083470458984374,-9.631873278808593,0.8930372192382812,0,0,0,0
1.2252702439873246,-0.39743747558593745,-10.230423693847655,1.1827356201171875,0,0,0,0
1.2265077659976669,-0.8044517578125,-10.110713610839843,1.3215993164062498,0,0,0,0
1.2276424570009112,0.8212111694335937,-9.832986218261718,1.6831237670898436,0,0,0,0
1.228920700988965,0.9217676391601562,-9.888052856445311,1.8243816650390623,0,0,0,0
1.2301054279960226,0.6655880615234374,-9.957484704589843,1.8435352783203125,0,0,0,0
1.2313413019874133,0.5674257934570313,-9.9215716796875,1.5466542724609373,0,0,0,0
1.2325511579983868,0.40462008056640625,-9.586383447265625,1.5346832641601562,0,0,0,0
1.2336399599880679,0.2561795776367187,-9.734823950195311,1.2497732666015624,0,0,0,0
1.2348411689890781,-0.24181436767578124,-9.880870251464843,1.2114660400390624,0,0,0,0
1.2361833009927068,-0.16998831787109375,-10.551246716308594,0.46208092041015625,0,0,0,0
1.2375239339889959,-0.258573779296875,-9.68454571533203,0.38307226562499996,0,0,0,0
1.2387362709996523,-0.38307226562499996,-9.447519750976562,0.4333505004882812,0,0,0,0
1.2399433499958832,-0.46208092041015625,-9.658209497070311,0.3399766357421875,0,0,0,0
1.2411246879928512,-0.3327940307617187,-9.957484704589843,0.5626373901367188,0,0,0,0
1.2423973949917126,-0.8547299926757812,-10.04846436767578,1.0199299072265624,0,0,0,0
1.2436070659896359,1.024718310546875,-9.696516723632811,1.4724340209960938,0,0,0,0
1.2449540319939842,0.9792284790039062,-9.85692823486328,1.4939818359375,0,0,0,0
1.2462283319910057,0.584185205078125,-10.228029492187499,1.2306196533203124,0,0,0,0
1.24732905899873,0.1149216796875,-10.383652600097655,1.3168109130859373,0,0,0,0
1.2486085629934678,0.3854664672851562,-9.753977563476562,1.467645617675781,0,0,0,0
1.2497338459943421,0.3232172241210937,-9.495403784179686,1.62805712890625,0,0,0,0
1.2509760719985934,-0.15562310791015624,-9.478644372558593,1.4796166259765624,0,0,0,0
1.2522028539970051,0.02633621826171875,-9.95987890625,1.0223241088867188,0,0,0,0
1.2533084889873862,0.02154781494140625,-9.502586389160156,0.97683427734375,0,0,0,0
1.2545917339884909,0.17477672119140625,-9.375693701171874,0.9265560424804687,0,0,0,0
1.2558618849870982,-0.08379705810546874,-9.849745629882811,0.8092401611328125,0,0,0,0
1.2571627589932177,-0.36631285400390623,-10.213664282226562,0.833182177734375,0,0,0,0
1.2582544689939823,-0.9026140258789062,-10.120290417480469,0.9816226806640624,0,0,0,0
1.259501268999884,-0.19153613281249998,-9.821015209960937,1.2665326782226562,0,0,0,0
1.2608995299960952,0.8906430175781249,-9.76116016845703,1.369483349609375,0,0,0,0
1.2622491999936756,0.4213794921875,-9.897629663085937,1.1061211669921875,0,0,0,0
1.2633853709994582,0.076614453125,-10.089165795898436,1.01514150390625,0,0,0,0
1.2644756919908104,-0.1484405029296875,-9.809044201660155,1.1156979736328125,0,0,0,0
1.2655624939943664,0.2561795776367187,-9.624690673828125,1.1061211669921875,0,0,0,0
1.267214289997355,-0.5410895751953124,-9.916783276367187,0.7278373046875,0,0,0,0
1.2685236079996685,-0.32082302246093747,-9.70369932861328,0.7757213378906249,0,0,0,0
1.2697844629874453,0.5315127685546874,-9.514557397460937,1.0390835205078124,0,0,0,0
1.2710344299994176,0.5602431884765625,-9.296685046386719,1.3215993164062498,0,0,0,0
1.2721963980002329,0.32082302246093747,-9.682151513671874,1.1923124267578125,0,0,0,0
1.2733581059874268,-0.15083470458984374,-9.9215716796875,1.2904746948242187,0,0,0,0
1.2748170889972243,-0.16519991455078123,-10.216058483886718,1.1516109985351561,0,0,0,0
1.276533402997302,0.8451531860351562,-9.734823950195311,1.5442600708007812,0,0,0,0
1.277909386990359,0.3280056274414062,-9.947907897949218,1.3048399047851562,0,0,0,0
1.2794394239899702,0.05746083984375,-9.89523546142578,1.0965443603515623,0,0,0,0
1.2807370759983314,0.2537853759765625,-9.670180505371093,1.2330138549804688,0,0,0,0
1.2820316719880793,-0.2442085693359375,-9.6917283203125,0.928950244140625,0,0,0,0
1.2833855259959819,-0.5243301635742187,-10.096348400878906,0.6177040283203125,0,0,0,0
1.2846786589943804,0.08858546142578125,-9.892841259765625,0.699106884765625,0,0,0,0
1.2860004949907307,0.33758243408203126,-9.682151513671874,0.6248866333007812,0,0,0,0
1.2872824249934638,-0.00239420166015625,-9.425971936035156,0.6584054565429687,0,0,0,0
1.2887996289937291,-0.699106884765625,-10.204087475585936,0.8906430175781249,0,0,0,0
1.2900706520013046,-1.0558429321289062,-9.83777462158203,1.3718775512695311,0,0,0,0
1.2912580639967928,-0.12689268798828124,-9.904812268066406,1.7621324218749999,0,0,0,0
1.2925210669927765,1.180341418457031,-9.612719665527344,1.8722656982421875,0,0,0,0
1.2938125889922958,1.005564697265625,-9.8449572265625,1.8746598999023436,0,0,0,0
1.2952332759887213,0.6272808349609375,-10.005368737792969,1.5083470458984374,0,0,0,0
1.2965187980007613,0.2753331909179687,-9.861716638183593,1.3287819213867187,0,0,0,0
1.2978307089942973,-0.16759411621093748,-9.797073193359374,1.0223241088867188,0,0,0,0
1.2990921569871716,-0.39743747558593745,-9.897629663085937,0.9935936889648437,0,0,0,0
1.3002683649974642,-0.4165910888671875,-10.204087475585936,0.5195417602539062,0,0,0,0
1.3014446659944952,-0.3854664672851562,-9.349357482910156,0.39983167724609375,0,0,0,0
1.3026229669922031,-0.2825157958984375,-9.291896643066405,0.6775590698242188,0,0,0,0
1.3038766749959905,-0.0047884033203125,-9.524134204101562,0.6943184814453125,0,0,0,0
1.3051448819896905,-0.0383072265625,-9.911994873046874,0.9217676391601562,0,0,0,0
1.306307349994313,-0.622492431640625,-10.002974536132811,1.0127473022460938,0,0,0,0
1.3076684269908583,0.7038952880859375,-9.8449572265625,1.5131354492187499,0,0,0,0
1.3090540589910233,0.5267243652343749,-9.76116016845703,1.4053963745117186,0,0,0,0
1.3103707289992599,0.40940848388671874,-10.019733947753906,1.6232687255859375,0,0,0,0
1.3115690849954262,0.24899697265624998,-10.194510668945313,1.5346832641601562,0,0,0,0
1.3127577189879958,0.699106884765625,-9.749189160156249,1.4532804077148436,0,0,0,0
1.314018833989394,0.42377369384765623,-9.536105212402344,1.3263877197265623,0,0,0,0
1.3152890779892914,0.05027823486328125,-9.725247143554688,0.4261678955078125,0,0,0,0
1.3164622869953746,-0.00718260498046875,-9.9215716796875,0.3016694091796875,0,0,0,0
1.3176299209881108,-0.5051765502929687,-9.732429748535155,0.11731588134765625,0,0,0,0
1.3191984219884034,-0.5985504150390625,-9.509768994140625,0.3758896606445312,0,0,0,0
1.3205642019893276,-0.5865794067382812,-9.995791931152343,0.6631938598632812,0,0,0,0
1.321852315988508,-0.7206546997070312,-9.801861596679688,0.9552864624023437,0,0,0,0
1.3233379839948611,0.411802685546875,-9.842563024902343,1.7405846069335937,0,0,0,0
1.324862873996608,1.2880804931640624,-9.631873278808593,1.7908628417968748,0,0,0,0
1.326243560994044,0.689530078125,-9.94072529296875,1.484405029296875,0,0,0,0
1.3275024169997778,0.13168109130859373,-10.398017810058594,1.3287819213867187,0,0,0,0
1.3287854939990211,0.1580173095703125,-9.816226806640625,1.3263877197265623,0,0,0,0
1.3302486439934,-0.00718260498046875,-9.514557397460937,1.0319009155273438,0,0,0,0
1.3315684249973856,-0.29927520751953124,-10.034099157714843,0.8786720092773437,0,0,0,0
1.3328114469913999,-0.05985504150390625,-9.481038574218749,0.70868369140625,0,0,0,0
1.3339947299973574,0.1388636962890625,-9.440337145996093,0.6775590698242188,0,0,0,0
1.3352447709912667,-0.062249243164062495,-9.306261853027344,0.6464344482421874,0,0,0,0
1.336720326988143,-0.6584054565429687,-10.292672937011718,0.63206923828125,0,0,0,0
1.3384348999970825,-0.8547299926757812,-10.079588989257813,1.1516109985351561,0,0,0,0
1.3397292549925623,1.2928688964843749,-9.545682019042967,1.6112977172851561,0,0,0,0
1.3409938699915074,1.0582371337890624,-9.560047229003906,1.6639701538085936,0,0,0,0
1.3422687619895441,0.45489831542968745,-9.830592016601562,1.3215993164062498,0,0,0,0
1.3436587089963723,0.05985504150390625,-10.244788903808594,1.3024457031249999,0,0,0,0
1.3449260459892685,0.28730419921875,-9.866505041503906,1.4053963745117186,0,0,0,0
1.3462892149982508,-0.1484405029296875,-9.80665,0.9097966308593749,0,0,0,0
1.347558219000348,-0.3902548706054687,-10.36210478515625,0.7565677246093749,0,0,0,0
1.3487423349870369,0.0526724365234375,-9.715670336914062,0.7302315063476562,0,0,0,0
1.3501805589912692,0.3591302490234375,-9.452308154296874,0.9050082275390624,0,0,0,0
1.3515304499887861,0.13407529296874998,-9.648632690429688,0.6344634399414062,0,0,0,0
1.3528362679935526,-0.5195417602539062,-10.254365710449218,0.6703764648437499,0,0,0,0
1.3540159769909224,-0.9409212524414062,-10.084377392578125,0.8212111694335937,0,0,0,0
1.3551912589900894,-0.0383072265625,-10.09395419921875,1.0654197387695312,0,0,0,0
1.3564391889958642,1.0582371337890624,-9.739612353515625,1.4796166259765624,0,0,0,0
1.3577146929892479,0.7445967163085937,-9.94072529296875,1.6041151123046875,0,0,0,0
1.3588954379956704,0.22266075439453123,-10.192116467285155,1.3718775512695311,0,0,0,0
1.3600798319966998,0.11252747802734374,-9.919177478027343,1.3646949462890625,0,0,0,0
1.3613968349964125,0.4955997436523437,-9.595960253906249,1.3718775512695311,0,0,0,0
1.362631412994233,0.29927520751953124,-10.026916552734374,0.9409212524414062,0,0,0,0
1.363725251998403,-0.28969840087890625,-10.390835205078124,0.6488286499023437,0,0,0,0
1.3648156649869634,-0.3758896606445312,-9.885658654785155,0.584185205078125,0,0,0,0
1.3660094660008326,-0.16041151123046873,-9.425971936035156,0.6368576416015624,0,0,0,0
1.3672283589985454,-0.15083470458984374,-9.227253198242186,0.6607996582031249,0,0,0,0
1.3683327170001576,-0.5410895751953124,-9.809044201660155,0.833182177734375,0,0,0,0
1.3694191479880828,-0.6416460449218749,-10.249577307128906,1.0941501586914062,0,0,0,0
1.3705000799964182,-0.6967126831054687,-10.043675964355469,1.2976572998046874,0,0,0,0
1.3719845629966585,1.22583125,-9.64623848876953,1.695094775390625,0,0,0,0
1.3731975669943495,1.120486376953125,-9.694122521972655,1.6160861206054686,0,0,0,0
1.3742969059967436,0.5195417602539062,-10.014945544433592,1.2880804931640624,0,0,0,0
1.3753907819918822,0.0143652099609375,-10.333374365234375,1.3168109130859373,0,0,0,0
1.3764689919917146,-0.09337386474609374,-10.036493359375,1.5131354492187499,0,0,0,0
1.378010214000824,-0.0718260498046875,-9.710881933593749,1.3239935180664062,0,0,0,0
1.379318068997236,-0.3136404174804687,-10.115502014160155,0.6871358764648438,0,0,0,0
1.3805040000006557,0.19153613281249998,-9.600748657226562,0.833182177734375,0,0,0,0
1.3816597089899005,0.22744915771484372,-9.473855969238281,0.7493851196289062,0,0,0,0
1.3827456399885705,0.34237083740234375,-9.311050256347656,0.6823474731445313,0,0,0,0
1.3844014359929133,-0.8020575561523438,-9.878476049804688,0.47165772705078124,0,0,0,0
1.3856667729996843,-1.0726023437499999,-9.928754284667969,0.9050082275390624,0,0,0,0
1.3868824249948375,-0.22266075439453123,-9.866505041503906,1.1635820068359375,0,0,0,0
1.3879917269950965,1.1420341918945311,-9.65342109375,1.649604943847656,0,0,0,0
1.389405154986889,1.2138602416992186,-9.79946739501953,1.8842367065429686,0,0,0,0
1.3906579920003423,1.005564697265625,-10.196904870605469,1.6424223388671875,0,0,0,0
1.3919069219991798,0.2537853759765625,-9.983820922851562,1.5729904907226562,0,0,0,0
1.3931862030003686,0.2657563842773437,-9.770736975097655,1.5275006591796874,0,0,0,0
1.3942829869920388,0.0143652099609375,-10.065223779296874,0.9840168823242187,0,0,0,0
1.396057039994048,-0.30885201416015623,-10.12507882080078,0.5051765502929687,0,0,0,0
1.3975784299982479,-0.3280056274414062,-9.18655177001953,0.2561795776367187,0,0,0,0
1.3988646919897292,-0.023942016601562498,-8.959102612304687,0.5339069702148437,0,0,0,0
1.4000118830008432,-0.2825157958984375,-9.593566052246093,0.36152445068359373,0,0,0,0
1.4011106659891084,-0.32082302246093747,-10.089165795898436,0.7326257080078125,0,0,0,0
1.4027480359945912,-0.6919242797851562,-10.307038146972655,1.0606313354492187,0,0,0,0
1.4040008539886912,0.7996633544921875,-9.787496386718749,1.5131354492187499,0,0,0,0
1.4054670039913617,0.7206546997070312,-9.751583361816406,1.8171990600585937,0,0,0,0
1.4065647319948766,0.33039982910156246,-10.244788903808594,1.5921441040039062,0,0,0,0
1.4082405829976778,0.18914193115234373,-9.849745629882811,1.6256629272460936,0,0,0,0
1.4094317909912206,0.5889736083984375,-9.794678991699218,1.5035586425781249,0,0,0,0
1.410745256987866,0.316034619140625,-9.792284790039062,1.2785036865234374,0,0,0,0
1.4121407039929181,0.18435352783203124,-10.273519323730468,0.7709329345703124,0,0,0,0
1.4138293319992954,-0.19632453613281248,-9.64623848876953,0.49799394531249996,0,0,0,0
1.4152979069913272,-0.4165910888671875,-9.351751684570312,0.3711012573242187,0,0,0,0
1.4166782059910474,-0.5410895751953124,-10.081983190917969,0.5482721801757812,0,0,0,0
1.4178477109962841,-1.1061211669921875,-10.1131078125,0.6631938598632812,0,0,0,0
1.419999444988207,0.97683427734375,-9.34696328125,1.5035586425781249,0,0,0,0
1.4213490589900175,1.199495031738281,-9.516951599121093,1.6639701538085936,0,0,0,0
1.4224413609917974,0.8643067993164062,-9.983820922851562,1.3862427612304686,0,0,0,0
1.4235227369936183,0.19871873779296872,-10.256759912109374,1.419761584472656,0,0,0,0
1.4249577759910608,0.296881005859375,-9.945513696289062,1.4437036010742186,0,0,0,0
1.4262448529916583,-0.1580173095703125,-9.758765966796874,1.4724340209960938,0,0,0,0
1.4274883199977921,-0.33758243408203126,-9.89523546142578,1.0175357055664063,0,0,0,0
1.428886303998297,0.17477672119140625,-9.612719665527344,1.0007762939453124,0,0,0,0
1.4300454749900382,0.35673604736328124,-9.320627062988281,0.8882488159179687,0,0,0,0
1.4312147390010068,0.086191259765625,-9.009380847167968,0.8547299926757812,0,0,0,0
1.4323759479884757,-0.2154781494140625,-9.437942944335937,0.6392518432617187,0,0,0,0
1.4334625279880129,-0.373495458984375,-9.935936889648437,0.6488286499023437,0,0,0,0
1.434536977991229,-0.967257470703125,-10.072406384277343,0.86191259765625,0,0,0,0
1.4357368899945868,-0.3232172241210937,-9.672574707031249,1.24498486328125,0,0,0,0
1.4372724089917028,0.833182177734375,-9.835380419921874,1.2904746948242187,0,0,0,0
1.4385106729896506,0.6440402465820312,-10.01733974609375,1.2761094848632812,0,0,0,0
1.439698677000706,0.16759411621093748,-10.13226142578125,1.2617442749023438,0,0,0,0
1.4412430849915836,0.24660277099609373,-9.79946739501953,1.3096283081054687,0,0,0,0
1.4427177529869368,0.033518823242187495,-9.823409411621093,1.1156979736328125,0,0,0,0
1.4438269620004576,0.09337386474609374,-10.134655627441406,0.7661445312499999,0,0,0,0
1.444917467990308,-0.1771709228515625,-9.749189160156249,0.6081272216796875,0,0,0,0
1.4466824659903068,0.06943184814453125,-9.624690673828125,0.6871358764648438,0,0,0,0
1.4478456929937238,-0.17956512451171874,-9.928754284667969,0.7781155395507812,0,0,0,0
1.4491381409898167,-0.46686932373046874,-10.213664282226562,0.9457096557617187,0,0,0,0
1.4503190709947376,-0.9193734375,-10.177751257324218,1.0678139404296874,0,0,0,0
1.4515743709926028,-0.29927520751953124,-10.024522351074218,1.5538368774414062,0,0,0,0
1.4528720599919325,1.0127473022460938,-9.782707983398437,1.7166425903320313,0,0,0,0
1.454047619990888,0.70868369140625,-10.012551342773437,1.7094599853515624,0,0,0,0
1.455273772997316,0.46208092041015625,-10.225635290527343,1.5035586425781249,0,0,0,0
1.45637311199971,0.1771709228515625,-10.199299072265624,1.3910311645507811,0,0,0,0
1.4574558029999025,0.13407529296874998,-9.983820922851562,1.3000515014648437,0,0,0,0
1.4586012340005254,-0.05985504150390625,-9.93354268798828,1.1013327636718748,0,0,0,0
1.4598567739885766,0.009576806640625,-10.079588989257813,0.7637503295898437,0,0,0,0
1.4609599099931074,-0.19632453613281248,-9.739612353515625,0.4860229370117187,0,0,0,0
1.462286005000351,-0.21068974609375,-9.382876306152344,0.5434837768554687,0,0,0,0
1.4635077129933052,-0.32561142578124996,-9.133879333496093,0.59376201171875,0,0,0,0
1.4646873289893847,-0.13168109130859373,-10.005368737792969,0.8283937744140625,0,0,0,0
1.4658839629992144,-0.928950244140625,-9.947907897949218,0.8882488159179687,0,0,0,0
1.4672727059951285,-0.1771709228515625,-9.967061511230469,1.1180921752929687,0,0,0,0
1.4683915999921737,0.9097966308593749,-9.390058911132812,1.6927005737304686,0,0,0,0
1.4696389929886209,1.1156979736328125,-9.821015209960937,1.8459294799804686,0,0,0,0
1.4709131259878632,0.4836287353515625,-10.129867224121092,1.5107412475585937,0,0,0,0
1.472098908998305,0.2705447875976562,-10.1131078125,1.388636962890625,0,0,0,0
1.4734674299979815,0.3064578125,-9.859322436523437,1.2114660400390624,0,0,0,0
1.4745773429895053,0.04548983154296875,-9.694122521972655,1.0678139404296874,0,0,0,0
1.4756686259934213,-0.09337386474609374,-10.172962854003906,0.5889736083984375,0,0,0,0
1.47677031699277,-0.05746083984375,-9.756371765136718,0.46208092041015625,0,0,0,0
1.4779400999977952,-0.18435352783203124,-9.397241516113281,0.45010991210937495,0,0,0,0
1.4792012329999125,-0.20350714111328125,-9.184157568359375,0.51714755859375,0,0,0,0
1.4803044049913296,-0.3184288208007812,-9.679757312011718,0.5051765502929687,0,0,0,0
1.4813963929918827,-0.44532150878906246,-9.91438907470703,0.7254431030273437,0,0,0,0
1.4825857489922782,-0.8259995727539062,-9.986215124511718,1.0438719238281249,0,0,0,0
1.4837581979954848,0.12449848632812499,-9.849745629882811,1.5083470458984374,0,0,0,0
1.4850823859887896,0.9457096557617187,-9.976638317871092,1.4867992309570313,0,0,0,0
1.486187891990994,0.55545478515625,-10.139444030761718,1.5753846923828123,0,0,0,0
1.4873722479969729,-0.16280571289062498,-10.271125122070313,1.35990654296875,0,0,0,0
1.4885734009876614,-0.2154781494140625,-10.105925207519531,1.5251064575195312,0,0,0,0
1.4898259609908564,0.13168109130859373,-9.5384994140625,1.687912170410156,0,0,0,0
1.4912306109908968,0.0718260498046875,-9.9215716796875,1.4173673828125,0,0,0,0
1.4924184669944225,0.6416460449218749,-10.139444030761718,1.120486376953125,0,0,0,0
1.4935974159889156,0.4381389038085937,-9.74200655517578,0.9959878906249999,0,0,0,0
1.4947730689891614,0.51714755859375,-9.586383447265625,0.689530078125,0,0,0,0
1.4960579429898644,-0.40940848388671874,-9.909600671386718,0.5770026000976562,0,0,0,0
1.4973365019977791,-0.6057330200195312,-10.283096130371094,0.6368576416015624,0,0,0,0
1.49853441400046,-1.0965443603515623,-10.041281762695311,0.7517793212890624,0,0,0,0
1.4997262889955891,-0.6248866333007812,-9.706093530273437,1.0103531005859374,0,0,0,0
1.501043143987772,0.6823474731445313,-9.548076220703125,1.1468225952148436,0,0,0,0
1.5023154439986683,0.7230489013671875,-9.533711010742186,1.2856862915039062,0,0,0,0
1.5034874489938375,0.5147533569335937,-9.890447058105469,1.2904746948242187,0,0,0,0
1.5046016019914532,0.2346317626953125,-9.897629663085937,1.39821376953125,0,0,0,0
1.5059626969887177,0.04548983154296875,-9.70369932861328,1.4413093994140624,0,0,0,0
1.5076903989975108,-0.07900865478515624,-10.022128149414062,1.0893617553710937,0,0,0,0
1.5089852919918485,-0.277727392578125,-9.82580361328125,0.9504980590820312,0,0,0,0
1.5102498689957429,-0.01915361328125,-9.658209497070311,0.9624690673828125,0,0,0,0
1.5115821129875258,0.047884033203124995,-9.679757312011718,1.209071838378906,0,0,0,0
1.5130929839942837,0.3687070556640625,-9.883264453125,1.3575123413085937,0,0,0,0
1.5142077859927667,-0.373495458984375,-9.967061511230469,1.1348515869140625,0,0,0,0
1.5152902729896596,0.143652099609375,-10.292672937011718,1.0893617553710937,0,0,0,0
1.5163740199932363,0.6871358764648438,-9.686939916992188,1.1635820068359375,0,0,0,0
1.5175910429970827,0.4333505004882812,-9.76116016845703,0.9888052856445312,0,0,0,0
1.518755491997581,-0.09816226806640624,-10.386046801757812,0.8259995727539062,0,0,0,0
1.5199534779967507,-0.14604630126953125,-10.127473022460936,1.0319009155273438,0,0,0,0
1.5212018889869796,-0.05985504150390625,-9.976638317871092,1.0390835205078124,0,0,0,0
1.522761444997741,-0.2825157958984375,-9.753977563476562,0.8188169677734375,0,0,0,0
1.524064115001238,0.4908113403320312,-9.995791931152343,0.8259995727539062,0,0,0,0
1.525310062992503,0.11731588134765625,-9.751583361816406,0.8283937744140625,0,0,0,0
1.526626695995219,-0.040701428222656245,-9.509768994140625,0.82360537109375,0,0,0,0
1.528294231990003,-0.4165910888671875,-10.062829577636718,0.842758984375,0,0,0,0
1.5304922069917666,-0.8307879760742187,-9.892841259765625,1.1516109985351561,0,0,0,0
1.531790690991329,0.258573779296875,-9.524134204101562,1.659181750488281,0,0,0,0
1.5330426029977389,0.8858546142578124,-9.528922607421874,1.714248388671875,0,0,0,0
1.534373197995592,0.6177040283203125,-9.797073193359374,1.7334020019531249,0,0,0,0
1.5355741469975328,0.21787235107421873,-9.945513696289062,1.3862427612304686,0,0,0,0
1.5367495589889586,0.028730419921875,-9.79946739501953,1.3263877197265623,0,0,0,0
1.5379353229945991,-0.488417138671875,-9.871293444824218,1.1013327636718748,0,0,0,0
1.5392183079966344,-0.21068974609375,-10.165780249023436,0.9145850341796874,0,0,0,0
1.5405075890012085,0.5099649536132812,-10.062829577636718,0.9361328491210937,0,0,0,0
1.5418001479993109,0.30885201416015623,-9.296685046386719,0.7781155395507812,0,0,0,0
1.5433277229894884,0.28969840087890625,-9.60793126220703,0.7565677246093749,0,0,0,0
1.5446561889984878,-0.49320554199218747,-10.036493359375,0.5051765502929687,0,0,0,0
1.5458952479966683,-0.9552864624023437,-9.991003527832031,0.7158662963867187,0,0,0,0
1.5470718829892576,-0.18435352783203124,-10.141838232421874,0.9050082275390624,0,0,0,0
1.5483291639975505,0.5985504150390625,-9.811438403320311,1.5298948608398437,0,0,0,0
1.5498912389884936,0.6703764648437499,-9.651026892089844,1.8291700683593748,0,0,0,0
1.551148482991266,0.7876923461914062,-9.923965881347655,1.6328455322265625,0,0,0,0
1.5523273029975826,0.5363011718749999,-10.01015714111328,1.4317325927734375,0,0,0,0
1.5535085849987809,0.4070142822265625,-9.964667309570311,1.2641384765625,0,0,0,0
1.5548253469896736,-0.0718260498046875,-10.43153663330078,0.9744400756835937,0,0,0,0
1.5561022399924695,-0.2561795776367187,-10.43153663330078,0.6296750366210937,0,0,0,0
1.5573195959877921,-0.5339069702148437,-9.775525378417969,0.5817910034179687,0,0,0,0
1.558544877989334,-0.17477672119140625,-9.552864624023437,0.7781155395507812,0,0,0,0
1.5598053629946662,-0.07900865478515624,-9.634267480468749,0.6560112548828124,0,0,0,0
1.5614789729879703,-0.0047884033203125,-9.749189160156249,0.8762778076171874,0,0,0,0
1.5628517159930198,-0.5889736083984375,-10.120290417480469,0.9720458740234375,0,0,0,0
1.5640362029953394,0.7445967163085937,-10.01733974609375,1.2665326782226562,0,0,0,0
1.5652949099894613,0.44532150878906246,-10.031704956054687,1.3455413330078123,0,0,0,0
1.5670230190007715,0.143652099609375,-10.122684619140625,1.4101847778320311,0,0,0,0
1.568404762991122,0.0909796630859375,-9.794678991699218,1.637633935546875,0,0,0,0
1.569597599998815,0.32082302246093747,-9.928754284667969,1.2928688964843749,0,0,0,0
1.570848566989298,0.1149216796875,-9.835380419921874,1.16837041015625,0,0,0,0
1.5721328299987363,0.469263525390625,-9.873687646484374,1.0917559570312498,0,0,0,0
1.573481258994434,0.26336218261718747,-9.5001921875,0.9983820922851562,0,0,0,0
1.5747163549967809,0.1005564697265625,-9.694122521972655,0.8499415893554687,0,0,0,0
1.5759870999900158,-0.5027823486328125,-10.065223779296874,0.6296750366210937,0,0,0,0
1.5772761769912904,-0.7996633544921875,-9.935936889648437,0.7254431030273437,0,0,0,0
1.5784542369947303,-0.8020575561523438,-9.852139831542969,0.8307879760742187,0,0,0,0
1.5796295199979795,0.2657563842773437,-10.237606298828124,1.2785036865234374,0,0,0,0
1.580877504995442,1.0941501586914062,-9.804255798339844,1.1061211669921875,0,0,0,0
1.5830142399936449,-0.028730419921875,-9.83777462158203,1.0007762939453124,0,0,0,0
1.584312131992192,-0.09337386474609374,-9.832986218261718,1.0797849487304687,0,0,0,0
1.5858200769871473,-0.25139117431640623,-9.835380419921874,0.8786720092773437,0,0,0,0
1.587431520994869,-0.45489831542968745,-10.127473022460936,0.6703764648437499,0,0,0,0
1.5887451539892936,0.3711012573242187,-9.34696328125,1.254561669921875,0,0,0,0
1.589924602987594,0.603338818359375,-9.466673364257812,1.3072341064453123,0,0,0,0
1.59164582399535,0.39743747558593745,-9.404424121093749,1.0127473022460938,0,0,0,0
1.593156935996376,-0.39983167724609375,-9.957484704589843,1.2832920898437499,0,0,0,0
1.5944023469928652,-0.7924807495117187,-9.986215124511718,1.3383587280273437,0,0,0,0
1.5955843519914197,-0.18914193115234373,-10.165780249023436,1.37906015625,0,0,0,0
1.5968477629940026,0.5506663818359374,-9.83777462158203,1.2785036865234374,0,0,0,0
1.5988427759875776,0.6344634399414062,-9.828197814941406,1.3455413330078123,0,0,0,0
1.6000541879911907,0.24899697265624998,-9.947907897949218,1.1156979736328125,0,0,0,0
1.6012388409872074,0.201112939453125,-10.01015714111328,1.0223241088867188,0,0,0,0
1.6024942149961134,-0.411802685546875,-9.957484704589843,0.7709329345703124,0,0,0,0
1.603735255994252,-0.5386953735351562,-10.160991845703125,0.5123591552734374,0,0,0,0
1.6049143349955557,-0.2609679809570312,-9.777919580078125,0.4644751220703125,0,0,0,0
1.6060865809995448,-0.258573779296875,-9.677363110351562,0.8379705810546875,0,0,0,0
1.6078210419946117,-0.0143652099609375,-9.765948571777344,0.9504980590820312,0,0,0,0
1.6092176919919439,-0.009576806640625,-9.789890588378906,1.3838485595703125,0,0,0,0
1.6104015119926771,-0.30406361083984373,-9.852139831542969,1.3623007446289062,0,0,0,0
1.6115776090009604,0.35673604736328124,-9.94072529296875,1.6472107421875,0,0,0,0
1.6128409829980228,1.1563994018554686,-10.134655627441406,1.6232687255859375,0,0,0,0
1.614070431998698,0.3327940307617187,-10.000580334472655,1.5442600708007812,0,0,0,0
1.6152434359973995,0.0,-10.228029492187499,1.189918225097656,0,0,0,0
1.61641212599352,0.040701428222656245,-9.95987890625,1.2904746948242187,0,0,0,0
1.6181770319963107,-0.32561142578124996,-9.579200842285156,1.1133037719726562,0,0,0,0
1.6196424769877922,-0.22026655273437498,-9.662997900390625,0.6512228515624999,0,0,0,0
1.620876278000651,0.028730419921875,-9.629479077148437,0.5578489868164063,0,0,0,0
1.622047004988417,0.17477672119140625,-9.533711010742186,0.5123591552734374,0,0,0,0
1.6232170469884295,0.02633621826171875,-9.351751684570312,0.7541735229492187,0,0,0,0
1.6244611799920676,-0.00239420166015625,-9.986215124511718,0.8451531860351562,0,0,0,0
1.6257071839936543,-0.5985504150390625,-10.031704956054687,0.9648632690429687,0,0,0,0
1.626882503987872,-1.0127473022460938,-10.108319409179687,1.2138602416992186,0,0,0,0
1.6280563969921786,0.9888052856445312,-9.832986218261718,1.5418658691406248,0,0,0,0
1.6293039570009569,0.74699091796875,-9.821015209960937,1.6543933471679686,0,0,0,0
1.6310235849960009,0.258573779296875,-9.943119494628906,1.5251064575195312,0,0,0,0
1.6324032349948538,0.13407529296874998,-9.64623848876953,1.5945383056640625,0,0,0,0
1.6336511469999095,0.35673604736328124,-9.514557397460937,1.254561669921875,0,0,0,0
1.6349514649919001,0.023942016601562498,-10.089165795898436,0.9145850341796874,0,0,0,0
1.63640537399624,-0.031124621582031248,-10.098742602539062,0.7517793212890624,0,0,0,0
1.6377712649991736,-0.239420166015625,-9.588777648925781,0.6823474731445313,0,0,0,0
1.639000657989527,0.15083470458984374,-9.548076220703125,0.7876923461914062,0,0,0,0
1.6402578659908613,-0.3399766357421875,-9.986215124511718,0.6344634399414062,0,0,0,0
1.6415254429884953,-0.9026140258789062,-9.868899243164062,0.9169792358398436,0,0,0,0
1.6441826529917307,1.0007762939453124,-9.516951599121093,1.5298948608398437,0,0,0,0
1.645420082990313,0.7517793212890624,-9.785102185058593,1.649604943847656,0,0,0,0
1.6466627170011634,0.8810662109374999,-10.273519323730468,1.3551181396484375,0,0,0,0
1.6479163309995783,0.5506663818359374,-10.103531005859374,1.3287819213867187,0,0,0,0
1.6491175209957873,-0.031124621582031248,-9.6151138671875,1.0773907470703123,0,0,0,0
1.6511476640007459,-0.7781155395507812,-9.969455712890625,0.7757213378906249,0,0,0,0
1.6524222049920354,-0.229843359375,-10.32379755859375,0.7445967163085937,0,0,0,0
1.6536178569949698,-0.15322890625,-9.4618849609375,0.852335791015625,0,0,0,0
1.6554292619985063,0.411802685546875,-9.423577734375,0.9888052856445312,0,0,0,0
1.6567692089884076,0.13646949462890623,-10.079588989257813,0.9864110839843749,0,0,0,0
1.657990287989378,-0.4333505004882812,-10.01733974609375,1.0941501586914062,0,0,0,0
1.659165569988545,0.02154781494140625,-10.031704956054687,1.3527239379882812,0,0,0,0
1.6608069579961011,0.5626373901367188,-9.945513696289062,1.3958195678710936,0,0,0,0
1.662399013992399,0.3687070556640625,-9.983820922851562,1.5322890624999999,0,0,0,0
1.6636200179927982,0.24181436767578124,-10.0748005859375,1.4508862060546874,0,0,0,0
1.6647966149903368,0.3758896606445312,-9.706093530273437,1.4221557861328125,0,0,0,0
1.6659691569948336,0.7517793212890624,-9.744400756835937,1.3072341064453123,0,0,0,0
1.667246974990121,-0.19632453613281248,-9.909600671386718,0.9648632690429687,0,0,0,0
1.6685086829966167,-0.3280056274414062,-10.034099157714843,0.7062894897460937,0,0,0,0
1.669691557995975,-0.17477672119140625,-9.813832604980469,0.6464344482421874,0,0,0,0
1.6708679149887757,-0.055066638183593745,-9.509768994140625,0.7493851196289062,0,0,0,0
1.672651152999606,-0.13407529296874998,-10.031704956054687,1.1851298217773436,0,0,0,0
1.6740154519939097,-0.2753331909179687,-9.682151513671874,1.1468225952148436,0,0,0,0
1.6751920859969687,0.5530605834960938,-9.713276135253906,1.3646949462890625,0,0,0,0
1.6763861649960745,1.2282254516601563,-9.593566052246093,1.6136919189453125,0,0,0,0
1.6776406499993755,0.9792284790039062,-10.01733974609375,1.4173673828125,0,0,0,0
1.678852505996474,0.5889736083984375,-10.175357055664062,0.8906430175781249,0,0,0,0
1.6800141779967817,-0.055066638183593745,-9.8449572265625,0.9648632690429687,0,0,0,0
1.6812050159933278,0.1005564697265625,-9.916783276367187,1.0486603271484374,0,0,0,0
1.6823663719987962,-0.3758896606445312,-9.701305126953125,0.9959878906249999,0,0,0,0
1.683638857997721,-0.35194764404296874,-9.74200655517578,0.7015010864257812,0,0,0,0
1.685103617986897,0.1149216796875,-9.497797985839844,0.7158662963867187,0,0,0,0
1.686342140994384,0.39264907226562495,-9.442731347656249,0.9121908325195311,0,0,0,0
1.688034027989488,-0.143652099609375,-10.328585961914062,0.6871358764648438,0,0,0,0
1.6895008629944641,-1.1085153686523437,-10.117896215820313,1.0510545288085937,0,0,0,0
1.6914728209958412,0.35194764404296874,-10.211270080566406,1.4796166259765624,0,0,0,0
1.6929550079948967,1.35990654296875,-9.452308154296874,1.9393033447265624,0,0,0,0
1.6940571799932513,0.9648632690429687,-9.622296472167967,1.8842367065429686,0,0,0,0
1.6954102009913186,0.35194764404296874,-10.105925207519531,1.43652099609375,0,0,0,0
1.69697742399876,0.5027823486328125,-10.160991845703125,1.177947216796875,0,0,0,0
1.698250723988167,-0.16759411621093748,-9.888052856445311,0.9935936889648437,0,0,0,0
1.6995016349974321,-0.7852981445312499,-9.789890588378906,0.6584054565429687,0,0,0,0
1.700709917000495,-0.8116343627929687,-10.012551342773437,0.36391865234375,0,0,0,0
1.7020316790003562,-0.7350199096679687,-9.306261853027344,0.5123591552734374,0,0,0,0
1.7035102730005747,0.2442085693359375,-9.150638745117186,0.6177040283203125,0,0,0,0
1.7047663879930042,0.34237083740234375,-9.686939916992188,0.9624690673828125,0,0,0,0
1.705861152993748,-0.3687070556640625,-10.290278735351562,0.8259995727539062,0,0,0,0
1.7072310259973165,0.3758896606445312,-10.228029492187499,1.2114660400390624,0,0,0,0
1.7083500869921409,0.74699091796875,-9.555258825683593,1.6639701538085936,0,0,0,0
1.7097352369892178,0.34715924072265625,-9.56962403564453,1.7286135986328124,0,0,0,0
1.7108971309935441,0.13168109130859373,-10.192116467285155,1.5801730957031248,0,0,0,0
1.7119844330009073,0.055066638183593745,-10.261548315429687,1.7310078002929687,0,0,0,0
1.7135930069925962,0.9935936889648437,-9.888052856445311,1.4772224243164063,0,0,0,0
1.715323319993331,0.16998831787109375,-10.014945544433592,0.9050082275390624,0,0,0,0
1.7164417329913704,0.0430956298828125,-10.160991845703125,0.7278373046875,0,0,0,0
1.7175396459933836,-0.5746083984375,-9.639055883789062,0.5219359619140624,0,0,0,0
1.7186363919900032,-0.3902548706054687,-9.552864624023437,0.4477157104492187,0,0,0,0
1.7198447669943562,-0.6200982299804687,-9.37808790283203,0.411802685546875,0,0,0,0
1.721158584987279,-1.0079588989257813,-10.019733947753906,0.5530605834960938,0,0,0,0
1.7222743309976067,-0.8020575561523438,-10.103531005859374,0.7613561279296874,0,0,0,0
1.7233708549902076,0.6536170532226562,-9.868899243164062,1.6160861206054686,0,0,0,0
1.7249200039950665,1.5705962890624998,-9.813832604980469,1.6807295654296874,0,0,0,0
1.7264747259905562,0.29448680419921874,-9.888052856445311,1.6400281372070311,0,0,0,0
1.7275990469934186,-0.13407529296874998,-10.388441003417968,1.3742717529296875,0,0,0,0
1.7286953669972718,0.0718260498046875,-10.51533369140625,1.2713210815429687,0,0,0,0
1.7297647989908,0.3806780639648437,-10.307038146972655,1.024718310546875,0,0,0,0
1.7308308229985414,-0.2920926025390625,-9.923965881347655,0.7350199096679687,0,0,0,0
1.7319005519966595,-0.35194764404296874,-9.739612353515625,0.7517793212890624,0,0,0,0
1.7334888109908206,-0.086191259765625,-9.13627353515625,0.8475473876953125,0,0,0,0
1.7346628529921873,0.16759411621093748,-8.923189587402343,0.948103857421875,0,0,0,0
1.7357479880010942,-0.09337386474609374,-9.0021982421875,0.7757213378906249,0,0,0,0
1.736836289986968,-0.36152445068359373,-10.204087475585936,1.005564697265625,0,0,0,0
1.7389788019936532,-0.6464344482421874,-9.995791931152343,1.4437036010742186,0,0,0,0
1.7401129559875699,0.4908113403320312,-9.720458740234374,1.7836802368164062,0,0,0,0
1.7412050349958008,0.9959878906249999,-9.715670336914062,1.6831237670898436,0,0,0,0
1.7422896520001814,0.40222587890625,-9.816226806640625,1.599326708984375,0,0,0,0
1.7439063189958688,0.03591302490234375,-9.734823950195311,1.2713210815429687,0,0,0,0
1.7450579719879897,0.0718260498046875,-9.782707983398437,1.13006318359375,0,0,0,0
1.7461497920012334,-0.39264907226562495,-9.746794958496093,1.0031704956054688,0,0,0,0
1.7472337979997974,-0.5195417602539062,-10.067617980957031,0.7062894897460937,0,0,0,0
1.7483162299904507,-0.34237083740234375,-10.034099157714843,0.4860229370117187,0,0,0,0
1.7499104329908732,-0.22026655273437498,-9.33978067626953,0.7445967163085937,0,0,0,0
1.7511217159917578,0.18435352783203124,-9.327809667968749,0.9050082275390624,0,0,0,0
1.7524207559908973,-0.2346317626953125,-10.105925207519531,0.7517793212890624,0,0,0,0
1.7537649439909728,-0.5626373901367188,-10.218452685546874,1.0845733520507812,0,0,0,0
1.7556504219974158,0.6655880615234374,-10.043675964355469,1.5227122558593749,0,0,0,0
1.7569107960007386,1.1540052001953125,-9.751583361816406,1.5586252807617187,0,0,0,0
1.7580878009903245,0.6967126831054687,-10.084377392578125,1.5538368774414062,0,0,0,0
1.760250848994474,0.09816226806640624,-9.634267480468749,1.458068811035156,0,0,0,0
1.7615038529911544,0.6560112548828124,-9.804255798339844,1.2832920898437499,0,0,0,0
1.762879077999969,0.1149216796875,-10.062829577636718,0.5027823486328125,0,0,0,0
1.7640175829874352,0.047884033203124995,-10.129867224121092,0.3016694091796875,0,0,0,0
1.7653014569950756,-0.3184288208007812,-9.418789331054686,0.47644613037109373,0,0,0,0
1.7671470279892674,-0.7589619262695312,-9.267954626464844,0.6919242797851562,0,0,0,0
1.7686968619964318,-0.8595183959960937,-10.110713610839843,1.024718310546875,0,0,0,0
1.7698095519881463,-0.5602431884765625,-10.32379755859375,1.2018892333984375,0,0,0,0
1.7709015019936487,-0.033518823242187495,-10.144232434082031,1.6711527587890624,0,0,0,0
1.7719934529886814,1.1276689819335937,-9.294290844726563,2.0063409912109376,0,0,0,0
1.7737715059920447,0.7996633544921875,-9.871293444824218,1.6328455322265625,0,0,0,0
1.7750246209907345,0.3687070556640625,-10.527304699707031,1.4437036010742186,0,0,0,0
1.7767507859971374,0.5195417602539062,-9.823409411621093,1.3072341064453123,0,0,0,0
1.7781079369888175,-0.8283937744140625,-9.801861596679688,0.8882488159179687,0,0,0,0
1.7794850130012492,-0.5626373901367188,-10.244788903808594,0.5961562133789062,0,0,0,0
1.7806139259919291,-0.16041151123046873,-9.76116016845703,0.737414111328125,0,0,0,0
1.7816906169900903,0.430956298828125,-9.306261853027344,0.8475473876953125,0,0,0,0
1.7827690859994618,0.6631938598632812,-9.363722692871093,0.7134720947265625,0,0,0,0
1.7839145170000847,-0.23702596435546874,-10.24718310546875,0.38307226562499996,0,0,0,0
1.785599792987341,-1.2042834350585936,-10.17056865234375,0.5865794067382812,0,0,0,0
1.786723058001371,-0.45968671875,-9.938331091308592,1.4341267944335936,0,0,0,0
1.787810322988662,0.7326257080078125,-9.785102185058593,1.5969325073242187,0,0,0,0
1.7889742539991857,1.0486603271484374,-10.014945544433592,1.5801730957031248,0,0,0,0
1.7907613809948089,0.4908113403320312,-10.0748005859375,1.5370774658203123,0,0,0,0
1.7920009219960775,0.4070142822265625,-9.567229833984374,1.6639701538085936,0,0,0,0
1.7931720560009126,0.469263525390625,-9.528922607421874,1.5682020874023437,0,0,0,0
1.7943304869986605,-0.26815058593749996,-9.890447058105469,1.2832920898437499,0,0,0,0
1.795486325994716,-0.2825157958984375,-10.352527978515624,0.8044517578125,0,0,0,0
1.7971074179949937,0.14125789794921875,-9.591171850585937,0.5817910034179687,0,0,0,0
1.7982435529993381,0.24181436767578124,-9.356540087890625,0.5602431884765625,0,0,0,0
1.7993424289888935,-0.3136404174804687,-9.358934289550781,0.488417138671875,0,0,0,0
1.8005580629978795,-0.4860229370117187,-10.280701928710936,0.2561795776367187,0,0,0,0
1.80230724599096,-0.8212111694335937,-9.648632690429688,0.8020575561523438,0,0,0,0
1.8035423239925876,0.19393033447265623,-9.682151513671874,1.158793603515625,0,0,0,0
1.8046997179917526,0.6679822631835937,-9.643844287109374,1.35990654296875,0,0,0,0
1.8058579999924405,0.3280056274414062,-9.981426721191406,1.5466542724609373,0,0,0,0
1.8072112439986086,0.5315127685546874,-10.077194787597655,1.6160861206054686,0,0,0,0
1.808987555996282,0.6607996582031249,-9.821015209960937,1.5370774658203123,0,0,0,0
1.810258781988523,-0.105344873046875,-9.86411083984375,1.3862427612304686,0,0,0,0
1.8113655469933292,-0.12689268798828124,-10.184933862304687,0.9792284790039062,0,0,0,0
1.812581644000602,0.1292868896484375,-9.694122521972655,0.6919242797851562,0,0,0,0
1.8142126059974544,-0.076614453125,-9.5384994140625,0.6512228515624999,0,0,0,0
1.8153447229997255,-0.4165910888671875,-9.78031378173828,0.6679822631835937,0,0,0,0
1.8164737469924148,-0.565031591796875,-10.117896215820313,0.565031591796875,0,0,0,0
1.8176408809958957,-0.9050082275390624,-9.600748657226562,0.7876923461914062,0,0,0,0
1.8187993859901326,-0.6057330200195312,-9.765948571777344,1.3263877197265623,0,0,0,0
1.8198989289958263,0.689530078125,-9.6917283203125,1.5418658691406248,0,0,0,0
1.8209899899957236,1.1516109985351561,-9.727641345214844,1.426944189453125,0,0,0,0
1.8220746989973122,0.6177040283203125,-10.20169327392578,1.3192051147460937,0,0,0,0
1.8231619089929154,0.28730419921875,-10.302249743652343,1.1348515869140625,0,0,0,0
1.8243212289962685,0.45968671875,-10.187328063964843,1.3072341064453123,0,0,0,0
1.8254696779913502,0.239420166015625,-10.117896215820313,1.2665326782226562,0,0,0,0
1.8265498879918596,-0.488417138671875,-9.830592016601562,1.0749965454101562,0,0,0,0
1.8276266709872289,-0.18914193115234373,-10.194510668945313,0.7852981445312499,0,0,0,0
1.8287730649899459,0.023942016601562498,-9.892841259765625,0.8714894042968749,0,0,0,0
1.8299252739961958,-0.1292868896484375,-9.327809667968749,0.8858546142578124,0,0,0,0
1.8310221319989068,0.1149216796875,-9.512163195800781,0.7350199096679687,0,0,0,0
1.8321078779990785,0.05027823486328125,-9.991003527832031,0.7062894897460937,0,0,0,0
1.8332035880011972,-0.36391865234375,-9.744400756835937,0.8810662109374999,0,0,0,0
1.8343577589985216,-0.507570751953125,-9.900023864746093,0.9648632690429687,0,0,0,0
1.8355088199896272,0.699106884765625,-9.758765966796874,1.3455413330078123,0,0,0,0
1.8366251400002511,1.2018892333984375,-9.763554370117188,1.6328455322265625,0,0,0,0
1.837715442001354,0.8786720092773437,-10.026916552734374,1.608903515625,0,0,0,0
1.8388669099949766,0.44053310546874996,-10.029310754394531,1.448492004394531,0,0,0,0
1.840016118992935,0.1867477294921875,-9.81862100830078,1.43652099609375,0,0,0,0
1.8411076799966395,0.4213794921875,-9.751583361816406,1.209071838378906,0,0,0,0
1.8421804269892164,0.09576806640624999,-9.828197814941406,0.9888052856445312,0,0,0,0
1.843254117993638,-0.28969840087890625,-10.223241088867187,0.6679822631835937,0,0,0,0
1.844429640987073,-0.011971008300781249,-9.892841259765625,0.59376201171875,0,0,0,0
1.8455914429941913,0.1771709228515625,-9.507374792480467,0.5817910034179687,0,0,0,0
1.846683577998192,0.3447650390625,-9.414000927734374,0.6272808349609375,0,0,0,0
1.8477694539906224,-0.15322890625,-9.64623848876953,0.6344634399414062,0,0,0,0
1.8489274219900835,-0.603338818359375,-10.275913525390624,0.689530078125,0,0,0,0
1.850079908996122,-1.1228805786132812,-10.120290417480469,0.8116343627929687,0,0,0,0
1.8511745249998057,-1.0199299072265624,-10.019733947753906,1.2976572998046874,0,0,0,0
1.852259419989423,0.24181436767578124,-9.835380419921874,1.5490484741210937,0,0,0,0
1.8533371109951986,0.6296750366210937,-9.823409411621093,1.659181750488281,0,0,0,0
1.8545052089903038,0.8259995727539062,-9.885658654785155,1.9129671264648436,0,0,0,0
1.8556265660008648,0.6177040283203125,-9.76116016845703,1.70467158203125,0,0,0,0
1.8571425299887778,0.47884033203125,-9.727641345214844,1.4772224243164063,0,0,0,0
1.8582470349938376,0.4213794921875,-9.974244116210937,1.3335703247070312,0,0,0,0
1.8593395039933966,-0.17238251953125,-10.338162768554687,1.0486603271484374,0,0,0,0
1.860702098987531,-0.00718260498046875,-10.204087475585936,0.6703764648437499,0,0,0,0
1.8620844529941678,-0.16041151123046873,-9.368511096191405,0.7517793212890624,0,0,0,0
1.863243068990414,0.08140285644531249,-9.363722692871093,0.737414111328125,0,0,0,0
1.8643358709960012,-0.239420166015625,-9.801861596679688,0.584185205078125,0,0,0,0
1.865426006988855,-0.699106884765625,-9.624690673828125,0.8212111694335937,0,0,0,0
1.8665995109913638,-0.6727706665039062,-9.82580361328125,0.6488286499023437,0,0,0,0
1.8679794579948066,0.07422025146484375,-9.679757312011718,1.2952630981445312,0,0,0,0
1.869080574993859,0.49799394531249996,-10.019733947753906,1.438915197753906,0,0,0,0
1.8701627099944744,0.6081272216796875,-9.974244116210937,1.4796166259765624,0,0,0,0
1.8712465680000605,0.48123453369140623,-10.149020837402343,1.4628572143554686,0,0,0,0
1.8727793649886735,0.679953271484375,-9.890447058105469,1.5131354492187499,0,0,0,0
1.874259402989992,0.6057330200195312,-9.823409411621093,1.1468225952148436,0,0,0,0
1.8753576309973141,-0.05746083984375,-10.070012182617187,0.9552864624023437,0,0,0,0
1.8771062769956188,0.00718260498046875,-9.552864624023437,0.718260498046875,0,0,0,0
1.8783286889956798,-0.1771709228515625,-9.488221179199218,0.7733271362304687,0,0,0,0
1.8795213970006444,-0.4165910888671875,-9.622296472167967,0.6416460449218749,0,0,0,0
1.8806489579874324,-0.42377369384765623,-9.907206469726562,0.6607996582031249,0,0,0,0
1.8817407789902063,-0.5865794067382812,-9.868899243164062,0.7924807495117187,0,0,0,0
1.8829011719935806,-0.2705447875976562,-10.053252770996092,1.2808978881835937,0,0,0,0
1.884716465996462,0.8762778076171874,-10.005368737792969,1.3958195678710936,0,0,0,0
1.8858922669896856,0.45010991210937495,-10.184933862304687,1.4963760375976562,0,0,0,0
1.887010216989438,0.12449848632812499,-10.058041174316406,1.3120225097656248,0,0,0,0
1.8889207499887561,0.02633621826171875,-9.947907897949218,1.446097802734375,0,0,0,0
1.8900753659982001,-0.0909796630859375,-9.97903251953125,1.2737152832031249,0,0,0,0
1.8920239909930388,0.11252747802734374,-10.160991845703125,1.0797849487304687,0,0,0,0
1.8947236819949467,0.2920926025390625,-9.634267480468749,0.7948749511718749,0,0,0,0
1.8968680830002995,-0.6081272216796875,-9.969455712890625,0.8403647827148437,0,0,0,0
1.898477267997805,-0.8188169677734375,-9.919177478027343,0.8092401611328125,0,0,0,0
1.9002584319969174,0.12210428466796874,-9.787496386718749,1.2665326782226562,0,0,0,0
1.9021004289970733,0.6943184814453125,-9.543287817382812,1.5945383056640625,0,0,0,0
1.9044302539987257,0.59376201171875,-9.3086560546875,1.5729904907226562,0,0,0,0
1.9070162229909329,-0.3711012573242187,-9.97903251953125,0.9648632690429687,0,0,0,0
1.9091365130007034,0.10295067138671875,-9.725247143554688,0.8690952026367187,0,0,0,0
1.9112518589972751,0.011971008300781249,-9.5001921875,0.8212111694335937,0,0,0,0
1.9131703179882606,-0.14125789794921875,-9.528922607421874,0.9792284790039062,0,0,0,0
1.914689040990197,-0.43574470214843747,-9.842563024902343,0.8834604125976562,0,0,0,0
1.916396298998734,0.565031591796875,-10.038887561035155,1.1228805786132812,0,0,0,0
1.9181956849934068,0.10773907470703124,-10.295067138671874,1.1947066284179686,0,0,0,0
1.919711112001096,0.028730419921875,-10.139444030761718,1.1659762084960936,0,0,0,0
1.92118705699977,-0.07900865478515624,-10.146626635742187,1.1540052001953125,0,0,0,0
1.922395506000612,-0.2825157958984375,-9.964667309570311,1.1851298217773436,0,0,0,0
1.9235506409895606,0.15562310791015624,-9.983820922851562,1.1731588134765625,0,0,0,0
1.9246690909931203,0.55545478515625,-10.053252770996092,1.1635820068359375,0,0,0,0
1.9257445779949194,0.38786066894531246,-9.981426721191406,1.0199299072265624,0,0,0,0
1.9268941569898743,0.0383072265625,-10.038887561035155,0.7398083129882812,0,0,0,0
1.9280377919931198,-0.2753331909179687,-10.089165795898436,0.852335791015625,0,0,0,0
1.9291333349974593,-0.3854664672851562,-9.7683427734375,0.9935936889648437,0,0,0,0
1.9302051179984119,-0.6943184814453125,-10.01733974609375,0.9002198242187499,0,0,0,0
1.9312792349955998,-0.5817910034179687,-9.804255798339844,1.1563994018554686,0,0,0,0
1.932711773988558,0.6057330200195312,-9.674968908691406,1.5227122558593749,0,0,0,0
1.9339401670004008,0.5865794067382812,-9.907206469726562,1.4915876342773438,0,0,0,0
1.935101486989879,0.46686932373046874,-9.770736975097655,1.4317325927734375,0,0,0,0
1.9362176779977744,0.21787235107421873,-9.871293444824218,1.3431471313476562,0,0,0,0
1.9377208449877799,0.05746083984375,-9.868899243164062,1.3096283081054687,0,0,0,0
1.9390171629929682,-0.1771709228515625,-9.662997900390625,1.0534487304687499,0,0,0,0
1.940863381998497,0.6847416748046875,-9.674968908691406,1.0007762939453124,0,0,0,0
1.9424116049922304,-0.0383072265625,-9.744400756835937,0.5985504150390625,0,0,0,0
1.9441032699978678,-0.584185205078125,-9.713276135253906,0.47884033203125,0,0,0,0
1.9452974969899515,-0.7493851196289062,-9.65342109375,0.6392518432617187,0,0,0,0
1.9463814849877963,-0.6655880615234374,-9.928754284667969,0.6392518432617187,0,0,0,0
1.9474605269933818,0.23702596435546874,-9.710881933593749,1.1133037719726562,0,0,0,0
1.949102304992266,0.9504980590820312,-9.677363110351562,1.6256629272460936,0,0,0,0
1.952084083997761,0.37828386230468747,-10.067617980957031,1.5394716674804687,0,0,0,0
1.9534414199879393,-0.062249243164062495,-10.290278735351562,1.426944189453125,0,0,0,0
1.9546567209908972,-0.4572925170898437,-10.228029492187499,1.3192051147460937,0,0,0,0
1.9560858709883178,-0.07900865478515624,-9.773131176757811,1.0773907470703123,0,0,0,0
1.9575823899940588,0.0430956298828125,-9.720458740234374,0.8690952026367187,0,0,0,0
1.9587908209941816,0.05985504150390625,-9.598354455566406,0.7493851196289062,0,0,0,0
1.9599433069961378,-0.430956298828125,-10.012551342773437,0.5961562133789062,0,0,0,0
1.9616346760012675,-0.507570751953125,-9.86411083984375,0.8475473876953125,0,0,0,0
1.9630322529992554,-0.5722141967773438,-10.206481677246094,0.9911994873046874,0,0,0,0
1.9641481099970406,0.12689268798828124,-10.098742602539062,1.2425906616210938,0,0,0,0
1.965250096996897,0.6775590698242188,-9.828197814941406,1.3072341064453123,0,0,0,0
1.9663387319887988,0.44053310546874996,-9.9215716796875,1.3263877197265623,0,0,0,0
1.9678137709997827,0.12689268798828124,-9.950302099609374,1.3120225097656248,0,0,0,0
1.9696943599992665,0.06943184814453125,-10.01015714111328,1.0965443603515623,0,0,0,0
1.9708682529890211,-0.39743747558593745,-9.739612353515625,1.0845733520507812,0,0,0,0
1.9719720739958575,0.1292868896484375,-9.739612353515625,1.0678139404296874,0,0,0,0
1.9730703569948673,0.5051765502929687,-9.368511096191405,0.9720458740234375,0,0,0,0
1.9746657829964533,0.0047884033203125,-9.409212524414063,0.9169792358398436,0,0,0,0
1.9758427689957898,-0.26815058593749996,-9.497797985839844,0.9409212524414062,0,0,0,0
1.9769437189970631,-0.239420166015625,-9.744400756835937,1.1180921752929687,0,0,0,0
1.9780353359965375,-0.5746083984375,-10.213664282226562,1.0175357055664063,0,0,0,0
1.9796265209879493,0.5434837768554687,-10.058041174316406,1.2976572998046874,0,0,0,0
1.9807967849919805,0.8188169677734375,-9.871293444824218,1.2042834350585936,0,0,0,0
1.98229189698759,0.584185205078125,-9.945513696289062,1.2401964599609374,0,0,0,0
1.9834338649961865,0.16759411621093748,-9.782707983398437,0.9744400756835937,0,0,0,0
1.9850764939910732,-0.1005564697265625,-9.957484704589843,0.7110778930664062,0,0,0,0
1.9862453139940044,-0.5746083984375,-9.904812268066406,0.55545478515625,0,0,0,0
1.987338559993077,-0.9600748657226562,-10.026916552734374,0.612915625,0,0,0,0
1.9884261400002288,0.12210428466796874,-9.974244116210937,0.7709329345703124,0,0,0,0
1.989513515989529,0.19393033447265623,-9.950302099609374,1.0127473022460938,0,0,0,0
1.9911200529895723,0.0718260498046875,-9.983820922851562,1.1468225952148436,0,0,0,0
1.9928499959933106,-0.07900865478515624,-10.002974536132811,1.3168109130859373,0,0,0,0
1.9943687369959662,-0.19393033447265623,-10.04846436767578,1.43652099609375,0,0,0,0
1.9966253960010363,0.9121908325195311,-9.464279162597656,1.848323681640625,0,0,0,0
1.9978250119893346,0.8451531860351562,-9.627084875488281,1.8363526733398436,0,0,0,0
1.9989206469908822,0.5746083984375,-9.552864624023437,1.6711527587890624,0,0,0,0
2.000006411995855,0.21787235107421873,-9.720458740234374,1.2737152832031249,0,0,0,0
2.0011347319959896,0.2753331909179687,-9.89523546142578,1.0749965454101562,0,0,0,0
2.002334032993531,-0.086191259765625,-9.945513696289062,0.6536170532226562,0,0,0,0
2.003700386994751,-0.47165772705078124,-9.947907897949218,0.5267243652343749,0,0,0,0
2.0050087979907403,0.05746083984375,-9.689334118652344,0.4836287353515625,0,0,0,0
2.006213172993739,0.16041151123046873,-9.65342109375,0.5817910034179687,0,0,0,0
2.007405806987663,-0.26815058593749996,-9.624690673828125,0.5219359619140624,0,0,0,0
2.008665810993989,-0.28969840087890625,-9.823409411621093,0.5698199951171875,0,0,0,0
2.0098015749972546,-0.4860229370117187,-9.734823950195311,0.8020575561523438,0,0,0,0
2.0109741729975212,-0.4740519287109375,-10.158597644042969,1.0989385620117187,0,0,0,0
2.012091992990463,0.25139117431640623,-10.35492218017578,1.3239935180664062,0,0,0,0
2.0132998490007594,0.6919242797851562,-9.991003527832031,1.4772224243164063,0,0,0,0
2.014579112001229,0.40222587890625,-9.85692823486328,1.6472107421875,0,0,0,0
2.015775986990775,0.28012159423828126,-9.923965881347655,1.484405029296875,0,0,0,0
2.0169181219971506,0.28012159423828126,-9.720458740234374,1.6448165405273436,0,0,0,0
2.018012293992797,-0.3399766357421875,-9.816226806640625,1.1827356201171875,0,0,0,0
2.019229464989621,-0.47644613037109373,-9.828197814941406,1.0702081420898437,0,0,0,0
2.0204667469952255,0.4429273071289062,-9.670180505371093,1.1372457885742187,0,0,0,0
2.0218335269892123,0.488417138671875,-9.706093530273437,0.9193734375,0,0,0,0
2.0230209569999715,0.40222587890625,-9.770736975097655,0.8092401611328125,0,0,0,0
2.0241971099894727,-0.239420166015625,-10.070012182617187,0.8499415893554687,0,0,0,0
2.0253735599981155,-0.45010991210937495,-9.789890588378906,1.0414777221679687,0,0,0,0
2.026520731000346,-0.8834604125976562,-10.192116467285155,0.8283937744140625,0,0,0,0
2.0276841249869904,0.1149216796875,-10.089165795898436,1.1324573852539062,0,0,0,0
2.0288894809928024,0.6536170532226562,-9.708487731933593,1.3455413330078123,0,0,0,0
2.0300508939981228,0.6871358764648438,-9.641450085449218,1.5179238525390624,0,0,0,0
2.031144435997703,0.8259995727539062,-9.78031378173828,1.2473790649414063,0,0,0,0
2.032315477990778,0.5434837768554687,-9.612719665527344,1.3862427612304686,0,0,0,0
2.0334567979880376,-0.11252747802734374,-9.9981861328125,1.0486603271484374,0,0,0,0
2.0346565799991367,-0.6464344482421874,-10.029310754394531,0.8762778076171874,0,0,0,0
2.035797825999907,-0.296881005859375,-10.12507882080078,0.8259995727539062,0,0,0,0
2.0368966839887435,-0.14125789794921875,-10.065223779296874,0.6727706665039062,0,0,0,0
2.0379831899917917,-0.062249243164062495,-9.892841259765625,0.852335791015625,0,0,0,0
2.0390683250006987,0.04548983154296875,-9.78031378173828,0.86191259765625,0,0,0,0
2.040222644995083,-0.20829554443359374,-9.76116016845703,0.9624690673828125,0,0,0,0
2.041373408996151,-0.08858546142578125,-9.495403784179686,1.1659762084960936,0,0,0,0
2.042470988992136,-0.1580173095703125,-9.947907897949218,1.1324573852539062,0,0,0,0
2.043665178993251,0.5195417602539062,-9.82580361328125,1.3407529296874998,0,0,0,0
2.0448540349898394,0.6679822631835937,-9.789890588378906,1.446097802734375,0,0,0,0
2.0460165589902317,0.5434837768554687,-9.955090502929687,1.369483349609375,0,0,0,0
2.0471048609906575,0.45968671875,-10.05564697265625,1.3814543579101561,0,0,0,0
2.048184625993599,0.22744915771484372,-10.141838232421874,1.2665326782226562,0,0,0,0
2.0494115929905092,0.0143652099609375,-10.038887561035155,0.9313444458007812,0,0,0,0
2.050622744995053,-0.4740519287109375,-9.832986218261718,0.9193734375,0,0,0,0
2.0517608059890335,-0.05027823486328125,-9.686939916992188,0.8451531860351562,0,0,0,0
2.0528569409943884,0.1580173095703125,-9.437942944335937,0.9504980590820312,0,0,0,0
2.0539395209925715,0.17956512451171874,-9.41639512939453,1.0031704956054688,0,0,0,0
2.055052118987078,-0.02154781494140625,-9.629479077148437,0.7422025146484375,0,0,0,0
2.056286660998012,-0.14125789794921875,-9.816226806640625,0.9241618408203125,0,0,0,0
2.0574697209958686,-0.6847416748046875,-9.749189160156249,1.0773907470703123,0,0,0,0
2.0585848369955784,-0.24899697265624998,-10.374075793457031,1.0941501586914062,0,0,0,0
2.0596704359923024,0.5817910034179687,-10.244788903808594,1.4700398193359374,0,0,0,0
2.0607607929996448,0.8571241943359375,-10.038887561035155,1.5825672973632812,0,0,0,0
2.0619989830011036,0.7996633544921875,-9.8449572265625,1.5131354492187499,0,0,0,0
2.063132340001175,0.5865794067382812,-9.727641345214844,1.2976572998046874,0,0,0,0
2.064283751999028,0.24899697265624998,-9.562441430664062,1.2641384765625,0,0,0,0
2.0654630529897986,0.055066638183593745,-9.60793126220703,0.9624690673828125,0,0,0,0
2.066617224991205,-0.6536170532226562,-9.928754284667969,0.842758984375,0,0,0,0
2.067781877995003,-0.02154781494140625,-9.9981861328125,0.699106884765625,0,0,0,0
2.0689705299882917,0.18435352783203124,-9.758765966796874,0.7158662963867187,0,0,0,0
2.0701619609899353,0.1771709228515625,-9.730035546875,0.8379705810546875,0,0,0,0
2.071259095988353,0.12689268798828124,-9.861716638183593,0.8403647827148437,0,0,0,0
2.072410915992805,-0.1292868896484375,-9.753977563476562,1.0366893188476562,0,0,0,0
2.0736536609911127,-0.6392518432617187,-9.689334118652344,1.2952630981445312,0,0,0,0
2.0751394769904437,-0.34237083740234375,-10.110713610839843,1.446097802734375,0,0,0,0
2.076245778996963,0.4836287353515625,-9.976638317871092,1.4963760375976562,0,0,0,0
2.077337117996649,0.814028564453125,-9.746794958496093,1.5897499023437498,0,0,0,0
2.078418049000902,0.7709329345703124,-9.792284790039062,1.5490484741210937,0,0,0,0
2.080125769993174,0.2825157958984375,-9.842563024902343,1.3096283081054687,0,0,0,0
2.0812732569902437,0.3687070556640625,-9.868899243164062,1.0486603271484374,0,0,0,0
2.082444020998082,-0.20350714111328125,-9.871293444824218,0.8643067993164062,0,0,0,0
2.0835403599921847,-0.43574470214843747,-10.060435375976562,0.6105214233398437,0,0,0,0
2.084676568993018,-0.3184288208007812,-10.09395419921875,0.5219359619140624,0,0,0,0
2.085832684999332,-0.2059013427734375,-10.034099157714843,0.5913678100585937,0,0,0,0
2.0869826339912834,-0.08140285644531249,-9.91438907470703,0.7517793212890624,0,0,0,0
2.088074898987543,-0.316034619140625,-9.883264453125,0.9337386474609375,0,0,0,0
2.089164126999094,-0.30885201416015623,-9.823409411621093,1.218648645019531,0,0,0,0
2.090832033994957,-0.023942016601562498,-9.988609326171874,1.1516109985351561,0,0,0,0
2.0930598779959837,0.8858546142578124,-9.813832604980469,1.5777788940429687,0,0,0,0
2.0946028039907105,0.34237083740234375,-9.832986218261718,1.5251064575195312,0,0,0,0
2.096092786989175,0.21068974609375,-10.012551342773437,1.3407529296874998,0,0,0,0
2.098058541989303,-0.047884033203124995,-9.670180505371093,0.9648632690429687,0,0,0,0
2.0999275939975632,-0.1197100830078125,-9.765948571777344,0.74699091796875,0,0,0,0
2.101137375997496,0.239420166015625,-9.490615380859374,0.7613561279296874,0,0,0,0
2.1022776959871408,0.16280571289062498,-9.141061938476563,0.6153098266601562,0,0,0,0
2.103480125995702,-0.10773907470703124,-9.686939916992188,0.55545478515625,0,0,0,0
2.104714260000037,-0.5434837768554687,-9.991003527832031,0.7038952880859375,0,0,0,0
2.105881616997067,-0.8714894042968749,-10.026916552734374,0.8834604125976562,0,0,0,0
2.106976825991296,-0.30406361083984373,-10.378864196777343,0.7709329345703124,0,0,0,0
2.1080604619928636,0.6967126831054687,-10.089165795898436,1.5394716674804687,0,0,0,0
2.1092792989948066,0.8499415893554687,-9.909600671386718,1.7597382202148437,0,0,0,0
2.110483229989768,0.5698199951171875,-9.7683427734375,1.7477672119140624,0,0,0,0
2.111685881987796,0.4261678955078125,-9.583989245605467,1.7166425903320313,0,0,0,0
2.112910848998581,0.5722141967773438,-9.471461767578125,1.6639701538085936,0,0,0,0
2.114162685989868,-0.1580173095703125,-9.753977563476562,1.0438719238281249,0,0,0,0
2.1153614319919143,-0.4261678955078125,-10.421959826660157,0.8403647827148437,0,0,0,0
2.1166381759976503,0.3184288208007812,-10.012551342773437,0.9361328491210937,0,0,0,0
2.117851142989821,-0.1149216796875,-9.801861596679688,0.689530078125,0,0,0,0
2.119041499987361,-0.430956298828125,-9.868899243164062,0.5626373901367188,0,0,0,0
2.1202717999985907,-0.7493851196289062,-10.072406384277343,0.5746083984375,0,0,0,0
2.121511951991124,-0.6392518432617187,-9.696516723632811,0.8714894042968749,0,0,0,0
2.1227601779974066,-0.13407529296874998,-9.880870251464843,1.0127473022460938,0,0,0,0
2.1239888860000065,0.689530078125,-9.974244116210937,1.235408056640625,0,0,0,0
2.125206778990105,1.1180921752929687,-10.194510668945313,1.5634136840820312,0,0,0,0
2.126377098989906,0.82360537109375,-9.763554370117188,1.369483349609375,0,0,0,0
2.1275581959926058,0.35673604736328124,-9.878476049804688,1.209071838378906,0,0,0,0
2.1288420149940066,0.1867477294921875,-9.773131176757811,1.2521674682617188,0,0,0,0
2.1300874999869848,-0.6105214233398437,-9.830592016601562,0.8499415893554687,0,0,0,0
2.1313289479876403,-0.679953271484375,-9.849745629882811,0.7685387329101562,0,0,0,0
2.1325820999918506,0.316034619140625,-9.387664709472656,0.93852705078125,0,0,0,0
2.134048712992808,0.08858546142578125,-9.366116894531249,0.7852981445312499,0,0,0,0
2.135289975994965,-0.086191259765625,-9.399635717773437,0.8571241943359375,0,0,0,0
2.136388907994842,-0.28490999755859375,-9.770736975097655,1.0749965454101562,0,0,0,0
2.1374638019915437,-0.02154781494140625,-9.1554271484375,1.2713210815429687,0,0,0,0
2.138538900995627,-0.40462008056640625,-9.526528405761718,1.2306196533203124,0,0,0,0
2.14018688199576,1.0630255371093749,-9.782707983398437,1.7477672119140624,0,0,0,0
2.1414129229960963,1.2042834350585936,-10.04846436767578,1.5586252807617187,0,0,0,0
2.1424911509966478,0.4955997436523437,-10.297461340332031,1.22583125,0,0,0,0
2.1440582989889663,-0.12449848632812499,-10.613495959472656,1.0366893188476562,0,0,0,0
2.145512263989076,0.1005564697265625,-9.792284790039062,1.0319009155273438,0,0,0,0
2.146642620995408,-0.5793968017578125,-9.409212524414063,0.9792284790039062,0,0,0,0
2.148298267988139,-0.06703764648437499,-9.473855969238281,0.8068459594726562,0,0,0,0
2.1495902899914654,0.1149216796875,-9.82580361328125,0.7709329345703124,0,0,0,0
2.150758127987501,-0.011971008300781249,-10.311826550292968,0.7134720947265625,0,0,0,0
2.151893096001004,-0.6416460449218749,-10.682927807617187,0.6488286499023437,0,0,0,0
2.153035490991897,-0.46686932373046874,-10.563217724609375,1.0582371337890624,0,0,0,0
2.154108125992934,-0.6943184814453125,-10.395623608398436,1.1372457885742187,0,0,0,0
2.1556594040011987,0.5770026000976562,-10.139444030761718,1.6472107421875,0,0,0,0
2.1569938519969583,0.9361328491210937,-10.204087475585936,1.8219874633789062,0,0,0,0
2.158131763993879,0.6584054565429687,-9.964667309570311,1.6232687255859375,0,0,0,0
2.1592052889900515,0.4261678955078125,-10.065223779296874,1.5131354492187499,0,0,0,0
2.160273497996968,0.38307226562499996,-9.758765966796874,1.3646949462890625,0,0,0,0
2.161354300988023,0.2657563842773437,-9.588777648925781,0.9265560424804687,0,0,0,0
2.1634163499984425,-0.45489831542968745,-10.0748005859375,0.7805097412109374,0,0,0,0
2.164755908990628,-0.08140285644531249,-10.043675964355469,0.6177040283203125,0,0,0,0
2.1658610999875236,-0.3280056274414062,-10.139444030761718,0.3806780639648437,0,0,0,0
2.1669527529884363,-0.5961562133789062,-9.593566052246093,0.4740519287109375,0,0,0,0
2.1683128669974394,-0.51714755859375,-9.734823950195311,0.8164227661132812,0,0,0,0
2.1695125749974977,-0.14125789794921875,-8.930372192382812,1.2330138549804688,0,0,0,0
2.170644931989955,0.3687070556640625,-8.813056311035156,1.2832920898437499,0,0,0,0
2.171726956992643,0.9576806640625,-8.765172277832031,1.5131354492187499,0,0,0,0
2.1728091109980596,1.3048399047851562,-9.191340173339842,1.5107412475585937,0,0,0,0
2.1739606709888903,0.928950244140625,-9.555258825683593,1.5322890624999999,0,0,0,0
2.175461616992834,0.36391865234375,-9.835380419921874,1.1109095703125,0,0,0,0
2.17668299099023,-0.06703764648437499,-9.564835632324218,1.1372457885742187,0,0,0,0
2.1777839599963045,-0.6679822631835937,-10.110713610839843,0.9816226806640624,0,0,0,0
2.1789552429981995,-0.612915625,-10.436325036621094,0.7972691528320313,0,0,0,0
2.180109802997322,0.04548983154296875,-10.307038146972655,0.842758984375,0,0,0,0
2.181206289998954,0.3327940307617187,-9.612719665527344,0.9313444458007812,0,0,0,0
2.182277129992144,0.488417138671875,-9.627084875488281,0.9433154541015625,0,0,0,0
2.1833508949930547,0.15562310791015624,-9.658209497070311,0.7637503295898437,0,0,0,0
2.184514954991755,-0.5985504150390625,-10.541669909667968,0.7709329345703124,0,0,0,0
2.1856629049871117,-1.0342951171875,-10.352527978515624,0.9816226806640624,0,0,0,0
2.1867531329917256,-0.6823474731445313,-10.733206042480468,1.1947066284179686,0,0,0,0
2.188390872994205,0.11731588134765625,-10.594342346191405,1.4604630126953124,0,0,0,0
2.1898247450008057,0.5578489868164063,-10.414777221679687,1.7764976318359373,0,0,0,0
2.19117982199532,0.70868369140625,-10.187328063964843,1.7190367919921874,0,0,0,0
2.19280663599784,0.47165772705078124,-9.655815295410155,1.7334020019531249,0,0,0,0
2.193906918997527,-0.33039982910156246,-9.787496386718749,1.3263877197265623,0,0,0,0
2.194987572991522,-0.5458779785156249,-9.78031378173828,1.0797849487304687,0,0,0,0
2.1974877850007033,0.36391865234375,-9.409212524414063,0.699106884765625,0,0,0,0
2.1987497139925836,0.105344873046875,-9.430760339355468,0.7278373046875,0,0,0,0
2.2000437549868366,-0.4572925170898437,-9.797073193359374,0.5865794067382812,0,0,0,0
2.201214981992962,-0.4381389038085937,-9.706093530273437,0.8044517578125,0,0,0,0
2.2024548379995394,-0.6153098266601562,-9.698910925292969,0.7661445312499999,0,0,0,0
2.203648434995557,0.39743747558593745,-9.593566052246093,1.0702081420898437,0,0,0,0
2.2051522139954614,0.6248866333007812,-9.325415466308593,1.5586252807617187,0,0,0,0
2.206269162998069,0.7398083129882812,-9.332598071289063,1.448492004394531,0,0,0,0
2.207542629999807,0.8643067993164062,-9.560047229003906,1.4125789794921875,0,0,0,0
