Time (s),Accel X,Accel Y,Accel Z,Gyro X,Gyro Y,Gyro Z,Temperature (C)
0.00807973499468062,0.23223756103515625,-0.8283937744140625,-9.016563452148437,0,0,0,0
0.009622828001738526,0.21787235107421873,-0.7805097412109374,-9.217676391601563,0,0,0,0
0.010983051994116977,0.3016694091796875,-0.7158662963867187,-9.064447485351561,0,0,0,0
0.012207777996081859,0.29927520751953124,-0.7781155395507812,-9.03332286376953,0,0,0,0
0.013384985999437049,0.3112462158203125,-0.8834604125976562,-9.076418493652342,0,0,0,0
0.014546730992151424,0.36391865234375,-0.833182177734375,-9.018957653808593,0,0,0,0
0.0158078079984989,0.3495534423828125,-0.6751648681640625,-9.023746057128905,0,0,0,0
0.017041015991708264,0.28012159423828126,-0.7829039428710937,-9.095572106933593,0,0,0,0
0.018204002000857145,0.3495534423828125,-0.814028564453125,-9.157821350097656,0,0,0,0
0.019897092002793215,0.26815058593749996,-0.814028564453125,-9.04050546875,0,0,0,0
0.021187373000429943,0.3064578125,-0.7900865478515624,-9.054870678710937,0,0,0,0
0.022419172993977554,0.27293898925781246,-0.8020575561523438,-9.124302526855468,0,0,0,0
0.02362686199194286,0.24181436767578124,-0.7948749511718749,-9.114725720214842,0,0,0,0
0.02470383000036236,0.296881005859375,-0.7924807495117187,-9.105148913574219,0,0,0,0
0.025875574996462092,0.2442085693359375,-0.8164227661132812,-9.102754711914063,0,0,0,0
0.027052876001107506,0.44532150878906246,-0.8068459594726562,-9.07163009033203,0,0,0,0
0.028130937003879808,0.3064578125,-0.737414111328125,-9.03332286376953,0,0,0,0
0.029196756993769668,0.3711012573242187,-0.7781155395507812,-9.105148913574219,0,0,0,0
0.03026733700244222,0.3016694091796875,-0.7637503295898437,-9.057264880371093,0,0,0,0
0.031449784990400076,0.25139117431640623,-0.7829039428710937,-9.0788126953125,0,0,0,0
0.03258093800104689,0.34715924072265625,-0.7661445312499999,-9.162609753417968,0,0,0,0
0.03365533299802337,0.2537853759765625,-0.7972691528320313,-9.117119921875,0,0,0,0
0.03479948599124327,0.28490999755859375,-0.8068459594726562,-9.112331518554686,0,0,0,0
0.036479001995758153,0.22266075439453123,-0.7852981445312499,-9.069235888671875,0,0,0,0
0.03766719199484214,0.28490999755859375,-0.7302315063476562,-9.100360510253905,0,0,0,0
0.03885115899902303,0.20350714111328125,-0.842758984375,-9.069235888671875,0,0,0,0
0.039940811999258585,0.24660277099609373,-0.7781155395507812,-9.121908325195312,0,0,0,0
0.04109911299019586,0.24660277099609373,-0.8451531860351562,-9.129090930175781,0,0,0,0
0.042734685994219035,0.3184288208007812,-0.9097966308593749,-9.150638745117186,0,0,0,0
0.04394039299222641,0.3399766357421875,-0.7685387329101562,-9.145850341796875,0,0,0,0
0.045083841992891394,0.181959326171875,-0.7733271362304687,-9.028534460449219,0,0,0,0
0.04615816299337894,0.37828386230468747,-0.7685387329101562,-8.99501563720703,0,0,0,0
0.04724342699046247,0.2753331909179687,-0.7517793212890624,-9.083601098632812,0,0,0,0
0.04833341400080826,0.3016694091796875,-0.7948749511718749,-9.050082275390624,0,0,0,0
0.0495664729969576,0.29927520751953124,-0.8499415893554687,-9.07163009033203,0,0,0,0
0.050678589002927765,0.24660277099609373,-0.8379705810546875,-9.05965908203125,0,0,0,0
0.051754521002294496,0.26815058593749996,-0.8164227661132812,-9.050082275390624,0,0,0,0
0.0528199889959069,0.316034619140625,-0.8092401611328125,-9.119514123535156,0,0,0,0
0.05388440199021716,0.3016694091796875,-0.7685387329101562,-9.107543115234375,0,0,0,0
0.05515486799413338,0.2920926025390625,-0.7900865478515624,-9.100360510253905,0,0,0,0
0.05631922499742359,0.28012159423828126,-0.8379705810546875,-9.191340173339842,0,0,0,0
0.057543228002032265,0.28730419921875,-0.8283937744140625,-9.074024291992187,0,0,0,0
0.05877163900004234,0.2346317626953125,-0.8475473876953125,-9.057264880371093,0,0,0,0
0.05999036499997601,0.13168109130859373,-0.8092401611328125,-9.09796630859375,0,0,0,0
0.06118520299787633,0.3495534423828125,-0.8068459594726562,-9.083601098632812,0,0,0,0
0.06228170800022781,0.3016694091796875,-0.7781155395507812,-9.074024291992187,0,0,0,0
0.06339495399151929,0.3136404174804687,-0.8188169677734375,-9.14824454345703,0,0,0,0
0.0644790149963228,0.34237083740234375,-0.7852981445312499,-9.119514123535156,0,0,0,0
0.06556544599879999,0.296881005859375,-0.7326257080078125,-9.09796630859375,0,0,0,0
0.06677372800186276,0.258573779296875,-0.7924807495117187,-9.076418493652342,0,0,0,0
0.06794843600073364,0.29927520751953124,-0.7900865478515624,-9.145850341796875,0,0,0,0
0.06902855199587066,0.38786066894531246,-0.8786720092773437,-9.138667736816405,0,0,0,0
0.0700984650029568,0.28490999755859375,-0.82360537109375,-9.131485131835937,0,0,0,0
0.07129961700411513,0.32561142578124996,-0.7781155395507812,-9.083601098632812,0,0,0,0
0.07247188099427149,0.29927520751953124,-0.7685387329101562,-9.066841687011719,0,0,0,0
0.07356177500332706,0.3806780639648437,-0.7852981445312499,-9.124302526855468,0,0,0,0
0.07464715099195018,0.3112462158203125,-0.8212111694335937,-9.10993731689453,0,0,0,0
0.07580322900321335,0.2537853759765625,-0.7900865478515624,-9.062053283691405,0,0,0,0
0.07698773300216999,0.3232172241210937,-0.7924807495117187,-9.014169250488282,0,0,0,0
0.07814114500069991,0.258573779296875,-0.8858546142578124,-9.100360510253905,0,0,0,0
0.07923552099964581,0.33518823242187495,-0.8714894042968749,-9.191340173339842,0,0,0,0
0.08030195199535228,0.33039982910156246,-0.82360537109375,-9.121908325195312,0,0,0,0
0.08188072999473661,0.18914193115234373,-0.7517793212890624,-9.119514123535156,0,0,0,0
0.08330702700186521,0.25139117431640623,-0.7661445312499999,-9.153032946777342,0,0,0,0
0.08505580200289842,0.2609679809570312,-0.8475473876953125,-9.090783703613281,0,0,0,0
0.08643930399557576,0.23702596435546874,-0.8738836059570312,-9.050082275390624,0,0,0,0
0.08758308600226883,0.3854664672851562,-0.7900865478515624,-8.987833032226561,0,0,0,0
0.08865092499763705,0.32082302246093747,-0.7637503295898437,-9.004592443847656,0,0,0,0
0.08971770899370313,0.3495534423828125,-0.7398083129882812,-9.047688073730468,0,0,0,0
0.09124820899160113,0.26336218261718747,-0.833182177734375,-9.07163009033203,0,0,0,0
0.09329316500225104,0.25139117431640623,-0.82360537109375,-9.085995300292968,0,0,0,0
0.09478405499248765,0.34715924072265625,-0.9097966308593749,-9.038111267089842,0,0,0,0
0.09664893899753224,0.34237083740234375,-0.8714894042968749,-9.030928662109375,0,0,0,0
0.09784759199828841,0.2705447875976562,-0.8044517578125,-8.95670841064453,0,0,0,0
0.09898376300407108,0.2825157958984375,-0.7589619262695312,-9.09796630859375,0,0,0,0
0.10010902700014412,0.2705447875976562,-0.8930372192382812,-9.090783703613281,0,0,0,0
0.1011915879935259,0.316034619140625,-0.833182177734375,-8.999804040527343,0,0,0,0
0.102643848003936,0.35194764404296874,-0.7948749511718749,-9.066841687011719,0,0,0,0
0.1040723309997702,0.36152445068359373,-0.7517793212890624,-9.054870678710937,0,0,0,0
0.10515322499850299,0.30406361083984373,-0.8212111694335937,-9.112331518554686,0,0,0,0
0.10700905499106739,0.41419688720703124,-0.8690952026367187,-9.054870678710937,0,0,0,0
0.10851568399812095,0.34237083740234375,-0.7805097412109374,-9.05965908203125,0,0,0,0
0.11001951800426468,0.3184288208007812,-0.8307879760742187,-9.02135185546875,0,0,0,0
0.11156444399966858,0.29927520751953124,-0.7876923461914062,-8.973467822265624,0,0,0,0
0.11274694799794815,0.1580173095703125,-0.7805097412109374,-9.0788126953125,0,0,0,0
0.11420506000285968,0.22744915771484372,-0.814028564453125,-9.042899670410156,0,0,0,0
0.11532854600227438,0.26336218261718747,-0.7900865478515624,-9.04050546875,0,0,0,0
0.1164534589916002,0.28969840087890625,-0.7757213378906249,-9.107543115234375,0,0,0,0
0.11754109399043955,0.3136404174804687,-0.7637503295898437,-9.085995300292968,0,0,0,0
0.11868307999975514,0.3399766357421875,-0.699106884765625,-9.006986645507812,0,0,0,0
0.12004711899498943,0.28490999755859375,-0.7685387329101562,-9.030928662109375,0,0,0,0
0.12125302999629639,0.2753331909179687,-0.7972691528320313,-9.13627353515625,0,0,0,0
0.12246827500348445,0.201112939453125,-0.8355763793945312,-9.153032946777342,0,0,0,0
0.12375920299382415,0.2705447875976562,-0.9050082275390624,-9.030928662109375,0,0,0,0
0.1251088169956347,0.3399766357421875,-0.7589619262695312,-9.035717065429687,0,0,0,0
0.1262386919988785,0.3327940307617187,-0.7996633544921875,-9.102754711914063,0,0,0,0
0.12733401199511718,0.3854664672851562,-0.814028564453125,-9.119514123535156,0,0,0,0
0.12849420099519193,0.277727392578125,-0.7852981445312499,-8.901641772460938,0,0,0,0
0.1296520949981641,0.25139117431640623,-0.8068459594726562,-9.038111267089842,0,0,0,0
0.13074319300358184,0.2705447875976562,-0.8259995727539062,-9.054870678710937,0,0,0,0
0.13183136499719694,0.21068974609375,-0.842758984375,-9.102754711914063,0,0,0,0
0.13291527799447067,0.277727392578125,-0.7948749511718749,-9.09796630859375,0,0,0,0
0.1340674120001495,0.3399766357421875,-0.82360537109375,-9.100360510253905,0,0,0,0
0.1352184529969236,0.3399766357421875,-0.7565677246093749,-9.14824454345703,0,0,0,0
0.13630562499747612,0.3136404174804687,-0.7350199096679687,-9.129090930175781,0,0,0,0
0.13739620499836747,0.2705447875976562,-0.8212111694335937,-9.088389501953124,0,0,0,0
0.13848365399462637,0.3184288208007812,-0.8164227661132812,-9.14824454345703,0,0,0,0
0.13963540000258945,0.28490999755859375,-0.8379705810546875,-9.047688073730468,0,0,0,0
0.1407830149983056,0.22266075439453123,-0.8307879760742187,-9.124302526855468,0,0,0,0
0.14187294700241182,0.30885201416015623,-0.8068459594726562,-9.133879333496093,0,0,0,0
0.1429826929961564,0.36152445068359373,-0.833182177734375,-9.100360510253905,0,0,0,0
0.14413365999644157,0.22505495605468748,-0.8451531860351562,-9.081206896972656,0,0,0,0
0.14527775699389167,0.2537853759765625,-0.8643067993164062,-9.074024291992187,0,0,0,0
0.1463699110026937,0.30885201416015623,-0.8355763793945312,-9.167398156738281,0,0,0,0
0.14745752699673176,0.28012159423828126,-0.8116343627929687,-9.176974963378905,0,0,0,0
0.148540680995211,0.28969840087890625,-0.7948749511718749,-9.02135185546875,0,0,0,0
0.14962533400102984,0.2705447875976562,-0.7757213378906249,-9.03332286376953,0,0,0,0
0.15079124599287752,0.25139117431640623,-0.8068459594726562,-9.052476477050782,0,0,0,0
0.15192771400325,0.24660277099609373,-0.8068459594726562,-9.062053283691405,0,0,0,0
0.15301929299312178,0.23702596435546874,-0.7589619262695312,-9.1554271484375,0,0,0,0
0.15450460799911525,0.34237083740234375,-0.8068459594726562,-9.160215551757812,0,0,0,0
0.15645545499864966,0.39983167724609375,-0.7900865478515624,-9.05965908203125,0,0,0,0
0.15840894999564625,0.296881005859375,-0.7733271362304687,-9.050082275390624,0,0,0,0
0.16069547799997963,0.229843359375,-0.8307879760742187,-9.026140258789061,0,0,0,0
0.16315261500130873,0.3112462158203125,-0.7781155395507812,-8.968679418945312,0,0,0,0
0.16429811899433844,0.34237083740234375,-0.8259995727539062,-9.0021982421875,0,0,0,0
0.1653853649913799,0.3591302490234375,-0.7613561279296874,-9.042899670410156,0,0,0,0
0.16659133200300857,0.239420166015625,-0.8188169677734375,-9.100360510253905,0,0,0,0
0.16777663299581036,0.3112462158203125,-0.8379705810546875,-9.09796630859375,0,0,0,0
0.1688680819934234,0.258573779296875,-0.8954314208984374,-9.03332286376953,0,0,0,0
0.1699498840025626,0.22266075439453123,-0.7709329345703124,-9.04050546875,0,0,0,0
0.1710353149974253,0.4285620971679687,-0.7757213378906249,-9.083601098632812,0,0,0,0
0.17223131899663713,0.2609679809570312,-0.7709329345703124,-9.0788126953125,0,0,0,0
0.17344078599126078,0.32561142578124996,-0.7493851196289062,-8.971073620605468,0,0,0,0
0.17453182899043895,0.239420166015625,-0.7924807495117187,-9.064447485351561,0,0,0,0
0.17565816699061543,0.28969840087890625,-0.7996633544921875,-9.10993731689453,0,0,0,0
0.17674587600049563,0.24899697265624998,-0.8020575561523438,-9.052476477050782,0,0,0,0
0.17782927000371274,0.32561142578124996,-0.7709329345703124,-9.045293872070312,0,0,0,0
0.1790546260017436,0.17956512451171874,-0.7350199096679687,-9.165003955078124,0,0,0,0
0.18024596299801487,0.29927520751953124,-0.7589619262695312,-9.107543115234375,0,0,0,0
0.18133613499230705,0.24660277099609373,-0.7924807495117187,-9.047688073730468,0,0,0,0
0.18242014000134077,0.2537853759765625,-0.7948749511718749,-8.997409838867187,0,0,0,0
0.18352294199576136,0.21308394775390624,-0.8020575561523438,-9.162609753417968,0,0,0,0
0.1846150210039923,0.3184288208007812,-0.7852981445312499,-9.10993731689453,0,0,0,0
0.18631229699531104,0.3495534423828125,-0.7757213378906249,-9.088389501953124,0,0,0,0
0.18762342899572104,0.26815058593749996,-0.86191259765625,-9.198522778320312,0,0,0,0
0.1889476719952654,0.18914193115234373,-0.8283937744140625,-9.1554271484375,0,0,0,0
0.19005258499237243,0.29927520751953124,-0.8116343627929687,-9.143456140136719,0,0,0,0
0.1911636639997596,0.3016694091796875,-0.7493851196289062,-9.028534460449219,0,0,0,0
0.19235227900207974,0.33518823242187495,-0.814028564453125,-9.035717065429687,0,0,0,0
0.19353022800351027,0.3280056274414062,-0.7757213378906249,-8.954314208984375,0,0,0,0
0.19461849199433345,0.22505495605468748,-0.7661445312499999,-8.954314208984375,0,0,0,0
0.1959025690011913,0.29927520751953124,-0.8690952026367187,-9.028534460449219,0,0,0,0
0.19709218500065617,0.30406361083984373,-0.82360537109375,-9.100360510253905,0,0,0,0
0.19834009499754757,0.28969840087890625,-0.8092401611328125,-9.133879333496093,0,0,0,0
0.19953341399377678,0.3232172241210937,-0.7685387329101562,-9.0788126953125,0,0,0,0
0.2006239009933779,0.3280056274414062,-0.7685387329101562,-9.085995300292968,0,0,0,0
0.2017037949990481,0.25139117431640623,-0.7733271362304687,-9.09796630859375,0,0,0,0
0.2027835229964694,0.29927520751953124,-0.7685387329101562,-9.035717065429687,0,0,0,0
0.2040058419952402,0.23223756103515625,-0.8786720092773437,-9.03332286376953,0,0,0,0
0.20515903100022115,0.3495534423828125,-0.8116343627929687,-9.112331518554686,0,0,0,0
0.20628640700306278,0.28490999755859375,-0.7613561279296874,-9.035717065429687,0,0,0,0
0.20739344900357537,0.3112462158203125,-0.7565677246093749,-9.052476477050782,0,0,0,0
0.2084903060022043,0.2657563842773437,-0.7493851196289062,-9.172186560058593,0,0,0,0
0.20969249500194564,0.239420166015625,-0.7805097412109374,-9.069235888671875,0,0,0,0
0.2108737399976235,0.3758896606445312,-0.8188169677734375,-9.07163009033203,0,0,0,0
0.21196981899265666,0.2705447875976562,-0.8547299926757812,-9.114725720214842,0,0,0,0
0.21305671299342066,0.17956512451171874,-0.7613561279296874,-9.133879333496093,0,0,0,0
0.21425856900168583,0.3327940307617187,-0.7733271362304687,-9.160215551757812,0,0,0,0
0.21575692099577282,0.39264907226562495,-0.7230489013671875,-9.169792358398437,0,0,0,0
0.21685798199905548,0.3399766357421875,-0.7900865478515624,-9.05965908203125,0,0,0,0
0.2179507469991222,0.22505495605468748,-0.8499415893554687,-8.961496813964843,0,0,0,0
0.21911202899354976,0.2346317626953125,-0.8355763793945312,-8.992621435546875,0,0,0,0
0.2207198980031535,0.2657563842773437,-0.8451531860351562,-9.102754711914063,0,0,0,0
0.22198266099439934,0.2920926025390625,-0.7781155395507812,-9.114725720214842,0,0,0,0
0.22336451399314683,0.3232172241210937,-0.82360537109375,-9.030928662109375,0,0,0,0
0.22453027799201664,0.354341845703125,-0.8212111694335937,-9.095572106933593,0,0,0,0
0.22569374500017148,0.3064578125,-0.7805097412109374,-9.081206896972656,0,0,0,0
0.2273409659974277,0.239420166015625,-0.82360537109375,-9.081206896972656,0,0,0,0
0.22858293299213983,0.23223756103515625,-0.8499415893554687,-9.167398156738281,0,0,0,0
0.22980002900294494,0.28969840087890625,-0.7924807495117187,-9.10993731689453,0,0,0,0
0.23099603300215676,0.4525041137695312,-0.7781155395507812,-9.07163009033203,0,0,0,0
0.2324617929989472,0.21068974609375,-0.8020575561523438,-8.923189587402343,0,0,0,0
0.23359035300381947,0.29927520751953124,-0.7924807495117187,-9.011775048828124,0,0,0,0
0.23478667199378833,0.22266075439453123,-0.8116343627929687,-9.03332286376953,0,0,0,0
0.23592595499940217,0.30885201416015623,-0.7709329345703124,-9.057264880371093,0,0,0,0
0.23701886700291652,0.17956512451171874,-0.8044517578125,-9.05965908203125,0,0,0,0
0.23810889100423083,0.25139117431640623,-0.7996633544921875,-9.105148913574219,0,0,0,0
0.23927048800396733,0.2442085693359375,-0.8643067993164062,-9.035717065429687,0,0,0,0
0.24058028699073475,0.2753331909179687,-0.8283937744140625,-9.102754711914063,0,0,0,0
0.2417146439984208,0.3016694091796875,-0.8020575561523438,-9.038111267089842,0,0,0,0
0.24280183399969246,0.36391865234375,-0.8571241943359375,-9.026140258789061,0,0,0,0
0.24387706199195236,0.29927520751953124,-0.7757213378906249,-9.0788126953125,0,0,0,0
0.24504273300408386,0.44532150878906246,-0.7637503295898437,-9.028534460449219,0,0,0,0
0.2461701269930927,0.20350714111328125,-0.8403647827148437,-9.100360510253905,0,0,0,0
0.24769416399067268,0.2346317626953125,-0.8690952026367187,-9.112331518554686,0,0,0,0
0.24882133500068448,0.2059013427734375,-0.8834604125976562,-9.114725720214842,0,0,0,0
0.24991021100140642,0.3591302490234375,-0.8283937744140625,-9.052476477050782,0,0,0,0
0.25150250700244214,0.33518823242187495,-0.7948749511718749,-8.930372192382812,0,0,0,0
0.2527057510014856,0.373495458984375,-0.9097966308593749,-9.117119921875,0,0,0,0
0.25379175700072665,0.29927520751953124,-0.7637503295898437,-9.045293872070312,0,0,0,0
0.2548753549926914,0.26815058593749996,-0.833182177734375,-9.0021982421875,0,0,0,0
0.25595772999804467,0.2442085693359375,-0.8667010009765624,-9.126696728515624,0,0,0,0
0.2575039340008516,0.36152445068359373,-0.7876923461914062,-9.172186560058593,0,0,0,0
0.2586965859954944,0.30885201416015623,-0.6464344482421874,-8.971073620605468,0,0,0,0
0.2597946280002361,0.316034619140625,-0.8954314208984374,-8.990227233886719,0,0,0,0
0.26087744800315704,0.3136404174804687,-0.7302315063476562,-8.95670841064453,0,0,0,0
0.2625390759931179,0.2657563842773437,-0.8379705810546875,-9.0788126953125,0,0,0,0
0.2636962849937845,0.23223756103515625,-0.7805097412109374,-8.975862023925782,0,0,0,0
0.26477253099437803,0.239420166015625,-0.86191259765625,-9.09796630859375,0,0,0,0
0.2658396289916709,0.258573779296875,-0.7829039428710937,-9.006986645507812,0,0,0,0
0.2669089489936596,0.44532150878906246,-0.7805097412109374,-9.107543115234375,0,0,0,0
0.2692394030018477,0.32561142578124996,-0.7805097412109374,-9.112331518554686,0,0,0,0
0.2704470729950117,0.19393033447265623,-0.7996633544921875,-9.074024291992187,0,0,0,0
0.27159200399182737,0.24660277099609373,-0.86191259765625,-9.198522778320312,0,0,0,0
0.27268443499633577,0.26815058593749996,-0.814028564453125,-9.162609753417968,0,0,0,0
0.27425885999400634,0.3232172241210937,-0.8020575561523438,-9.03332286376953,0,0,0,0
0.2769921790022636,0.4165910888671875,-0.7709329345703124,-9.129090930175781,0,0,0,0
0.27824564499314874,0.22744915771484372,-0.8164227661132812,-9.081206896972656,0,0,0,0
0.2794641859945841,0.23223756103515625,-0.7661445312499999,-9.088389501953124,0,0,0,0
0.2806735049962299,0.23223756103515625,-0.8188169677734375,-9.121908325195312,0,0,0,0
0.28184008300013375,0.3327940307617187,-0.8164227661132812,-9.102754711914063,0,0,0,0
0.2829902910016244,0.2920926025390625,-0.814028564453125,-9.121908325195312,0,0,0,0
0.2840819819975877,0.28969840087890625,-0.7541735229492187,-9.081206896972656,0,0,0,0
0.28531359699263703,0.27293898925781246,-0.74699091796875,-9.083601098632812,0,0,0,0
0.28648165699269157,0.28969840087890625,-0.7781155395507812,-9.076418493652342,0,0,0,0
0.2876674939907389,0.3232172241210937,-0.8547299926757812,-9.143456140136719,0,0,0,0
0.2887601099937456,0.2346317626953125,-0.8690952026367187,-9.157821350097656,0,0,0,0
0.28984485600085463,0.296881005859375,-0.8068459594726562,-9.04050546875,0,0,0,0
0.2910440639971057,0.258573779296875,-0.8116343627929687,-9.129090930175781,0,0,0,0
0.2922163649927825,0.29927520751953124,-0.7326257080078125,-9.090783703613281,0,0,0,0
0.2933107589924475,0.3112462158203125,-0.7350199096679687,-9.016563452148437,0,0,0,0
0.2943931159970816,0.2657563842773437,-0.842758984375,-9.141061938476563,0,0,0,0
0.2954836209974019,0.38786066894531246,-0.86191259765625,-9.095572106933593,0,0,0,0
0.2966790329955984,0.28969840087890625,-0.8068459594726562,-9.081206896972656,0,0,0,0
0.2979219440021552,0.30406361083984373,-0.7661445312499999,-9.09796630859375,0,0,0,0
0.29912246599269565,0.277727392578125,-0.7876923461914062,-9.126696728515624,0,0,0,0
0.3002191379928263,0.3327940307617187,-0.8307879760742187,-9.143456140136719,0,0,0,0
0.3013927349966252,0.33758243408203126,-0.7326257080078125,-8.966285217285156,0,0,0,0
0.30254207299731206,0.2154781494140625,-0.7398083129882812,-8.932766394042968,0,0,0,0
0.3036382629943546,0.16280571289062498,-0.8164227661132812,-9.114725720214842,0,0,0,0
0.3047215650003636,0.2705447875976562,-0.6607996582031249,-9.045293872070312,0,0,0,0
0.30580627400195226,0.21787235107421873,-0.8882488159179687,-9.057264880371093,0,0,0,0
0.30699627799913287,0.201112939453125,-0.82360537109375,-9.117119921875,0,0,0,0
0.30825366999488324,0.28730419921875,-0.814028564453125,-9.112331518554686,0,0,0,0
0.3095437470037723,0.2705447875976562,-0.7661445312499999,-9.02135185546875,0,0,0,0
0.31084726899280213,0.2920926025390625,-0.7781155395507812,-9.114725720214842,0,0,0,0
0.3120393839926692,0.22266075439453123,-0.8379705810546875,-9.052476477050782,0,0,0,0
0.31346579200180713,0.33039982910156246,-0.8475473876953125,-8.997409838867187,0,0,0,0
0.31488240500038955,0.28730419921875,-0.7757213378906249,-9.074024291992187,0,0,0,0
0.316172908002045,0.3399766357421875,-0.7948749511718749,-9.062053283691405,0,0,0,0
0.3173528379993513,0.20829554443359374,-0.8547299926757812,-9.07163009033203,0,0,0,0
0.31859597099537496,0.3016694091796875,-0.8379705810546875,-8.91840118408203,0,0,0,0
0.3200139910040889,0.3064578125,-0.7637503295898437,-9.04050546875,0,0,0,0
0.3213035859953379,0.22505495605468748,-0.7948749511718749,-9.105148913574219,0,0,0,0
0.32278269800008275,0.21308394775390624,-0.8403647827148437,-9.09796630859375,0,0,0,0
0.324231050995877,0.2705447875976562,-0.8283937744140625,-9.038111267089842,0,0,0,0
0.32537727800081484,0.28012159423828126,-0.8164227661132812,-9.05965908203125,0,0,0,0
0.3269492029940011,0.17956512451171874,-0.7733271362304687,-8.975862023925782,0,0,0,0
0.3281335959909484,0.28490999755859375,-0.7829039428710937,-8.959102612304687,0,0,0,0
0.32941287699213717,0.3064578125,-0.842758984375,-8.973467822265624,0,0,0,0
0.3305761959927622,0.33518823242187495,-0.8475473876953125,-9.02135185546875,0,0,0,0
0.33186316199135035,0.22744915771484372,-0.8834604125976562,-9.054870678710937,0,0,0,0
0.33299544399778824,0.19153613281249998,-0.852335791015625,-9.062053283691405,0,0,0,0
0.33425317000364885,0.24660277099609373,-0.7589619262695312,-9.026140258789061,0,0,0,0
0.3354282849904848,0.258573779296875,-0.7661445312499999,-9.066841687011719,0,0,0,0
0.33652421699662227,0.34237083740234375,-0.7924807495117187,-8.963891015625,0,0,0,0
0.33775029399839696,0.2537853759765625,-0.7661445312499999,-9.016563452148437,0,0,0,0
0.3389504649967421,0.42377369384765623,-0.7541735229492187,-9.006986645507812,0,0,0,0
0.3401700609974796,0.33039982910156246,-0.7637503295898437,-9.081206896972656,0,0,0,0
0.34137769500375725,0.3280056274414062,-0.7829039428710937,-9.05965908203125,0,0,0,0
0.34249579199240543,0.2537853759765625,-0.7829039428710937,-9.095572106933593,0,0,0,0
0.3436574999941513,0.3711012573242187,-0.9169792358398436,-9.133879333496093,0,0,0,0
0.34483481899951585,0.34237083740234375,-0.8307879760742187,-9.150638745117186,0,0,0,0
0.34607698999752756,0.3184288208007812,-0.8020575561523438,-9.133879333496093,0,0,0,0
0.3472797339927638,0.2609679809570312,-0.8092401611328125,-9.141061938476563,0,0,0,0
0.34836746199289337,0.26336218261718747,-0.8092401611328125,-9.095572106933593,0,0,0,0
0.3495963360037422,0.36631285400390623,-0.814028564453125,-9.090783703613281,0,0,0,0
0.3507873579947045,0.2920926025390625,-0.7685387329101562,-9.026140258789061,0,0,0,0
0.35206923200166784,0.28730419921875,-0.7326257080078125,-9.062053283691405,0,0,0,0
0.3532390689942986,0.2442085693359375,-0.7948749511718749,-9.052476477050782,0,0,0,0
0.3543301860045176,0.296881005859375,-0.8020575561523438,-9.057264880371093,0,0,0,0
0.3555359299934935,0.19871873779296872,-0.8283937744140625,-9.05965908203125,0,0,0,0
0.3567839519964764,0.22026655273437498,-0.7661445312499999,-9.090783703613281,0,0,0,0
0.35798897499626037,0.2561795776367187,-0.7876923461914062,-9.050082275390624,0,0,0,0
0.3592832549911691,0.3591302490234375,-0.7565677246093749,-9.04050546875,0,0,0,0
0.3604152229963802,0.2561795776367187,-0.8475473876953125,-8.923189587402343,0,0,0,0
0.36160763500083704,0.28490999755859375,-0.9265560424804687,-9.124302526855468,0,0,0,0
0.36285974900238216,0.2657563842773437,-0.8164227661132812,-9.112331518554686,0,0,0,0
0.36405384600220714,0.316034619140625,-0.8643067993164062,-9.085995300292968,0,0,0,0
0.36527547899459023,0.35194764404296874,-0.7924807495117187,-9.074024291992187,0,0,0,0
0.366380613995716,0.32561142578124996,-0.8020575561523438,-9.138667736816405,0,0,0,0
0.3677936339954613,0.35194764404296874,-0.8786720092773437,-9.141061938476563,0,0,0,0
0.3692230610031402,0.277727392578125,-0.8834604125976562,-9.176974963378905,0,0,0,0
0.3705091379961232,0.2561795776367187,-0.8379705810546875,-9.088389501953124,0,0,0,0
0.3717146419949131,0.21068974609375,-0.8403647827148437,-9.153032946777342,0,0,0,0
0.37294401599501725,0.3327940307617187,-0.8595183959960937,-9.095572106933593,0,0,0,0
0.37479169700236525,0.277727392578125,-0.7158662963867187,-8.954314208984375,0,0,0,0
0.37611905099765863,0.2537853759765625,-0.7661445312499999,-8.870517150878905,0,0,0,0
0.3772980740031926,0.29927520751953124,-0.8068459594726562,-8.98304462890625,0,0,0,0
0.37846476399863604,0.3136404174804687,-0.7876923461914062,-9.133879333496093,0,0,0,0
0.3807851059973473,0.373495458984375,-0.7948749511718749,-9.05965908203125,0,0,0,0
0.38201596100407187,0.36152445068359373,-0.7685387329101562,-8.947131604003905,0,0,0,0
0.3831414290034445,0.3591302490234375,-0.7517793212890624,-9.052476477050782,0,0,0,0
0.3842280090029817,0.2442085693359375,-0.842758984375,-9.105148913574219,0,0,0,0
0.38551123399520293,0.3112462158203125,-0.7948749511718749,-9.07163009033203,0,0,0,0
0.38677508899127133,0.26336218261718747,-0.8571241943359375,-9.054870678710937,0,0,0,0
0.3879347600013716,0.21308394775390624,-0.8355763793945312,-9.107543115234375,0,0,0,0
0.38901639499817975,0.3016694091796875,-0.8044517578125,-9.03332286376953,0,0,0,0
0.39009171500219963,0.36152445068359373,-0.7661445312499999,-8.963891015625,0,0,0,0
0.39130458899307996,0.35673604736328124,-0.7637503295898437,-9.0788126953125,0,0,0,0
0.392487685996457,0.3016694091796875,-0.7876923461914062,-9.0788126953125,0,0,0,0
0.39358337699377444,0.17477672119140625,-0.8212111694335937,-9.102754711914063,0,0,0,0
0.39466921499115415,0.28730419921875,-0.7996633544921875,-9.035717065429687,0,0,0,0
0.39574873899982776,0.28490999755859375,-0.7876923461914062,-9.04050546875,0,0,0,0
0.3970913529919926,0.3064578125,-0.852335791015625,-9.076418493652342,0,0,0,0
0.3983189299906371,0.3184288208007812,-0.8451531860351562,-9.088389501953124,0,0,0,0
0.39946065699041355,0.29448680419921874,-0.8188169677734375,-9.066841687011719,0,0,0,0
0.40055686599225737,0.3064578125,-0.8307879760742187,-8.990227233886719,0,0,0,0
0.40164476000063587,0.33039982910156246,-0.9145850341796874,-8.985438830566405,0,0,0,0
0.40287526400061324,0.28969840087890625,-0.8020575561523438,-8.997409838867187,0,0,0,0
0.404046693991404,0.239420166015625,-0.8355763793945312,-9.035717065429687,0,0,0,0
0.4051429770042887,0.28012159423828126,-0.8283937744140625,-9.057264880371093,0,0,0,0
0.40622763099963777,0.26336218261718747,-0.842758984375,-9.038111267089842,0,0,0,0
0.4073151729971869,0.19871873779296872,-0.842758984375,-9.018957653808593,0,0,0,0
0.4085799169988604,0.32082302246093747,-0.7589619262695312,-9.143456140136719,0,0,0,0
0.4098639019939583,0.30885201416015623,-0.8212111694335937,-9.121908325195312,0,0,0,0
0.41107742399617564,0.3327940307617187,-0.7924807495117187,-9.09796630859375,0,0,0,0
0.41217841100296937,0.32082302246093747,-0.8116343627929687,-9.035717065429687,0,0,0,0
0.4135890049947193,0.2920926025390625,-0.8643067993164062,-9.038111267089842,0,0,0,0
0.414864377991762,0.24181436767578124,-0.7996633544921875,-9.038111267089842,0,0,0,0
0.4160323639953276,0.28012159423828126,-0.8164227661132812,-9.167398156738281,0,0,0,0
0.4171229619969381,0.3687070556640625,-0.7876923461914062,-9.133879333496093,0,0,0,0
0.4182820769929094,0.3136404174804687,-0.7493851196289062,-9.124302526855468,0,0,0,0
0.41963235699222423,0.21308394775390624,-0.8307879760742187,-9.076418493652342,0,0,0,0
0.42092174899880774,0.40462008056640625,-0.833182177734375,-9.102754711914063,0,0,0,0
0.4221847339940723,0.33758243408203126,-0.7996633544921875,-9.074024291992187,0,0,0,0
0.4234517549921293,0.32082302246093747,-0.814028564453125,-9.191340173339842,0,0,0,0
0.42469011100183707,0.30406361083984373,-0.8858546142578124,-8.985438830566405,0,0,0,0
0.42587137399823405,0.3758896606445312,-0.8020575561523438,-9.009380847167968,0,0,0,0
0.4270720999920741,0.277727392578125,-0.8283937744140625,-9.009380847167968,0,0,0,0
0.42848302799393423,0.229843359375,-0.8020575561523438,-9.126696728515624,0,0,0,0
0.42982078899513,0.3184288208007812,-0.74699091796875,-9.145850341796875,0,0,0,0
0.43102549700415693,0.32561142578124996,-0.7661445312499999,-9.138667736816405,0,0,0,0
0.43220481599564664,0.34715924072265625,-0.7326257080078125,-9.100360510253905,0,0,0,0
0.4334478929959005,0.2609679809570312,-0.7996633544921875,-9.129090930175781,0,0,0,0
0.43482348800171167,0.3184288208007812,-0.8690952026367187,-9.10993731689453,0,0,0,0
0.4361464160028845,0.32082302246093747,-0.8475473876953125,-9.133879333496093,0,0,0,0
0.4374668630043743,0.35673604736328124,-0.8283937744140625,-9.081206896972656,0,0,0,0
0.4388746420008829,0.45010991210937495,-0.7350199096679687,-9.0021982421875,0,0,0,0
0.4404313269915292,0.201112939453125,-0.7948749511718749,-8.947131604003905,0,0,0,0
0.4416594609938329,0.2753331909179687,-0.8379705810546875,-9.014169250488282,0,0,0,0
0.44321012699219864,0.3016694091796875,-0.7948749511718749,-9.028534460449219,0,0,0,0
0.44467910900129937,0.3399766357421875,-0.9145850341796874,-9.016563452148437,0,0,0,0
0.4460923509905115,0.2753331909179687,-0.8092401611328125,-9.045293872070312,0,0,0,0
0.44733539200387895,0.2609679809570312,-0.82360537109375,-9.04050546875,0,0,0,0
0.4488513919932302,0.19393033447265623,-0.7805097412109374,-9.054870678710937,0,0,0,0
0.45031781899160706,0.34237083740234375,-0.7709329345703124,-9.095572106933593,0,0,0,0
0.45154869300313294,0.354341845703125,-0.737414111328125,-9.009380847167968,0,0,0,0
0.45271782600320876,0.24660277099609373,-0.6464344482421874,-8.985438830566405,0,0,0,0
0.4541612350003561,0.22026655273437498,-0.82360537109375,-9.124302526855468,0,0,0,0
0.4556028469960438,0.296881005859375,-0.814028564453125,-9.100360510253905,0,0,0,0
0.4570419219962787,0.3184288208007812,-0.7852981445312499,-9.042899670410156,0,0,0,0
0.45871758699649945,0.28012159423828126,-0.8475473876953125,-9.129090930175781,0,0,0,0
0.4611649650032632,0.33758243408203126,-0.7996633544921875,-9.085995300292968,0,0,0,0
0.46411044799606316,0.26336218261718747,-0.814028564453125,-9.069235888671875,0,0,0,0
0.4655751340033021,0.26815058593749996,-0.8092401611328125,-9.026140258789061,0,0,0,0
0.466749526996864,0.3711012573242187,-0.852335791015625,-9.121908325195312,0,0,0,0
0.4678787540033227,0.29927520751953124,-0.7852981445312499,-9.105148913574219,0,0,0,0
0.46897383299074136,0.45489831542968745,-0.8355763793945312,-9.07163009033203,0,0,0,0
0.47015370799636,0.354341845703125,-0.7685387329101562,-9.066841687011719,0,0,0,0
0.47135848899779376,0.3495534423828125,-0.7781155395507812,-9.011775048828124,0,0,0,0
0.4725193640042562,0.26336218261718747,-0.8188169677734375,-9.160215551757812,0,0,0,0
0.4736391649930738,0.277727392578125,-0.8020575561523438,-9.069235888671875,0,0,0,0
0.474804965997464,0.2442085693359375,-0.8283937744140625,-9.014169250488282,0,0,0,0
0.4758966569934273,0.29927520751953124,-0.8451531860351562,-9.107543115234375,0,0,0,0
0.4770613279979443,0.3902548706054687,-0.7876923461914062,-9.014169250488282,0,0,0,0
0.478222461999394,0.32561142578124996,-0.8259995727539062,-8.990227233886719,0,0,0,0
0.47933798500162084,0.316034619140625,-0.814028564453125,-9.133879333496093,0,0,0,0
0.48052521199861076,0.2753331909179687,-0.842758984375,-9.1554271484375,0,0,0,0
0.48162108699034434,0.2920926025390625,-0.8212111694335937,-8.978256225585938,0,0,0,0
0.4829953479929827,0.3064578125,-0.8283937744140625,-9.064447485351561,0,0,0,0
0.4841683529957663,0.2657563842773437,-0.8212111694335937,-9.157821350097656,0,0,0,0
0.48527372800162993,0.27293898925781246,-0.8307879760742187,-9.07163009033203,0,0,0,0
0.48648491699714214,0.2442085693359375,-0.86191259765625,-9.124302526855468,0,0,0,0
0.4876338659960311,0.3327940307617187,-0.9002198242187499,-9.006986645507812,0,0,0,0
0.48880911100422964,0.29448680419921874,-0.7900865478515624,-9.038111267089842,0,0,0,0
0.48994896799558774,0.39264907226562495,-0.8092401611328125,-9.066841687011719,0,0,0,0
0.49104271399846766,0.2561795776367187,-0.7876923461914062,-9.114725720214842,0,0,0,0
0.4922255510027753,0.3016694091796875,-0.8092401611328125,-9.117119921875,0,0,0,0
0.4933386119955685,0.35194764404296874,-0.7805097412109374,-9.179369165039063,0,0,0,0
0.4945459309965372,0.3064578125,-0.7757213378906249,-9.047688073730468,0,0,0,0
0.4956652129912982,0.30885201416015623,-0.9193734375,-8.992621435546875,0,0,0,0
0.4967492739961017,0.28730419921875,-0.6248866333007812,-8.987833032226561,0,0,0,0
0.49792483399505727,0.22266075439453123,-0.8379705810546875,-9.05965908203125,0,0,0,0
0.49910374599858187,0.316034619140625,-0.8164227661132812,-9.028534460449219,0,0,0,0
0.500292119992082,0.33758243408203126,-0.8116343627929687,-9.121908325195312,0,0,0,0
0.5014512170018861,0.35673604736328124,-0.7852981445312499,-9.18655177001953,0,0,0,0
0.5025503520009806,0.24899697265624998,-0.7876923461914062,-9.07163009033203,0,0,0,0
0.5037370229983935,0.2825157958984375,-0.8164227661132812,-9.05965908203125,0,0,0,0
0.5048639349988662,0.28012159423828126,-0.8020575561523438,-9.131485131835937,0,0,0,0
0.5060312729910947,0.2825157958984375,-0.8307879760742187,-9.076418493652342,0,0,0,0
0.5072128140018322,0.3232172241210937,-0.7709329345703124,-9.069235888671875,0,0,0,0
0.5083337629912421,0.3184288208007812,-0.7972691528320313,-9.129090930175781,0,0,0,0
0.5094419719971484,0.33039982910156246,-0.8283937744140625,-9.181763366699219,0,0,0,0
0.5113943000033032,0.3016694091796875,-0.8355763793945312,-9.066841687011719,0,0,0,0
0.5126619700022275,0.3064578125,-0.7661445312499999,-8.999804040527343,0,0,0,0
0.5139983800036134,0.17956512451171874,-0.7517793212890624,-9.064447485351561,0,0,0,0
0.5156000269926153,0.26815058593749996,-0.8283937744140625,-9.085995300292968,0,0,0,0
0.5169734730006894,0.23702596435546874,-0.8547299926757812,-9.009380847167968,0,0,0,0
0.5184812520019477,0.33758243408203126,-0.8547299926757812,-9.165003955078124,0,0,0,0
0.5197513839957537,0.34237083740234375,-0.74699091796875,-9.165003955078124,0,0,0,0
0.5208688889979385,0.33518823242187495,-0.7254431030273437,-9.04050546875,0,0,0,0
0.5219549500034191,0.39264907226562495,-0.7733271362304687,-9.018957653808593,0,0,0,0
0.5230440669984091,0.27293898925781246,-0.8092401611328125,-9.093177905273437,0,0,0,0
0.5244720310001867,0.26336218261718747,-0.8283937744140625,-9.1554271484375,0,0,0,0
0.5259493280027527,0.4261678955078125,-0.814028564453125,-9.090783703613281,0,0,0,0
0.5270401659945492,0.316034619140625,-0.7493851196289062,-9.011775048828124,0,0,0,0
0.5281290790007915,0.2609679809570312,-0.8547299926757812,-9.042899670410156,0,0,0,0
0.5298635389917763,0.3136404174804687,-0.852335791015625,-9.105148913574219,0,0,0,0
0.5310601919918554,0.32082302246093747,-0.8259995727539062,-9.167398156738281,0,0,0,0
0.532348231994547,0.35673604736328124,-0.7972691528320313,-9.131485131835937,0,0,0,0
0.5343566149967955,0.3016694091796875,-0.6727706665039062,-9.035717065429687,0,0,0,0
0.5358869289921131,0.29927520751953124,-0.7852981445312499,-9.0788126953125,0,0,0,0
0.5370684520021314,0.30885201416015623,-0.86191259765625,-9.05965908203125,0,0,0,0
0.5381600309920032,0.32082302246093747,-0.852335791015625,-9.112331518554686,0,0,0,0
0.5392474069958553,0.33758243408203126,-0.8164227661132812,-9.198522778320312,0,0,0,0
0.5403335790033452,0.3399766357421875,-0.814028564453125,-9.112331518554686,0,0,0,0
0.5420939469913719,0.258573779296875,-0.833182177734375,-9.074024291992187,0,0,0,0
0.5432635250035673,0.27293898925781246,-0.8164227661132812,-9.153032946777342,0,0,0,0
0.5443537340033799,0.26815058593749996,-0.8068459594726562,-9.102754711914063,0,0,0,0
0.5454399250011193,0.296881005859375,-0.9002198242187499,-8.966285217285156,0,0,0,0
0.5471798479993595,0.2609679809570312,-0.8164227661132812,-9.07163009033203,0,0,0,0
0.5483377600030508,0.22266075439453123,-0.8738836059570312,-9.076418493652342,0,0,0,0
0.5494160989910597,0.28730419921875,-0.8259995727539062,-9.100360510253905,0,0,0,0
0.5506696020020172,0.22026655273437498,-0.7852981445312499,-9.107543115234375,0,0,0,0
0.551836883998476,0.2705447875976562,-0.7709329345703124,-9.062053283691405,0,0,0,0
0.553077257995028,0.33758243408203126,-0.7589619262695312,-9.057264880371093,0,0,0,0
0.55415218899725,0.27293898925781246,-0.7733271362304687,-8.999804040527343,0,0,0,0
0.5554168219969142,0.2920926025390625,-0.8403647827148437,-9.014169250488282,0,0,0,0
0.5566480109991971,0.25139117431640623,-0.8116343627929687,-9.100360510253905,0,0,0,0
0.557816977991024,0.15322890625,-0.8020575561523438,-9.138667736816405,0,0,0,0
0.5596763079956872,0.3327940307617187,-0.8547299926757812,-9.050082275390624,0,0,0,0
0.5608894229953876,0.3711012573242187,-0.7733271362304687,-9.052476477050782,0,0,0,0
0.5620082789973821,0.3399766357421875,-0.7398083129882812,-9.016563452148437,0,0,0,0
0.5632622459961567,0.2825157958984375,-0.7852981445312499,-9.030928662109375,0,0,0,0
0.5646055999968667,0.3327940307617187,-0.8188169677734375,-9.014169250488282,0,0,0,0
0.5657061789970612,0.28969840087890625,-0.833182177734375,-9.150638745117186,0,0,0,0
0.5667975730029866,0.25139117431640623,-0.82360537109375,-9.05965908203125,0,0,0,0
0.5678941340011079,0.44053310546874996,-0.8283937744140625,-8.992621435546875,0,0,0,0
0.5691021009988617,0.39983167724609375,-0.7757213378906249,-8.980650427246093,0,0,0,0
0.5705137689947151,0.2825157958984375,-0.7757213378906249,-9.090783703613281,0,0,0,0
0.571637032990111,0.25139117431640623,-0.8259995727539062,-9.153032946777342,0,0,0,0
0.5727224830043269,0.2825157958984375,-0.8882488159179687,-9.162609753417968,0,0,0,0
0.5738051359949168,0.28969840087890625,-0.8212111694335937,-9.03332286376953,0,0,0,0
0.5748953639995307,0.32082302246093747,-0.8164227661132812,-9.160215551757812,0,0,0,0
0.5761594779905863,0.35194764404296874,-0.7972691528320313,-9.114725720214842,0,0,0,0
0.5776700709975557,0.3064578125,-0.7541735229492187,-9.090783703613281,0,0,0,0
0.5788965190004092,0.25139117431640623,-0.7757213378906249,-9.07163009033203,0,0,0,0
0.5800003949989332,0.3232172241210937,-0.8020575561523438,-9.064447485351561,0,0,0,0
0.5810883630038006,0.28012159423828126,-0.7829039428710937,-9.129090930175781,0,0,0,0
0.5825074379972648,0.277727392578125,-0.8307879760742187,-9.009380847167968,0,0,0,0
0.5837133309978526,0.3136404174804687,-0.8403647827148437,-9.167398156738281,0,0,0,0
0.5847935399942799,0.277727392578125,-0.8786720092773437,-9.052476477050782,0,0,0,0
0.5861589870037278,0.277727392578125,-0.814028564453125,-9.016563452148437,0,0,0,0
0.5875245810020715,0.26815058593749996,-0.8044517578125,-9.066841687011719,0,0,0,0
0.5887718070007395,0.37828386230468747,-0.7709329345703124,-9.014169250488282,0,0,0,0
0.5900724209932378,0.35194764404296874,-0.7685387329101562,-8.973467822265624,0,0,0,0
0.5914043299999321,0.316034619140625,-0.7661445312499999,-9.093177905273437,0,0,0,0
0.5925535569986096,0.2561795776367187,-0.8690952026367187,-9.117119921875,0,0,0,0
0.593878355997731,0.40222587890625,-0.814028564453125,-9.030928662109375,0,0,0,0
0.5952447470044717,0.3064578125,-0.833182177734375,-9.04050546875,0,0,0,0
0.5963183080020826,0.36631285400390623,-0.8188169677734375,-9.026140258789061,0,0,0,0
0.5973815359902801,0.34715924072265625,-0.7637503295898437,-9.062053283691405,0,0,0,0
0.5984435599966673,0.3591302490234375,-0.7302315063476562,-9.102754711914063,0,0,0,0
0.5995219539909158,0.296881005859375,-0.7709329345703124,-9.153032946777342,0,0,0,0
0.6007148659991799,0.22026655273437498,-0.7876923461914062,-9.169792358398437,0,0,0,0
0.6021820699970704,0.277727392578125,-0.8355763793945312,-9.126696728515624,0,0,0,0
0.6034185369935585,0.35673604736328124,-0.8116343627929687,-8.947131604003905,0,0,0,0
0.6046220779971918,0.33039982910156246,-0.8068459594726562,-9.100360510253905,0,0,0,0
0.6057159159972798,0.3687070556640625,-0.6153098266601562,-9.03332286376953,0,0,0,0
0.6069810310000321,0.3711012573242187,-0.8188169677734375,-9.14824454345703,0,0,0,0
0.6083555509976577,0.29448680419921874,-0.8212111694335937,-9.088389501953124,0,0,0,0
0.6095532399922376,0.29927520751953124,-0.833182177734375,-9.169792358398437,0,0,0,0
0.6107080959918676,0.3687070556640625,-0.8283937744140625,-9.0788126953125,0,0,0,0
0.6120429509901442,0.26815058593749996,-0.8068459594726562,-9.119514123535156,0,0,0,0
0.6132459729997208,0.35673604736328124,-0.7350199096679687,-9.057264880371093,0,0,0,0
0.6145802160026506,0.28730419921875,-0.7445967163085937,-9.023746057128905,0,0,0,0
0.6156728329951875,0.2561795776367187,-0.82360537109375,-9.0021982421875,0,0,0,0
0.6167542449984467,0.28969840087890625,-0.8188169677734375,-9.045293872070312,0,0,0,0
0.6178407510014949,0.28490999755859375,-0.8307879760742187,-9.121908325195312,0,0,0,0
0.6190798099996755,0.39743747558593745,-0.7781155395507812,-9.114725720214842,0,0,0,0
0.6204444600007264,0.3687070556640625,-0.82360537109375,-9.124302526855468,0,0,0,0
0.6215307800011942,0.3687070556640625,-0.7805097412109374,-9.124302526855468,0,0,0,0
0.6226097859907895,0.3064578125,-0.7900865478515624,-9.105148913574219,0,0,0,0
0.6236945499986177,0.28969840087890625,-0.8116343627929687,-9.088389501953124,0,0,0,0
0.6249067210010253,0.19153613281249998,-0.8164227661132812,-9.124302526855468,0,0,0,0
0.6261885940039065,0.28012159423828126,-0.833182177734375,-9.119514123535156,0,0,0,0
0.6274499489954906,0.36631285400390623,-0.8020575561523438,-9.145850341796875,0,0,0,0
0.6287496739969356,0.2442085693359375,-0.7996633544921875,-9.057264880371093,0,0,0,0
0.6298970310017467,0.23702596435546874,-0.7445967163085937,-9.047688073730468,0,0,0,0
0.6311141640035203,0.2657563842773437,-0.814028564453125,-9.050082275390624,0,0,0,0
0.6324135930044577,0.30406361083984373,-0.8092401611328125,-8.951920007324219,0,0,0,0
0.633496839000145,0.3016694091796875,-0.7948749511718749,-9.0021982421875,0,0,0,0
0.6347197869908996,0.2657563842773437,-0.8475473876953125,-9.057264880371093,0,0,0,0
0.6359825120016467,0.3064578125,-0.7565677246093749,-9.047688073730468,0,0,0,0
0.6372073679958703,0.20350714111328125,-0.7326257080078125,-8.992621435546875,0,0,0,0
0.6392813429993112,0.26336218261718747,-0.7852981445312499,-9.05965908203125,0,0,0,0
0.6408397310005967,0.1867477294921875,-0.8451531860351562,-9.102754711914063,0,0,0,0
0.6421391969925025,0.3280056274414062,-0.8930372192382812,-9.050082275390624,0,0,0,0
0.6441988570004469,0.3112462158203125,-0.814028564453125,-9.04050546875,0,0,0,0
0.6453327509952942,0.34237083740234375,-0.7996633544921875,-9.006986645507812,0,0,0,0
0.6464162560005207,0.28730419921875,-0.8044517578125,-9.18655177001953,0,0,0,0
0.647503483996843,0.29927520751953124,-0.833182177734375,-9.026140258789061,0,0,0,0
0.6487158020026982,0.33039982910156246,-0.8164227661132812,-9.112331518554686,0,0,0,0
0.6499271030043019,0.2657563842773437,-0.86191259765625,-9.085995300292968,0,0,0,0
0.6510471630026586,0.40222587890625,-0.7900865478515624,-9.114725720214842,0,0,0,0
0.6521286130009685,0.33039982910156246,-0.7445967163085937,-9.057264880371093,0,0,0,0
0.6533747459907318,0.2346317626953125,-0.7852981445312499,-9.1554271484375,0,0,0,0
0.6546045089926338,0.32082302246093747,-0.8307879760742187,-9.050082275390624,0,0,0,0
0.6557013290002942,0.39983167724609375,-0.8547299926757812,-9.042899670410156,0,0,0,0
0.6567832419968909,0.3064578125,-0.7972691528320313,-9.035717065429687,0,0,0,0
0.6578684510022867,0.1580173095703125,-0.8283937744140625,-9.030928662109375,0,0,0,0
0.659116750000976,0.2920926025390625,-0.8355763793945312,-9.198522778320312,0,0,0,0
0.6602836989914067,0.3806780639648437,-0.7637503295898437,-9.1554271484375,0,0,0,0
0.661372055998072,0.28012159423828126,-0.7517793212890624,-9.090783703613281,0,0,0,0
0.6624593209999148,0.28969840087890625,-0.7781155395507812,-9.107543115234375,0,0,0,0
0.663553010992473,0.32082302246093747,-0.7565677246093749,-9.047688073730468,0,0,0,0
0.6647491269977763,0.28730419921875,-0.8475473876953125,-9.006986645507812,0,0,0,0
0.6667103249928914,0.277727392578125,-0.8068459594726562,-9.03332286376953,0,0,0,0
0.6679723839915823,0.2753331909179687,-0.7996633544921875,-9.062053283691405,0,0,0,0
0.6692078129999572,0.40222587890625,-0.7805097412109374,-9.026140258789061,0,0,0,0
0.6703973910043715,0.296881005859375,-0.8044517578125,-9.107543115234375,0,0,0,0
0.6715217849996407,0.3112462158203125,-0.7996633544921875,-9.088389501953124,0,0,0,0
0.6729619709949475,0.3280056274414062,-0.7852981445312499,-9.0788126953125,0,0,0,0
0.6745322670030873,0.34237083740234375,-0.8283937744140625,-9.085995300292968,0,0,0,0
0.675811695997254,0.28012159423828126,-0.8499415893554687,-9.1554271484375,0,0,0,0
0.6769679409917444,0.3280056274414062,-0.7565677246093749,-9.179369165039063,0,0,0,0
0.6781096499908017,0.28969840087890625,-0.7709329345703124,-9.227253198242186,0,0,0,0
0.6792656359903049,0.36631285400390623,-0.7709329345703124,-9.066841687011719,0,0,0,0
0.6805588790011825,0.3447650390625,-0.7996633544921875,-9.004592443847656,0,0,0,0
0.6816827919974457,0.2753331909179687,-0.8020575561523438,-8.916006982421875,0,0,0,0
0.6827710380021017,0.3280056274414062,-0.8044517578125,-9.129090930175781,0,0,0,0
0.6843112780043157,0.2657563842773437,-0.852335791015625,-9.18655177001953,0,0,0,0
0.6860624609980732,0.2537853759765625,-0.8283937744140625,-9.205705383300781,0,0,0,0
0.6873343530023703,0.3136404174804687,-0.7781155395507812,-9.126696728515624,0,0,0,0
0.6884845979948295,0.296881005859375,-0.7565677246093749,-9.076418493652342,0,0,0,0
0.6895805289968848,0.2561795776367187,-0.8571241943359375,-9.014169250488282,0,0,0,0
0.6907365520019084,0.3064578125,-0.8116343627929687,-9.04050546875,0,0,0,0
0.6921433129900834,0.3687070556640625,-0.7924807495117187,-9.093177905273437,0,0,0,0
0.6932502629933879,0.2920926025390625,-0.8164227661132812,-9.100360510253905,0,0,0,0
0.6943417860020418,0.34237083740234375,-0.8283937744140625,-9.057264880371093,0,0,0,0
0.6954365139972651,0.3232172241210937,-0.7948749511718749,-9.129090930175781,0,0,0,0
0.6965962219983339,0.239420166015625,-0.7924807495117187,-9.165003955078124,0,0,0,0
0.698126406990923,0.29927520751953124,-0.8475473876953125,-9.05965908203125,0,0,0,0
0.699273207996157,0.3327940307617187,-0.8379705810546875,-9.150638745117186,0,0,0,0
0.7007384869939415,0.3184288208007812,-0.8212111694335937,-9.138667736816405,0,0,0,0
0.7019962119957199,0.24899697265624998,-0.7757213378906249,-9.124302526855468,0,0,0,0
0.7035522859951016,0.258573779296875,-0.6536170532226562,-9.023746057128905,0,0,0,0
0.7060492000018712,0.35194764404296874,-0.8307879760742187,-8.99501563720703,0,0,0,0
0.7076450329914223,0.32561142578124996,-0.7685387329101562,-9.011775048828124,0,0,0,0
0.7087316489923978,0.38307226562499996,-0.7517793212890624,-9.030928662109375,0,0,0,0
0.7098230059928028,0.3232172241210937,-0.8044517578125,-9.095572106933593,0,0,0,0
0.7108939379977528,0.16519991455078123,-0.8547299926757812,-9.057264880371093,0,0,0,0
0.7120476830023108,0.26815058593749996,-0.8068459594726562,-9.07163009033203,0,0,0,0
0.713250093991519,0.28490999755859375,-0.8212111694335937,-9.165003955078124,0,0,0,0
0.7143333769927267,0.28490999755859375,-0.7805097412109374,-9.13627353515625,0,0,0,0
0.7154177899938077,0.316034619140625,-0.7661445312499999,-9.081206896972656,0,0,0,0
0.7165036289952695,0.277727392578125,-0.737414111328125,-9.028534460449219,0,0,0,0
0.7180347770045046,0.24181436767578124,-0.8499415893554687,-9.066841687011719,0,0,0,0
0.7192768919921946,0.24899697265624998,-0.7996633544921875,-9.054870678710937,0,0,0,0
0.7203763599973172,0.316034619140625,-0.7781155395507812,-9.13627353515625,0,0,0,0
0.7214637720026076,0.3495534423828125,-0.7398083129882812,-9.0788126953125,0,0,0,0
0.7226903129921993,0.30885201416015623,-0.7589619262695312,-9.085995300292968,0,0,0,0
0.7240304449951509,0.2753331909179687,-0.7996633544921875,-9.07163009033203,0,0,0,0
0.7251804870029446,0.29448680419921874,-0.8068459594726562,-9.119514123535156,0,0,0,0
0.7262642510031583,0.29927520751953124,-0.8212111694335937,-9.054870678710937,0,0,0,0
0.7275145509920549,0.20829554443359374,-0.8547299926757812,-9.052476477050782,0,0,0,0
0.7287297400034731,0.28969840087890625,-0.7517793212890624,-9.016563452148437,0,0,0,0
0.7298903920018347,0.3232172241210937,-0.7924807495117187,-9.047688073730468,0,0,0,0
0.7312201729946537,0.23223756103515625,-0.7733271362304687,-9.117119921875,0,0,0,0
0.7324317320017144,0.28490999755859375,-0.7541735229492187,-9.141061938476563,0,0,0,0
0.7336444029933773,0.2442085693359375,-0.842758984375,-9.105148913574219,0,0,0,0
0.7348134069907246,0.2705447875976562,-0.8379705810546875,-9.023746057128905,0,0,0,0
0.7361333909939276,0.18914193115234373,-0.8810662109374999,-9.066841687011719,0,0,0,0
0.7372728030022699,0.3016694091796875,-0.8116343627929687,-9.057264880371093,0,0,0,0
0.7384993439918617,0.3591302490234375,-0.7805097412109374,-9.064447485351561,0,0,0,0
0.7397564029961359,0.32561142578124996,-0.7996633544921875,-9.126696728515624,0,0,0,0
0.7408517409930937,0.2346317626953125,-0.7948749511718749,-9.10993731689453,0,0,0,0
0.7419382279913407,0.18914193115234373,-0.7445967163085937,-9.141061938476563,0,0,0,0
0.7430939729965758,0.24181436767578124,-0.8475473876953125,-9.066841687011719,0,0,0,0
0.7442424589971779,0.354341845703125,-0.8068459594726562,-9.050082275390624,0,0,0,0
0.7453300199995283,0.3136404174804687,-0.7733271362304687,-9.045293872070312,0,0,0,0
0.7464096549956594,0.3280056274414062,-0.82360537109375,-9.014169250488282,0,0,0,0
0.7476659550011391,0.3184288208007812,-0.8379705810546875,-9.054870678710937,0,0,0,0
0.7489479759969981,0.26815058593749996,-0.8499415893554687,-9.054870678710937,0,0,0,0
0.75011190699297,0.35194764404296874,-0.8068459594726562,-9.114725720214842,0,0,0,0
0.7512092819961254,0.3399766357421875,-0.8020575561523438,-9.112331518554686,0,0,0,0
0.7522965279931668,0.28730419921875,-0.7565677246093749,-9.09796630859375,0,0,0,0
0.7534461619943613,0.229843359375,-0.8092401611328125,-9.026140258789061,0,0,0,0
0.7545944629964652,0.239420166015625,-0.842758984375,-9.093177905273437,0,0,0,0
0.7556863209902076,0.28730419921875,-0.8092401611328125,-9.093177905273437,0,0,0,0
0.7567666779941646,0.4070142822265625,-0.8092401611328125,-9.050082275390624,0,0,0,0
0.7580437549913768,0.3016694091796875,-0.7517793212890624,-9.066841687011719,0,0,0,0
0.7593332209944492,0.3495534423828125,-0.7972691528320313,-9.035717065429687,0,0,0,0
0.7606244089984102,0.26336218261718747,-0.8283937744140625,-9.057264880371093,0,0,0,0
0.7617200249951566,0.2657563842773437,-0.8858546142578124,-8.99501563720703,0,0,0,0
0.7629630839946913,0.33518823242187495,-0.8259995727539062,-9.105148913574219,0,0,0,0
0.76421492100053,0.34237083740234375,-0.7876923461914062,-9.244012609863281,0,0,0,0
0.7654137209901819,0.2920926025390625,-0.7733271362304687,-9.069235888671875,0,0,0,0
0.7665293189929798,0.2753331909179687,-0.7637503295898437,-8.94473740234375,0,0,0,0
0.7676274349942105,0.2657563842773437,-0.833182177734375,-9.042899670410156,0,0,0,0
0.7688114579941612,0.316034619140625,-0.8020575561523438,-9.121908325195312,0,0,0,0
0.769995498994831,0.34237083740234375,-0.7781155395507812,-9.093177905273437,0,0,0,0
0.7711836139933439,0.3495534423828125,-0.7996633544921875,-9.129090930175781,0,0,0,0
0.7723484890011605,0.3232172241210937,-0.7709329345703124,-9.169792358398437,0,0,0,0
0.7734479569917312,0.2154781494140625,-0.8044517578125,-9.100360510253905,0,0,0,0
0.7747792559966911,0.2705447875976562,-0.8595183959960937,-9.167398156738281,0,0,0,0
0.7758753719972447,0.1867477294921875,-0.9313444458007812,-9.191340173339842,0,0,0,0
0.7770416169951204,0.3016694091796875,-0.8667010009765624,-9.062053283691405,0,0,0,0
0.7783294900000328,0.2705447875976562,-0.8355763793945312,-9.074024291992187,0,0,0,0
0.7794802729913499,0.32561142578124996,-0.8379705810546875,-9.052476477050782,0,0,0,0
0.7805763889919035,0.3016694091796875,-0.8283937744140625,-9.057264880371093,0,0,0,0
0.7816797650011722,0.277727392578125,-0.8164227661132812,-9.050082275390624,0,0,0,0
0.7829788039962295,0.3112462158203125,-0.82360537109375,-9.081206896972656,0,0,0,0
0.7844479530031094,0.34237083740234375,-0.7709329345703124,-9.023746057128905,0,0,0,0
0.785994211997604,0.3711012573242187,-0.7302315063476562,-8.99501563720703,0,0,0,0
0.7874588059930829,0.3591302490234375,-0.7661445312499999,-9.191340173339842,0,0,0,0
0.7885600150038954,0.2705447875976562,-0.842758984375,-8.913612780761719,0,0,0,0
0.7902957899932517,0.2154781494140625,-0.8020575561523438,-9.083601098632812,0,0,0,0
0.7914622569951462,0.22266075439453123,-0.8164227661132812,-9.057264880371093,0,0,0,0
0.7925505589955719,0.35194764404296874,-0.82360537109375,-9.088389501953124,0,0,0,0
0.7940852439933224,0.32561142578124996,-0.7900865478515624,-9.100360510253905,0,0,0,0
0.7955145409941906,0.3591302490234375,-0.7134720947265625,-9.028534460449219,0,0,0,0
0.796661045998917,0.29927520751953124,-0.8762778076171874,-9.018957653808593,0,0,0,0
0.7977491619967623,0.28730419921875,-0.8475473876953125,-9.07163009033203,0,0,0,0
0.7988320750009734,0.1580173095703125,-0.8882488159179687,-9.119514123535156,0,0,0,0
0.7999167289963225,0.4381389038085937,-0.8044517578125,-9.07163009033203,0,0,0,0
0.8010720299935201,0.3064578125,-0.7996633544921875,-9.088389501953124,0,0,0,0
0.8023181070020655,0.354341845703125,-0.7805097412109374,-9.062053283691405,0,0,0,0
0.8038111999921966,0.30406361083984373,-0.7661445312499999,-9.052476477050782,0,0,0,0
0.8049772789963754,0.20350714111328125,-0.7996633544921875,-9.126696728515624,0,0,0,0
0.8062673370004632,0.2561795776367187,-0.8307879760742187,-9.069235888671875,0,0,0,0
0.8077314300026046,0.34237083740234375,-0.7589619262695312,-9.062053283691405,0,0,0,0
0.8088279910007259,0.3016694091796875,-0.7709329345703124,-9.105148913574219,0,0,0,0
0.8099442550010281,0.33758243408203126,-0.7661445312499999,-9.083601098632812,0,0,0,0
0.8125230759906117,0.33518823242187495,-0.7733271362304687,-9.011775048828124,0,0,0,0
0.8139295220025815,0.27293898925781246,-0.7781155395507812,-9.004592443847656,0,0,0,0
0.8151544330030447,0.2825157958984375,-0.8188169677734375,-9.018957653808593,0,0,0,0
0.8163309929950628,0.354341845703125,-0.7876923461914062,-9.04050546875,0,0,0,0
0.8175802740006475,0.3064578125,-0.7781155395507812,-9.107543115234375,0,0,0,0
0.8188928140007192,0.40940848388671874,-0.814028564453125,-9.052476477050782,0,0,0,0
0.8200754290010082,0.3064578125,-0.8164227661132812,-9.066841687011719,0,0,0,0
0.8212497109925607,0.3854664672851562,-0.7613561279296874,-9.088389501953124,0,0,0,0
0.8225011589966016,0.32082302246093747,-0.7709329345703124,-9.141061938476563,0,0,0,0
0.8239126050029881,0.4213794921875,-0.7661445312499999,-9.100360510253905,0,0,0,0
0.8254802339943126,0.2920926025390625,-0.8451531860351562,-9.196128576660156,0,0,0,0
0.8268021620024228,0.296881005859375,-0.8667010009765624,-9.066841687011719,0,0,0,0
0.8281977009901311,0.35194764404296874,-0.8355763793945312,-9.085995300292968,0,0,0,0
0.8293810009927256,0.28969840087890625,-0.7852981445312499,-8.90643017578125,0,0,0,0
0.8305474869994214,0.38307226562499996,-0.7038952880859375,-9.133879333496093,0,0,0,0
0.8317243429919472,0.29448680419921874,-0.8571241943359375,-9.145850341796875,0,0,0,0
0.8335948390013073,0.28730419921875,-0.9026140258789062,-9.076418493652342,0,0,0,0
0.8349879150046036,0.3016694091796875,-0.8283937744140625,-9.062053283691405,0,0,0,0
0.8361029009975027,0.3232172241210937,-0.7805097412109374,-9.095572106933593,0,0,0,0
0.8372638129949337,0.316034619140625,-0.7278373046875,-9.057264880371093,0,0,0,0
0.8384915569913574,0.28730419921875,-0.718260498046875,-9.121908325195312,0,0,0,0
0.8395913769927574,0.2705447875976562,-0.7876923461914062,-9.105148913574219,0,0,0,0
0.8406805859995075,0.24899697265624998,-0.7900865478515624,-9.114725720214842,0,0,0,0
0.8421751610003412,0.3064578125,-0.8116343627929687,-9.095572106933593,0,0,0,0
0.8434352750045946,0.29927520751953124,-0.8547299926757812,-9.093177905273437,0,0,0,0
0.8448209619964473,0.4285620971679687,-0.7493851196289062,-9.066841687011719,0,0,0,0
0.846082688003662,0.3136404174804687,-0.8451531860351562,-8.954314208984375,0,0,0,0
0.847228211001493,0.23702596435546874,-0.7805097412109374,-8.999804040527343,0,0,0,0
0.8485068430018146,0.2537853759765625,-0.8020575561523438,-9.047688073730468,0,0,0,0
0.8496363849990303,0.3447650390625,-0.7757213378906249,-9.026140258789061,0,0,0,0
0.8508903890033253,0.3280056274414062,-0.7709329345703124,-9.035717065429687,0,0,0,0
0.8521495960012544,0.25139117431640623,-0.8092401611328125,-8.992621435546875,0,0,0,0
0.8534047470020596,0.3327940307617187,-0.8020575561523438,-8.939948999023438,0,0,0,0
0.8545874179981183,0.2753331909179687,-0.8547299926757812,-9.10993731689453,0,0,0,0
0.8556992560043,0.30885201416015623,-0.8571241943359375,-9.050082275390624,0,0,0,0
0.8567880390037317,0.33758243408203126,-0.7996633544921875,-9.04050546875,0,0,0,0
0.8578715449984884,0.29927520751953124,-0.8212111694335937,-8.99501563720703,0,0,0,0
0.8591529550030828,0.34237083740234375,-0.7781155395507812,-8.992621435546875,0,0,0,0
0.86046290199738,0.28969840087890625,-0.7852981445312499,-9.054870678710937,0,0,0,0
0.861765572000877,0.24899697265624998,-0.82360537109375,-9.138667736816405,0,0,0,0
0.8629712239926448,0.2609679809570312,-0.7805097412109374,-9.133879333496093,0,0,0,0
0.8642145789926872,0.18914193115234373,-0.8307879760742187,-9.09796630859375,0,0,0,0
0.8654827489954187,0.2825157958984375,-0.8667010009765624,-9.10993731689453,0,0,0,0
0.8666592899971874,0.33518823242187495,-0.7685387329101562,-8.992621435546875,0,0,0,0
0.8679301639931509,0.33039982910156246,-0.7996633544921875,-9.035717065429687,0,0,0,0
0.8692418879945762,0.2657563842773437,-0.7829039428710937,-9.030928662109375,0,0,0,0
0.8704870399960782,0.24181436767578124,-0.7876923461914062,-9.074024291992187,0,0,0,0
0.8715906559955329,0.2609679809570312,-0.8547299926757812,-9.121908325195312,0,0,0,0
0.8726826799975242,0.24899697265624998,-0.8810662109374999,-8.997409838867187,0,0,0,0
0.8737649999966379,0.3280056274414062,-0.8379705810546875,-9.112331518554686,0,0,0,0
0.8749746149987914,0.32561142578124996,-0.7972691528320313,-9.153032946777342,0,0,0,0
0.876227636996191,0.354341845703125,-0.814028564453125,-9.023746057128905,0,0,0,0
0.877437621995341,0.296881005859375,-0.7924807495117187,-9.119514123535156,0,0,0,0
0.8785359419998713,0.239420166015625,-0.8547299926757812,-8.990227233886719,0,0,0,0
0.8796275589993456,0.32561142578124996,-0.8499415893554687,-9.038111267089842,0,0,0,0
0.880715193998185,0.2657563842773437,-0.8212111694335937,-9.057264880371093,0,0,0,0
0.881895254002302,0.239420166015625,-0.7685387329101562,-9.018957653808593,0,0,0,0
0.8831300899910275,0.22505495605468748,-0.7924807495117187,-9.07163009033203,0,0,0,0
0.8842242249957053,0.3112462158203125,-0.7924807495117187,-9.052476477050782,0,0,0,0
0.8853044529969338,0.316034619140625,-0.7900865478515624,-9.011775048828124,0,0,0,0
0.8865565299929585,0.2657563842773437,-0.7996633544921875,-9.102754711914063,0,0,0,0
0.8879728649917524,0.28490999755859375,-0.8212111694335937,-9.107543115234375,0,0,0,0
0.889314033993287,0.239420166015625,-0.8834604125976562,-9.064447485351561,0,0,0,0
0.8904073729936499,0.354341845703125,-0.8307879760742187,-9.093177905273437,0,0,0,0
0.8915045809990261,0.2705447875976562,-0.7924807495117187,-9.07163009033203,0,0,0,0
0.8926655859977473,0.296881005859375,-0.7278373046875,-9.074024291992187,0,0,0,0
0.8939515329984715,0.2059013427734375,-0.7829039428710937,-9.045293872070312,0,0,0,0
0.8950559270015219,0.2609679809570312,-0.8044517578125,-9.045293872070312,0,0,0,0
0.8961766169959446,0.277727392578125,-0.8259995727539062,-9.085995300292968,0,0,0,0
0.897331974003464,0.19153613281249998,-0.8930372192382812,-9.085995300292968,0,0,0,0
0.898840306996135,0.38307226562499996,-0.8092401611328125,-9.121908325195312,0,0,0,0
0.9000746999954572,0.2561795776367187,-0.7661445312499999,-9.0021982421875,0,0,0,0
0.9011733160004951,0.33518823242187495,-0.7302315063476562,-9.035717065429687,0,0,0,0
0.9023371349903755,0.30885201416015623,-0.7661445312499999,-9.095572106933593,0,0,0,0
0.9036692490044516,0.24660277099609373,-0.7900865478515624,-9.069235888671875,0,0,0,0
0.9047671239968622,0.27293898925781246,-0.8020575561523438,-9.011775048828124,0,0,0,0
0.9058537039963994,0.22744915771484372,-0.8451531860351562,-9.090783703613281,0,0,0,0
0.9070247079944238,0.316034619140625,-0.7805097412109374,-9.119514123535156,0,0,0,0
0.9082886739925016,0.35673604736328124,-0.7805097412109374,-9.074024291992187,0,0,0,0
0.9093790499900933,0.2920926025390625,-0.737414111328125,-9.047688073730468,0,0,0,0
0.9106945899984566,0.29927520751953124,-0.7254431030273437,-9.119514123535156,0,0,0,0
0.9119515740021598,0.2609679809570312,-0.7733271362304687,-9.133879333496093,0,0,0,0
0.9134133530023973,0.32082302246093747,-0.852335791015625,-9.064447485351561,0,0,0,0
0.9150213889952283,0.21787235107421873,-0.8738836059570312,-9.03332286376953,0,0,0,0
0.9162688549986342,0.3136404174804687,-0.7924807495117187,-9.066841687011719,0,0,0,0
0.9175458949903259,0.2705447875976562,-0.7805097412109374,-9.050082275390624,0,0,0,0
0.9186476409959141,0.316034619140625,-0.6248866333007812,-9.050082275390624,0,0,0,0
0.9198347749916138,0.2705447875976562,-0.8092401611328125,-9.050082275390624,0,0,0,0
0.9212479989946587,0.2825157958984375,-0.8020575561523438,-9.112331518554686,0,0,0,0
0.9224438179953722,0.29448680419921874,-0.8667010009765624,-9.07163009033203,0,0,0,0
0.9235465630044928,0.39983167724609375,-0.8403647827148437,-8.932766394042968,0,0,0,0
0.924634180002613,0.27293898925781246,-0.6344634399414062,-9.009380847167968,0,0,0,0
0.9258151660033036,0.45489831542968745,-0.7900865478515624,-9.03332286376953,0,0,0,0
0.9271385750034824,0.258573779296875,-0.8595183959960937,-9.050082275390624,0,0,0,0
0.9284572259930428,0.3399766357421875,-0.8116343627929687,-9.114725720214842,0,0,0,0
0.9297962279961212,0.23223756103515625,-0.8212111694335937,-9.117119921875,0,0,0,0
0.9310680829948978,0.30885201416015623,-0.8475473876953125,-9.17458076171875,0,0,0,0
0.9322784579999279,0.277727392578125,-0.8403647827148437,-9.167398156738281,0,0,0,0
0.9334589060017606,0.2920926025390625,-0.814028564453125,-9.083601098632812,0,0,0,0
0.9346658729919,0.3064578125,-0.6392518432617187,-9.083601098632812,0,0,0,0
0.9358413029985968,0.2657563842773437,-0.8547299926757812,-9.090783703613281,0,0,0,0
0.9370561769901542,0.2705447875976562,-0.8355763793945312,-9.121908325195312,0,0,0,0
0.9383087729947874,0.258573779296875,-0.8451531860351562,-9.064447485351561,0,0,0,0
0.9395195359975332,0.35194764404296874,-0.8547299926757812,-9.13627353515625,0,0,0,0
0.9407216149993474,0.3495534423828125,-0.7876923461914062,-9.176974963378905,0,0,0,0
0.9419412110000849,0.34237083740234375,-0.7541735229492187,-9.100360510253905,0,0,0,0
0.9431311039952561,0.25139117431640623,-0.7829039428710937,-9.141061938476563,0,0,0,0
0.9443367369967746,0.28012159423828126,-0.814028564453125,-9.119514123535156,0,0,0,0
0.9456927209976129,0.22744915771484372,-0.8786720092773437,-9.121908325195312,0,0,0,0
0.9469134469982237,0.3447650390625,-0.8403647827148437,-9.107543115234375,0,0,0,0
0.9481153399974573,0.33518823242187495,-0.8020575561523438,-9.074024291992187,0,0,0,0
0.9492568440036848,0.28730419921875,-0.8690952026367187,-9.004592443847656,0,0,0,0
0.9505380509945098,0.32082302246093747,-0.8978256225585937,-9.102754711914063,0,0,0,0
0.9517816470033722,0.41898529052734373,-0.8355763793945312,-9.07163009033203,0,0,0,0
0.9529259480041219,0.2657563842773437,-0.814028564453125,-9.114725720214842,0,0,0,0
0.954079211995122,0.23702596435546874,-0.7948749511718749,-9.143456140136719,0,0,0,0
0.9552202909981133,0.2537853759765625,-0.833182177734375,-9.133879333496093,0,0,0,0
0.956487442002981,0.3447650390625,-0.7781155395507812,-9.085995300292968,0,0,0,0
0.9577422599977581,0.25139117431640623,-0.7900865478515624,-9.129090930175781,0,0,0,0
0.9588771349954186,0.229843359375,-0.718260498046875,-9.153032946777342,0,0,0,0
0.9600575649965322,0.24181436767578124,-0.8068459594726562,-9.054870678710937,0,0,0,0
0.9615778799925465,0.2657563842773437,-0.7996633544921875,-9.114725720214842,0,0,0,0
0.9628565129969502,0.26815058593749996,-0.7996633544921875,-9.129090930175781,0,0,0,0
0.9640707569924416,0.3112462158203125,-0.7972691528320313,-9.02135185546875,0,0,0,0
0.9652784829959273,0.3327940307617187,-0.7852981445312499,-9.038111267089842,0,0,0,0
0.9665080609993311,0.33758243408203126,-0.7805097412109374,-9.006986645507812,0,0,0,0
0.9680137649993412,0.373495458984375,-0.7326257080078125,-9.047688073730468,0,0,0,0
0.969372897001449,0.2561795776367187,-0.7541735229492187,-9.100360510253905,0,0,0,0
0.9707450099958805,0.27293898925781246,-0.814028564453125,-9.07163009033203,0,0,0,0
0.9721200490021147,0.2537853759765625,-0.8547299926757812,-9.085995300292968,0,0,0,0
0.9734614210028667,0.25139117431640623,-0.8738836059570312,-9.112331518554686,0,0,0,0
0.9747948500007624,0.3064578125,-0.7876923461914062,-9.023746057128905,0,0,0,0
0.976044205002836,0.3064578125,-0.7781155395507812,-9.088389501953124,0,0,0,0
0.9772274499991909,0.33039982910156246,-0.7110778930664062,-9.117119921875,0,0,0,0
0.9785300450021168,0.2705447875976562,-0.8092401611328125,-9.102754711914063,0,0,0,0
0.9798139369959245,0.4285620971679687,-0.852335791015625,-9.196128576660156,0,0,0,0
0.981036569995922,0.24899697265624998,-0.86191259765625,-9.141061938476563,0,0,0,0
0.9822566479997477,0.3758896606445312,-0.7996633544921875,-9.138667736816405,0,0,0,0
0.983496892004041,0.3064578125,-0.7805097412109374,-9.006986645507812,0,0,0,0
0.9847688769950764,0.3711012573242187,-0.7661445312499999,-8.978256225585938,0,0,0,0
0.9860531019949121,0.23702596435546874,-0.7996633544921875,-9.062053283691405,0,0,0,0
0.9873395119939232,0.28012159423828126,-0.7996633544921875,-9.05965908203125,0,0,0,0
0.9886938109993935,0.30406361083984373,-0.852335791015625,-9.095572106933593,0,0,0,0
0.9900201279961038,0.34237083740234375,-0.82360537109375,-9.009380847167968,0,0,0,0
0.9912989830045262,0.3280056274414062,-0.7876923461914062,-9.088389501953124,0,0,0,0
0.9923741919919848,0.3280056274414062,-0.814028564453125,-9.193734375,0,0,0,0
0.9934361609921325,0.3806780639648437,-0.7517793212890624,-9.030928662109375,0,0,0,0
0.9944950920034898,0.30406361083984373,-0.8116343627929687,-9.02135185546875,0,0,0,0
0.9955764309997903,0.277727392578125,-0.82360537109375,-9.081206896972656,0,0,0,0
0.9967106580006657,0.32561142578124996,-0.8068459594726562,-9.114725720214842,0,0,0,0
0.9980465679982444,0.2920926025390625,-0.7948749511718749,-9.13627353515625,0,0,0,0
0.9992234419914894,0.3184288208007812,-0.7781155395507812,-9.006986645507812,0,0,0,0
1.000346280998201,0.32082302246093747,-0.7805097412109374,-8.901641772460938,0,0,0,0
1.0014160269929562,0.35194764404296874,-0.7661445312499999,-9.062053283691405,0,0,0,0
1.0026160859997617,0.277727392578125,-0.7900865478515624,-8.99501563720703,0,0,0,0
1.0038683119928464,0.37828386230468747,-0.7876923461914062,-9.038111267089842,0,0,0,0
1.0050447980029276,0.25139117431640623,-0.8451531860351562,-9.088389501953124,0,0,0,0
1.0061446549952962,0.33518823242187495,-0.8164227661132812,-9.074024291992187,0,0,0,0
1.00726840000425,0.33518823242187495,-0.7781155395507812,-9.07163009033203,0,0,0,0
1.0085207739903126,0.32082302246093747,-0.6512228515624999,-9.083601098632812,0,0,0,0
1.00975137000205,0.32082302246093747,-0.7637503295898437,-9.126696728515624,0,0,0,0
1.0108231909980532,0.26336218261718747,-0.7948749511718749,-9.057264880371093,0,0,0,0
1.0119273439922836,0.28730419921875,-0.8020575561523438,-8.985438830566405,0,0,0,0
1.0130693669925677,0.2705447875976562,-0.7876923461914062,-9.004592443847656,0,0,0,0
1.0143366300035268,0.33039982910156246,-0.8667010009765624,-9.13627353515625,0,0,0,0
1.0155296709999675,0.33758243408203126,-0.8355763793945312,-9.066841687011719,0,0,0,0
1.01661987999978,0.2920926025390625,-0.8379705810546875,-9.081206896972656,0,0,0,0
1.0176851069991244,0.26815058593749996,-0.8978256225585937,-9.121908325195312,0,0,0,0
1.0187630759901367,0.29927520751953124,-0.8283937744140625,-9.02135185546875,0,0,0,0
1.0198550810018787,0.3591302490234375,-0.7900865478515624,-9.064447485351561,0,0,0,0
1.0211990279931342,0.23702596435546874,-0.7685387329101562,-9.085995300292968,0,0,0,0
1.0226903619914083,0.2561795776367187,-0.8044517578125,-9.229647399902344,0,0,0,0
1.0237753669935046,0.25139117431640623,-0.8307879760742187,-9.153032946777342,0,0,0,0
1.02484833500057,0.33039982910156246,-0.7900865478515624,-9.07163009033203,0,0,0,0
1.026280243997462,0.33758243408203126,-0.7924807495117187,-9.085995300292968,0,0,0,0
1.0276227650028886,0.36391865234375,-0.6488286499023437,-9.081206896972656,0,0,0,0
1.028765529001248,0.30406361083984373,-0.8762778076171874,-8.99501563720703,0,0,0,0
1.0298427189991344,0.17477672119140625,-0.8379705810546875,-9.04050546875,0,0,0,0
1.0309103549952852,0.29927520751953124,-0.8116343627929687,-9.052476477050782,0,0,0,0
1.032064896004158,0.34237083740234375,-0.7661445312499999,-9.035717065429687,0,0,0,0
1.0333017700031633,0.2609679809570312,-0.852335791015625,-9.02135185546875,0,0,0,0
1.034393497990095,0.27293898925781246,-0.7805097412109374,-9.018957653808593,0,0,0,0
1.035481429003994,0.29448680419921874,-0.7948749511718749,-9.081206896972656,0,0,0,0
1.0365685819997452,0.4070142822265625,-0.7709329345703124,-9.035717065429687,0,0,0,0
1.0377193829917815,0.3064578125,-0.7422025146484375,-9.054870678710937,0,0,0,0
1.0390302189916838,0.28730419921875,-0.7757213378906249,-9.069235888671875,0,0,0,0
1.0404469979985151,0.277727392578125,-0.7948749511718749,-9.018957653808593,0,0,0,0
1.041665094991913,0.2346317626953125,-0.7972691528320313,-9.088389501953124,0,0,0,0
1.042821783994441,0.3112462158203125,-0.7781155395507812,-9.102754711914063,0,0,0,0
1.0440875100030098,0.30885201416015623,-0.7757213378906249,-9.100360510253905,0,0,0,0
1.0451789779908722,0.26336218261718747,-0.82360537109375,-9.047688073730468,0,0,0,0
1.0462617430021055,0.24181436767578124,-0.8307879760742187,-9.088389501953124,0,0,0,0
1.0473470629949588,0.22266075439453123,-0.7852981445312499,-9.107543115234375,0,0,0,0
1.0485001969937002,0.28730419921875,-0.7948749511718749,-9.0021982421875,0,0,0,0
1.0498004399996717,0.20350714111328125,-0.8116343627929687,-9.028534460449219,0,0,0,0
1.0508940199943027,0.28730419921875,-0.8068459594726562,-9.047688073730468,0,0,0,0
1.0523782609961927,0.22266075439453123,-0.8475473876953125,-9.14824454345703,0,0,0,0
1.053606690999004,0.2657563842773437,-0.8379705810546875,-9.112331518554686,0,0,0,0
1.0549095640017185,0.3399766357421875,-0.7757213378906249,-9.081206896972656,0,0,0,0
1.0561633079923922,0.3447650390625,-0.8044517578125,-9.184157568359375,0,0,0,0
1.0575417349900817,0.25139117431640623,-0.8092401611328125,-9.05965908203125,0,0,0,0
1.0587224799965043,0.3232172241210937,-0.8547299926757812,-9.121908325195312,0,0,0,0
1.059957001998555,0.2705447875976562,-0.8499415893554687,-9.153032946777342,0,0,0,0
1.061099173995899,0.3806780639648437,-0.7972691528320313,-9.064447485351561,0,0,0,0
1.0634851079958025,0.33758243408203126,-0.86191259765625,-9.004592443847656,0,0,0,0
1.0648345910012722,0.3950432739257812,-0.7637503295898437,-9.085995300292968,0,0,0,0
1.0660526139981812,0.22266075439453123,-0.8499415893554687,-9.131485131835937,0,0,0,0
1.0671578969922848,0.2657563842773437,-0.8355763793945312,-9.133879333496093,0,0,0,0
1.0682470129977446,0.26815058593749996,-0.852335791015625,-9.066841687011719,0,0,0,0
1.0701285639952403,0.3184288208007812,-0.7637503295898437,-9.052476477050782,0,0,0,0
1.071358863991918,0.3232172241210937,-0.7541735229492187,-9.023746057128905,0,0,0,0
1.072500480004237,0.24899697265624998,-0.7661445312499999,-9.100360510253905,0,0,0,0
1.0735936519922689,0.2609679809570312,-0.7996633544921875,-9.042899670410156,0,0,0,0
1.074935912998626,0.2442085693359375,-0.8092401611328125,-9.028534460449219,0,0,0,0
1.0766298929956974,0.3112462158203125,-0.8930372192382812,-8.98304462890625,0,0,0,0
1.077893673995277,0.28969840087890625,-0.7637503295898437,-8.978256225585938,0,0,0,0
1.0790159199968912,0.3447650390625,-0.7541735229492187,-9.069235888671875,0,0,0,0
1.0801048879948212,0.24660277099609373,-0.8188169677734375,-9.064447485351561,0,0,0,0
1.0814062419958645,0.33758243408203126,-0.7685387329101562,-9.03332286376953,0,0,0,0
1.0828608169977088,0.2154781494140625,-0.8044517578125,-9.064447485351561,0,0,0,0
1.0839585630019428,0.2705447875976562,-0.8667010009765624,-9.052476477050782,0,0,0,0
1.0850415689928923,0.33039982910156246,-0.8164227661132812,-8.999804040527343,0,0,0,0
1.0864688479923643,0.28969840087890625,-0.6392518432617187,-9.105148913574219,0,0,0,0
1.0878257199947257,0.37828386230468747,-0.7110778930664062,-9.076418493652342,0,0,0,0
1.0892036849982105,0.24899697265624998,-0.7398083129882812,-9.083601098632812,0,0,0,0
1.0903026159940055,0.30885201416015623,-0.7972691528320313,-9.090783703613281,0,0,0,0
1.0913986029918306,0.2346317626953125,-0.82360537109375,-9.085995300292968,0,0,0,0
1.0925580149923917,0.2705447875976562,-0.8762778076171874,-9.0788126953125,0,0,0,0
1.093845720999525,0.3591302490234375,-0.7517793212890624,-9.076418493652342,0,0,0,0
1.0949704109953018,0.316034619140625,-0.7398083129882812,-9.100360510253905,0,0,0,0
1.0960884899977827,0.21068974609375,-0.7733271362304687,-9.093177905273437,0,0,0,0
1.0972958280035527,0.3184288208007812,-0.7709329345703124,-9.028534460449219,0,0,0,0
1.0990081030031433,0.30885201416015623,-0.82360537109375,-9.05965908203125,0,0,0,0
1.100210236996645,0.2825157958984375,-0.7733271362304687,-9.129090930175781,0,0,0,0
1.1013072789937723,0.36631285400390623,-0.7613561279296874,-9.035717065429687,0,0,0,0
1.102678854993428,0.2705447875976562,-0.8451531860351562,-9.105148913574219,0,0,0,0
1.104237355000805,0.2753331909179687,-0.8547299926757812,-9.157821350097656,0,0,0,0
1.1056255779985804,0.18914193115234373,-0.7709329345703124,-9.028534460449219,0,0,0,0
1.1069043960014824,0.316034619140625,-0.8044517578125,-9.066841687011719,0,0,0,0
1.108049807997304,0.3064578125,-0.7924807495117187,-9.035717065429687,0,0,0,0
1.1091365169995697,0.3184288208007812,-0.7493851196289062,-9.052476477050782,0,0,0,0
1.1104520009976113,0.2920926025390625,-0.8259995727539062,-9.047688073730468,0,0,0,0
1.1116322279995074,0.29927520751953124,-0.8499415893554687,-9.114725720214842,0,0,0,0
1.112770528998226,0.18435352783203124,-0.8499415893554687,-9.076418493652342,0,0,0,0
1.1139551630039932,0.4572925170898437,-0.7876923461914062,-9.102754711914063,0,0,0,0
1.1150978529913118,0.3327940307617187,-0.7972691528320313,-9.081206896972656,0,0,0,0
1.116429670000798,0.3399766357421875,-0.699106884765625,-9.0021982421875,0,0,0,0
1.1175927110016346,0.27293898925781246,-0.7852981445312499,-9.074024291992187,0,0,0,0
1.1186827719939174,0.28490999755859375,-0.7972691528320313,-9.129090930175781,0,0,0,0
1.1199504599935608,0.2705447875976562,-0.8020575561523438,-9.160215551757812,0,0,0,0
1.1212920370016946,0.2753331909179687,-0.7541735229492187,-9.02135185546875,0,0,0,0
1.1229153869935544,0.32561142578124996,-0.7613561279296874,-8.985438830566405,0,0,0,0
1.1240245410008356,0.26336218261718747,-0.8283937744140625,-9.126696728515624,0,0,0,0
1.1251795819989638,0.28012159423828126,-0.842758984375,-9.119514123535156,0,0,0,0
1.1266951559955487,0.22744915771484372,-0.8499415893554687,-9.145850341796875,0,0,0,0
1.12802169600036,0.28490999755859375,-0.7948749511718749,-9.011775048828124,0,0,0,0
1.1291125339921564,0.3327940307617187,-0.7613561279296874,-8.978256225585938,0,0,0,0
1.1301968729967484,0.23702596435546874,-0.8475473876953125,-9.07163009033203,0,0,0,0
1.1319747410016134,0.3184288208007812,-0.8834604125976562,-9.112331518554686,0,0,0,0
1.133296927990159,0.2442085693359375,-0.8451531860351562,-9.129090930175781,0,0,0,0
1.134609172004275,0.3064578125,-0.8283937744140625,-9.138667736816405,0,0,0,0
1.1362321699998574,0.3950432739257812,-0.7876923461914062,-9.169792358398437,0,0,0,0
1.137586172990268,0.26815058593749996,-0.7996633544921875,-9.081206896972656,0,0,0,0
1.1388370089989621,0.18435352783203124,-0.8355763793945312,-8.95670841064453,0,0,0,0
1.1400122539926087,0.2920926025390625,-0.8188169677734375,-9.014169250488282,0,0,0,0
1.1414212370000314,0.32082302246093747,-0.8044517578125,-9.131485131835937,0,0,0,0
1.142823350004619,0.3399766357421875,-0.8044517578125,-9.13627353515625,0,0,0,0
1.144089408000582,0.24899697265624998,-0.8475473876953125,-9.050082275390624,0,0,0,0
1.1453223940043245,0.28012159423828126,-0.8475473876953125,-9.181763366699219,0,0,0,0
1.1464430100022582,0.2825157958984375,-0.8379705810546875,-8.932766394042968,0,0,0,0
1.147688790995744,0.41419688720703124,-0.7661445312499999,-8.942343200683593,0,0,0,0
1.148873387995991,0.3950432739257812,-0.7924807495117187,-8.978256225585938,0,0,0,0
1.1499677259998862,0.22744915771484372,-0.814028564453125,-9.030928662109375,0,0,0,0
1.1510589169920422,0.16519991455078123,-0.8475473876953125,-9.054870678710937,0,0,0,0
1.1522608840023167,0.19871873779296872,-0.8499415893554687,-9.057264880371093,0,0,0,0
1.1534345730033237,0.296881005859375,-0.833182177734375,-9.074024291992187,0,0,0,0
1.1545248009933857,0.26815058593749996,-0.8188169677734375,-9.169792358398437,0,0,0,0
1.1556801010010531,0.3280056274414062,-0.7781155395507812,-9.114725720214842,0,0,0,0
1.156915993997245,0.316034619140625,-0.7924807495117187,-9.062053283691405,0,0,0,0
1.1603845259960508,0.296881005859375,-0.7805097412109374,-9.030928662109375,0,0,0,0
1.1616783249919536,0.3064578125,-0.7230489013671875,-9.052476477050782,0,0,0,0
1.1640344820043538,0.2561795776367187,-0.8164227661132812,-9.074024291992187,0,0,0,0
1.1655060929915635,0.30406361083984373,-0.8307879760742187,-9.074024291992187,0,0,0,0
1.166792930001975,0.3806780639648437,-0.8164227661132812,-9.069235888671875,0,0,0,0
1.1690434019983513,0.3591302490234375,-0.7900865478515624,-9.052476477050782,0,0,0,0
1.1704249229951529,0.2561795776367187,-0.7733271362304687,-8.961496813964843,0,0,0,0
1.1718290349963354,0.239420166015625,-0.7829039428710937,-9.10993731689453,0,0,0,0
1.1731557969906135,0.18914193115234373,-0.8068459594726562,-9.090783703613281,0,0,0,0
1.1744173929910176,0.30406361083984373,-0.9002198242187499,-9.03332286376953,0,0,0,0
1.175959743995918,0.3064578125,-0.7637503295898437,-9.04050546875,0,0,0,0
1.1772725799964974,0.33039982910156246,-0.7661445312499999,-9.004592443847656,0,0,0,0
1.1786228970013326,0.26336218261718747,-0.8379705810546875,-9.050082275390624,0,0,0,0
1.1799565109977266,0.27293898925781246,-0.8020575561523438,-9.038111267089842,0,0,0,0
1.1814631409943104,0.3399766357421875,-0.7829039428710937,-8.980650427246093,0,0,0,0
1.182795143002295,0.373495458984375,-0.7852981445312499,-9.004592443847656,0,0,0,0
1.1840441090025706,0.316034619140625,-0.737414111328125,-9.035717065429687,0,0,0,0
1.1851342809968628,0.25139117431640623,-0.7757213378906249,-9.09796630859375,0,0,0,0
1.1862371750030434,0.32082302246093747,-0.7781155395507812,-9.011775048828124,0,0,0,0
1.1875004559988156,0.2609679809570312,-0.7781155395507812,-9.066841687011719,0,0,0,0
1.1887177930038888,0.24899697265624998,-0.7805097412109374,-8.992621435546875,0,0,0,0
1.1898777419992257,0.2705447875976562,-0.7709329345703124,-9.004592443847656,0,0,0,0
1.1909847100032493,0.3112462158203125,-0.8283937744140625,-9.090783703613281,0,0,0,0
1.1920606049970957,0.34715924072265625,-0.8068459594726562,-9.085995300292968,0,0,0,0
1.1931334249966312,0.2442085693359375,-0.8906430175781249,-9.030928662109375,0,0,0,0
1.1942763929982902,0.3016694091796875,-0.842758984375,-8.990227233886719,0,0,0,0
1.1954470450000372,0.239420166015625,-0.7876923461914062,-9.270348828125,0,0,0,0
1.1965246799954912,0.28490999755859375,-0.8092401611328125,-9.160215551757812,0,0,0,0
1.1976909069926478,0.30406361083984373,-0.842758984375,-8.990227233886719,0,0,0,0
1.198966169002233,0.3711012573242187,-0.7876923461914062,-9.026140258789061,0,0,0,0
1.200276967996615,0.28969840087890625,-0.7637503295898437,-9.117119921875,0,0,0,0
1.2014432129944908,0.23702596435546874,-0.8044517578125,-9.054870678710937,0,0,0,0
1.202529162997962,0.3280056274414062,-0.7948749511718749,-9.004592443847656,0,0,0,0
1.2036559089901857,0.22505495605468748,-0.8930372192382812,-8.968679418945312,0,0,0,0
1.2047273770003812,0.15322890625,-0.8978256225585937,-9.088389501953124,0,0,0,0
1.2057979569945019,0.19871873779296872,-0.7996633544921875,-9.03332286376953,0,0,0,0
1.2072871419950388,0.3327940307617187,-0.82360537109375,-8.975862023925782,0,0,0,0
1.208454776002327,0.3399766357421875,-0.7517793212890624,-9.02135185546875,0,0,0,0
1.2096639649971621,0.33758243408203126,-0.8475473876953125,-9.030928662109375,0,0,0,0
1.210847433001618,0.29448680419921874,-0.8379705810546875,-9.052476477050782,0,0,0,0
1.212025603002985,0.2346317626953125,-0.7876923461914062,-9.07163009033203,0,0,0,0
1.213236217998201,0.22744915771484372,-0.8930372192382812,-9.10993731689453,0,0,0,0
1.2143378350010607,0.28969840087890625,-0.8954314208984374,-9.090783703613281,0,0,0,0
1.2156349119904917,0.33039982910156246,-0.7996633544921875,-9.047688073730468,0,0,0,0
1.216953487994033,0.3447650390625,-0.7972691528320313,-9.016563452148437,0,0,0,0
1.2184250809950754,0.36152445068359373,-0.737414111328125,-9.064447485351561,0,0,0,0
1.2195554569916567,0.26815058593749996,-0.6392518432617187,-9.150638745117186,0,0,0,0
1.2208604219922563,0.229843359375,-0.7876923461914062,-9.026140258789061,0,0,0,0
1.2220724999933736,0.21787235107421873,-0.7948749511718749,-9.018957653808593,0,0,0,0
1.22354057499615,0.3495534423828125,-0.7685387329101562,-9.057264880371093,0,0,0,0
1.2246656539937248,0.28969840087890625,-0.7996633544921875,-9.02135185546875,0,0,0,0
1.2257507890026318,0.3950432739257812,-0.7661445312499999,-9.050082275390624,0,0,0,0
1.2269604780012742,0.23223756103515625,-0.8044517578125,-9.057264880371093,0,0,0,0
1.2281864079996012,0.21308394775390624,-0.7972691528320313,-9.009380847167968,0,0,0,0
1.2294115959957708,0.33518823242187495,-0.7350199096679687,-9.054870678710937,0,0,0,0
1.2306383590039331,0.316034619140625,-0.82360537109375,-9.057264880371093,0,0,0,0
1.2317454199946951,0.181959326171875,-0.8714894042968749,-9.069235888671875,0,0,0,0
1.2332590129954042,0.36631285400390623,-0.7637503295898437,-9.13627353515625,0,0,0,0
1.2345430339919403,0.3687070556640625,-0.6512228515624999,-9.129090930175781,0,0,0,0
1.2359218319907086,0.33039982910156246,-0.8499415893554687,-9.100360510253905,0,0,0,0
1.2372368899959838,0.40222587890625,-0.7900865478515624,-9.102754711914063,0,0,0,0
1.2384644499979913,0.2753331909179687,-0.7541735229492187,-9.026140258789061,0,0,0,0
1.2397114719933597,0.28490999755859375,-0.8068459594726562,-9.066841687011719,0,0,0,0
1.2414206179964822,0.1867477294921875,-0.842758984375,-9.02135185546875,0,0,0,0
1.2429910979990382,0.39983167724609375,-0.8164227661132812,-9.03332286376953,0,0,0,0
1.2444029149919515,0.30885201416015623,-0.7805097412109374,-8.961496813964843,0,0,0,0
1.2458029349945718,0.24181436767578124,-0.7637503295898437,-9.035717065429687,0,0,0,0
1.2471583809965523,0.28730419921875,-0.852335791015625,-9.03332286376953,0,0,0,0
1.2489603409921983,0.28969840087890625,-0.7996633544921875,-9.119514123535156,0,0,0,0
1.2502943619911093,0.22266075439453123,-0.8906430175781249,-9.143456140136719,0,0,0,0
1.251611938001588,0.316034619140625,-0.7972691528320313,-9.126696728515624,0,0,0,0
1.253134771992336,0.3447650390625,-0.7733271362304687,-9.188945971679686,0,0,0,0
1.254428829997778,0.2753331909179687,-0.7852981445312499,-9.030928662109375,0,0,0,0
1.2556792969990056,0.229843359375,-0.7781155395507812,-9.184157568359375,0,0,0,0
1.2572171479987446,0.19393033447265623,-0.7996633544921875,-9.141061938476563,0,0,0,0
1.2587871110008564,0.201112939453125,-0.8259995727539062,-8.987833032226561,0,0,0,0
1.26024459299515,0.28969840087890625,-0.7996633544921875,-8.990227233886719,0,0,0,0
1.2614504489902174,0.3711012573242187,-0.7517793212890624,-9.107543115234375,0,0,0,0
1.2626244720013347,0.33518823242187495,-0.8643067993164062,-9.076418493652342,0,0,0,0
1.2641888789949007,0.239420166015625,-0.8307879760742187,-9.074024291992187,0,0,0,0
1.2655025290005142,0.22744915771484372,-0.8978256225585937,-9.0788126953125,0,0,0,0
1.2667467729916098,0.25139117431640623,-0.7661445312499999,-9.162609753417968,0,0,0,0
1.2682462919910904,0.32561142578124996,-0.7757213378906249,-9.062053283691405,0,0,0,0
1.2696368500037352,0.38307226562499996,-0.7852981445312499,-8.990227233886719,0,0,0,0
1.2712956629984546,0.27293898925781246,-0.7876923461914062,-9.184157568359375,0,0,0,0
1.2725583139981609,0.2657563842773437,-0.8499415893554687,-9.100360510253905,0,0,0,0
1.2740857030003099,0.24181436767578124,-0.8882488159179687,-9.028534460449219,0,0,0,0
1.2753876499918988,0.28969840087890625,-0.8020575561523438,-9.07163009033203,0,0,0,0
1.2768247990024975,0.34715924072265625,-0.7972691528320313,-9.014169250488282,0,0,0,0
1.2780026190011995,0.3280056274414062,-0.7781155395507812,-9.062053283691405,0,0,0,0
1.2791725299903192,0.277727392578125,-0.8044517578125,-9.042899670410156,0,0,0,0
1.2806202719948487,0.3064578125,-0.7613561279296874,-9.009380847167968,0,0,0,0
1.283013687003404,0.24899697265624998,-0.7852981445312499,-9.085995300292968,0,0,0,0
1.284248469004524,0.2657563842773437,-0.7924807495117187,-9.014169250488282,0,0,0,0
1.285434121004073,0.16041151123046873,-0.8164227661132812,-9.102754711914063,0,0,0,0
1.2871841369924368,0.411802685546875,-0.8068459594726562,-9.0788126953125,0,0,0,0
1.2884295849944465,0.29927520751953124,-0.8164227661132812,-9.074024291992187,0,0,0,0
1.2895190900017042,0.3016694091796875,-0.9074024291992187,-9.088389501953124,0,0,0,0
1.290596706996439,0.29927520751953124,-0.8116343627929687,-9.138667736816405,0,0,0,0
1.2917492849956034,0.1580173095703125,-0.7805097412109374,-9.119514123535156,0,0,0,0
1.2929462890024297,0.2705447875976562,-0.7876923461914062,-9.069235888671875,0,0,0,0
1.2940298869943945,0.21068974609375,-0.8595183959960937,-9.014169250488282,0,0,0,0
1.29511674400419,0.21068974609375,-0.8499415893554687,-9.016563452148437,0,0,0,0
1.296256600995548,0.277727392578125,-0.7996633544921875,-9.09796630859375,0,0,0,0
1.2974294199957512,0.277727392578125,-0.7709329345703124,-9.052476477050782,0,0,0,0
1.298884679999901,0.32561142578124996,-0.7326257080078125,-9.1554271484375,0,0,0,0
1.300023258998408,0.22505495605468748,-0.7972691528320313,-9.157821350097656,0,0,0,0
1.3012102079956094,0.2609679809570312,-0.7589619262695312,-9.105148913574219,0,0,0,0
1.302385471004527,0.28730419921875,-0.7661445312499999,-9.052476477050782,0,0,0,0
1.3034828469972126,0.229843359375,-0.8283937744140625,-9.13627353515625,0,0,0,0
1.3045697219931753,0.26336218261718747,-0.7709329345703124,-9.124302526855468,0,0,0,0
1.3056503199914005,0.2657563842773437,-0.8020575561523438,-9.026140258789061,0,0,0,0
1.3067337699903874,0.2059013427734375,-0.8020575561523438,-9.050082275390624,0,0,0,0
1.3081905119906878,0.3591302490234375,-0.7757213378906249,-8.992621435546875,0,0,0,0
1.3095416809956077,0.24899697265624998,-0.7398083129882812,-9.028534460449219,0,0,0,0
1.3106438520044321,0.30885201416015623,-0.8690952026367187,-9.062053283691405,0,0,0,0
1.3118269489932572,0.277727392578125,-0.8930372192382812,-9.162609753417968,0,0,0,0
1.3130881929973839,0.36152445068359373,-0.7948749511718749,-9.074024291992187,0,0,0,0
1.3146393780043582,0.28730419921875,-0.842758984375,-9.14824454345703,0,0,0,0
1.3159411219967296,0.38307226562499996,-0.7302315063476562,-9.095572106933593,0,0,0,0
1.317435121993185,0.24899697265624998,-0.86191259765625,-9.107543115234375,0,0,0,0
1.3188326239906019,0.28012159423828126,-0.8212111694335937,-9.145850341796875,0,0,0,0
1.3202485509973485,0.23223756103515625,-0.8020575561523438,-9.054870678710937,0,0,0,0
1.3214709250023589,0.28969840087890625,-0.9193734375,-9.030928662109375,0,0,0,0
1.3230029989936156,0.27293898925781246,-0.833182177734375,-9.045293872070312,0,0,0,0
1.3243020200025057,0.35194764404296874,-0.7829039428710937,-9.188945971679686,0,0,0,0
1.32556665300217,0.2753331909179687,-0.6607996582031249,-9.030928662109375,0,0,0,0
1.327209558992763,0.2920926025390625,-0.8475473876953125,-9.052476477050782,0,0,0,0
1.3286395229952177,0.2705447875976562,-0.8092401611328125,-9.006986645507812,0,0,0,0
1.330217355993227,0.3064578125,-0.7924807495117187,-9.133879333496093,0,0,0,0
1.3314767300034873,0.2920926025390625,-0.7254431030273437,-9.016563452148437,0,0,0,0
1.3330467850028072,0.26815058593749996,-0.7254431030273437,-9.030928662109375,0,0,0,0
1.33433724999486,0.25139117431640623,-0.8403647827148437,-9.04050546875,0,0,0,0
1.3359248240012676,0.316034619140625,-0.8762778076171874,-9.117119921875,0,0,0,0
1.3372753069997998,0.26815058593749996,-0.8475473876953125,-9.17458076171875,0,0,0,0
1.3385145149950404,0.32561142578124996,-0.9026140258789062,-9.066841687011719,0,0,0,0
1.3400160149903968,0.34237083740234375,-0.7398083129882812,-9.09796630859375,0,0,0,0
1.3413070359965786,0.36152445068359373,-0.7709329345703124,-9.026140258789061,0,0,0,0
1.342628076003166,0.3112462158203125,-0.7924807495117187,-9.026140258789061,0,0,0,0
1.3438334499951452,0.2346317626953125,-0.833182177734375,-9.02135185546875,0,0,0,0
1.3452955069951713,0.29927520751953124,-0.7900865478515624,-9.10993731689453,0,0,0,0
1.3470068009919487,0.32082302246093747,-0.8379705810546875,-9.028534460449219,0,0,0,0
1.348292044000118,0.28490999755859375,-0.7900865478515624,-9.028534460449219,0,0,0,0
1.3494664559984813,0.39743747558593745,-0.9121908325195311,-9.0788126953125,0,0,0,0
1.351019825990079,0.258573779296875,-0.814028564453125,-9.112331518554686,0,0,0,0
1.3523460689903004,0.30885201416015623,-0.7805097412109374,-9.100360510253905,0,0,0,0
1.3535778509976808,0.30885201416015623,-0.8044517578125,-9.088389501953124,0,0,0,0
1.354749391990481,0.2442085693359375,-0.814028564453125,-9.011775048828124,0,0,0,0
1.355944950992125,0.3232172241210937,-0.8259995727539062,-9.03332286376953,0,0,0,0
1.357555376001983,0.33758243408203126,-0.7996633544921875,-9.035717065429687,0,0,0,0
1.358967341002426,0.22026655273437498,-0.7805097412109374,-9.07163009033203,0,0,0,0
1.3601715480035637,0.19393033447265623,-0.8762778076171874,-9.02135185546875,0,0,0,0
1.3613431449921336,0.30885201416015623,-0.8451531860351562,-9.18655177001953,0,0,0,0
1.3625872779957717,0.23702596435546874,-0.8188169677734375,-9.093177905273437,0,0,0,0
1.3638462819944834,0.373495458984375,-0.8188169677734375,-9.064447485351561,0,0,0,0
1.3650195639929734,0.30885201416015623,-0.82360537109375,-9.085995300292968,0,0,0,0
1.366108735994203,0.24660277099609373,-0.8643067993164062,-9.085995300292968,0,0,0,0
1.3672559629922034,0.3806780639648437,-0.7062894897460937,-9.045293872070312,0,0,0,0
1.3688388320006197,0.22026655273437498,-0.7876923461914062,-9.006986645507812,0,0,0,0
1.3699832260026596,0.2657563842773437,-0.8571241943359375,-9.057264880371093,0,0,0,0
1.3710704900004202,0.3280056274414062,-0.8810662109374999,-9.10993731689453,0,0,0,0
1.3722263840027153,0.258573779296875,-0.8499415893554687,-9.145850341796875,0,0,0,0
1.3747413529927144,0.3064578125,-0.7685387329101562,-9.143456140136719,0,0,0,0
1.3759759679960553,0.3136404174804687,-0.7661445312499999,-9.107543115234375,0,0,0,0
1.377532857004553,0.3136404174804687,-0.7757213378906249,-8.990227233886719,0,0,0,0
1.3787199899961706,0.17956512451171874,-0.7805097412109374,-9.045293872070312,0,0,0,0
1.3800834549911087,0.2537853759765625,-0.9002198242187499,-9.14824454345703,0,0,0,0
1.3812333300011232,0.33039982910156246,-0.7805097412109374,-9.035717065429687,0,0,0,0
1.3828700329904677,0.23702596435546874,-0.7876923461914062,-9.05965908203125,0,0,0,0
1.3840517030039337,0.2657563842773437,-0.7517793212890624,-9.042899670410156,0,0,0,0
1.3851358379906742,0.373495458984375,-0.7709329345703124,-9.133879333496093,0,0,0,0
1.3873969779961044,0.2346317626953125,-0.8044517578125,-9.07163009033203,0,0,0,0
1.388674257992534,0.2753331909179687,-0.8020575561523438,-9.030928662109375,0,0,0,0
1.3897547270025825,0.40940848388671874,-0.8092401611328125,-8.997409838867187,0,0,0,0
1.3908282320044236,0.29927520751953124,-0.8188169677734375,-9.095572106933593,0,0,0,0
1.3920661250012927,0.3447650390625,-0.7781155395507812,-9.088389501953124,0,0,0,0
1.3934026639908552,0.2825157958984375,-0.7709329345703124,-8.966285217285156,0,0,0,0
1.394676203999552,0.2609679809570312,-0.7398083129882812,-9.045293872070312,0,0,0,0
1.3957599319983274,0.2657563842773437,-0.82360537109375,-9.07163009033203,0,0,0,0
1.3968295109953033,0.28490999755859375,-0.8283937744140625,-9.004592443847656,0,0,0,0
1.3979120169969974,0.21068974609375,-0.8355763793945312,-9.095572106933593,0,0,0,0
1.3994990159990266,0.22505495605468748,-0.8212111694335937,-9.179369165039063,0,0,0,0
1.4007550940004876,0.430956298828125,-0.8188169677734375,-9.13627353515625,0,0,0,0
1.4018307099904632,0.3447650390625,-0.7541735229492187,-9.102754711914063,0,0,0,0
1.4028994559921557,0.34715924072265625,-0.7254431030273437,-9.0788126953125,0,0,0,0
1.404100831001415,0.239420166015625,-0.8068459594726562,-9.062053283691405,0,0,0,0
