Time (s),Accel X,Accel Y,Accel Z,Gyro X,Gyro Y,Gyro Z,Temperature (C)
0.015232044999720529,0.086191259765625,-9.878476049804688,1.1156979736328125,0,0,0,0
0.01818349199311342,0.0430956298828125,-9.842563024902343,0.9792284790039062,0,0,0,0
0.02159532200312242,0.07900865478515624,-9.809044201660155,1.1252747802734375,0,0,0,0
0.024554898991482332,0.03591302490234375,-9.87608184814453,1.180341418457031,0,0,0,0
0.027826231002109125,0.15322890625,-9.835380419921874,1.0510545288085937,0,0,0,0
0.030725197997526266,0.02154781494140625,-9.888052856445311,1.005564697265625,0,0,0,0
0.03404360299464315,0.09816226806640624,-9.813832604980469,1.1372457885742187,0,0,0,0
0.03702066099504009,0.06703764648437499,-9.847351428222655,1.1540052001953125,0,0,0,0
0.040749099003733136,0.13646949462890623,-9.8449572265625,1.0869675537109373,0,0,0,0
0.044526981000672095,0.028730419921875,-9.93354268798828,1.0390835205078124,0,0,0,0
0.04783710899937432,0.02633621826171875,-9.789890588378906,1.1037269653320312,0,0,0,0
0.05055602200445719,0.13646949462890623,-9.68454571533203,1.16837041015625,0,0,0,0
0.05542405799496919,0.06464344482421874,-9.904812268066406,1.1085153686523437,0,0,0,0
0.05842367099830881,0.031124621582031248,-9.911994873046874,1.0726023437499999,0,0,0,0
0.06290978599281516,0.055066638183593745,-9.928754284667969,0.9935936889648437,0,0,0,0
0.06635518999246415,0.07900865478515624,-9.849745629882811,1.1061211669921875,0,0,0,0
0.07059471499815118,0.143652099609375,-9.835380419921874,1.1420341918945311,0,0,0,0
0.07335175700427499,0.2561795776367187,-9.83777462158203,1.1324573852539062,0,0,0,0
0.0778985740034841,0.0718260498046875,-9.880870251464843,1.1707646118164061,0,0,0,0
0.08069655999133829,0.02154781494140625,-9.888052856445311,1.0175357055664063,0,0,0,0
0.08369109900377225,0.086191259765625,-9.770736975097655,1.1324573852539062,0,0,0,0
0.08639404999848921,0.1005564697265625,-9.871293444824218,1.0726023437499999,0,0,0,0
0.09027459699427709,0.1149216796875,-9.866505041503906,1.1037269653320312,0,0,0,0
0.09319082199363038,0.09576806640624999,-9.832986218261718,0.9959878906249999,0,0,0,0
0.097332830002415,0.09576806640624999,-9.883264453125,1.1133037719726562,0,0,0,0
0.10204336699098349,0.11731588134765625,-9.9215716796875,1.0941501586914062,0,0,0,0
0.10472087300149724,0.016759411621093748,-9.90241806640625,1.1324573852539062,0,0,0,0
0.10581845299748238,0.14125789794921875,-9.840168823242188,1.1540052001953125,0,0,0,0
0.10690440300095361,0.09576806640624999,-9.859322436523437,1.139639990234375,0,0,0,0
0.10799176100408658,0.09337386474609374,-9.816226806640625,1.1372457885742187,0,0,0,0
0.10971553699346259,0.09337386474609374,-9.892841259765625,1.1947066284179686,0,0,0,0
0.11175547599850688,0.08379705810546874,-9.916783276367187,1.0654197387695312,0,0,0,0
0.11300120300438721,0.0430956298828125,-9.883264453125,1.0702081420898437,0,0,0,0
0.11418224500084762,0.02154781494140625,-9.852139831542969,1.0773907470703123,0,0,0,0
0.11554111799341626,0.02154781494140625,-9.842563024902343,1.0678139404296874,0,0,0,0
0.11687721300404519,0.12689268798828124,-9.830592016601562,1.0965443603515623,0,0,0,0
0.11841101000027265,0.2059013427734375,-9.797073193359374,1.180341418457031,0,0,0,0
0.11956394099979661,0.02633621826171875,-9.81862100830078,1.120486376953125,0,0,0,0
0.12085042599937879,0.08140285644531249,-9.871293444824218,1.0989385620117187,0,0,0,0
0.12194954299775418,0.11013327636718749,-9.830592016601562,1.1061211669921875,0,0,0,0
0.12304654899344314,0.1005564697265625,-9.816226806640625,1.1635820068359375,0,0,0,0
0.12420573898998555,0.047884033203124995,-9.945513696289062,1.1635820068359375,0,0,0,0
0.1254997420037398,0.00718260498046875,-9.897629663085937,1.158793603515625,0,0,0,0
0.1265924699982861,0.076614453125,-9.873687646484374,1.1851298217773436,0,0,0,0
0.12768353200226557,0.06464344482421874,-9.861716638183593,1.1133037719726562,0,0,0,0
0.12877413000387605,0.08140285644531249,-9.813832604980469,1.1156979736328125,0,0,0,0
0.12994239399267826,0.11252747802734374,-9.91438907470703,1.13006318359375,0,0,0,0
0.13123975000053179,0.0430956298828125,-9.854534033203125,1.197100830078125,0,0,0,0
0.13244542099710088,0.00239420166015625,-9.801861596679688,1.2306196533203124,0,0,0,0
0.13385997799923643,0.07422025146484375,-9.7683427734375,1.1252747802734375,0,0,0,0
0.13512803800404072,0.08379705810546874,-9.907206469726562,1.0630255371093749,0,0,0,0
0.13642870799230877,0.04548983154296875,-9.952696301269532,1.0486603271484374,0,0,0,0
0.13757006499508861,0.06943184814453125,-9.868899243164062,1.0702081420898437,0,0,0,0
0.1389493640017463,0.1484405029296875,-9.900023864746093,1.1133037719726562,0,0,0,0
0.14022657099121716,0.1292868896484375,-9.813832604980469,1.0893617553710937,0,0,0,0
0.14151020399003755,0.0526724365234375,-9.801861596679688,1.120486376953125,0,0,0,0
0.14262617299391422,0.086191259765625,-9.7683427734375,1.158793603515625,0,0,0,0
0.1437937150039943,0.06703764648437499,-9.730035546875,1.1109095703125,0,0,0,0
0.1448807019914966,0.05027823486328125,-9.897629663085937,1.1324573852539062,0,0,0,0
0.14596783799061086,-0.02154781494140625,-9.847351428222655,1.0845733520507812,0,0,0,0
0.14712747199519072,0.105344873046875,-9.873687646484374,1.024718310546875,0,0,0,0
0.1482760880026035,0.040701428222656245,-9.880870251464843,1.0438719238281249,0,0,0,0
0.14936870499514043,0.062249243164062495,-9.926360083007811,1.1180921752929687,0,0,0,0
0.1508753730013268,0.06943184814453125,-9.91438907470703,1.1252747802734375,0,0,0,0
0.15207182199810632,0.02633621826171875,-9.928754284667969,1.0558429321289062,0,0,0,0
0.15324141999008134,0.033518823242187495,-9.8449572265625,1.0534487304687499,0,0,0,0
0.1543335919996025,0.09816226806640624,-9.830592016601562,1.0726023437499999,0,0,0,0
0.15542024599562865,0.1197100830078125,-9.801861596679688,1.177947216796875,0,0,0,0
0.15687183999398258,0.0526724365234375,-9.873687646484374,1.0917559570312498,0,0,0,0
0.15817025100113824,0.10295067138671875,-9.85692823486328,1.1109095703125,0,0,0,0
0.1594959759968333,0.023942016601562498,-9.928754284667969,1.0989385620117187,0,0,0,0
0.16105917999811936,-0.011971008300781249,-9.880870251464843,1.0630255371093749,0,0,0,0
0.1622550920001231,0.016759411621093748,-9.928754284667969,1.0390835205078124,0,0,0,0
0.1634830599941779,0.06943184814453125,-9.804255798339844,1.1635820068359375,0,0,0,0
0.1651947799982736,0.13646949462890623,-9.823409411621093,1.1851298217773436,0,0,0,0
0.16649852399132214,0.047884033203124995,-9.832986218261718,1.1085153686523437,0,0,0,0
0.16770488099427894,0.105344873046875,-9.873687646484374,1.1707646118164061,0,0,0,0
0.16886429299484007,0.15322890625,-9.85692823486328,1.0797849487304687,0,0,0,0
0.17011866699613165,0.13646949462890623,-9.854534033203125,1.2018892333984375,0,0,0,0
0.1713463569903979,0.11731588134765625,-9.926360083007811,1.0845733520507812,0,0,0,0
0.17247325099015143,0.0718260498046875,-9.9215716796875,1.1276689819335937,0,0,0,0
0.1735695899988059,0.06464344482421874,-9.892841259765625,1.0773907470703123,0,0,0,0
0.17465757799800485,0.105344873046875,-9.871293444824218,1.1444283935546875,0,0,0,0
0.1757483429973945,0.1005564697265625,-9.804255798339844,1.1348515869140625,0,0,0,0
0.17692595899279695,0.11252747802734374,-9.919177478027343,1.0079588989257813,0,0,0,0
0.1780643709935248,0.06943184814453125,-9.871293444824218,1.2114660400390624,0,0,0,0
0.1791630989901023,0.105344873046875,-9.7683427734375,1.158793603515625,0,0,0,0
0.1803590850031469,0.13646949462890623,-9.79946739501953,1.0199299072265624,0,0,0,0
0.1814712019986473,0.05985504150390625,-9.900023864746093,1.0845733520507812,0,0,0,0
0.18266763299470767,0.10295067138671875,-9.878476049804688,1.0630255371093749,0,0,0,0
0.1838901549926959,0.1292868896484375,-9.86411083984375,1.0582371337890624,0,0,0,0
0.1851256590016419,0.07422025146484375,-9.897629663085937,1.1061211669921875,0,0,0,0
0.18649569900298957,0.1292868896484375,-9.866505041503906,1.0678139404296874,0,0,0,0
0.18784062800114043,0.07900865478515624,-9.883264453125,1.0319009155273438,0,0,0,0
0.18909011299547274,0.05027823486328125,-9.854534033203125,1.1563994018554686,0,0,0,0
0.19050489299115725,0.0,-9.763554370117188,1.0630255371093749,0,0,0,0
0.19172587899083737,0.10295067138671875,-9.835380419921874,1.0917559570312498,0,0,0,0
0.19311667799775023,-0.0047884033203125,-9.907206469726562,1.1133037719726562,0,0,0,0
0.19472906600276474,0.17956512451171874,-9.93354268798828,1.139639990234375,0,0,0,0
0.1960139220027486,0.10295067138671875,-9.878476049804688,0.9600748657226562,0,0,0,0
0.1971959450020222,0.11252747802734374,-9.81862100830078,1.1252747802734375,0,0,0,0
0.1984577260009246,0.07422025146484375,-9.897629663085937,1.0917559570312498,0,0,0,0
0.2002287979994435,0.023942016601562498,-9.931148486328125,1.0797849487304687,0,0,0,0
0.20144085799984168,0.12689268798828124,-9.801861596679688,1.0366893188476562,0,0,0,0
0.2025333089986816,0.10773907470703124,-9.821015209960937,1.0749965454101562,0,0,0,0
0.20362653699703515,0.05746083984375,-9.866505041503906,1.0223241088867188,0,0,0,0
0.20485741099400911,0.031124621582031248,-9.87608184814453,1.0031704956054688,0,0,0,0
0.2060277309938101,0.13646949462890623,-9.859322436523437,0.928950244140625,0,0,0,0
0.2071196629985934,0.09337386474609374,-9.873687646484374,1.1444283935546875,0,0,0,0
0.20820746499521192,0.09337386474609374,-9.871293444824218,1.149216796875,0,0,0,0
0.20940452499780804,0.07422025146484375,-9.89523546142578,1.1085153686523437,0,0,0,0
0.2111483749904437,0.10773907470703124,-9.816226806640625,1.1156979736328125,0,0,0,0
0.21227175099193119,0.11013327636718749,-9.950302099609374,1.0654197387695312,0,0,0,0
0.21341338599449955,0.040701428222656245,-9.85692823486328,1.0702081420898437,0,0,0,0
0.21469440800137818,0.033518823242187495,-9.83777462158203,1.1156979736328125,0,0,0,0
0.2160970769909909,0.15562310791015624,-9.797073193359374,1.1827356201171875,0,0,0,0
0.217311599990353,0.1292868896484375,-9.89523546142578,1.24498486328125,0,0,0,0
0.21849351200216915,0.25139117431640623,-9.859322436523437,1.1755530151367186,0,0,0,0
0.21980588500446174,0.06464344482421874,-9.904812268066406,1.0366893188476562,0,0,0,0
0.22120609099511057,0.1149216796875,-9.87608184814453,1.0342951171875,0,0,0,0
0.2230486249900423,0.05746083984375,-9.842563024902343,1.0438719238281249,0,0,0,0
0.22449372000119183,0.05746083984375,-9.816226806640625,1.0462661254882812,0,0,0,0
0.2258119269972667,0.0526724365234375,-9.792284790039062,1.1468225952148436,0,0,0,0
0.22722252100356854,0.07422025146484375,-9.718064538574218,1.1276689819335937,0,0,0,0
0.22890911299327854,0.055066638183593745,-9.86411083984375,1.1827356201171875,0,0,0,0
0.23020374600309879,0.047884033203124995,-9.85692823486328,1.1875240234375,0,0,0,0
0.23143221299687866,0.02154781494140625,-9.888052856445311,1.0702081420898437,0,0,0,0
0.2327583829901414,0.0,-9.916783276367187,1.1252747802734375,0,0,0,0
0.23433449400181416,0.040701428222656245,-9.801861596679688,1.0869675537109373,0,0,0,0
0.23550959100248292,0.10773907470703124,-9.832986218261718,1.1061211669921875,0,0,0,0
0.23675322499184404,0.0,-9.82580361328125,1.1085153686523437,0,0,0,0
0.23800972900062334,0.040701428222656245,-9.785102185058593,1.0630255371093749,0,0,0,0
0.2391463819949422,0.15083470458984374,-9.821015209960937,1.149216796875,0,0,0,0
0.24023785100143868,0.13407529296874998,-9.873687646484374,1.1420341918945311,0,0,0,0
0.24174363000201993,-0.009576806640625,-9.86411083984375,1.0414777221679687,0,0,0,0
0.24285937599779572,0.076614453125,-9.911994873046874,1.0582371337890624,0,0,0,0
0.2441002510022372,0.09816226806640624,-9.880870251464843,1.1061211669921875,0,0,0,0
0.24551954900380224,0.13407529296874998,-9.80665,1.1947066284179686,0,0,0,0
0.24665949899645057,-0.033518823242187495,-9.878476049804688,1.0989385620117187,0,0,0,0
0.24777585599804297,0.086191259765625,-9.900023864746093,1.1133037719726562,0,0,0,0
0.2488630470033968,0.06703764648437499,-9.797073193359374,1.0845733520507812,0,0,0,0
0.24994772000354715,0.086191259765625,-9.763554370117188,1.13006318359375,0,0,0,0
0.2511074469948653,0.12449848632812499,-9.866505041503906,1.149216796875,0,0,0,0
0.2525912999990396,0.1149216796875,-9.897629663085937,1.0630255371093749,0,0,0,0
0.25372437899932265,0.08379705810546874,-9.93354268798828,1.1156979736328125,0,0,0,0
0.25482484800159,0.10773907470703124,-9.91438907470703,1.1516109985351561,0,0,0,0
0.25591198400070425,0.062249243164062495,-9.86411083984375,1.139639990234375,0,0,0,0
0.25712469199788757,0.07422025146484375,-9.859322436523437,1.0965443603515623,0,0,0,0
0.2583178999921074,0.1005564697265625,-9.955090502929687,1.1923124267578125,0,0,0,0
0.259419034991879,0.19393033447265623,-9.813832604980469,1.2042834350585936,0,0,0,0
0.260508466992178,0.105344873046875,-9.775525378417969,1.1923124267578125,0,0,0,0
0.2615937689988641,0.08379705810546874,-9.794678991699218,1.1563994018554686,0,0,0,0
0.2627951070026029,0.031124621582031248,-9.885658654785155,1.120486376953125,0,0,0,0
0.26398576000065077,0.09816226806640624,-9.866505041503906,1.0510545288085937,0,0,0,0
0.26508459899923764,0.20829554443359374,-9.86411083984375,1.1875240234375,0,0,0,0
0.2661740309995366,0.12210428466796874,-9.926360083007811,1.0199299072265624,0,0,0,0
0.2673859060014365,0.033518823242187495,-9.945513696289062,1.0534487304687499,0,0,0,0
0.2685648729966488,0.1149216796875,-9.904812268066406,1.1635820068359375,0,0,0,0
0.26965539799130056,0.1292868896484375,-9.830592016601562,1.1228805786132812,0,0,0,0
0.2707390889991075,0.076614453125,-9.816226806640625,1.120486376953125,0,0,0,0
0.27185268700122833,0.0383072265625,-9.787496386718749,1.1755530151367186,0,0,0,0
0.27305678400443867,0.00718260498046875,-9.79946739501953,1.2808978881835937,0,0,0,0
0.274252659000922,0.06943184814453125,-9.797073193359374,1.0965443603515623,0,0,0,0
0.2753524239960825,0.143652099609375,-9.9215716796875,1.1061211669921875,0,0,0,0
0.27643472599447705,0.086191259765625,-9.911994873046874,1.0726023437499999,0,0,0,0
0.2775190840038704,0.05746083984375,-9.916783276367187,1.0510545288085937,0,0,0,0
0.27870931099459995,-0.00239420166015625,-9.90241806640625,1.139639990234375,0,0,0,0
0.2799073889909778,0.11252747802734374,-9.885658654785155,1.1228805786132812,0,0,0,0
0.28100213599100243,0.02633621826171875,-9.928754284667969,1.0007762939453124,0,0,0,0
0.2820864200039068,0.0526724365234375,-9.83777462158203,1.1420341918945311,0,0,0,0
0.28317136999976356,0.040701428222656245,-9.835380419921874,1.0342951171875,0,0,0,0
0.2843629859999055,0.0909796630859375,-9.787496386718749,1.0654197387695312,0,0,0,0
0.28553311999712605,0.0383072265625,-9.76116016845703,1.0893617553710937,0,0,0,0
0.2866131079936167,0.0047884033203125,-9.849745629882811,1.0773907470703123,0,0,0,0
0.2877055580029264,0.028730419921875,-9.926360083007811,1.0007762939453124,0,0,0,0
0.28879011899698526,0.10773907470703124,-9.9215716796875,1.0941501586914062,0,0,0,0
0.29000823499518447,0.08379705810546874,-9.842563024902343,1.1276689819335937,0,0,0,0
0.2911948510009097,0.05985504150390625,-9.928754284667969,1.0869675537109373,0,0,0,0
0.2922715419990709,0.04548983154296875,-9.885658654785155,1.1372457885742187,0,0,0,0
0.29334106600435916,0.05746083984375,-9.823409411621093,1.1444283935546875,0,0,0,0
0.2944102390029002,0.09337386474609374,-9.801861596679688,1.1133037719726562,0,0,0,0
0.2960865159984678,0.040701428222656245,-9.868899243164062,1.1611878051757811,0,0,0,0
0.29747744399355724,0.143652099609375,-9.82580361328125,1.0917559570312498,0,0,0,0
0.29859141299675684,0.16998831787109375,-9.842563024902343,1.0582371337890624,0,0,0,0
0.29969504800101276,0.0909796630859375,-9.801861596679688,1.0821791503906248,0,0,0,0
0.3011895309900865,0.031124621582031248,-9.919177478027343,1.13006318359375,0,0,0,0
0.30248392299108673,0.08379705810546874,-9.94072529296875,1.1037269653320312,0,0,0,0
0.3035804469982395,0.08858546142578125,-9.880870251464843,1.1851298217773436,0,0,0,0
0.3046694899967406,0.0,-9.809044201660155,1.1372457885742187,0,0,0,0
0.3057522369927028,0.0718260498046875,-9.878476049804688,1.1180921752929687,0,0,0,0
0.30721472000004724,0.1149216796875,-9.952696301269532,1.1875240234375,0,0,0,0
0.30856972199399024,0.1005564697265625,-9.801861596679688,1.177947216796875,0,0,0,0
0.3110784529999364,0.03591302490234375,-9.880870251464843,1.0342951171875,0,0,0,0
0.3127718399919104,0.1388636962890625,-9.911994873046874,1.1013327636718748,0,0,0,0
0.314026362990262,0.033518823242187495,-9.900023864746093,1.139639990234375,0,0,0,0
0.3153469949902501,-0.00239420166015625,-9.883264453125,1.0965443603515623,0,0,0,0
0.3170793089957442,0.047884033203124995,-9.86411083984375,1.1324573852539062,0,0,0,0
0.3192272649903316,0.09337386474609374,-9.957484704589843,1.1156979736328125,0,0,0,0
0.32053923099010717,0.07422025146484375,-9.787496386718749,1.1324573852539062,0,0,0,0
0.3219867139996495,0.13168109130859373,-9.773131176757811,1.1468225952148436,0,0,0,0
0.32337277199258097,0.086191259765625,-9.888052856445311,1.1635820068359375,0,0,0,0
0.3246366279927315,0.05985504150390625,-9.909600671386718,1.0965443603515623,0,0,0,0
0.3258149479952408,0.00718260498046875,-9.911994873046874,1.0917559570312498,0,0,0,0
0.3272546899970621,0.062249243164062495,-9.842563024902343,1.1013327636718748,0,0,0,0
0.32904148400120903,0.05746083984375,-9.87608184814453,0.9935936889648437,0,0,0,0
0.33018471200193744,-0.0047884033203125,-9.85692823486328,1.1348515869140625,0,0,0,0
0.33129530999576673,0.15322890625,-9.8449572265625,1.0678139404296874,0,0,0,0
0.3323836299969116,0.07900865478515624,-9.79946739501953,1.024718310546875,0,0,0,0
0.3335959309915779,0.0909796630859375,-9.835380419921874,1.1348515869140625,0,0,0,0
0.33478419500170276,0.11731588134765625,-9.885658654785155,1.13006318359375,0,0,0,0
0.33604277299309615,0.076614453125,-9.885658654785155,1.2042834350585936,0,0,0,0
0.3371888709953055,0.13168109130859373,-9.847351428222655,1.005564697265625,0,0,0,0
0.33846320799784735,0.05746083984375,-9.909600671386718,1.0582371337890624,0,0,0,0
0.3397309339925414,0.06464344482421874,-9.888052856445311,1.0438719238281249,0,0,0,0
0.3410164369997801,0.023942016601562498,-9.91438907470703,1.005564697265625,0,0,0,0
0.34231694099435117,0.09816226806640624,-9.928754284667969,1.1947066284179686,0,0,0,0
0.34350914899550844,0.2154781494140625,-9.76116016845703,1.1180921752929687,0,0,0,0
0.34471317200222984,0.031124621582031248,-9.744400756835937,1.1085153686523437,0,0,0,0
0.34590591699816287,0.07900865478515624,-9.82580361328125,1.0534487304687499,0,0,0,0
0.3470337559992913,0.11252747802734374,-9.900023864746093,0.9959878906249999,0,0,0,0
0.34820890899572987,0.12449848632812499,-9.821015209960937,1.158793603515625,0,0,0,0
0.34934215499379206,0.062249243164062495,-9.797073193359374,1.1540052001953125,0,0,0,0
0.35056671500205994,0.0383072265625,-9.873687646484374,1.0917559570312498,0,0,0,0
0.3517787009914173,0.031124621582031248,-9.8449572265625,1.0797849487304687,0,0,0,0
0.35300083499168977,0.07900865478515624,-9.770736975097655,1.209071838378906,0,0,0,0
0.3541071179934079,0.17238251953125,-9.82580361328125,1.0678139404296874,0,0,0,0
0.3552020130009623,0.06943184814453125,-9.8449572265625,1.1156979736328125,0,0,0,0
0.35641070299607236,0.076614453125,-9.880870251464843,1.1109095703125,0,0,0,0
0.3575987439980963,0.09337386474609374,-9.849745629882811,1.0749965454101562,0,0,0,0
0.35878889699233696,0.033518823242187495,-9.80665,0.9648632690429687,0,0,0,0
0.35990914299327414,0.0718260498046875,-9.847351428222655,1.0606313354492187,0,0,0,0
0.3611574069946073,0.1005564697265625,-9.91438907470703,1.0678139404296874,0,0,0,0
0.3623949110042304,0.08858546142578125,-9.859322436523437,1.0582371337890624,0,0,0,0
0.3635593049984891,0.086191259765625,-9.821015209960937,1.0893617553710937,0,0,0,0
0.36465519899502397,0.18435352783203124,-9.861716638183593,1.0941501586914062,0,0,0,0
0.3657459270034451,0.47884033203125,-10.089165795898436,0.9624690673828125,0,0,0,0
0.36701483800425194,1.675941162109375,-10.89122335205078,0.5674257934570313,0,0,0,0
0.36819630599347875,3.0023288818359375,-11.190498559570312,-1.1085153686523437,0,0,0,0
0.3693721259915037,2.731784094238281,-11.018116040039061,-2.825157958984375,0,0,0,0
0.37049431599734817,1.7549498168945312,-10.096348400878906,-4.029441394042968,0,0,0,0
0.37159811799938325,-1.8315642700195311,-9.425971936035156,-5.4707507934570305,0,0,0,0
0.3728105490008602,-1.8602946899414061,-9.840168823242188,-6.552929943847656,0,0,0,0
0.3741387549962383,-1.2785036865234374,-9.64623848876953,-7.216123803710937,0,0,0,0
0.3754206110024825,-1.4101847778320311,-9.062053283691405,-7.151480358886718,0,0,0,0
0.3765541719913017,-2.29843359375,-9.801861596679688,-7.802703210449218,0,0,0,0
0.37783832399873063,-0.5243301635742187,-10.283096130371094,-7.615955480957031,0,0,0,0
0.3790504950011382,0.086191259765625,-9.926360083007811,-7.189787585449218,0,0,0,0
0.3801423709955998,-0.8068459594726562,-10.235212097167969,-7.4962453979492185,0,0,0,0
0.38131752399203833,-0.3902548706054687,-10.445901843261717,-6.907271789550781,0,0,0,0
0.38243041800160427,0.5410895751953124,-10.426748229980468,-6.813897924804687,0,0,0,0
0.3836863850010559,0.6631938598632812,-9.832986218261718,-6.4092778442382805,0,0,0,0
0.3848822790023405,-3.2417490478515623,-7.505822204589843,-5.705382556152343,0,0,0,0
0.3859749139955966,-5.829881042480468,-6.979097839355468,-5.099649536132812,0,0,0,0
0.3870728829933796,-5.2073886108398435,-6.744466076660156,-0.7254431030273437,0,0,0,0
0.3884019969991641,-4.189852905273438,-8.142679846191406,2.2936451904296873,0,0,0,0
0.389526928003761,-1.120486376953125,-8.626308581542968,4.685452648925781,0,0,0,0
0.39061017500353046,6.210559106445312,-8.662221606445312,7.50821640625,0,0,0,0
0.3916938839975046,8.508992700195313,-10.168174450683592,8.772354882812499,0,0,0,0
0.3927807610016316,8.808267907714843,-11.762712756347655,8.432378247070313,0,0,0,0
0.394083930994384,4.9823336547851556,-10.237606298828124,7.936778503417968,0,0,0,0
0.3953122309903847,0.7781155395507812,-10.230423693847655,5.013458276367187,0,0,0,0
0.3964045890024863,-1.3455413330078123,-10.488997473144531,4.572925170898437,0,0,0,0
0.3974853539984906,-0.9313444458007812,-9.90241806640625,4.841075756835937,0,0,0,0
0.3985715269955108,0.9313444458007812,-10.450690246582031,4.546588952636719,0,0,0,0
0.3999452330026543,2.6791116577148437,-10.711658227539061,3.5218706420898434,0,0,0,0
0.4014073639991693,1.35990654296875,-9.739612353515625,-0.5123591552734374,0,0,0,0
0.4025010729965288,-1.1348515869140625,-10.089165795898436,-2.6719290527343746,0,0,0,0
0.40358981999452226,-6.040570788574218,-10.903194360351561,-4.273649963378906,0,0,0,0
0.4047981210023863,-5.779602807617187,-11.583147631835937,-4.984727856445312,0,0,0,0
0.40626460399653297,-3.0310593017578125,-12.763489050292968,-3.1483751831054687,0,0,0,0
0.407501940993825,-0.9050082275390624,-13.026851232910156,-1.9991583862304687,0,0,0,0
0.4087718149967259,0.833182177734375,-12.105083593749999,-0.9959878906249999,0,0,0,0
0.4102154279971728,0.1149216796875,-9.306261853027344,0.8020575561523438,0,0,0,0
0.41167052199307363,-2.839523168945312,-8.674192614746094,1.3144167114257812,0,0,0,0
0.4127687689906452,-2.0542250244140625,-9.018957653808593,2.114080065917969,0,0,0,0
0.4138501449924661,0.031124621582031248,-9.430760339355468,3.21780703125,0,0,0,0
0.4151056120026624,2.068590234375,-10.249577307128906,4.7381250854492185,0,0,0,0
0.41667987099208403,4.295197778320312,-10.690110412597656,4.73094248046875,0,0,0,0
0.4180149479943793,4.11802685546875,-9.751583361816406,4.584896179199219,0,0,0,0
0.41923324899107683,2.4444798950195312,-8.939948999023438,2.607285607910156,0,0,0,0
0.4203798469970934,0.239420166015625,-7.467514978027343,1.5897499023437498,0,0,0,0
0.42173314599494915,0.32561142578124996,-7.0078282592773435,1.3838485595703125,0,0,0,0
0.42282687399710994,1.0702081420898437,-7.228094812011718,1.0534487304687499,0,0,0,0
0.4239110839989735,0.9002198242187499,-7.68059892578125,0.4572925170898437,0,0,0,0
0.4250603480031714,0.6200982299804687,-7.7763669921875,-0.8092401611328125,0,0,0,0
0.42640564699831884,-0.7062894897460937,-8.75320126953125,-1.5538368774414062,0,0,0,0
0.4277495389978867,-3.744531396484375,-9.30147344970703,-2.0661960327148434,0,0,0,0
0.42906913500337396,-2.999934680175781,-9.873687646484374,-2.0925322509765625,0,0,0,0
0.43024023200268857,-0.9600748657226562,-10.103531005859374,-0.411802685546875,0,0,0,0
0.43162278999807313,1.908178723144531,-10.481814868164061,0.49320554199218747,0,0,0,0
0.43317434599157423,2.090138049316406,-10.445901843261717,1.3144167114257812,0,0,0,0
0.4344029799976852,1.0175357055664063,-9.794678991699218,1.465251416015625,0,0,0,0
0.43584231499698944,-2.5761609863281247,-10.187328063964843,1.659181750488281,0,0,0,0
0.4369545429944992,-2.0733786376953125,-10.77630167236328,2.0254946044921875,0,0,0,0
0.43803721500444226,-0.0383072265625,-10.781090075683593,3.859453076171875,0,0,0,0
0.43975619500270113,3.284844677734375,-10.965443603515624,4.129997863769531,0,0,0,0
0.44116545699944254,3.6272155151367187,-10.771513269042968,2.877830395507812,0,0,0,0
0.4425045709940605,2.2673089721679687,-10.374075793457031,1.6352397338867186,0,0,0,0
0.4436372799973469,-2.281674182128906,-10.785878479003905,0.5817910034179687,0,0,0,0
0.4447192859952338,-2.2098481323242187,-11.046846459960937,0.24660277099609373,0,0,0,0
0.44588782799837645,-0.040701428222656245,-11.525686791992188,0.679953271484375,0,0,0,0
0.447450031992048,2.04943662109375,-11.030087048339842,0.9744400756835937,0,0,0,0
0.4486377589928452,1.3383587280273437,-10.472238061523436,0.36152445068359373,0,0,0,0
0.45015153699205257,-1.0654197387695312,-9.425971936035156,-1.3120225097656248,0,0,0,0
0.45143476300290786,-3.861847277832031,-9.610325463867188,-1.7022773803710936,0,0,0,0
0.45290420899982564,-3.622427111816406,-9.950302099609374,-1.3766659545898436,0,0,0,0
0.4539944190037204,-0.469263525390625,-10.122684619140625,-0.1867477294921875,0,0,0,0
0.4550840349984355,2.2553379638671873,-10.223241088867187,0.9744400756835937,0,0,0,0
0.45624711499840487,3.356670727539062,-9.512163195800781,1.7166425903320313,0,0,0,0
0.4580903890018817,1.6208745239257811,-8.657433203124999,1.7621324218749999,0,0,0,0
0.45918713600258343,-1.1348515869140625,-8.702923034667968,1.2018892333984375,0,0,0,0
0.4606295449921163,-2.370259643554687,-8.8489693359375,1.6304513305664061,0,0,0,0
0.46233939500234555,0.17477672119140625,-9.100360510253905,3.5769372802734374,0,0,0,0
0.46352021499478724,2.583343591308594,-9.095572106933593,3.821145849609375,0,0,0,0
0.464608109992696,3.4715924072265625,-8.84178673095703,3.5218706420898434,0,0,0,0
0.46605183399515226,2.094926452636719,-8.360552197265624,2.5570073730468748,0,0,0,0
0.46741211399785243,-1.120486376953125,-9.272743029785156,0.30885201416015623,0,0,0,0
0.4686242299940204,-1.6352397338867186,-10.002974536132811,0.028730419921875,0,0,0,0
0.46984247499494813,0.38786066894531246,-10.46984385986328,0.9624690673828125,0,0,0,0
0.47150138099095784,1.9967641845703124,-10.481814868164061,1.0797849487304687,0,0,0,0
0.47270242299418896,2.138022082519531,-10.204087475585936,0.6560112548828124,0,0,0,0
0.4737939469923731,-0.28969840087890625,-9.3852705078125,-0.076614453125,0,0,0,0
0.47487591599929146,-3.404554760742187,-9.026140258789061,-0.8738836059570312,0,0,0,0
0.47633047300041653,-5.003881469726562,-9.41639512939453,-1.2904746948242187,0,0,0,0
0.47770658700028434,-1.4939818359375,-10.915165368652342,-0.1771709228515625,0,0,0,0
0.4788597029983066,1.4101847778320311,-11.532869396972655,0.9888052856445312,0,0,0,0
0.4799477089982247,3.399766357421875,-11.872846032714843,1.8411410766601561,0,0,0,0
0.48111464000248816,4.012681982421875,-9.579200842285156,2.212242333984375,0,0,0,0
0.48277171299559996,-0.9193734375,-9.404424121093749,1.446097802734375,0,0,0,0
0.48398414299299475,-3.394977954101562,-9.830592016601562,0.8786720092773437,0,0,0,0
0.4860152679902967,-1.7286135986328124,-10.50815108642578,1.93451494140625,0,0,0,0
0.48732795599789824,1.3670891479492187,-10.8409451171875,3.5194764404296874,0,0,0,0
0.4886146639910294,4.158728283691406,-10.714052429199219,3.268085266113281,0,0,0,0
0.48975813199649565,2.4588451049804685,-9.236830004882812,2.6431986328124997,0,0,0,0
0.49085184099385515,-0.9552864624023437,-8.559270935058594,1.2330138549804688,0,0,0,0
0.4922477700019954,-3.246537451171875,-8.671798413085938,-0.4860229370117187,0,0,0,0
0.49349414400057867,-3.124433166503906,-9.694122521972655,-0.016759411621093748,0,0,0,0
0.494719221998821,0.7852981445312499,-10.129867224121092,0.8475473876953125,0,0,0,0
0.4958375239948509,2.422932080078125,-10.457872851562499,1.3263877197265623,0,0,0,0
0.4973075439920649,3.5218706420898434,-9.849745629882811,1.2018892333984375,0,0,0,0
0.4984480309940409,1.9608511596679685,-8.2743609375,0.27293898925781246,0,0,0,0
0.4996078879921697,-1.2641384765625,-8.865728747558594,-0.55545478515625,0,0,0,0
0.5007682439900236,-3.6056677001953124,-9.698910925292969,-0.8499415893554687,0,0,0,0
0.5018644719966687,-1.8243816650390623,-10.189722265624999,-0.17477672119140625,0,0,0,0
0.5029819039918948,0.6871358764648438,-10.409988818359375,0.8954314208984374,0,0,0,0
0.5044162569975015,2.849099975585937,-10.338162768554687,2.176329309082031,0,0,0,0
0.5056523359962739,2.540247961425781,-9.114725720214842,2.1787235107421874,0,0,0,0
0.5067794889910147,0.0383072265625,-8.741230261230468,1.5945383056640625,0,0,0,0
0.5078766799997538,-1.7190367919921874,-8.904035974121093,1.0702081420898437,0,0,0,0
0.5089689640008146,-2.2290017456054687,-9.306261853027344,1.448492004394531,0,0,0,0
0.510571203994914,-0.9097966308593749,-10.500968481445312,2.090138049316406,0,0,0,0
0.5117804679903202,2.437297290039062,-10.905588562011719,2.2361843505859373,0,0,0,0
0.5129099920013687,3.3207577026367185,-10.64222637939453,2.0925322509765625,0,0,0,0
0.5140055529918754,1.8171990600585937,-9.859322436523437,1.3311761230468748,0,0,0,0
0.5152124470041599,-1.0342951171875,-9.835380419921874,-0.3711012573242187,0,0,0,0
0.516825112994411,-3.2154128295898436,-9.643844287109374,-0.7326257080078125,0,0,0,0
0.5180744690005668,-1.5466542724609373,-10.39322940673828,-0.0047884033203125,0,0,0,0
0.519266677001724,0.25139117431640623,-10.797849487304687,1.2641384765625,0,0,0,0
0.5205300509987865,1.199495031738281,-10.929530578613281,1.5658078857421873,0,0,0,0
0.5217827029991895,1.5251064575195312,-9.866505041503906,1.6543933471679686,0,0,0,0
0.5233746110025095,-0.8379705810546875,-9.600748657226562,0.5698199951171875,0,0,0,0
0.5245146160013974,-2.8658593872070313,-9.562441430664062,0.5339069702148437,0,0,0,0
0.525780637995922,-1.5155296508789062,-9.792284790039062,1.2401964599609374,0,0,0,0
0.5270097169996006,1.2330138549804688,-10.141838232421874,2.2266075439453124,0,0,0,0
0.5281012039922643,2.961627453613281,-10.206481677246094,2.6240450195312497,0,0,0,0
0.5293798560014693,3.9169139160156248,-9.437942944335937,2.370259643554687,0,0,0,0
0.5332716989942128,-3.028665100097656,-9.349357482910156,0.28012159423828126,0,0,0,0
0.5347674410004402,0.17956512451171874,-9.528922607421874,1.0726023437499999,0,0,0,0
0.5361333879991435,1.5011644409179687,-9.797073193359374,1.678335363769531,0,0,0,0
0.5375005759997293,2.7724855224609373,-8.968679418945312,1.448492004394531,0,0,0,0
0.5386148779944051,2.023100402832031,-9.217676391601563,0.5674257934570313,0,0,0,0
0.5400810279970756,-2.0063409912109376,-9.437942944335937,-0.7852981445312499,0,0,0,0
0.541401993992622,-2.882618798828125,-9.811438403320311,-0.13646949462890623,0,0,0,0
0.5424979069939582,-1.867477294921875,-10.342951171874999,0.6296750366210937,0,0,0,0
0.5435943009943003,0.055066638183593745,-10.328585961914062,1.37906015625,0,0,0,0
0.5446805669926107,2.3487118286132813,-9.679757312011718,2.003946789550781,0,0,0,0
0.546142252991558,2.1787235107421874,-9.30147344970703,2.2385785522460937,0,0,0,0
0.5475064780039247,0.5865794067382812,-9.698910925292969,0.9600748657226562,0,0,0,0
0.5486584829923231,-2.231395947265625,-9.832986218261718,0.5746083984375,0,0,0,0
0.5497483590006595,-1.3072341064453123,-9.770736975097655,0.8882488159179687,0,0,0,0
0.5508339209918631,0.2059013427734375,-10.117896215820313,1.3766659545898436,0,0,0,0
0.5520009070023661,1.199495031738281,-10.785878479003905,1.8770541015625,0,0,0,0
0.5533954650018131,2.1906945190429687,-10.716446630859375,1.8459294799804686,0,0,0,0
0.5544935259968042,1.9201497314453124,-9.868899243164062,1.39821376953125,0,0,0,0
0.5555784949974623,0.5458779785156249,-9.586383447265625,0.9145850341796874,0,0,0,0
0.5566611679969355,-2.1164742675781247,-9.83777462158203,0.40940848388671874,0,0,0,0
0.5580204849975416,-1.4867992309570313,-9.974244116210937,1.2737152832031249,0,0,0,0
0.5598924079968128,0.8714894042968749,-10.534487304687499,1.465251416015625,0,0,0,0
0.5613268169981893,1.908178723144531,-10.127473022460936,1.4939818359375,0,0,0,0
0.5624340639915317,1.4604630126953124,-9.801861596679688,0.8978256225585937,0,0,0,0
0.5636984750017291,-1.5155296508789062,-9.81862100830078,0.3136404174804687,0,0,0,0
0.5650219779927284,-1.944091748046875,-10.029310754394531,0.6081272216796875,0,0,0,0
0.5666975319909398,0.7038952880859375,-10.012551342773437,1.1635820068359375,0,0,0,0
0.5681361079914495,1.4604630126953124,-10.544064111328124,1.429338391113281,0,0,0,0
0.5695919799909461,2.4205378784179685,-9.299079248046874,1.235408056640625,0,0,0,0
0.5712078869983088,-0.3399766357421875,-9.354145886230468,0.062249243164062495,0,0,0,0
0.5726531300024362,-2.35589443359375,-9.53131680908203,-0.23702596435546874,0,0,0,0
0.5739187260041945,-0.9121908325195311,-10.096348400878906,0.15562310791015624,0,0,0,0
0.5754545969975879,0.5099649536132812,-10.180145458984374,1.3096283081054687,0,0,0,0
0.5769186910038115,1.9991583862304687,-9.873687646484374,1.5658078857421873,0,0,0,0
0.5786712449917104,0.13646949462890623,-9.172186560058593,1.235408056640625,0,0,0,0
0.579951933992561,-1.149216796875,-9.052476477050782,0.9911994873046874,0,0,0,0
0.5815012120001484,-1.2378022583007813,-9.880870251464843,1.149216796875,0,0,0,0
0.5827016419934807,0.44532150878906246,-10.228029492187499,1.455674609375,0,0,0,0
0.5841412369918544,0.47644613037109373,-10.481814868164061,1.8650830932617186,0,0,0,0
0.5854163699987112,1.180341418457031,-9.600748657226562,1.889025109863281,0,0,0,0
0.5866194859991083,0.7589619262695312,-9.560047229003906,1.5370774658203123,0,0,0,0
0.5880635429930408,-1.1348515869140625,-9.41639512939453,1.3239935180664062,0,0,0,0
0.5891554010013351,-0.4955997436523437,-9.82580361328125,1.1109095703125,0,0,0,0
0.5902454809984192,0.9552864624023437,-9.97184991455078,1.5179238525390624,0,0,0,0
0.5914566519932123,1.3072341064453123,-10.012551342773437,1.3742717529296875,0,0,0,0
0.5928078400029335,0.8068459594726562,-10.062829577636718,1.0031704956054688,0,0,0,0
0.5939026050036773,-0.17956512451171874,-9.682151513671874,0.9457096557617187,0,0,0,0
0.5950233509938698,-1.438915197753906,-9.909600671386718,0.5865794067382812,0,0,0,0
0.5962220219953451,-1.9225439331054686,-9.976638317871092,0.5434837768554687,0,0,0,0
0.5976038209919352,-1.158793603515625,-10.0748005859375,1.2473790649414063,0,0,0,0
0.5986951969971415,1.2761094848632812,-10.295067138671874,1.4341267944335936,0,0,0,0
0.5997856839967426,0.737414111328125,-10.256759912109374,1.1731588134765625,0,0,0,0
0.6008696719945874,0.6775590698242188,-9.7683427734375,0.8954314208984374,0,0,0,0
0.6020673799939686,-0.0430956298828125,-9.452308154296874,0.4477157104492187,0,0,0,0
0.6034381049976218,-1.2808978881835937,-9.86411083984375,0.5817910034179687,0,0,0,0
0.604533776990138,-1.8052280517578123,-10.172962854003906,0.7733271362304687,0,0,0,0
0.6056164129986428,-0.6919242797851562,-9.964667309570311,1.608903515625,0,0,0,0
0.6067012150015216,2.1116858642578125,-9.552864624023437,2.04943662109375,0,0,0,0
0.6079225709981984,1.68551796875,-9.435548742675781,1.924938134765625,0,0,0,0
0.609277851996012,1.3670891479492187,-9.368511096191405,1.0893617553710937,0,0,0,0
0.6104388379899319,0.031124621582031248,-9.090783703613281,0.4860229370117187,0,0,0,0
0.6115365290024783,-1.8076222534179687,-9.94072529296875,0.1388636962890625,0,0,0,0
0.6126287200022489,-2.365471240234375,-10.50815108642578,0.3112462158203125,0,0,0,0
0.6141059990040958,0.7685387329101562,-10.321403356933594,1.5658078857421873,0,0,0,0
0.6155068899970502,1.9129671264648436,-9.710881933593749,1.6232687255859375,0,0,0,0
0.616600544002722,1.7334020019531249,-9.105148913574219,1.3934253662109375,0,0,0,0
0.6176864939916413,0.42377369384765623,-9.157821350097656,1.0438719238281249,0,0,0,0
0.6191055709932698,-1.2378022583007813,-9.68454571533203,0.3232172241210937,0,0,0,0
0.6204930169915315,-2.5258827514648434,-10.654197387695312,0.28012159423828126,0,0,0,0
0.6215891710016876,-1.9584569580078124,-10.520122094726561,1.1109095703125,0,0,0,0
0.6226728809997439,0.0718260498046875,-10.426748229980468,1.7381904052734374,0,0,0,0
0.6237618680024752,2.138022082519531,-10.211270080566406,1.8698714965820311,0,0,0,0
0.62522125900432,1.7884686401367187,-8.89924757080078,1.3742717529296875,0,0,0,0
0.6266747969930293,-0.13168109130859373,-9.655815295410155,0.7781155395507812,0,0,0,0
0.6278118949994678,-2.1691467041015624,-9.919177478027343,0.6464344482421874,0,0,0,0
0.6289077529945644,-1.2761094848632812,-10.529698901367187,0.70868369140625,0,0,0,0
0.6311115229909774,2.2864625854492187,-10.144232434082031,1.9321207397460936,0,0,0,0
0.632557746997918,2.2601263671875,-9.6917283203125,1.369483349609375,0,0,0,0
0.6336524939979427,1.5562310791015623,-9.318232861328125,0.6368576416015624,0,0,0,0
0.6347416289936518,-2.3870190551757813,-9.552864624023437,0.08140285644531249,0,0,0,0
0.6359452820033766,-3.0358477050781247,-9.68454571533203,0.1005564697265625,0,0,0,0
0.637534670997411,-1.9129671264648436,-10.359710583496094,1.1061211669921875,0,0,0,0
0.638731156999711,2.032677209472656,-10.314220751953124,1.697488977050781,0,0,0,0
0.6400612529978389,2.4157494750976563,-9.8449572265625,1.917755529785156,0,0,0,0
0.6412251089932397,2.1643583007812497,-9.251195214843749,1.2976572998046874,0,0,0,0
0.6425784079910954,0.3495534423828125,-9.375693701171874,0.6440402465820312,0,0,0,0
0.6436802469979739,-1.7932570434570312,-9.907206469726562,0.40940848388671874,0,0,0,0
0.6447685309976805,-2.2768857788085937,-10.481814868164061,0.5291185668945312,0,0,0,0
0.645853943991824,0.3711012573242187,-10.761936462402343,1.5370774658203123,0,0,0,0
0.6470335420017364,2.5570073730468748,-10.620678564453124,2.454056701660156,0,0,0,0
0.6483921369945165,2.9927520751953125,-10.0748005859375,1.9776105712890624,0,0,0,0
0.6494889579917071,2.4971523315429685,-8.480262280273436,1.3838485595703125,0,0,0,0
0.6505743710004026,0.5698199951171875,-8.662221606445312,0.5889736083984375,0,0,0,0
0.6516643029899569,-1.9967641845703124,-9.172186560058593,0.18435352783203124,0,0,0,0
0.6527503090037499,-2.291250988769531,-10.220846887207031,0.21787235107421873,0,0,0,0
0.6542258099943865,0.3687070556640625,-10.800243688964843,1.7453730102539062,0,0,0,0
0.6557649219903396,2.73896669921875,-10.548852514648438,1.7334020019531249,0,0,0,0
0.6568570569943404,2.2457611572265623,-9.770736975097655,1.5251064575195312,0,0,0,0
0.6579810440016445,0.11252747802734374,-8.870517150878905,0.9648632690429687,0,0,0,0
0.6590797349927016,-2.327164013671875,-8.916006982421875,-0.24181436767578124,0,0,0,0
0.662514398994972,0.1292868896484375,-10.620678564453124,1.8100164550781248,0,0,0,0
0.6642672489979304,2.825157958984375,-10.402806213378906,1.889025109863281,0,0,0,0
0.6655616780044511,2.365471240234375,-8.997409838867187,1.388636962890625,0,0,0,0
0.666969790996518,-1.8315642700195311,-9.457096557617186,0.679953271484375,0,0,0,0
0.6680650009948295,-3.0526071166992184,-10.012551342773437,0.239420166015625,0,0,0,0
0.6691468770004576,-2.2266075439453124,-10.390835205078124,0.36631285400390623,0,0,0,0
0.670231957003125,0.105344873046875,-10.220846887207031,2.1164742675781247,0,0,0,0
0.6713946099916939,2.4013842651367185,-10.398017810058594,2.422932080078125,0,0,0,0
0.6727518719999352,2.817975354003906,-9.435548742675781,2.042254016113281,0,0,0,0
0.6738411559927044,0.6536170532226562,-8.889670764160156,1.1947066284179686,0,0,0,0
0.6749504390027141,-1.8818425048828125,-9.289502441406249,0.2753331909179687,0,0,0,0
0.6761094440007582,-3.7038299682617186,-9.797073193359374,-0.3950432739257812,0,0,0,0
0.6774768729956122,-3.009511486816406,-11.051634863281249,0.5315127685546874,0,0,0,0
0.6785639899899252,-0.6775590698242188,-11.077971081542968,1.4700398193359374,0,0,0,0
0.6796508839906892,1.6472107421875,-10.484209069824217,1.9991583862304687,0,0,0,0
0.6807311489974381,3.3542765258789062,-9.516951599121093,2.0638018310546875,0,0,0,0
0.6818994689965621,1.467645617675781,-8.712499841308594,1.5562310791015623,0,0,0,0
0.6832401199935703,-1.6136919189453125,-8.947131604003905,-0.0526724365234375,0,0,0,0
0.6844834579969756,-3.689464758300781,-10.232817895507813,0.0047884033203125,0,0,0,0
0.6863092139974469,-0.584185205078125,-10.460267053222656,1.8914193115234375,0,0,0,0
0.6880474159988808,3.0023288818359375,-10.230423693847655,2.4660277099609376,0,0,0,0
0.6892569759947946,3.900154504394531,-9.828197814941406,1.9704279663085937,0,0,0,0
0.6903474080027081,2.3678654418945313,-8.91840118408203,0.928950244140625,0,0,0,0
0.6914415990031557,-0.7254431030273437,-9.18655177001953,-0.00239420166015625,0,0,0,0
0.6932560040004319,-3.303998291015625,-10.340556970214843,0.28969840087890625,0,0,0,0
0.6957804739940912,2.2601263671875,-10.283096130371094,1.6256629272460936,0,0,0,0
0.6990560839913087,-0.5746083984375,-8.406042028808594,0.7110778930664062,0,0,0,0
0.7006382699910318,-3.5027170288085934,-9.835380419921874,-0.24181436767578124,0,0,0,0
0.7021231039980194,-1.8076222534179687,-10.704475622558594,0.59376201171875,0,0,0,0
0.7037628629914252,2.4133552734375,-11.25514200439453,2.1787235107421874,0,0,0,0
0.7057648949994473,2.4971523315429685,-9.425971936035156,2.4349030883789062,0,0,0,0
0.7074101539910771,-0.13168109130859373,-8.973467822265624,0.7398083129882812,0,0,0,0
0.7090241529949708,-2.7150246826171873,-9.414000927734374,0.3806780639648437,0,0,0,0
0.7102688610029873,-1.4053963745117186,-9.830592016601562,1.2713210815429687,0,0,0,0
0.711489494991838,0.33758243408203126,-10.91037696533203,1.6543933471679686,0,0,0,0
0.7125787230033893,1.85790048828125,-10.54645831298828,1.8602946899414061,0,0,0,0
0.7136812289973022,3.2225954345703123,-9.715670336914062,1.5610194824218748,0,0,0,0
0.7149725100025535,-0.6847416748046875,-9.471461767578125,0.5051765502929687,0,0,0,0
0.7165001029934501,-3.071760729980469,-9.713276135253906,-0.38307226562499996,0,0,0,0
0.7180107339954702,-1.5801730957031248,-10.065223779296874,0.354341845703125,0,0,0,0
0.719510253999033,0.4908113403320312,-10.206481677246094,1.8028338500976562,0,0,0,0
0.7207911089935806,3.0885201416015624,-10.297461340332031,1.9656395629882812,0,0,0,0
0.7220857979991706,2.2098481323242187,-9.674968908691406,1.9656395629882812,0,0,0,0
0.7233901159925153,0.143652099609375,-9.6151138671875,0.70868369140625,0,0,0,0
0.7245715469907736,-2.01112939453125,-9.10993731689453,0.44053310546874996,0,0,0,0
0.7257413109909976,-1.4939818359375,-9.473855969238281,1.0127473022460938,0,0,0,0
0.7269354079908226,0.8451531860351562,-10.16338604736328,1.7669208251953124,0,0,0,0
0.7282086710038129,2.1404162841796874,-9.988609326171874,2.3487118286132813,0,0,0,0
0.7297868750029011,2.559401574707031,-9.591171850585937,1.915361328125,0,0,0,0
0.7310006009938661,0.34237083740234375,-9.634267480468749,0.9864110839843749,0,0,0,0
0.7321857170027215,-2.1499930908203124,-9.445125549316407,-0.011971008300781249,0,0,0,0
0.733435998990899,-3.0238766967773434,-9.629479077148437,-0.19153613281249998,0,0,0,0
0.7349395179917337,-0.05027823486328125,-9.926360083007811,0.5793968017578125,0,0,0,0
0.7361516899982234,1.2880804931640624,-10.024522351074218,1.3000515014648437,0,0,0,0
0.7373292309930548,2.3343466186523436,-9.330203869628905,1.6519991455078125,0,0,0,0
0.7394548729935195,0.45489831542968745,-10.103531005859374,0.3112462158203125,0,0,0,0
0.7407180250011152,-2.4899697265625,-10.177751257324218,-0.13168109130859373,0,0,0,0
0.7419008260039845,-1.7741034301757812,-10.266336718749999,0.48123453369140623,0,0,0,0
0.7431922559917439,-0.181959326171875,-10.556035119628906,1.6160861206054686,0,0,0,0
0.7447401270037517,2.1643583007812497,-10.041281762695311,2.114080065917969,0,0,0,0
0.7459200019948184,2.2290017456054687,-9.33978067626953,2.2361843505859373,0,0,0,0
0.7475785379938316,1.2713210815429687,-9.045293872070312,1.458068811035156,0,0,0,0
0.7491409829963231,-1.254561669921875,-9.49300958251953,0.8212111694335937,0,0,0,0
0.7505384289979702,-1.0079588989257813,-10.347739575195313,0.9337386474609375,0,0,0,0
0.7517260820022784,0.33039982910156246,-10.613495959472656,1.0630255371093749,0,0,0,0
0.752904494991526,1.1611878051757811,-10.50815108642578,1.0989385620117187,0,0,0,0
0.7541645909950603,0.9337386474609375,-10.01015714111328,0.7972691528320313,0,0,0,0
0.7556026480015134,0.13646949462890623,-9.478644372558593,0.5722141967773438,0,0,0,0
0.7567848750040866,-1.0821791503906248,-9.291896643066405,0.47165772705078124,0,0,0,0
0.7585046329913894,-0.46208092041015625,-9.816226806640625,0.9744400756835937,0,0,0,0
0.7599157279910287,0.30885201416015623,-10.254365710449218,1.1468225952148436,0,0,0,0
0.7613110629899893,1.120486376953125,-10.32379755859375,1.2689268798828124,0,0,0,0
0.7631159500015201,-0.3112462158203125,-9.943119494628906,0.8786720092773437,0,0,0,0
0.7646055249933852,-1.3311761230468748,-10.065223779296874,0.8954314208984374,0,0,0,0
0.7659368799941149,-0.1197100830078125,-9.713276135253906,1.5658078857421873,0,0,0,0
0.7672089760017116,0.9074024291992187,-9.603142858886718,1.8938135131835936,0,0,0,0
0.768391776990029,1.35990654296875,-9.550470422363281,1.9752163696289062,0,0,0,0
0.7695720409974456,1.848323681640625,-9.200916979980468,1.7956512451171873,0,0,0,0
0.7715036849986063,-0.14604630126953125,-9.686939916992188,0.737414111328125,0,0,0,0
0.7728552249900531,-1.5035586425781249,-10.098742602539062,0.4381389038085937,0,0,0,0
0.774048599996604,-0.5770026000976562,-10.254365710449218,0.6536170532226562,0,0,0,0
0.7752951229922473,0.3854664672851562,-10.225635290527343,1.2114660400390624,0,0,0,0
0.7771051390009234,1.668758557128906,-9.995791931152343,1.1372457885742187,0,0,0,0
0.778412400992238,0.6727706665039062,-9.519345800781249,0.469263525390625,0,0,0,0
0.7796824789984385,-1.0319009155273438,-9.85692823486328,0.14604630126953125,0,0,0,0
0.7815979750012048,-1.5251064575195312,-9.976638317871092,0.6919242797851562,0,0,0,0
0.7828289979952388,0.7110778930664062,-9.947907897949218,1.0486603271484374,0,0,0,0
0.7840066319913603,0.8164227661132812,-9.82580361328125,1.4221557861328125,0,0,0,0
0.7854975779919187,1.3335703247070312,-9.373299499511718,1.618480322265625,0,0,0,0
0.7867805260029854,-0.2609679809570312,-9.528922607421874,1.4173673828125,0,0,0,0
0.7884200069966028,-0.9337386474609375,-9.832986218261718,1.0869675537109373,0,0,0,0
0.7898131199908676,0.4261678955078125,-10.172962854003906,1.4939818359375,0,0,0,0
0.7912847139959922,1.1947066284179686,-10.199299072265624,1.5586252807617187,0,0,0,0
0.7925416439975379,1.0821791503906248,-9.775525378417969,1.2114660400390624,0,0,0,0
0.7937162229936803,1.1085153686523437,-9.248801013183593,1.0486603271484374,0,0,0,0
0.7948966910043964,-1.216254443359375,-9.552864624023437,0.6296750366210937,0,0,0,0
0.7961792319983942,-1.7405846069335937,-9.842563024902343,0.3327940307617187,0,0,0,0
0.7975980109913507,-0.9457096557617187,-10.448296044921875,0.7924807495117187,0,0,0,0
0.7991136600030586,0.9840168823242187,-10.560823522949217,1.0414777221679687,0,0,0,0
0.8004377750039566,0.565031591796875,-9.821015209960937,0.8786720092773437,0,0,0,0
0.8018702209956245,-0.031124621582031248,-9.102754711914063,0.8020575561523438,0,0,0,0
0.8032186869968427,-1.5634136840820312,-8.95670841064453,0.4740519287109375,0,0,0,0
0.8049539439962246,-0.4572925170898437,-10.376469995117187,1.1133037719726562,0,0,0,0
0.8062919469957706,0.97683427734375,-10.283096130371094,2.2481553588867187,0,0,0,0
0.807749967003474,2.0829554443359375,-10.156203442382813,2.2577321655273437,0,0,0,0
0.8089364159968682,1.898601916503906,-10.036493359375,1.8650830932617186,0,0,0,0
0.8111090579914162,-1.8267758666992187,-9.291896643066405,0.7852981445312499,0,0,0,0
0.8124199869926088,-2.1811177124023438,-9.572018237304688,0.5147533569335937,0,0,0,0
0.8136037139920518,-0.9457096557617187,-10.151415039062499,1.149216796875,0,0,0,0
0.8147793669922976,1.180341418457031,-9.919177478027343,1.4628572143554686,0,0,0,0
0.8160462219966576,1.22583125,-9.65342109375,1.4413093994140624,0,0,0,0
0.8174668540013954,1.350329736328125,-9.368511096191405,0.9026140258789062,0,0,0,0
0.8192699999926845,-1.484405029296875,-9.488221179199218,0.17238251953125,0,0,0,0
0.8204352079919772,-2.221819140625,-10.1131078125,0.33758243408203126,0,0,0,0
0.8216006759903394,-1.0917559570312498,-10.620678564453124,1.0654197387695312,0,0,0,0
0.8231177879933966,1.388636962890625,-10.369287390136718,1.5682020874023437,0,0,0,0
0.8244741980015533,1.2641384765625,-10.105925207519531,1.6017209106445311,0,0,0,0
0.8259423479903489,0.21068974609375,-9.131485131835937,1.4604630126953124,0,0,0,0
0.8271718890027842,-1.2378022583007813,-9.133879333496093,1.20667763671875,0,0,0,0
0.8282670429907739,-1.8602946899414061,-9.452308154296874,0.967257470703125,0,0,0,0
0.8294646589929471,-0.5985504150390625,-10.228029492187499,1.4963760375976562,0,0,0,0
0.8306886079953983,0.842758984375,-10.115502014160155,1.7573440185546874,0,0,0,0
0.8319426109956112,1.6424223388671875,-10.115502014160155,1.649604943847656,0,0,0,0
0.8330963390035322,1.6112977172851561,-10.17056865234375,1.1109095703125,0,0,0,0
0.8342318069917383,-0.28730419921875,-9.572018237304688,0.0526724365234375,0,0,0,0
0.8354969959909795,-2.398990063476562,-9.926360083007811,-0.07422025146484375,0,0,0,0
0.8366186130006099,-2.7940333374023436,-10.199299072265624,0.39743747558593745,0,0,0,0
0.8377002109918976,-1.2521674682617188,-10.172962854003906,1.1061211669921875,0,0,0,0
0.8387806989921955,1.917755529785156,-10.058041174316406,1.5897499023437498,0,0,0,0
0.8398599270003615,1.8626888916015625,-9.677363110351562,1.678335363769531,0,0,0,0
0.8410422279994236,1.9105729248046874,-9.509768994140625,1.3144167114257812,0,0,0,0
0.8422802499990212,0.1484405029296875,-9.062053283691405,0.16041151123046873,0,0,0,0
0.843763251992641,-2.8227637573242186,-9.622296472167967,0.1005564697265625,0,0,0,0
0.8450894400011748,-1.7381904052734374,-9.94072529296875,0.6081272216796875,0,0,0,0
0.8462924999912502,0.47644613037109373,-10.350133776855468,2.3822306518554686,0,0,0,0
0.8478544999961741,3.2321722412109373,-10.029310754394531,2.528276953125,0,0,0,0
0.8493941490014549,2.9544448486328125,-9.871293444824218,1.3335703247070312,0,0,0,0
0.8505779870029073,0.6368576416015624,-9.351751684570312,0.33758243408203126,0,0,0,0
0.8519327859976329,-3.7229835815429686,-9.725247143554688,-0.1388636962890625,0,0,0,0
0.853146901994478,-2.2744915771484373,-10.223241088867187,0.9193734375,0,0,0,0
0.8547846790024778,2.0063409912109376,-10.024522351074218,1.7525556152343749,0,0,0,0
0.856156199995894,2.7078420776367187,-9.591171850585937,1.9225439331054686,0,0,0,0
0.8573496119934134,2.7964275390625,-9.612719665527344,1.0462661254882812,0,0,0,0
0.8592732379911467,-2.492363928222656,-9.354145886230468,-0.28969840087890625,0,0,0,0
0.8605458529928001,-3.5673604736328124,-10.74517705078125,0.076614453125,0,0,0,0
0.8617232459946536,-2.176329309082031,-10.73799444580078,1.177947216796875,0,0,0,0
0.8630548789951717,1.6232687255859375,-10.359710583496094,1.9704279663085937,0,0,0,0
0.8644276589911897,2.2385785522460937,-9.952696301269532,2.2840683837890623,0,0,0,0
0.8656933110032696,2.7916391357421872,-8.717288244628906,1.9584569580078124,0,0,0,0
0.8668538159981836,-1.3407529296874998,-8.779537487792968,1.1707646118164061,0,0,0,0
0.8679568770021433,-2.6982652709960937,-9.4618849609375,0.47644613037109373,0,0,0,0
0.8691669739928329,-1.7956512451171873,-10.462661254882812,0.4261678955078125,0,0,0,0
0.8703576269908808,-0.09576806640624999,-10.819397302246093,1.6831237670898436,0,0,0,0
0.8714557999919634,1.5873557006835937,-10.74517705078125,1.8100164550781248,0,0,0,0
0.8725377869996009,2.1978771240234374,-9.804255798339844,1.6160861206054686,0,0,0,0
0.8736939590016846,2.2194249389648437,-9.131485131835937,1.0726023437499999,0,0,0,0
0.8751323309988948,-2.0374656127929685,-8.82981572265625,0.2609679809570312,0,0,0,0
0.8763517799961846,-3.0693665283203124,-9.10993731689453,0.01915361328125,0,0,0,0
0.8774782109976513,-1.9009961181640624,-9.916783276367187,0.7924807495117187,0,0,0,0
0.8785644019953907,-0.3136404174804687,-10.522516296386717,1.2761094848632812,0,0,0,0
0.8796537779999198,1.2569558715820313,-10.421959826660157,1.5849614990234373,0,0,0,0
0.8808807079913095,2.6527754394531247,-9.97903251953125,1.6232687255859375,0,0,0,0
0.8820500279980479,1.0510545288085937,-9.062053283691405,1.3144167114257812,0,0,0,0
0.8831436640030006,-1.8052280517578123,-8.90643017578125,0.5291185668945312,0,0,0,0
0.8842225769913057,-3.1483751831054687,-9.315838659667968,0.3232172241210937,0,0,0,0
0.8853047869924922,-2.2553379638671873,-10.043675964355469,1.47482822265625,0,0,0,0
0.8865416059998097,-0.32082302246093747,-10.151415039062499,2.231395947265625,0,0,0,0
0.8876848700019764,1.5634136840820312,-9.911994873046874,2.6527754394531247,0,0,0,0
0.8888832630036632,3.6655227416992187,-9.730035546875,2.602497204589844,0,0,0,0
0.890010083996458,1.8842367065429686,-8.901641772460938,2.01112939453125,0,0,0,0
0.8912307729915483,-1.43652099609375,-8.990227233886719,0.6775590698242188,0,0,0,0
0.8924319439975079,-3.1411925781249996,-9.713276135253906,-0.2657563842773437,0,0,0,0
0.8935286539926892,-2.5905261962890624,-10.74517705078125,0.430956298828125,0,0,0,0
0.8946169370028656,-1.2880804931640624,-10.759542260742187,1.2114660400390624,0,0,0,0
0.8957287209923379,0.7206546997070312,-10.43871923828125,1.8028338500976562,0,0,0,0
0.8968179119983688,3.1364041748046874,-9.732429748535155,1.9776105712890624,0,0,0,0
0.8980470829992555,1.9129671264648436,-8.836998327636719,1.6472107421875,0,0,0,0
0.8994992509979056,-1.01514150390625,-9.028534460449219,0.08140285644531249,0,0,0,0
0.9006384779931977,-2.9664158569335934,-10.12507882080078,-0.1388636962890625,0,0,0,0
0.9017864649940748,-1.4508862060546874,-11.145008728027342,0.469263525390625,0,0,0,0
0.9029981549974764,0.13168109130859373,-11.463437548828125,1.1252747802734375,0,0,0,0
0.9042898059997242,1.678335363769531,-11.334150659179686,2.319981408691406,0,0,0,0
0.9056836050003767,3.670311145019531,-9.366116894531249,2.31758720703125,0,0,0,0
0.9068491840007482,-0.36391865234375,-8.413224633789062,1.5921441040039062,0,0,0,0
0.9080779100040672,-2.3678654418945313,-8.40843623046875,0.8547299926757812,0,0,0,0
0.9093520439928398,-2.2673089721679687,-9.598354455566406,0.7445967163085937,0,0,0,0
0.9106301209976664,-0.8834604125976562,-10.613495959472656,1.1180921752929687,0,0,0,0
0.9118119969934924,1.7669208251953124,-10.462661254882812,1.4006079711914061,0,0,0,0
0.9129071130009834,2.6240450195312497,-10.20887587890625,1.3575123413085937,0,0,0,0
0.9139951190009015,1.254561669921875,-9.366116894531249,1.0726023437499999,0,0,0,0
0.9152149010042194,-1.37906015625,-8.968679418945312,0.26815058593749996,0,0,0,0
0.9165925339912064,-2.205059729003906,-9.184157568359375,-0.06943184814453125,0,0,0,0
0.9178945739986375,-0.8116343627929687,-9.440337145996093,0.5219359619140624,0,0,0,0
0.9191386149905156,0.3902548706054687,-10.031704956054687,0.9504980590820312,0,0,0,0
0.9204182109970134,1.3144167114257812,-10.654197387695312,1.656787548828125,0,0,0,0
0.921948433999205,1.5945383056640625,-9.064447485351561,1.6472107421875,0,0,0,0
0.9232285489997594,-0.7996633544921875,-8.80347950439453,0.6631938598632812,0,0,0,0
0.9245367929979693,-2.152387292480469,-9.809044201660155,0.565031591796875,0,0,0,0
0.9257230939983856,-2.195482922363281,-10.20169327392578,1.1731588134765625,0,0,0,0
0.9273795929912012,0.9911994873046874,-10.275913525390624,2.327164013671875,0,0,0,0
0.9288167060003616,3.289633081054687,-10.335768566894531,2.2744915771484373,0,0,0,0
0.9304040580027504,1.8100164550781248,-9.713276135253906,0.842758984375,0,0,0,0
0.931714356993325,-1.1324573852539062,-9.682151513671874,0.33518823242187495,0,0,0,0
0.9329851759976009,-2.29843359375,-10.24718310546875,0.033518823242187495,0,0,0,0
0.9343642899912084,-1.3718775512695311,-10.330980163574218,1.0127473022460938,0,0,0,0
0.9358914199983701,1.2210428466796874,-10.54645831298828,1.4604630126953124,0,0,0,0
0.9371958120027557,2.588131994628906,-10.357316381835936,1.6136919189453125,0,0,0,0
0.9387704419932561,-0.43574470214843747,-8.9255837890625,0.9026140258789062,0,0,0,0
0.9403731089987559,-1.7764976318359373,-9.392453112792968,0.1005564697265625,0,0,0,0
0.9417376299970783,-1.8842367065429686,-10.539275708007812,0.5123591552734374,0,0,0,0
0.9430232809972949,-0.21787235107421873,-10.429142431640624,1.01514150390625,0,0,0,0
0.944207248991006,0.7110778930664062,-10.24718310546875,1.5777788940429687,0,0,0,0
0.9455795660032891,2.3151930053710936,-9.145850341796875,2.1691467041015624,0,0,0,0
0.9468576439976459,0.35194764404296874,-8.801085302734375,1.7956512451171873,0,0,0,0
0.94815001799725,-0.5530605834960938,-9.107543115234375,1.5298948608398437,0,0,0,0
0.9497974620026071,-0.5099649536132812,-10.081983190917969,0.9648632690429687,0,0,0,0
0.9511284089967376,-0.45010991210937495,-10.347739575195313,0.8906430175781249,0,0,0,0
0.9525696519995108,0.13407529296874998,-10.419565624999999,1.0582371337890624,0,0,0,0
0.9539554689981742,1.3144167114257812,-9.682151513671874,1.01514150390625,0,0,0,0
0.9551593069918454,-0.258573779296875,-9.191340173339842,0.679953271484375,0,0,0,0
0.9563378489983734,-1.2641384765625,-8.796296899414061,0.316034619140625,0,0,0,0
0.9577945539931534,-0.6057330200195312,-9.670180505371093,0.6009446166992187,0,0,0,0
0.9592865549930139,-0.2346317626953125,-9.931148486328125,0.9792284790039062,0,0,0,0
0.9605935029976536,0.13407529296874998,-10.541669909667968,1.2306196533203124,0,0,0,0
0.9619697089947294,1.209071838378906,-9.696516723632811,1.4221557861328125,0,0,0,0
0.9636380040028598,-0.19871873779296872,-9.53131680908203,1.0319009155273438,0,0,0,0
0.9649747109942837,-0.9457096557617187,-9.76116016845703,1.0199299072265624,0,0,0,0
0.9662485299922992,0.0718260498046875,-9.849745629882811,1.6711527587890624,0,0,0,0
0.9674381639924832,0.70868369140625,-9.909600671386718,1.879448303222656,0,0,0,0
0.9687109270016663,1.2138602416992186,-10.43871923828125,1.7884686401367187,0,0,0,0
0.9703396489931038,0.842758984375,-9.892841259765625,0.9983820922851562,0,0,0,0
0.9716646519955248,-0.6248866333007812,-9.682151513671874,0.6584054565429687,0,0,0,0
0.9728531559958356,-1.2569558715820313,-10.065223779296874,0.35673604736328124,0,0,0,0
0.9741164199949708,-0.46686932373046874,-10.12507882080078,0.7565677246093749,0,0,0,0
0.9755496439902345,-0.04548983154296875,-10.244788903808594,1.1037269653320312,0,0,0,0
0.9768359619920375,1.7166425903320313,-10.390835205078124,1.1372457885742187,0,0,0,0
0.9781176319957012,0.7541735229492187,-9.5001921875,1.0941501586914062,0,0,0,0
0.9793729319935665,-1.1324573852539062,-9.5001921875,0.603338818359375,0,0,0,0
0.9806296769966139,-1.4987702392578124,-10.304643945312499,0.5578489868164063,0,0,0,0
0.9819901239970932,0.3591302490234375,-10.319009155273436,1.0486603271484374,0,0,0,0
0.9832626279967371,0.5530605834960938,-9.923965881347655,1.2593500732421874,0,0,0,0
0.9845554829953471,0.4213794921875,-9.80665,1.70467158203125,0,0,0,0
0.985808116995031,0.5458779785156249,-9.342174877929686,1.6160861206054686,0,0,0,0
0.9871298789948924,-0.7493851196289062,-9.131485131835937,1.3934253662109375,0,0,0,0
0.9883779939991655,-0.8188169677734375,-9.267954626464844,1.1372457885742187,0,0,0,0
0.9896666459972039,0.1005564697265625,-10.192116467285155,1.5610194824218748,0,0,0,0
0.9910090379999019,0.8690952026367187,-10.05564697265625,1.3862427612304686,0,0,0,0
0.9922678930015536,0.5434837768554687,-10.175357055664062,1.2114660400390624,0,0,0,0
0.9934691759990528,0.8547299926757812,-9.868899243164062,0.6919242797851562,0,0,0,0
0.9946250700013479,-0.3950432739257812,-9.02135185546875,0.40940848388671874,0,0,0,0
0.9961603849951643,-1.697488977050781,-9.433154541015625,0.29927520751953124,0,0,0,0
0.9972710570000345,-0.5123591552734374,-9.926360083007811,1.1516109985351561,0,0,0,0
0.9984953209932428,0.842758984375,-9.81862100830078,1.3551181396484375,0,0,0,0
0.9996578809950734,1.3287819213867187,-10.307038146972655,1.2976572998046874,0,0,0,0
1.0009094409906538,1.0845733520507812,-10.340556970214843,0.9313444458007812,0,0,0,0
1.0021266679977998,-0.28012159423828126,-9.749189160156249,0.9145850341796874,0,0,0,0
1.0032301360042766,-1.85790048828125,-9.782707983398437,0.6584054565429687,0,0,0,0
1.0044757330033462,-1.8818425048828125,-10.014945544433592,1.1659762084960936,0,0,0,0
1.0056533669994678,-0.5817910034179687,-10.108319409179687,1.8770541015625,0,0,0,0
1.0068501499918057,1.7357962036132812,-9.938331091308592,2.1499930908203124,0,0,0,0
1.0080113580042962,1.7310078002929687,-9.674968908691406,2.0973206542968748,0,0,0,0
1.0092423809983302,1.7621324218749999,-9.639055883789062,1.7022773803710936,0,0,0,0
1.0103397569910157,0.143652099609375,-9.344569079589844,0.47884033203125,0,0,0,0
1.0116846119926777,-1.838746875,-10.012551342773437,0.3112462158203125,0,0,0,0
1.013111909996951,-1.0366893188476562,-10.828974108886719,0.29927520751953124,0,0,0,0
1.014472579001449,0.3711012573242187,-10.50815108642578,1.2282254516601563,0,0,0,0
1.0156010659993626,1.2138602416992186,-9.53131680908203,1.3359645263671873,0,0,0,0
1.0170684939948842,1.608903515625,-9.244012609863281,1.1156979736328125,0,0,0,0
1.0185086620040238,0.24899697265624998,-8.70771143798828,0.46686932373046874,0,0,0,0
1.0196951669931877,-1.5873557006835937,-9.334992272949219,0.27293898925781246,0,0,0,0
1.0208665980026126,-1.1635820068359375,-10.263942517089843,0.4261678955078125,0,0,0,0
1.02218724899285,0.5458779785156249,-10.627861169433594,1.5777788940429687,0,0,0,0
1.0236201579973567,1.5729904907226562,-10.335768566894531,1.8555062866210936,0,0,0,0
1.024870031993487,1.5586252807617187,-9.366116894531249,1.7310078002929687,0,0,0,0
1.0263370149914408,-0.14604630126953125,-8.722076647949219,1.0678139404296874,0,0,0,0
1.0275419090030482,-1.675941162109375,-9.275137231445312,1.024718310546875,0,0,0,0
1.0292610180040356,-0.33758243408203126,-10.639832177734375,1.2425906616210938,0,0,0,0
1.0308284259954235,2.2840683837890623,-10.465055456542968,1.8722656982421875,0,0,0,0
1.0327754399913829,1.5634136840820312,-9.835380419921874,0.47644613037109373,0,0,0,0
1.0346113449922996,-0.8499415893554687,-9.490615380859374,-0.15562310791015624,0,0,0,0
1.03590303400415,-3.0502129150390624,-10.053252770996092,-0.2657563842773437,0,0,0,0
1.037161277999985,-1.4604630126953124,-10.83376251220703,1.0845733520507812,0,0,0,0
1.0395174919976853,2.250549560546875,-9.7683427734375,1.697488977050781,0,0,0,0
1.0409203460003482,1.7286135986328124,-8.884882360839843,1.43652099609375,0,0,0,0
1.042291532998206,-0.19871873779296872,-8.37012900390625,0.38307226562499996,0,0,0,0
1.0436088330025086,-2.123656872558594,-9.993397729492187,0.469263525390625,0,0,0,0
1.0448890959960409,-1.1109095703125,-10.764330664062498,0.8259995727539062,0,0,0,0
1.046363375004148,0.5698199951171875,-10.383652600097655,2.408566870117187,0,0,0,0
1.0478340059926268,2.499546533203125,-10.002974536132811,2.5450363647460934,0,0,0,0
1.049165656993864,2.7533319091796873,-9.78031378173828,2.224213342285156,0,0,0,0
1.050475733994972,0.4429273071289062,-9.016563452148437,0.7685387329101562,0,0,0,0
1.0518439589941408,-2.250549560546875,-9.471461767578125,0.3687070556640625,0,0,0,0
1.0533291269966867,-1.2856862915039062,-10.216058483886718,0.7924807495117187,0,0,0,0
1.0547291289985878,0.28730419921875,-10.089165795898436,1.0390835205078124,0,0,0,0
1.0561198909999803,1.4173673828125,-9.753977563476562,1.2617442749023438,0,0,0,0
1.0574297830025898,1.905784521484375,-9.241618408203124,0.8643067993164062,0,0,0,0
1.05879445199389,0.2154781494140625,-9.299079248046874,0.22026655273437498,0,0,0,0
1.060070862993598,-2.8514941772460936,-9.952696301269532,-0.09576806640624999,0,0,0,0
1.0614242739975452,-1.5969325073242187,-10.656591589355468,1.0941501586914062,0,0,0,0
1.063107754001976,1.458068811035156,-10.457872851562499,1.7166425903320313,0,0,0,0
1.0644936269964091,1.5131354492187499,-10.149020837402343,1.8339584716796873,0,0,0,0
1.065910757999518,0.34237083740234375,-9.397241516113281,1.6639701538085936,0,0,0,0
1.0674708879960235,-1.3431471313476562,-9.279925634765624,1.177947216796875,0,0,0,0
1.0689977599977283,-0.6679822631835937,-9.976638317871092,1.3072341064453123,0,0,0,0
1.070497908993275,0.6943184814453125,-10.441113439941406,1.936909143066406,0,0,0,0
1.0720667790010339,1.917755529785156,-10.460267053222656,1.944091748046875,0,0,0,0
1.0736254829971585,1.886630908203125,-9.466673364257812,0.9026140258789062,0,0,0,0
1.0751704099966446,-2.123656872558594,-9.289502441406249,0.29448680419921874,0,0,0,0
1.0765311349969124,-2.7653029174804686,-9.672574707031249,0.12210428466796874,0,0,0,0
1.0780289139947854,-0.19153613281249998,-9.713276135253906,0.8930372192382812,0,0,0,0
1.0794737120013451,1.3575123413085937,-9.739612353515625,1.5729904907226562,0,0,0,0
1.0809079360042233,2.540247961425781,-10.091559997558592,1.4341267944335936,0,0,0,0
1.0824112519912887,0.8690952026367187,-9.655815295410155,0.3902548706054687,0,0,0,0
1.0837153289903654,-1.6831237670898436,-9.880870251464843,0.18914193115234373,0,0,0,0
1.084976407000795,-2.437297290039062,-10.165780249023436,0.2537853759765625,0,0,0,0
1.0862298739957623,-0.6775590698242188,-10.002974536132811,1.2713210815429687,0,0,0,0
1.0875120260025142,1.2282254516601563,-9.967061511230469,2.5713725830078125,0,0,0,0
1.0890173410007264,3.6152445068359373,-9.835380419921874,2.4947581298828125,0,0,0,0
1.0902332160039805,2.142810485839844,-9.150638745117186,1.867477294921875,0,0,0,0
1.091537348998827,-0.7326257080078125,-9.275137231445312,0.09576806640624999,0,0,0,0
1.092820870995638,-2.463633508300781,-10.115502014160155,-0.1580173095703125,0,0,0,0
1.094029172003502,-0.8068459594726562,-10.256759912109374,0.5363011718749999,0,0,0,0
1.095471524997265,0.8547299926757812,-10.194510668945313,1.5346832641601562,0,0,0,0
1.0966823819908313,1.927332336425781,-9.770736975097655,1.5490484741210937,0,0,0,0
1.0978717010002583,1.3623007446289062,-9.414000927734374,1.2210428466796874,0,0,0,0
1.0991074460034724,-1.3168109130859373,-9.2320416015625,0.5123591552734374,0,0,0,0
1.1003258019918576,-2.942473840332031,-9.488221179199218,-0.277727392578125,0,0,0,0
1.1015422140044393,-2.5354595581054684,-10.409988818359375,0.5913678100585937,0,0,0,0
1.1026253309973981,-0.9624690673828125,-10.558429321289061,1.3239935180664062,0,0,0,0
1.103728632995626,0.7062894897460937,-10.575188732910156,1.8459294799804686,0,0,0,0
1.1047996019915445,1.908178723144531,-10.04846436767578,2.2170307373046874,0,0,0,0
1.1060256060009124,1.7741034301757812,-9.066841687011719,1.9225439331054686,0,0,0,0
1.1072855179954786,-1.0510545288085937,-8.695740429687499,1.2114660400390624,0,0,0,0
1.1084819109964883,-2.7557261108398436,-9.145850341796875,0.5410895751953124,0,0,0,0
1.109570768996491,-2.080561242675781,-10.204087475585936,1.369483349609375,0,0,0,0
1.1109053090040106,1.458068811035156,-10.635043774414061,1.714248388671875,0,0,0,0
1.1121919599972898,1.6543933471679686,-9.797073193359374,1.9704279663085937,0,0,0,0
1.113358317001257,2.437297290039062,-9.696516723632811,1.8148048583984373,0,0,0,0
1.1144385819934541,1.216254443359375,-9.598354455566406,0.6775590698242188,0,0,0,0
1.1157196790009039,-1.0462661254882812,-9.5384994140625,-0.04548983154296875,0,0,0,0
1.1170389039907604,-2.1116858642578125,-9.995791931152343,-0.023942016601562498,0,0,0,0
1.1182667419925565,-0.6607996582031249,-10.419565624999999,0.6679822631835937,0,0,0,0
1.1194597089925082,0.32561142578124996,-10.381258398437499,1.5346832641601562,0,0,0,0
1.1205487150000408,0.86191259765625,-10.005368737792969,1.7980454467773437,0,0,0,0
1.1216211470018607,2.262520568847656,-8.892064965820312,1.7621324218749999,0,0,0,0
1.1226964489906095,1.9632453613281249,-8.942343200683593,1.216254443359375,0,0,0,0
1.1241018769942457,-1.9297265380859374,-9.337386474609374,0.6727706665039062,0,0,0,0
1.125289529998554,-2.0661960327148434,-10.213664282226562,0.411802685546875,0,0,0,0
1.1263796659914078,-0.9624690673828125,-10.556035119628906,1.4820108276367188,0,0,0,0
1.127578967003501,0.7613561279296874,-10.694898815917968,1.848323681640625,0,0,0,0
1.1289615249988856,2.91134921875,-10.158597644042969,1.917755529785156,0,0,0,0
1.1301832329918398,1.5634136840820312,-9.337386474609374,1.695094775390625,0,0,0,0
1.131366273999447,-0.8212111694335937,-9.138667736816405,0.9888052856445312,0,0,0,0
1.132451169003616,-2.1547814941406247,-9.545682019042967,-0.02633621826171875,0,0,0,0
1.1335254709993023,-1.9584569580078124,-9.883264453125,0.5578489868164063,0,0,0,0
1.134855308002443,0.19153613281249998,-10.311826550292968,0.9864110839843749,0,0,0,0
1.1361403109913226,0.9720458740234375,-10.551246716308594,1.3024457031249999,0,0,0,0
1.137472832997446,1.8100164550781248,-10.304643945312499,1.3215993164062498,0,0,0,0
1.1385588019911665,1.3263877197265623,-9.392453112792968,0.9983820922851562,0,0,0,0
1.1399505629960913,-1.5777788940429687,-9.289502441406249,0.6727706665039062,0,0,0,0
1.1411846970004262,-1.5801730957031248,-10.012551342773437,0.8475473876953125,0,0,0,0
1.1425833469984354,-0.833182177734375,-10.40041201171875,1.3575123413085937,0,0,0,0
1.1436765379912686,0.19871873779296872,-10.460267053222656,1.7669208251953124,0,0,0,0
1.144754043998546,1.177947216796875,-9.89523546142578,1.936909143066406,0,0,0,0
1.146259952991386,1.4030021728515625,-9.145850341796875,2.1021090576171875,0,0,0,0
1.1477010099915788,-0.13168109130859373,-8.90643017578125,1.139639990234375,0,0,0,0
1.1488896810042206,-0.7996633544921875,-9.066841687011719,1.0390835205078124,0,0,0,0
1.149983928000438,-0.15083470458984374,-9.354145886230468,1.2234370483398436,0,0,0,0
1.1510802669945406,0.6368576416015624,-10.20169327392578,1.2425906616210938,0,0,0,0
1.152238253998803,1.024718310546875,-10.658985791015624,1.2114660400390624,0,0,0,0
1.15401101099269,0.7254431030273437,-10.014945544433592,0.93852705078125,0,0,0,0
1.155330180990859,-0.5770026000976562,-9.586383447265625,0.29927520751953124,0,0,0,0
1.1568639960023575,-1.66636435546875,-9.588777648925781,0.16280571289062498,0,0,0,0
1.1582804060017224,-0.9552864624023437,-10.046070166015625,0.967257470703125,0,0,0,0
1.1599591269914526,0.9409212524414062,-10.500968481445312,1.2952630981445312,0,0,0,0
1.1614943309978116,1.9991583862304687,-10.59194814453125,1.407790576171875,0,0,0,0
1.163002036002581,-0.5386953735351562,-9.718064538574218,0.928950244140625,0,0,0,0
1.1643050019920338,-1.687912170410156,-9.765948571777344,0.6703764648437499,0,0,0,0
1.1654872660001274,-1.3646949462890625,-9.95987890625,1.177947216796875,0,0,0,0
1.1666663079959108,-0.46208092041015625,-10.105925207519531,1.6639701538085936,0,0,0,0
1.1679233489994658,1.1659762084960936,-10.228029492187499,2.0087351928710935,0,0,0,0
1.1699745469959453,1.0845733520507812,-9.696516723632811,1.9728221679687499,0,0,0,0
1.1714788629906252,-0.4213794921875,-9.543287817382812,1.0007762939453124,0,0,0,0
1.1730064010043861,-0.8547299926757812,-9.900023864746093,0.6584054565429687,0,0,0,0
1.1742460340028629,-0.19632453613281248,-9.821015209960937,0.8906430175781249,0,0,0,0
1.17543063199264,0.26815058593749996,-9.900023864746093,1.177947216796875,0,0,0,0
1.176609654998174,0.737414111328125,-9.76116016845703,1.216254443359375,0,0,0,0
1.1778561410028487,0.6823474731445313,-9.229647399902344,1.0390835205078124,0,0,0,0
1.1792508469952736,-0.7685387329101562,-9.490615380859374,0.7038952880859375,0,0,0,0
1.1804334249900421,-1.43652099609375,-9.74200655517578,0.5051765502929687,0,0,0,0
1.181609801002196,-0.7661445312499999,-10.199299072265624,0.8547299926757812,0,0,0,0
1.1828472490014974,0.5410895751953124,-10.067617980957031,0.97683427734375,0,0,0,0
1.184196066998993,0.5913678100585937,-10.12507882080078,1.0079588989257813,0,0,0,0
1.1853606090007816,0.8020575561523438,-10.194510668945313,0.9816226806640624,0,0,0,0
1.1865215029974934,-0.239420166015625,-9.821015209960937,0.9528922607421875,0,0,0,0
1.1877789699938148,-1.4867992309570313,-9.878476049804688,1.1563994018554686,0,0,0,0
1.1891118799976539,0.3950432739257812,-10.235212097167969,1.4963760375976562,0,0,0,0
1.1902906809991691,1.1947066284179686,-9.952696301269532,1.9105729248046874,0,0,0,0
1.1914690749981673,1.158793603515625,-9.634267480468749,1.848323681640625,0,0,0,0
1.1927028569916729,0.9624690673828125,-9.576806640625,1.446097802734375,0,0,0,0
1.1940598039946053,-0.031124621582031248,-8.997409838867187,1.1516109985351561,0,0,0,0
1.1952411419915734,-1.1563994018554686,-9.208099584960937,0.7517793212890624,0,0,0,0
1.1964203319948865,-1.3311761230468748,-9.509768994140625,0.6344634399414062,0,0,0,0
1.1976567059900844,-0.28969840087890625,-10.022128149414062,1.0271125122070313,0,0,0,0
1.1990360049967421,1.1516109985351561,-10.182539660644531,1.0869675537109373,0,0,0,0
1.2001993250014493,0.9002198242187499,-10.266336718749999,0.9241618408203125,0,0,0,0
1.201514254003996,0.6847416748046875,-9.952696301269532,0.4740519287109375,0,0,0,0
1.2027873689949047,-0.5458779785156249,-9.797073193359374,0.06703764648437499,0,0,0,0
1.2042352970020147,-2.243366955566406,-9.991003527832031,0.181959326171875,0,0,0,0
1.2055360779922921,-0.9600748657226562,-10.019733947753906,1.5370774658203123,0,0,0,0
1.2067766190011753,0.4836287353515625,-9.945513696289062,1.9943699829101562,0,0,0,0
1.2080021049914649,1.8052280517578123,-10.103531005859374,2.109291662597656,0,0,0,0
1.2093191629974172,1.7860744384765623,-9.967061511230469,1.8531120849609375,0,0,0,0
1.21089199699054,-1.024718310546875,-9.744400756835937,1.0271125122070313,0,0,0,0
1.2123670349974418,-1.8602946899414061,-10.517727893066406,0.7517793212890624,0,0,0,0
1.2139481089980109,0.0143652099609375,-10.249577307128906,1.2306196533203124,0,0,0,0
1.215203001993359,1.0534487304687499,-9.926360083007811,1.5322890624999999,0,0,0,0
1.216609208000591,1.3551181396484375,-9.562441430664062,1.4604630126953124,0,0,0,0
1.2177929719910026,1.2425906616210938,-8.664615808105468,1.149216796875,0,0,0,0
1.2194885079952655,-1.35990654296875,-10.228029492187499,0.3447650390625,0,0,0,0
1.2218197960028192,-0.6751648681640625,-10.115502014160155,1.199495031738281,0,0,0,0
1.2232890379964374,1.5466542724609373,-10.445901843261717,1.4508862060546874,0,0,0,0
1.2246618549979758,1.35990654296875,-9.581595043945311,1.1707646118164061,0,0,0,0
1.2260360429936554,-0.40462008056640625,-8.877699755859375,1.0295067138671874,0,0,0,0
1.2272047699952964,-1.2378022583007813,-9.126696728515624,0.679953271484375,0,0,0,0
1.228513162001036,-1.5011644409179687,-9.296685046386719,0.9097966308593749,0,0,0,0
1.2298799799900735,0.7757213378906249,-9.91438907470703,1.4053963745117186,0,0,0,0
1.2311931860022014,1.7357962036132812,-10.189722265624999,1.7477672119140624,0,0,0,0
1.232310506995418,1.5945383056640625,-10.249577307128906,1.3934253662109375,0,0,0,0
1.2334833079949021,1.2856862915039062,-9.988609326171874,0.7158662963867187,0,0,0,0
1.2346357019996503,-0.4285620971679687,-10.211270080566406,0.2705447875976562,0,0,0,0
1.2359199649945367,-2.6695348510742187,-10.517727893066406,0.1292868896484375,0,0,0,0
1.2370153959927848,-1.6017209106445311,-10.71884083251953,0.46208092041015625,0,0,0,0
1.2381952159921639,0.23223756103515625,-10.457872851562499,1.3646949462890625,0,0,0,0
1.2396236810018308,1.838746875,-10.333374365234375,2.0661960327148434,0,0,0,0
1.240980831993511,1.7310078002929687,-9.720458740234374,1.668758557128906,0,0,0,0
1.242251686999225,-0.033518823242187495,-8.959102612304687,1.24498486328125,0,0,0,0
1.2435114499967312,-2.001552587890625,-9.327809667968749,0.5506663818359374,0,0,0,0
1.2448437870043563,-2.626439221191406,-10.424354028320312,0.7110778930664062,0,0,0,0
1.2463773060007952,0.35194764404296874,-10.13226142578125,2.2385785522460937,0,0,0,0
1.2477016049961094,2.0829554443359375,-10.47702646484375,2.166752502441406,0,0,0,0
1.248926701999153,2.442085693359375,-9.809044201660155,1.879448303222656,0,0,0,0
1.25042544399912,0.6823474731445313,-8.882488159179687,0.5985504150390625,0,0,0,0
1.2521325349953258,-2.6910826660156246,-9.038111267089842,0.18435352783203124,0,0,0,0
1.2534448719961802,-1.8291700683593748,-9.809044201660155,0.7900865478515624,0,0,0,0
1.2548785029939609,1.6328455322265625,-10.01015714111328,1.1563994018554686,0,0,0,0
1.2562241169944173,2.0446482177734375,-9.952696301269532,0.9840168823242187,0,0,0,0
1.2576991739915684,1.6543933471679686,-8.865728747558594,0.679953271484375,0,0,0,0
1.2587931610032683,0.05027823486328125,-9.117119921875,0.26815058593749996,0,0,0,0
1.2598867600027006,-2.4349030883789062,-9.267954626464844,0.11252747802734374,0,0,0,0
1.261086782993516,-1.2641384765625,-9.842563024902343,0.239420166015625,0,0,0,0
1.2625617470039288,0.35673604736328124,-10.417171423339843,1.5083470458984374,0,0,0,0
1.2637709919945337,1.7357962036132812,-10.651803186035156,1.707065783691406,0,0,0,0
1.264944848997402,1.9823989746093749,-9.665392102050781,1.6543933471679686,0,0,0,0
1.2660381329915253,0.25139117431640623,-8.88009395751953,1.3575123413085937,0,0,0,0
1.267253821992199,-2.0566192260742184,-8.923189587402343,0.8571241943359375,0,0,0,0
1.2685322519973852,-2.817975354003906,-9.260772021484375,1.0271125122070313,0,0,0,0
1.269884680994437,1.0031704956054688,-10.156203442382813,1.838746875,0,0,0,0
1.2711130550014786,2.5713725830078125,-10.539275708007812,2.3678654418945313,0,0,0,0
1.2725095759960823,2.6623522460937497,-10.66137999267578,1.4939818359375,0,0,0,0
1.273633136996068,1.917755529785156,-10.570400329589843,0.8858546142578124,0,0,0,0
1.274924639990786,-2.6288334228515624,-9.536105212402344,0.062249243164062495,0,0,0,0
1.2765410099964356,-3.6343981201171873,-9.315838659667968,0.28969840087890625,0,0,0,0
1.277760329990997,-2.0733786376953125,-10.395623608398436,1.139639990234375,0,0,0,0
1.279072813995299,2.114080065917969,-10.556035119628906,1.8339584716796873,0,0,0,0
1.280187301003025,2.7078420776367187,-10.429142431640624,1.8650830932617186,0,0,0,0
1.281546433994663,2.511517541503906,-10.319009155273436,1.0702081420898437,0,0,0,0
1.2827677530003712,0.28012159423828126,-10.01015714111328,0.12689268798828124,0,0,0,0
1.283956090992433,-3.6727053466796873,-10.137049829101562,-0.24660277099609373,0,0,0,0
1.2852305569977034,-2.6096798095703124,-10.144232434082031,0.2154781494140625,0,0,0,0
1.2863216739933705,-0.46686932373046874,-9.739612353515625,1.2761094848632812,0,0,0,0
1.2874189019930782,1.7956512451171873,-9.909600671386718,2.655169641113281,0,0,0,0
1.2884994079940952,2.868253588867187,-9.945513696289062,2.5953145996093747,0,0,0,0
1.28958045100444,3.2321722412109373,-9.469067565917967,2.109291662597656,0,0,0,0
1.2907231049903203,1.7549498168945312,-9.49300958251953,0.9648632690429687,0,0,0,0
1.2923282529955031,-2.9281086303710935,-9.550470422363281,0.28969840087890625,0,0,0,0
1.293627163002384,-2.961627453613281,-10.110713610839843,0.6847416748046875,0,0,0,0
1.2947748169972328,-1.0845733520507812,-10.292672937011718,1.4101847778320311,0,0,0,0
1.295956080997712,2.3918074584960936,-10.115502014160155,1.886630908203125,0,0,0,0
1.29720021400135,3.191470812988281,-9.548076220703125,1.879448303222656,0,0,0,0
1.2982918310008245,1.6208745239257811,-8.853757739257812,1.5035586425781249,0,0,0,0
1.299399169991375,-1.0582371337890624,-9.169792358398437,0.3950432739257812,0,0,0,0
1.3004844169918215,-3.265691064453125,-9.291896643066405,-0.28730419921875,0,0,0,0
1.3016368289972888,-2.9927520751953125,-9.526528405761718,0.5147533569335937,0,0,0,0
1.3032603110041237,0.8643067993164062,-10.582371337890624,1.2617442749023438,0,0,0,0
1.3044296119915089,2.4492682983398435,-10.91037696533203,1.8650830932617186,0,0,0,0
1.3056023200042546,2.9927520751953125,-10.254365710449218,1.7118541870117185,0,0,0,0
1.3067601959919557,1.5945383056640625,-9.452308154296874,1.0390835205078124,0,0,0,0
1.30811849499878,-2.528276953125,-9.222464794921875,0.5291185668945312,0,0,0,0
1.3092151119926712,-2.4516625,-9.756371765136718,0.5267243652343749,0,0,0,0
1.310303431993816,-1.0103531005859374,-9.962273107910155,1.139639990234375,0,0,0,0
1.3113898640003754,0.9313444458007812,-9.952696301269532,1.9512743530273435,0,0,0,0
1.312528720998671,2.3415292236328122,-10.158597644042969,2.2553379638671873,0,0,0,0
1.3138194649945945,3.1507693847656246,-9.502586389160156,1.8435352783203125,0,0,0,0
1.3148976569937076,-0.6967126831054687,-9.627084875488281,0.9145850341796874,0,0,0,0
1.3162775660020998,-2.442085693359375,-9.789890588378906,0.062249243164062495,0,0,0,0
1.318025286993361,-1.2880804931640624,-10.050858569335936,0.4381389038085937,0,0,0,0
1.319305530996644,0.4261678955078125,-10.160991845703125,1.0989385620117187,0,0,0,0
1.3204943879973143,1.6400281372070311,-10.077194787597655,1.608903515625,0,0,0,0
1.3219967589975568,1.5705962890624998,-9.627084875488281,1.5155296508789062,0,0,0,0
1.3232520960009424,-0.5626373901367188,-9.773131176757811,0.6392518432617187,0,0,0,0
1.3243950649921317,-2.2553379638671873,-9.777919580078125,0.047884033203124995,0,0,0,0
1.3258143809944158,-2.389413256835937,-10.441113439941406,0.48123453369140623,0,0,0,0
1.3272263090038905,0.28490999755859375,-10.414777221679687,1.1923124267578125,0,0,0,0
1.328497109003365,1.3072341064453123,-10.517727893066406,1.9823989746093749,0,0,0,0
1.3299459629924968,1.5658078857421873,-9.066841687011719,1.8195932617187498,0,0,0,0
1.3310694309911923,-0.23702596435546874,-9.327809667968749,1.13006318359375,0,0,0,0
1.3323938230023487,-1.8315642700195311,-9.277531433105468,0.5410895751953124,0,0,0,0
1.33364984599757,-1.7190367919921874,-9.89523546142578,0.9792284790039062,0,0,0,0
1.3350025519903284,0.5626373901367188,-10.24000050048828,1.4221557861328125,0,0,0,0
1.3362363710039062,1.3623007446289062,-10.560823522949217,1.7669208251953124,0,0,0,0
1.3374268759944243,1.9488801513671874,-10.220846887207031,1.6927005737304686,0,0,0,0
1.338539899996249,1.1061211669921875,-9.203311181640624,1.0630255371093749,0,0,0,0
1.3398270519974176,-0.38307226562499996,-9.042899670410156,0.7589619262695312,0,0,0,0
1.3412129799980903,-1.235408056640625,-9.624690673828125,0.622492431640625,0,0,0,0
1.3424096329981694,-0.6248866333007812,-9.801861596679688,0.8978256225585937,0,0,0,0
1.3435037680028472,0.2537853759765625,-9.981426721191406,1.2617442749023438,0,0,0,0
1.3445829219999723,0.8786720092773437,-10.299855541992187,1.4796166259765624,0,0,0,0
1.3456608540000161,1.637633935546875,-9.603142858886718,1.419761584472656,0,0,0,0
1.346880229000817,1.1827356201171875,-9.70369932861328,0.9528922607421875,0,0,0,0
1.3482003249955596,-1.43652099609375,-9.26316622314453,0.6584054565429687,0,0,0,0
1.349288366996916,-1.5370774658203123,-9.631873278808593,0.4429273071289062,0,0,0,0
1.350366946993745,-0.8379705810546875,-9.710881933593749,0.8930372192382812,0,0,0,0
1.3514451759983785,0.15322890625,-10.058041174316406,1.419761584472656,0,0,0,0
1.3525228109938325,0.86191259765625,-10.40041201171875,1.687912170410156,0,0,0,0
1.353709611998056,1.8842367065429686,-9.674968908691406,1.7094599853515624,0,0,0,0
1.3550761149963364,0.0143652099609375,-9.82580361328125,1.0941501586914062,0,0,0,0
1.3561811949912226,-1.5107412475585937,-9.823409411621093,0.5410895751953124,0,0,0,0
1.3572720520023722,-1.7477672119140624,-10.081983190917969,0.19393033447265623,0,0,0,0
1.3583646689949092,-1.0199299072265624,-9.866505041503906,1.1923124267578125,0,0,0,0
1.3595821920025628,0.05985504150390625,-10.1131078125,1.47482822265625,0,0,0,0
1.3609051770035876,2.2194249389648437,-9.670180505371093,1.7525556152343749,0,0,0,0
1.3619986080011586,1.3623007446289062,-9.026140258789061,1.7334020019531249,0,0,0,0
1.3631080399936764,-0.3136404174804687,-9.540893615722656,1.180341418457031,0,0,0,0
1.3643171549920226,-2.3223756103515623,-9.593566052246093,0.6847416748046875,0,0,0,0
1.365683825002634,-2.7054478759765623,-9.866505041503906,1.5322890624999999,0,0,0,0
1.366783238001517,-2.288856787109375,-9.53131680908203,2.8012159423828122,0,0,0,0
1.3678675029950682,-1.419761584472656,-9.536105212402344,3.852270471191406,0,0,0,0
1.3689606569969328,-0.17477672119140625,-9.0021982421875,5.351040710449219,0,0,0,0
1.37014982799883,1.1731588134765625,-8.762778076171875,6.902483386230468,0,0,0,0
1.3714770910009975,1.9656395629882812,-9.3086560546875,8.70771143798828,0,0,0,0
1.3725555040000472,2.1715409057617188,-9.469067565917967,9.639055883789062,0,0,0,0
1.3736271209927509,1.6041151123046875,-8.705317236328124,9.605537060546874,0,0,0,0
1.3747010529914405,1.43652099609375,-11.159373937988281,9.631873278808593,0,0,0,0
1.3759242800006177,1.8171990600585937,-9.976638317871092,10.218452685546874,0,0,0,0
1.3771900430001551,1.4508862060546874,-10.728417639160156,9.495403784179686,0,0,0,0
1.3783375289931428,1.9201497314453124,-10.350133776855468,9.421183532714844,0,0,0,0
1.379434239002876,1.1252747802734375,-9.509768994140625,7.6470801025390625,0,0,0,0
1.3805197259935085,1.01514150390625,-10.618284362792968,6.526593725585937,0,0,0,0
1.3818297849938972,0.06943184814453125,-10.091559997558592,5.389347937011719,0,0,0,0
1.3832874159998028,-0.842758984375,-10.13226142578125,4.448426684570312,0,0,0,0
1.3844076249952195,-0.7613561279296874,-9.880870251464843,3.5122938354492184,0,0,0,0
1.3855003899952862,-0.6344634399414062,-10.35492218017578,1.9728221679687499,0,0,0,0
1.38671009799873,0.105344873046875,-10.905588562011719,1.2832920898437499,0,0,0,0
1.3880822310020449,0.42377369384765623,-10.50815108642578,0.7852981445312499,0,0,0,0
1.3891847359918756,0.15083470458984374,-10.290278735351562,0.07422025146484375,0,0,0,0
1.3902896490035346,-0.9097966308593749,-10.50815108642578,-1.3551181396484375,0,0,0,0
1.391726280999137,-2.157175695800781,-10.606313354492187,-1.6615759521484375,0,0,0,0
1.3931012829998508,-2.4564509033203126,-10.117896215820313,-1.3766659545898436,0,0,0,0
1.3942314739979338,-1.4724340209960938,-9.655815295410155,-0.3280056274414062,0,0,0,0
1.3966310569958296,0.14125789794921875,-8.386888415527343,0.5913678100585937,0,0,0,0
1.3978750800015405,0.47884033203125,-8.327033374023436,0.9576806640625,0,0,0,0
1.3991488799947547,0.0143652099609375,-8.336610180664062,1.218648645019531,0,0,0,0
1.4002541630034102,0.2705447875976562,-8.798691101074219,1.4245499877929686,0,0,0,0
1.4013456129905535,0.469263525390625,-9.380482104492186,1.7094599853515624,0,0,0,0
1.402707504996215,0.967257470703125,-9.93354268798828,2.375048046875,0,0,0,0
1.4039705640025204,1.388636962890625,-9.5384994140625,2.5139117431640625,0,0,0,0
1.4050727739959257,1.2976572998046874,-9.157821350097656,2.4851813232421875,0,0,0,0
1.4063373699900694,0.8714894042968749,-8.693346228027343,2.2960393920898436,0,0,0,0
1.4075099670008058,0.41419688720703124,-8.468291271972657,1.2808978881835937,0,0,0,0
1.4086607869976433,0.0430956298828125,-8.748412866210938,0.7230489013671875,0,0,0,0
1.409756496999762,-0.27293898925781246,-9.830592016601562,0.3950432739257812,0,0,0,0
1.4108490770013304,-0.3399766357421875,-10.455478649902343,0.12449848632812499,0,0,0,0
1.4122417089965893,-0.35194764404296874,-10.91037696533203,-0.05985504150390625,0,0,0,0
1.4136005629989086,-0.5051765502929687,-10.960655200195312,-0.00718260498046875,0,0,0,0
1.4148269750003237,-0.4836287353515625,-10.666168395996094,0.316034619140625,0,0,0,0
1.4160062019946054,-0.34715924072265625,-10.35492218017578,0.5889736083984375,0,0,0,0
1.4171827069949359,-0.27293898925781246,-10.388441003417968,0.8786720092773437,0,0,0,0
1.4184342289954657,-0.32082302246093747,-10.484209069824217,1.3239935180664062,0,0,0,0
1.4198142499953974,-0.229843359375,-11.03248125,1.5490484741210937,0,0,0,0
1.421039106004173,0.2705447875976562,-10.89122335205078,1.8219874633789062,0,0,0,0
1.4222460919991136,0.3806780639648437,-10.601524951171875,1.9823989746093749,0,0,0,0
1.4235020780033665,0.430956298828125,-10.350133776855468,2.1715409057617188,0,0,0,0
1.4252724459947785,0.5602431884765625,-10.204087475585936,2.099714855957031,0,0,0,0
1.4267082439910155,0.6200982299804687,-9.782707983398437,1.8004396484374998,0,0,0,0
1.4280216729966924,0.40222587890625,-9.662997900390625,1.4963760375976562,0,0,0,0
1.4293259169935482,0.0718260498046875,-9.603142858886718,1.209071838378906,0,0,0,0
1.4306162909924751,-0.29448680419921874,-9.41639512939453,0.5506663818359374,0,0,0,0
1.4318725359917153,-0.38786066894531246,-9.248801013183593,0.4070142822265625,0,0,0,0
1.4330600779940141,-0.3806780639648437,-9.052476477050782,0.22266075439453123,0,0,0,0
1.4343167479964904,-0.29927520751953124,-9.0788126953125,0.15322890625,0,0,0,0
1.4357316759997047,-0.2657563842773437,-9.342174877929686,0.2705447875976562,0,0,0,0
1.4369198469939874,-0.12689268798828124,-9.356540087890625,0.2825157958984375,0,0,0,0
1.4380979080015095,0.02633621826171875,-9.409212524414063,0.5458779785156249,0,0,0,0
1.4393504489999032,-0.01915361328125,-9.447519750976562,1.1276689819335937,0,0,0,0
1.4406900809990475,0.08140285644531249,-9.512163195800781,1.2832920898437499,0,0,0,0
1.442054138999083,0.2920926025390625,-9.502586389160156,1.5131354492187499,0,0,0,0
1.4433510689996183,0.32082302246093747,-9.41639512939453,1.7022773803710936,0,0,0,0
1.4446000169991748,0.24660277099609373,-9.485826977539062,1.9105729248046874,0,0,0,0
1.4458709839964285,0.2609679809570312,-9.89523546142578,1.7812860351562498,0,0,0,0
1.447239504996105,0.12689268798828124,-10.122684619140625,1.7405846069335937,0,0,0,0
1.4486812289978843,0.11013327636718749,-10.606313354492187,1.5945383056640625,0,0,0,0
1.4499917509965599,0.18435352783203124,-10.582371337890624,1.4987702392578124,0,0,0,0
1.451313012992614,0.12210428466796874,-10.491391674804687,1.4221557861328125,0,0,0,0
1.452498091995949,-0.055066638183593745,-10.510545288085936,1.1516109985351561,0,0,0,0
1.454084276992944,-0.2154781494140625,-10.330980163574218,1.0510545288085937,0,0,0,0
1.4554370019905036,-0.22744915771484372,-10.364498986816406,0.7996633544921875,0,0,0,0
1.4566690060019027,-0.3136404174804687,-10.402806213378906,0.814028564453125,0,0,0,0
1.4578455299924826,-0.27293898925781246,-10.55364091796875,0.7613561279296874,0,0,0,0
1.4590554419992259,-0.18914193115234373,-10.453084448242187,0.7924807495117187,0,0,0,0
1.4606038119964069,-0.1580173095703125,-10.261548315429687,0.8571241943359375,0,0,0,0
1.4619325009989552,-0.12689268798828124,-9.773131176757811,0.9457096557617187,0,0,0,0
1.4632261149963597,-0.04548983154296875,-9.557653027343749,1.1109095703125,0,0,0,0
1.4647066539910156,0.05746083984375,-9.315838659667968,1.2138602416992186,0,0,0,0
1.4661985809943872,0.15562310791015624,-9.327809667968749,1.2832920898437499,0,0,0,0
1.4675226580002345,0.229843359375,-9.397241516113281,1.3335703247070312,0,0,0,0
1.468805828000768,0.22505495605468748,-9.294290844726563,1.3239935180664062,0,0,0,0
1.4699894810037222,0.12689268798828124,-9.382876306152344,1.0726023437499999,0,0,0,0
1.47200121700007,0.239420166015625,-9.313444458007812,1.0534487304687499,0,0,0,0
1.4731377409916604,0.2537853759765625,-9.251195214843749,0.97683427734375,0,0,0,0
1.4746329269983107,0.143652099609375,-9.196128576660156,0.8786720092773437,0,0,0,0
1.4757364139950369,0.07900865478515624,-9.4618849609375,0.8451531860351562,0,0,0,0
1.476929714990547,0.040701428222656245,-9.560047229003906,0.8547299926757812,0,0,0,0
1.4781611270009307,0.1484405029296875,-9.72285294189453,0.8307879760742187,0,0,0,0
1.4792657249927288,0.047884033203124995,-9.854534033203125,0.9433154541015625,0,0,0,0
1.4803516569954809,-0.076614453125,-9.962273107910155,0.9720458740234375,0,0,0,0
1.4814355879934737,-0.05985504150390625,-10.230423693847655,1.0989385620117187,0,0,0,0
1.4827963690040633,-0.033518823242187495,-10.352527978515624,1.2330138549804688,0,0,0,0
1.4841700940014562,0.0718260498046875,-10.51533369140625,1.199495031738281,0,0,0,0
1.4852935249946313,0.12689268798828124,-10.491391674804687,1.1563994018554686,0,0,0,0
1.486404715993558,0.19632453613281248,-10.55364091796875,1.2330138549804688,0,0,0,0
1.4875664430001052,0.258573779296875,-10.383652600097655,1.3958195678710936,0,0,0,0
1.4887598549976246,0.24181436767578124,-10.35492218017578,1.369483349609375,0,0,0,0
1.489884656999493,0.21308394775390624,-10.333374365234375,1.3646949462890625,0,0,0,0
1.4910057919914834,0.0047884033203125,-10.237606298828124,1.254561669921875,0,0,0,0
1.4921591669990448,-0.023942016601562498,-10.13226142578125,1.1563994018554686,0,0,0,0
1.4933083209907636,0.0047884033203125,-10.115502014160155,0.9720458740234375,0,0,0,0
1.4944302889925893,-0.17238251953125,-10.067617980957031,1.01514150390625,0,0,0,0
1.4956131459912285,-0.20350714111328125,-10.04846436767578,0.7661445312499999,0,0,0,0
1.496742187999189,-0.22266075439453123,-9.718064538574218,0.7757213378906249,0,0,0,0
1.4979936549934791,-0.062249243164062495,-9.60793126220703,0.7757213378906249,0,0,0,0
1.499162697000429,-0.01915361328125,-9.404424121093749,0.9241618408203125,0,0,0,0
1.5002554249949753,0.00239420166015625,-9.332598071289063,0.9935936889648437,0,0,0,0
1.501339893991826,0.009576806640625,-9.368511096191405,1.0007762939453124,0,0,0,0
1.502424621998216,0.086191259765625,-9.397241516113281,0.9528922607421875,0,0,0,0
1.5035835159942508,0.12210428466796874,-9.406818322753905,1.1372457885742187,0,0,0,0
1.5047351690009236,0.055066638183593745,-9.382876306152344,1.158793603515625,0,0,0,0
1.505854229995748,-0.11252747802734374,-9.464279162597656,1.0821791503906248,0,0,0,0
1.5070651610003551,0.1388636962890625,-9.435548742675781,1.0965443603515623,0,0,0,0
1.5082794609916164,0.1580173095703125,-9.4618849609375,1.2401964599609374,0,0,0,0
1.5094757070037303,0.15322890625,-9.440337145996093,1.3048399047851562,0,0,0,0
1.5105682860012166,0.09337386474609374,-9.528922607421874,1.24498486328125,0,0,0,0
1.5116562549956143,0.09337386474609374,-9.708487731933593,1.2138602416992186,0,0,0,0
1.5127437060000375,-0.011971008300781249,-9.880870251464843,1.16837041015625,0,0,0,0
1.5139221919962438,0.05027823486328125,-9.923965881347655,1.1276689819335937,0,0,0,0
1.5151271959912265,0.033518823242187495,-9.981426721191406,1.2018892333984375,0,0,0,0
1.516220738994889,-0.023942016601562498,-10.158597644042969,1.2282254516601563,0,0,0,0
1.5173156340024434,-0.11013327636718749,-10.335768566894531,1.1228805786132812,0,0,0,0
1.5184947310044663,-0.076614453125,-10.383652600097655,1.1420341918945311,0,0,0,0
1.5197244949958986,-0.0143652099609375,-10.407594616699217,1.0869675537109373,0,0,0,0
1.5208996659930563,-0.14125789794921875,-10.333374365234375,1.1228805786132812,0,0,0,0
1.5219967649900354,0.033518823242187495,-10.304643945312499,1.1276689819335937,0,0,0,0
1.5231824539951049,0.09576806640624999,-10.27830772705078,1.1180921752929687,0,0,0,0
1.5244655879942002,0.06703764648437499,-10.225635290527343,1.1180921752929687,0,0,0,0
1.5256257409928367,-0.011971008300781249,-10.165780249023436,1.0127473022460938,0,0,0,0
1.5268635230022483,0.055066638183593745,-10.065223779296874,1.0726023437499999,0,0,0,0
1.5279866389901144,0.08858546142578125,-9.969455712890625,1.1635820068359375,0,0,0,0
1.529156848002458,0.11013327636718749,-9.763554370117188,1.0319009155273438,0,0,0,0
1.5303574629942887,0.07422025146484375,-9.758765966796874,1.0127473022460938,0,0,0,0
1.5349650949938223,0.28490999755859375,-9.349357482910156,0.8212111694335937,0,0,0,0
1.5375281390006421,-0.09576806640624999,-9.160215551757812,0.97683427734375,0,0,0,0
1.5396386520005763,0.24899697265624998,-8.959102612304687,0.9983820922851562,0,0,0,0
1.5418273669929476,0.14125789794921875,-9.593566052246093,1.1372457885742187,0,0,0,0
1.5439148799923714,0.19393033447265623,-9.619902270507811,1.2210428466796874,0,0,0,0
1.545488028001273,0.076614453125,-9.782707983398437,1.1324573852539062,0,0,0,0
1.5470543429983081,-0.22026655273437498,-10.019733947753906,1.1180921752929687,0,0,0,0
1.5482521439989796,-0.16759411621093748,-10.151415039062499,1.0893617553710937,0,0,0,0
1.549644090991933,0.03591302490234375,-9.926360083007811,1.2832920898437499,0,0,0,0
1.550814670001273,0.076614453125,-10.105925207519531,1.3000515014648437,0,0,0,0
1.5519211380014895,0.0526724365234375,-10.589553942871094,1.2042834350585936,0,0,0,0
1.5531369950040244,-0.16280571289062498,-10.68053360595703,1.1611878051757811,0,0,0,0
1.5543226659938227,-0.15083470458984374,-10.747571252441405,1.0989385620117187,0,0,0,0
1.555425448997994,-0.11013327636718749,-10.654197387695312,1.1923124267578125,0,0,0,0
1.556512491995818,-0.201112939453125,-10.36210478515625,1.2713210815429687,0,0,0,0
1.5576005170005374,-0.22744915771484372,-10.283096130371094,1.2234370483398436,0,0,0,0
1.558817169003305,-0.15322890625,-10.319009155273436,1.2593500732421874,0,0,0,0
1.5600662469951203,0.031124621582031248,-10.019733947753906,1.3431471313476562,0,0,0,0
1.561334491998423,0.12689268798828124,-9.813832604980469,1.3838485595703125,0,0,0,0
1.562487681992934,0.06943184814453125,-9.8449572265625,1.2306196533203124,0,0,0,0
1.5637584450014401,0.016759411621093748,-9.981426721191406,1.1085153686523437,0,0,0,0
1.5649519129947294,-0.07422025146484375,-9.797073193359374,1.0989385620117187,0,0,0,0
1.5660485300031723,0.143652099609375,-9.634267480468749,1.0486603271484374,0,0,0,0
1.567159479993279,0.02154781494140625,-9.402029919433593,0.97683427734375,0,0,0,0
1.5695228969998425,-0.07900865478515624,-9.464279162597656,0.9792284790039062,0,0,0,0
1.5709962679975433,0.316034619140625,-9.112331518554686,1.0797849487304687,0,0,0,0
1.5721899210038828,0.4070142822265625,-8.980650427246093,1.0654197387695312,0,0,0,0
1.5743420999933733,-0.02154781494140625,-9.330203869628905,0.9911994873046874,0,0,0,0
1.5762283929943806,0.02154781494140625,-9.366116894531249,0.9193734375,0,0,0,0
1.5777535599918338,0.1149216796875,-9.667786303710937,1.0773907470703123,0,0,0,0
1.5789903789991513,0.13646949462890623,-9.634267480468749,1.0175357055664063,0,0,0,0
1.5800956989987753,0.047884033203124995,-9.775525378417969,1.1037269653320312,0,0,0,0
1.5812071309919702,0.01915361328125,-9.816226806640625,1.1061211669921875,0,0,0,0
1.5825081529910676,0.11252747802734374,-9.873687646484374,1.3192051147460937,0,0,0,0
1.5838435820041923,0.30406361083984373,-10.031704956054687,1.2114660400390624,0,0,0,0
1.585106418991927,0.009576806640625,-10.263942517089843,1.1252747802734375,0,0,0,0
1.5862915530015016,-0.13646949462890623,-10.333374365234375,1.0773907470703123,0,0,0,0
1.587539204992936,-0.06464344482421874,-10.496180078124999,1.1156979736328125,0,0,0,0
1.5888402459968347,-0.040701428222656245,-10.47702646484375,1.1037269653320312,0,0,0,0
1.5899606399907498,-0.1149216796875,-10.541669909667968,1.1563994018554686,0,0,0,0
1.591082571001607,-0.1197100830078125,-10.517727893066406,1.1061211669921875,0,0,0,0
1.5922890759975417,-0.19153613281249998,-10.486603271484375,1.1563994018554686,0,0,0,0
1.5934821359987836,-0.086191259765625,-10.326191760253906,1.2569558715820313,0,0,0,0
1.5947670659952564,0.06464344482421874,-9.873687646484374,1.2713210815429687,0,0,0,0
1.5959224599937443,0.0,-9.80665,1.2737152832031249,0,0,0,0
1.5970763910008827,0.040701428222656245,-9.909600671386718,1.1061211669921875,0,0,0,0
1.5982329879916506,0.0526724365234375,-9.892841259765625,1.1180921752929687,0,0,0,0
1.5995124180044513,0.14125789794921875,-9.828197814941406,1.149216796875,0,0,0,0
1.6006873119913507,0.1388636962890625,-9.72285294189453,1.1659762084960936,0,0,0,0
1.6018808160006301,0.143652099609375,-9.528922607421874,1.1013327636718748,0,0,0,0
1.6030031359987333,0.086191259765625,-9.442731347656249,1.0797849487304687,0,0,0,0
1.6042080850020284,0.13407529296874998,-9.337386474609374,1.1013327636718748,0,0,0,0
1.605603477000841,0.15083470458984374,-9.205705383300781,1.0630255371093749,0,0,0,0
1.6067631299956702,0.09576806640624999,-9.327809667968749,1.0342951171875,0,0,0,0
1.6079082090000156,-0.040701428222656245,-9.514557397460937,0.9074024291992187,0,0,0,0
1.6091176210029516,0.023942016601562498,-9.591171850585937,0.9097966308593749,0,0,0,0
1.6103420139988884,0.12449848632812499,-9.481038574218749,1.0295067138671874,0,0,0,0
1.6114399639918702,0.1149216796875,-9.588777648925781,1.2234370483398436,0,0,0,0
1.6125268589967163,-0.011971008300781249,-9.775525378417969,1.0223241088867188,0,0,0,0
1.6136158829904161,-0.0526724365234375,-9.995791931152343,0.9552864624023437,0,0,0,0
1.6150108860019827,-0.076614453125,-9.993397729492187,1.139639990234375,0,0,0,0
1.616337592000491,0.047884033203124995,-10.046070166015625,1.2832920898437499,0,0,0,0
1.617430616999627,-0.040701428222656245,-10.098742602539062,1.1563994018554686,0,0,0,0
1.618549399994663,-0.13407529296874998,-10.182539660644531,1.216254443359375,0,0,0,0
1.6200656790024368,-0.016759411621093748,-10.194510668945313,1.2785036865234374,0,0,0,0
1.6213151639967691,-0.055066638183593745,-10.20169327392578,1.2832920898437499,0,0,0,0
1.6224093359924154,-0.05746083984375,-10.192116467285155,1.180341418457031,0,0,0,0
1.6235031389951473,0.0,-10.309432348632813,1.1156979736328125,0,0,0,0
1.6251019159972202,-0.11252747802734374,-10.429142431640624,1.1372457885742187,0,0,0,0
1.626299754003412,-0.14604630126953125,-10.268730920410155,1.2138602416992186,0,0,0,0
1.627396759999101,-0.0526724365234375,-10.254365710449218,1.1061211669921875,0,0,0,0
1.628485320994514,-0.00718260498046875,-10.091559997558592,1.1133037719726562,0,0,0,0
1.6296363260044018,0.009576806640625,-10.101136804199218,1.0941501586914062,0,0,0,0
1.6308211269933963,0.07900865478515624,-9.737218151855469,1.1037269653320312,0,0,0,0
1.6319132630014792,0.0143652099609375,-9.710881933593749,1.0534487304687499,0,0,0,0
1.6329970840015449,0.031124621582031248,-9.710881933593749,1.0223241088867188,0,0,0,0
1.6341414409980644,0.13407529296874998,-9.715670336914062,0.9074024291992187,0,0,0,0
1.6353358710039174,0.16759411621093748,-9.634267480468749,1.0366893188476562,0,0,0,0
1.6364283959992463,0.17477672119140625,-9.593566052246093,1.1923124267578125,0,0,0,0
1.6375090499932412,0.15322890625,-9.598354455566406,1.005564697265625,0,0,0,0
1.6385930370015558,0.1484405029296875,-9.612719665527344,1.0414777221679687,0,0,0,0
1.639738579004188,0.18914193115234373,-9.564835632324218,1.0702081420898437,0,0,0,0
1.6409100659948308,0.19393033447265623,-9.368511096191405,1.0223241088867188,0,0,0,0
1.6420000709913438,0.08858546142578125,-9.370905297851563,0.9864110839843749,0,0,0,0
1.6430903549917275,0.18914193115234373,-9.414000927734374,0.9720458740234375,0,0,0,0
1.644234470993979,0.12689268798828124,-9.588777648925781,0.9696516723632812,0,0,0,0
1.64539243899344,0.181959326171875,-9.591171850585937,1.005564697265625,0,0,0,0
1.6464793710038066,0.09816226806640624,-9.746794958496093,0.9911994873046874,0,0,0,0
1.647610321000684,0.0526724365234375,-9.847351428222655,0.9864110839843749,0,0,0,0
1.6487010120035848,-0.01915361328125,-10.065223779296874,0.967257470703125,0,0,0,0
1.6498668499989435,-0.1005564697265625,-10.036493359375,1.1109095703125,0,0,0,0
1.6511725570017006,0.040701428222656245,-10.038887561035155,1.1420341918945311,0,0,0,0
1.6522694150044117,0.05985504150390625,-10.005368737792969,1.1875240234375,0,0,0,0
1.6535019379953155,-0.0383072265625,-10.041281762695311,1.120486376953125,0,0,0,0
1.6546055539947702,-0.03591302490234375,-10.072406384277343,1.1252747802734375,0,0,0,0
1.6557825219933875,-0.07422025146484375,-10.17056865234375,1.1133037719726562,0,0,0,0
1.6570945249986835,-0.009576806640625,-10.168174450683592,1.1348515869140625,0,0,0,0
1.658195326992427,-0.0526724365234375,-10.295067138671874,1.16837041015625,0,0,0,0
1.659287703994778,-0.09337386474609374,-10.338162768554687,1.180341418457031,0,0,0,0
1.6604371159919538,-0.0143652099609375,-10.345345373535155,1.1133037719726562,0,0,0,0
1.6618148959969403,0.0047884033203125,-10.12507882080078,1.0414777221679687,0,0,0,0
1.6629565309995087,0.076614453125,-9.976638317871092,1.1324573852539062,0,0,0,0
1.6649827670044033,-0.00718260498046875,-9.868899243164062,1.2665326782226562,0,0,0,0
1.6663833249913296,-0.011971008300781249,-9.765948571777344,1.1133037719726562,0,0,0,0
1.6676654949988006,0.09816226806640624,-9.773131176757811,1.0295067138671874,0,0,0,0
1.6687992039951496,0.12689268798828124,-9.627084875488281,1.0917559570312498,0,0,0,0
1.6698966169933556,0.0143652099609375,-9.60793126220703,1.180341418457031,0,0,0,0
1.671177620999515,0.04548983154296875,-9.598354455566406,1.0438719238281249,0,0,0,0
1.6725289199966937,0.08379705810546874,-9.550470422363281,0.9720458740234375,0,0,0,0
1.6738024789956398,0.0909796630859375,-9.543287817382812,0.9744400756835937,0,0,0,0
1.6750058350007748,0.03591302490234375,-9.562441430664062,1.01514150390625,0,0,0,0
1.6762230250024004,-0.00718260498046875,-9.550470422363281,1.0630255371093749,0,0,0,0
1.6774172330042347,0.09576806640624999,-9.507374792480467,1.0462661254882812,0,0,0,0
1.6785122389992466,0.10773907470703124,-9.457096557617186,1.149216796875,0,0,0,0
1.6796260219998658,0.15322890625,-9.5384994140625,1.0486603271484374,0,0,0,0
1.6807145649945596,0.105344873046875,-9.701305126953125,1.1061211669921875,0,0,0,0
1.6819481249985984,0.02633621826171875,-9.753977563476562,1.0295067138671874,0,0,0,0
1.6831229259987595,-0.00718260498046875,-9.945513696289062,1.0702081420898437,0,0,0,0
1.6842195429926505,0.0430956298828125,-10.067617980957031,1.1635820068359375,0,0,0,0
1.6853028449986596,-0.05985504150390625,-10.084377392578125,1.1252747802734375,0,0,0,0
1.6863988139957655,0.00718260498046875,-10.144232434082031,1.1923124267578125,0,0,0,0
1.687605632992927,0.03591302490234375,-10.141838232421874,1.1276689819335937,0,0,0,0
1.688799729992752,-0.033518823242187495,-10.007762939453125,1.1420341918945311,0,0,0,0
1.6898962179984665,0.13646949462890623,-10.014945544433592,1.2785036865234374,0,0,0,0
1.6911841099936282,-0.028730419921875,-10.115502014160155,1.350329736328125,0,0,0,0
1.6923822069948073,0.02154781494140625,-10.158597644042969,1.2497732666015624,0,0,0,0
1.6935476939979708,0.031124621582031248,-10.256759912109374,1.1755530151367186,0,0,0,0
1.6946454029966844,0.0143652099609375,-10.177751257324218,1.1563994018554686,0,0,0,0
1.6957562419993337,-0.0143652099609375,-10.160991845703125,1.0893617553710937,0,0,0,0
1.6968448769912357,-0.03591302490234375,-10.084377392578125,1.1180921752929687,0,0,0,0
1.698026233993005,0.08858546142578125,-9.974244116210937,1.149216796875,0,0,0,0
1.6992083499935688,0.12210428466796874,-9.775525378417969,1.1180921752929687,0,0,0,0
1.7003836700023385,0.1771709228515625,-9.698910925292969,1.1252747802734375,0,0,0,0
1.7015114899986656,0.12449848632812499,-9.641450085449218,1.1324573852539062,0,0,0,0
1.7026085879915627,0.13407529296874998,-9.794678991699218,1.0606313354492187,0,0,0,0
1.7037992410041625,0.105344873046875,-9.495403784179686,0.9864110839843749,0,0,0,0
1.704957560999901,0.15083470458984374,-9.509768994140625,1.0127473022460938,0,0,0,0
1.706047881001723,0.08379705810546874,-9.576806640625,1.0534487304687499,0,0,0,0
1.7071714420017088,0.13407529296874998,-9.641450085449218,1.0175357055664063,0,0,0,0
1.708323669998208,0.04548983154296875,-9.655815295410155,1.005564697265625,0,0,0,0
1.709471100999508,0.06464344482421874,-9.593566052246093,1.0438719238281249,0,0,0,0
1.7105640700028744,0.1005564697265625,-9.555258825683593,0.9935936889648437,0,0,0,0
1.71165227900201,0.08140285644531249,-9.4618849609375,1.0582371337890624,0,0,0,0
1.7127371179958573,0.09576806640624999,-9.509768994140625,1.1037269653320312,0,0,0,0
1.7139102709916187,0.09337386474609374,-9.591171850585937,1.1133037719726562,0,0,0,0
1.7150883129943395,0.09816226806640624,-9.710881933593749,1.1563994018554686,0,0,0,0
1.7162100040004589,0.047884033203124995,-9.732429748535155,1.0678139404296874,0,0,0,0
1.7172946020000381,0.04548983154296875,-9.847351428222655,1.0773907470703123,0,0,0,0
1.7183772010030225,-0.09816226806640624,-9.9981861328125,1.1037269653320312,0,0,0,0
1.7195614279917208,-0.09576806640624999,-10.08677159423828,1.1061211669921875,0,0,0,0
1.7207417659956263,-0.1005564697265625,-10.122684619140625,1.1516109985351561,0,0,0,0
1.7218409199995222,-0.0909796630859375,-10.103531005859374,1.158793603515625,0,0,0,0
1.722962721993099,-0.05985504150390625,-10.022128149414062,1.2617442749023438,0,0,0,0
1.7241235969995614,-0.03591302490234375,-10.084377392578125,1.2210428466796874,0,0,0,0
1.7252858610008843,-0.00239420166015625,-10.058041174316406,1.2593500732421874,0,0,0,0
1.7263821630040184,0.086191259765625,-10.046070166015625,1.2497732666015624,0,0,0,0
1.727485928000533,0.0909796630859375,-10.098742602539062,1.149216796875,0,0,0,0
1.728573840999161,-0.047884033203124995,-10.117896215820313,1.0893617553710937,0,0,0,0
1.7298161049984628,0.0430956298828125,-10.184933862304687,1.0726023437499999,0,0,0,0
1.7311034049926093,-0.02633621826171875,-10.172962854003906,1.1420341918945311,0,0,0,0
1.7322361510014161,-0.05746083984375,-10.079588989257813,1.158793603515625,0,0,0,0
1.7334915249957703,0.031124621582031248,-9.957484704589843,1.149216796875,0,0,0,0
1.7345981969992863,-0.009576806640625,-9.900023864746093,1.209071838378906,0,0,0,0
1.7357601469993824,0.05985504150390625,-9.708487731933593,1.1372457885742187,0,0,0,0
1.7370375579921529,0.13646949462890623,-9.579200842285156,1.1372457885742187,0,0,0,0
1.7381263599963859,0.1388636962890625,-9.586383447265625,1.1085153686523437,0,0,0,0
1.739532417996088,0.086191259765625,-9.651026892089844,1.0917559570312498,0,0,0,0
1.741934816003777,0.076614453125,-9.698910925292969,1.0175357055664063,0,0,0,0
1.7441508079937194,0.11252747802734374,-9.679757312011718,1.0654197387695312,0,0,0,0
1.745789344990044,0.1388636962890625,-9.612719665527344,1.0630255371093749,0,0,0,0
1.7469664050004212,0.2920926025390625,-9.591171850585937,1.0510545288085937,0,0,0,0
1.748447183999815,0.06943184814453125,-9.514557397460937,1.1013327636718748,0,0,0,0
1.7497592430008808,0.05985504150390625,-9.70369932861328,1.0199299072265624,0,0,0,0
1.7508930999902077,0.13168109130859373,-9.758765966796874,1.01514150390625,0,0,0,0
1.7519861799955834,0.11252747802734374,-9.866505041503906,1.1252747802734375,0,0,0,0
1.7535210509959143,0.05985504150390625,-9.943119494628906,1.0534487304687499,0,0,0,0
1.7548116840043804,-0.0047884033203125,-10.072406384277343,1.0989385620117187,0,0,0,0
1.7559751709923148,0.047884033203124995,-10.08677159423828,1.1013327636718748,0,0,0,0
1.7570714539906476,0.047884033203124995,-10.089165795898436,1.16837041015625,0,0,0,0
1.7581567009910941,-0.01915361328125,-10.022128149414062,1.120486376953125,0,0,0,0
1.7592688919976354,-0.00239420166015625,-10.117896215820313,1.1109095703125,0,0,0,0
1.7604867479967652,-0.00718260498046875,-10.05564697265625,1.1324573852539062,0,0,0,0
1.7616806599980919,0.02633621826171875,-10.022128149414062,1.0845733520507812,0,0,0,0
1.7627813319995767,0.033518823242187495,-10.019733947753906,1.0007762939453124,0,0,0,0
1.7639323559997138,-0.028730419921875,-10.120290417480469,1.0031704956054688,0,0,0,0
1.765259284991771,-0.062249243164062495,-10.077194787597655,1.0534487304687499,0,0,0,0
1.7665440659911837,0.0143652099609375,-10.026916552734374,1.1276689819335937,0,0,0,0
1.7677389969903743,0.055066638183593745,-9.897629663085937,1.0989385620117187,0,0,0,0
1.7689160939917201,-0.0430956298828125,-9.81862100830078,1.0749965454101562,0,0,0,0
1.7701944500004174,0.07900865478515624,-9.701305126953125,1.0797849487304687,0,0,0,0
1.7714906379987951,0.15562310791015624,-9.694122521972655,1.0271125122070313,0,0,0,0
1.7726280319911893,0.143652099609375,-9.610325463867188,1.1923124267578125,0,0,0,0
1.773716964002233,0.086191259765625,-9.64623848876953,1.0678139404296874,0,0,0,0
1.7747982290020445,0.076614453125,-9.60793126220703,1.1180921752929687,0,0,0,0
1.7760208629915724,0.1149216796875,-9.639055883789062,1.0821791503906248,0,0,0,0
1.7773019409942208,0.076614453125,-9.672574707031249,1.0031704956054688,0,0,0,0
1.7785254269983852,-0.00718260498046875,-9.739612353515625,1.2210428466796874,0,0,0,0
1.779630802993779,-0.055066638183593745,-9.79946739501953,1.1037269653320312,0,0,0,0
1.7807194749912014,0.0,-9.701305126953125,1.149216796875,0,0,0,0
1.7820400339987827,0.05027823486328125,-9.708487731933593,1.1037269653320312,0,0,0,0
1.7833235189900734,0.06703764648437499,-9.6917283203125,1.149216796875,0,0,0,0
1.7845551339996746,0.011971008300781249,-9.713276135253906,1.1468225952148436,0,0,0,0
1.7856560289947083,0.028730419921875,-9.835380419921874,1.1731588134765625,0,0,0,0
1.786738183000125,0.04548983154296875,-9.9215716796875,1.2569558715820313,0,0,0,0
1.7879804090043763,-0.076614453125,-10.038887561035155,1.1611878051757811,0,0,0,0
1.7892941719910596,-0.08379705810546874,-10.0748005859375,1.13006318359375,0,0,0,0
1.7905002320039785,-0.00718260498046875,-10.096348400878906,1.0797849487304687,0,0,0,0
1.7916259960038587,0.055066638183593745,-10.041281762695311,1.1156979736328125,0,0,0,0
1.7927121499960776,0.0,-10.002974536132811,1.1707646118164061,0,0,0,0
1.7938302120019216,-0.1005564697265625,-10.022128149414062,1.1827356201171875,0,0,0,0
1.7950961969909258,0.01915361328125,-9.945513696289062,1.1659762084960936,0,0,0,0
1.7963454970013117,0.040701428222656245,-9.81862100830078,1.2569558715820313,0,0,0,0
1.797437743996852,0.09337386474609374,-9.919177478027343,1.2761094848632812,0,0,0,0
1.798519119998673,-0.0047884033203125,-9.947907897949218,1.1827356201171875,0,0,0,0
1.7996063669997966,0.00718260498046875,-9.878476049804688,1.1013327636718748,0,0,0,0
1.8008012600039365,0.05027823486328125,-9.888052856445311,1.0582371337890624,0,0,0,0
1.801981116994284,0.0143652099609375,-9.880870251464843,1.0749965454101562,0,0,0,0
1.803074697003467,-0.0143652099609375,-9.852139831542969,1.0438719238281249,0,0,0,0
1.804161979991477,0.08858546142578125,-9.81862100830078,1.0654197387695312,0,0,0,0
1.8053572439966956,0.13168109130859373,-9.730035546875,1.1037269653320312,0,0,0,0
1.8065511379973032,0.12210428466796874,-9.655815295410155,1.2114660400390624,0,0,0,0
1.8078011039906414,0.11731588134765625,-9.552864624023437,1.0869675537109373,0,0,0,0
1.8089326649933355,0.05027823486328125,-9.586383447265625,1.0845733520507812,0,0,0,0
1.810092967003584,0.09576806640624999,-9.670180505371093,1.0414777221679687,0,0,0,0
1.811359026003629,0.17956512451171874,-9.70369932861328,1.0654197387695312,0,0,0,0
1.8124548100022366,0.16519991455078123,-9.68454571533203,0.9241618408203125,0,0,0,0
1.8135382039909018,0.06464344482421874,-9.797073193359374,1.158793603515625,0,0,0,0
1.814624783990439,0.033518823242187495,-9.792284790039062,0.9648632690429687,0,0,0,0
1.8157951600005617,-0.01915361328125,-9.849745629882811,1.0702081420898437,0,0,0,0
1.8174306040018564,0.047884033203124995,-9.797073193359374,1.0869675537109373,0,0,0,0
1.8187984579999465,0.05985504150390625,-9.804255798339844,1.1324573852539062,0,0,0,0
1.819993222001358,0.086191259765625,-9.81862100830078,1.0749965454101562,0,0,0,0
1.8220006240007933,0.13168109130859373,-9.969455712890625,1.1659762084960936,0,0,0,0
1.8231929439934902,-0.0143652099609375,-10.04846436767578,1.1444283935546875,0,0,0,0
1.8243724859930808,-0.04548983154296875,-10.08677159423828,0.97683427734375,0,0,0,0
1.8258262470044428,0.0,-10.1131078125,1.0630255371093749,0,0,0,0
1.8271501199924387,-0.0047884033203125,-10.079588989257813,1.1420341918945311,0,0,0,0
1.8284627340035513,-0.06703764648437499,-10.046070166015625,1.3407529296874998,0,0,0,0
1.8296968130016467,-0.0718260498046875,-9.890447058105469,1.1923124267578125,0,0,0,0
1.8310626299935393,0.01915361328125,-9.830592016601562,1.1324573852539062,0,0,0,0
1.8322733379900455,0.05985504150390625,-9.866505041503906,1.1180921752929687,0,0,0,0
1.833529379000538,0.01915361328125,-9.854534033203125,1.1516109985351561,0,0,0,0
1.834622402995592,0.033518823242187495,-9.859322436523437,1.0917559570312498,0,0,0,0
1.835737204994075,0.05746083984375,-9.866505041503906,1.0295067138671874,0,0,0,0
1.8368782289908268,-0.009576806640625,-9.93354268798828,1.0271125122070313,0,0,0,0
1.8382421389978845,0.055066638183593745,-9.842563024902343,1.1731588134765625,0,0,0,0
1.8399834519950673,0.08379705810546874,-9.78031378173828,1.0869675537109373,0,0,0,0
1.841316250996897,0.12449848632812499,-9.751583361816406,1.0917559570312498,0,0,0,0
1.8427088649914367,0.1149216796875,-9.564835632324218,1.0797849487304687,0,0,0,0
1.8441518479958177,0.13646949462890623,-9.648632690429688,1.1827356201171875,0,0,0,0
1.8456812749936944,0.09337386474609374,-9.686939916992188,1.0941501586914062,0,0,0,0
1.8468898720020661,0.0047884033203125,-9.832986218261718,1.0438719238281249,0,0,0,0
1.8480686730035814,0.0383072265625,-9.859322436523437,1.1468225952148436,0,0,0,0
1.849302157992497,0.033518823242187495,-9.828197814941406,1.1372457885742187,0,0,0,0
1.8505605139944237,0.031124621582031248,-9.93354268798828,1.1085153686523437,0,0,0,0
1.8519402020028792,0.0047884033203125,-9.904812268066406,1.1037269653320312,0,0,0,0
1.8531413360033184,0.009576806640625,-9.995791931152343,1.0773907470703123,0,0,0,0
1.8542752670036862,0.031124621582031248,-9.871293444824218,1.1180921752929687,0,0,0,0
1.8554437909915578,-0.00239420166015625,-9.85692823486328,1.0773907470703123,0,0,0,0
1.8566087770013837,0.02633621826171875,-9.935936889648437,1.1156979736328125,0,0,0,0
1.857699097992736,-0.04548983154296875,-10.043675964355469,1.0869675537109373,0,0,0,0
1.8588525660015875,-0.03591302490234375,-10.050858569335936,1.158793603515625,0,0,0,0
1.8599596459971508,-0.11252747802734374,-10.103531005859374,1.0917559570312498,0,0,0,0
1.8611497059901012,0.0718260498046875,-10.053252770996092,1.1156979736328125,0,0,0,0
1.8624163579952437,-0.00239420166015625,-10.079588989257813,1.1252747802734375,0,0,0,0
1.8635265299963066,0.00718260498046875,-10.014945544433592,1.2234370483398436,0,0,0,0
1.8646149989945116,-0.04548983154296875,-10.031704956054687,1.0869675537109373,0,0,0,0
1.8657069119944936,0.062249243164062495,-9.823409411621093,1.0702081420898437,0,0,0,0
1.8669801380019635,0.14125789794921875,-9.715670336914062,1.0654197387695312,0,0,0,0
1.8681606430036481,0.105344873046875,-9.801861596679688,1.0342951171875,0,0,0,0
1.8692559629998868,0.0430956298828125,-9.828197814941406,1.0845733520507812,0,0,0,0
1.8703365620021941,0.0430956298828125,-9.900023864746093,1.1013327636718748,0,0,0,0
1.8714277899998706,0.12210428466796874,-9.871293444824218,1.0486603271484374,0,0,0,0
1.8726702199928695,0.11013327636718749,-9.950302099609374,1.0726023437499999,0,0,0,0
1.8739732050016755,0.031124621582031248,-9.763554370117188,1.0031704956054688,0,0,0,0
