Time (s),Accel X1,Accel Y1,Accel Z1,Accel X2,Accel Y2,Accel Z2
6.090700026106788e-05,0,0,1.3623007446289062,0,0,1.0718750000000001
0.0015914650002741837,0,0,1.3646949462890625,0,0,0.9187500000000001
0.003042635000383598,0,0,1.2641384765625,0,0,0.765625
0.004491398000027402,0,0,1.3168109130859373,0,0,0.6890625
0.005979956999908609,0,0,1.3024457031249999,0,0,0.6125
0.007696569000472664,0,0,1.3910311645507811,0,0,0.5359375000000001
0.009160184000393201,0,0,1.455674609375,0,0,0.6890625
0.010608632000185025,0,0,1.6256629272460936,0,0,0.6125
0.012057468999955745,0,0,1.3742717529296875,0,0,0.765625
0.01350489899959939,0,0,1.3311761230468748,0,0,0.765625
0.014952032000110194,0,0,1.3024457031249999,0,0,0.765625
0.016399498999817297,0,0,1.388636962890625,0,0,0.5359375000000001
0.017846521000137727,0,0,1.5346832641601562,0,0,0.6125
0.019293598999865935,0,0,1.675941162109375,0,0,0.9187500000000001
0.020741287999953784,0,0,1.4101847778320311,0,0,0.765625
0.02219692099970416,0,0,1.5251064575195312,0,0,0.6125
0.02376579399970069,0,0,1.3407529296874998,0,0,0.6125
0.025396183999873756,0,0,1.2210428466796874,0,0,0.3828125
0.0269133720003083,0,0,1.3551181396484375,0,0,0.6125
0.028389394000441825,0,0,1.3838485595703125,0,0,0.45937500000000003
0.02983699099968362,0,0,1.458068811035156,0,0,0.8421875000000001
0.03128886499962391,0,0,1.4053963745117186,0,0,0.765625
0.03273446100047295,0,0,1.3359645263671873,0,0,0.9187500000000001
0.034179631000370136,0,0,1.2473790649414063,0,0,0.765625
0.03563830199982476,0,0,1.4053963745117186,0,0,0.9953125
0.03708958300012455,0,0,1.2569558715820313,0,0,0.765625
0.03853786400031822,0,0,1.37906015625,0,0,0.6890625
0.03998529399996187,0,0,1.446097802734375,0,0,0.9953125
0.04143266800019774,0,0,1.3335703247070312,0,0,0.9187500000000001
0.042879839000306674,0,0,1.369483349609375,0,0,1.1484375
0.04432680500030983,0,0,1.3455413330078123,0,0,0.9187500000000001
0.0457735310001226,0,0,1.2689268798828124,0,0,1.0718750000000001
0.047220682999977726,0,0,1.1731588134765625,0,0,1.0718750000000001
0.048668741999790655,0,0,1.4891934326171874,0,0,1.1484375
0.0501151349999418,0,0,1.4772224243164063,0,0,0.9187500000000001
0.05156223100038915,0,0,1.3575123413085937,0,0,0.9187500000000001
0.05300858700047684,0,0,1.4724340209960938,0,0,0.9953125
0.05445544200028962,0,0,1.2952630981445312,0,0,0.9953125
0.05593418599983124,0,0,1.2785036865234374,0,0,0.8421875000000001
0.05738250499962305,0,0,1.2282254516601563,0,0,0.765625
0.058830470999964746,0,0,1.4604630126953124,0,0,1.0718750000000001
0.06027527199967153,0,0,1.5155296508789062,0,0,0.6890625
0.061714516000392905,0,0,1.4532804077148436,0,0,0.9953125
0.06315392699980293,0,0,1.6017209106445311,0,0,0.8421875000000001
0.06460513500041998,0,0,1.2976572998046874,0,0,0.765625
0.06605586000023322,0,0,1.3311761230468748,0,0,0.6125
0.06751201200040668,0,0,1.3144167114257812,0,0,0.8421875000000001
0.06895234900002833,0,0,1.4101847778320311,0,0,0.765625
0.0704087599997365,0,0,1.4628572143554686,0,0,0.153125
0.07185569000012038,0,0,1.3527239379882812,0,0,0.45937500000000003
0.07331065699963801,0,0,1.5586252807617187,0,0,1.1484375
0.07491367700004048,0,0,1.2904746948242187,0,0,0.5359375000000001
0.07639482900049188,0,0,1.419761584472656,0,0,0.8421875000000001
0.07784610999988217,0,0,1.2761094848632812,0,0,0.5359375000000001
0.07929528000022401,0,0,1.3287819213867187,0,0,0.9953125
0.08074965400010115,0,0,1.3910311645507811,0,0,0.6125
0.08219723199999862,0,0,1.35990654296875,0,0,0.9187500000000001
0.08364543999960006,0,0,1.446097802734375,0,0,0.6890625
0.08509177700034343,0,0,1.13006318359375,0,0,0.9187500000000001
0.0865591689998837,0,0,1.22583125,0,0,0.9187500000000001
0.0880063020003945,0,0,1.2473790649414063,0,0,0.6890625
0.08945326899993233,0,0,1.3120225097656248,0,0,0.6890625
0.09090006899987202,0,0,1.39821376953125,0,0,0.3828125
0.09234690599987516,0,0,1.5131354492187499,0,0,0.5359375000000001
0.09379341000021668,0,0,1.5155296508789062,0,0,0.6125
0.09524089499973343,0,0,1.2282254516601563,0,0,1.0718750000000001
0.09668856500047696,0,0,1.407790576171875,0,0,0.8421875000000001
0.09813523600041663,0,0,1.3192051147460937,0,0,0.6890625
0.09958264699980646,0,0,1.3048399047851562,0,0,0.8421875000000001
0.10102855799959798,0,0,1.4245499877929686,0,0,0.45937500000000003
0.10247563600023568,0,0,1.4963760375976562,0,0,0.9187500000000001
0.10392317599962553,0,0,1.429338391113281,0,0,0.6890625
0.1053697170000305,0,0,1.5107412475585937,0,0,0.8421875000000001
0.10681642399958946,0,0,1.3311761230468748,0,0,0.9187500000000001
0.10826303900012135,0,0,1.2234370483398436,0,0,0.9187500000000001
0.10971152399997663,0,0,1.3455413330078123,0,0,0.45937500000000003
0.11115836099997978,0,0,1.4772224243164063,0,0,0.6890625
0.11260919800042757,0,0,1.4125789794921875,0,0,0.765625
0.11405594299958466,0,0,1.4891934326171874,0,0,-8.881250000000001
0.1155268350003098,0,0,1.3192051147460937,0,0,0.765625
0.11697541299963632,0,0,1.4149731811523436,0,0,0.9187500000000001
0.11842213900035858,0,0,1.16837041015625,0,0,0.8421875000000001
0.11987066100027732,0,0,1.3024457031249999,0,0,0.6890625
0.12131899799987877,0,0,1.3670891479492187,0,0,0.9953125
0.12276581700007227,0,0,1.4173673828125,0,0,0.9187500000000001
0.12421332000030816,0,0,1.3192051147460937,0,0,1.1484375
0.12565993499993056,0,0,1.3838485595703125,0,0,0.765625
0.12732534400038276,0,0,1.465251416015625,0,0,1.0718750000000001
0.12878371799979504,0,0,1.2665326782226562,0,0,0.9187500000000001
0.13022277700019913,0,0,1.3120225097656248,0,0,0.6890625
0.1316661139999269,0,0,1.3455413330078123,0,0,0.9953125
0.13311122899995098,0,0,1.465251416015625,0,0,0.8421875000000001
0.1345583069996792,0,0,1.4796166259765624,0,0,0.9953125
0.13600762599980953,0,0,1.5107412475585937,0,0,0.9187500000000001
0.13749064700004965,0,0,1.3407529296874998,0,0,1.0718750000000001
0.1389410580004551,0,0,1.2665326782226562,0,0,0.8421875000000001
0.14038687700031005,0,0,1.3311761230468748,0,0,0.9953125
0.14183227000012266,0,0,1.4053963745117186,0,0,1.225
0.143277606999618,0,0,1.5059528442382812,0,0,0.9953125
0.14472270300029777,0,0,1.5059528442382812,0,0,0.6890625
0.14616789200044877,0,0,1.678335363769531,0,0,1.1484375
0.14763361800032726,0,0,1.3287819213867187,0,0,0.8421875000000001
0.14907786200001283,0,0,1.3359645263671873,0,0,0.765625
0.15052260599986766,0,0,1.4796166259765624,0,0,0.6890625
0.15198305400008394,0,0,1.3479355346679687,0,0,0.6125
0.15342891000000236,0,0,1.4604630126953124,0,0,0.8421875000000001
0.15487365500030137,0,0,1.2713210815429687,0,0,0.6125
0.15635632500016072,0,0,1.3910311645507811,0,0,0.8421875000000001
0.1578051240003333,0,0,1.2904746948242187,0,0,0.5359375000000001
0.15925235000031535,0,0,1.2761094848632812,0,0,0.5359375000000001
0.1606985580001492,0,0,1.4317325927734375,0,0,0.8421875000000001
0.1621544689996881,0,0,1.3551181396484375,0,0,0.6125
0.16360065800017765,0,0,1.458068811035156,0,0,-9.340625000000001
0.1650467360004768,0,0,1.3838485595703125,0,0,0.765625
0.1664923690004798,0,0,1.4437036010742186,0,0,0.6125
0.16795313199963857,0,0,1.3670891479492187,0,0,0.8421875000000001
0.16939830200044526,0,0,1.2497732666015624,0,0,0.765625
0.17084369500025787,0,0,1.3120225097656248,0,0,0.8421875000000001
0.17230253199977597,0,0,1.3766659545898436,0,0,0.765625
0.17375275700032944,0,0,1.37906015625,0,0,0.0
0.17519829800039588,0,0,1.429338391113281,0,0,0.6125
0.17664444999991247,0,0,1.5346832641601562,0,0,0.6125
0.17808956499993656,0,0,1.2665326782226562,0,0,0.8421875000000001
0.1795355690001088,0,0,1.2808978881835937,0,0,0.9953125
0.1809799060001751,0,0,1.16837041015625,0,0,0.9187500000000001
0.18242496499988192,0,0,1.2282254516601563,0,0,0.30625
0.1838698210003713,0,0,1.4508862060546874,0,0,0.45937500000000003
0.18531558300037432,0,0,1.4820108276367188,0,0,0.6890625
0.18680995700015046,0,0,1.5729904907226562,0,0,0.9187500000000001
0.1882913119998193,0,0,1.4915876342773438,0,0,0.5359375000000001
0.18973814899982244,0,0,1.37906015625,0,0,0.9953125
0.19118270899980416,0,0,1.3096283081054687,0,0,0.3828125
0.19262876799984952,0,0,1.350329736328125,0,0,0.8421875000000001
0.1940745120000429,0,0,1.4245499877929686,0,0,0.8421875000000001
0.1955203489997075,0,0,1.5059528442382812,0,0,0.9187500000000001
0.1969657420004296,0,0,1.3862427612304686,0,0,0.765625
0.1984100789995864,0,0,1.4341267944335936,0,0,0.9953125
0.1998552490003931,0,0,1.3766659545898436,0,0,0.765625
0.2012998640002479,0,0,1.2880804931640624,0,0,0.6125
0.20274421999965853,0,0,1.3431471313476562,0,0,0.6890625
0.20418948299993644,0,0,1.2713210815429687,0,0,1.1484375
0.20563354200021422,0,0,1.4772224243164063,0,0,0.9187500000000001
0.20709899000030418,0,0,1.3192051147460937,0,0,1.0718750000000001
0.20859678899978462,0,0,1.3766659545898436,0,0,0.765625
0.21004170099968178,0,0,1.3575123413085937,0,0,0.765625
0.21148759300012898,0,0,1.2569558715820313,0,0,0.765625
0.2129321339998569,0,0,1.2952630981445312,0,0,0.6890625
0.2143770080001559,0,0,1.3168109130859373,0,0,1.378125
0.2158226410001589,0,0,1.5346832641601562,0,0,0.765625
0.21737503300028038,0,0,1.4006079711914061,0,0,0.8421875000000001
0.21882000000005064,0,0,1.4149731811523436,0,0,0.9953125
0.220266059000096,0,0,1.2569558715820313,0,0,0.9953125
0.2217116370002259,0,0,1.20667763671875,0,0,0.9187500000000001
0.22315693699965777,0,0,1.2401964599609374,0,0,0.9953125
0.22460249600044335,0,0,1.438915197753906,0,0,1.0718750000000001
0.22604733299976942,0,0,1.4915876342773438,0,0,0.8421875000000001
0.22749941100028082,0,0,1.3958195678710936,0,0,0.6890625
0.2289442479996069,0,0,1.467645617675781,0,0,1.990625
0.23049724999964383,0,0,1.2378022583007813,0,0,0.8421875000000001
0.2319486610003878,0,0,1.3335703247070312,0,0,0.6890625
0.23339407300045423,0,0,1.2425906616210938,0,0,0.3828125
0.2348384469996745,0,0,1.3766659545898436,0,0,0.6890625
0.23628367299988895,0,0,1.3862427612304686,0,0,0.6890625
0.23772915799963812,0,0,1.3072341064453123,0,0,0.6125
0.23917390200040245,0,0,1.3814543579101561,0,0,0.765625
0.24071134899986646,0,0,1.407790576171875,0,0,0.8421875000000001
0.242275630000222,0,0,1.22583125,0,0,0.45937500000000003
0.24372283699995023,0,0,1.3335703247070312,0,0,0.6890625
0.24516834099995322,0,0,1.3144167114257812,0,0,0.6125
0.24661869600004138,0,0,1.4508862060546874,0,0,0.8421875000000001
0.24808945899985702,0,0,1.3431471313476562,0,0,0.6125
0.24954109200007224,0,0,1.5131354492187499,0,0,0.765625
0.25098668900045595,0,0,1.3838485595703125,0,0,0.6125
0.25243959999988874,0,0,1.419761584472656,0,0,0.6890625
0.25390291799976694,0,0,1.407790576171875,0,0,0.765625
0.25555927099958353,0,0,1.4149731811523436,0,0,0.765625
0.25700792299994646,0,0,1.4820108276367188,0,0,0.5359375000000001
0.2584453350000331,0,0,1.3838485595703125,0,0,0.45937500000000003
0.2598816720001196,0,0,1.5945383056640625,0,0,0.6890625
0.26131660099963483,0,0,1.3000515014648437,0,0,0.6890625
0.2627516980001019,0,0,1.2761094848632812,0,0,0.8421875000000001
0.2641883129999769,0,0,1.2330138549804688,0,0,1.225
0.265622945999894,0,0,1.4341267944335936,0,0,0.6890625
0.2670586539998112,0,0,1.467645617675781,0,0,0.0
0.26850438000019494,0,0,1.5059528442382812,0,0,0.765625
0.26996140200026275,0,0,1.5107412475585937,0,0,0.6125
0.27140684999994846,0,0,1.3120225097656248,0,0,1.0718750000000001
0.2728508720001628,0,0,1.2856862915039062,0,0,1.0718750000000001
0.2742959500001234,0,0,1.2904746948242187,0,0,0.9187500000000001
0.27574232400002074,0,0,1.2689268798828124,0,0,0.6125
0.277186420000362,0,0,1.5083470458984374,0,0,0.6890625
0.2786317390000477,0,0,1.4628572143554686,0,0,0.5359375000000001
0.2800768719998814,0,0,1.5179238525390624,0,0,0.5359375000000001
0.2815220610000324,0,0,1.446097802734375,0,0,0.9187500000000001
0.28296617599971796,0,0,1.350329736328125,0,0,0.6890625
0.28441103200020734,0,0,1.3215993164062498,0,0,0.6890625
0.2858587569999145,0,0,1.37906015625,0,0,0.5359375000000001
0.2873041689999809,0,0,1.438915197753906,0,0,0.5359375000000001
0.2887487650004914,0,0,1.4006079711914061,0,0,0.6890625
0.29019334300028277,0,0,1.3551181396484375,0,0,1.378125
0.2916386059996512,0,0,1.2737152832031249,0,0,1.3015625000000002
0.29308429499997146,0,0,1.3359645263671873,0,0,1.0718750000000001
0.29452920600033394,0,0,1.3359645263671873,0,0,0.8421875000000001
0.2959745059997658,0,0,1.3407529296874998,0,0,0.5359375000000001
0.2974200649996419,0,0,1.2856862915039062,0,0,0.9953125
0.2988720129997091,0,0,1.5131354492187499,0,0,0.6125
0.3003174429995852,0,0,1.4867992309570313,0,0,1.1484375
0.30176215000028606,0,0,1.4437036010742186,0,0,0.9953125
0.3032067650001409,0,0,1.3646949462890625,0,0,0.765625
0.30465113900027063,0,0,1.2641384765625,0,0,0.22968750000000002
0.3060871979996591,0,0,1.3311761230468748,0,0,0.5359375000000001
0.3075332950002121,0,0,1.2904746948242187,0,0,0.9953125
0.30897720600023604,0,0,1.5227122558593749,0,0,0.9187500000000001
0.3104223210002601,0,0,1.4867992309570313,0,0,0.8421875000000001
0.3118684540004324,0,0,1.458068811035156,0,0,0.5359375000000001
0.31331275400043523,0,0,1.3096283081054687,0,0,0.765625
0.3147574800004804,0,0,1.1755530151367186,0,0,0.6125
0.3162029840004834,0,0,1.2737152832031249,0,0,0.9187500000000001
0.3176480800002537,0,0,1.3383587280273437,0,0,0.5359375000000001
0.3190928800004258,0,0,1.4700398193359374,0,0,0.6125
0.32054227299977356,0,0,1.484405029296875,0,0,0.765625
0.3219870359998822,0,0,1.5945383056640625,0,0,0.9187500000000001
0.32343198400030815,0,0,1.235408056640625,0,0,0.8421875000000001
0.3250909850003154,0,0,1.3287819213867187,0,0,0.5359375000000001
0.3265409890000228,0,0,1.3646949462890625,0,0,0.8421875000000001
0.3279873999999836,0,0,1.3527239379882812,0,0,0.765625
0.3294326450004519,0,0,1.4532804077148436,0,0,0.3828125
0.3308881109996946,0,0,1.3551181396484375,0,0,0.3828125
0.3323338930003956,0,0,1.4030021728515625,0,0,0.6890625
0.3337793219998275,0,0,1.2856862915039062,0,0,0.5359375000000001
0.33522484399964014,0,0,1.458068811035156,0,0,0.5359375000000001
0.3366712369997913,0,0,1.4532804077148436,0,0,0.765625
0.3381163519998154,0,0,1.369483349609375,0,0,2.296875
0.33957131799979834,0,0,1.4700398193359374,0,0,0.30625
0.3410159149998435,0,0,1.4437036010742186,0,0,0.6125
0.34246223300033307,0,0,1.3144167114257812,0,0,0.6125
0.3439088670002093,0,0,1.3287819213867187,0,0,0.8421875000000001
0.3453614629997901,0,0,1.2928688964843749,0,0,1.0718750000000001
0.3468072260002373,0,0,1.3670891479492187,0,0,0.9187500000000001
0.3482530069995846,0,0,1.2928688964843749,0,0,0.765625
0.34969771499982016,0,0,1.5370774658203123,0,0,0.765625
0.3511422000001403,0,0,1.4149731811523436,0,0,0.765625
0.35258703700037586,0,0,1.2521674682617188,0,0,1.1484375
0.35403187399970193,0,0,1.3215993164062498,0,0,0.6890625
0.3554773590003606,0,0,1.3335703247070312,0,0,0.9953125
0.35692419600036374,0,0,1.3263877197265623,0,0,0.8421875000000001
0.3583686439997109,0,0,1.254561669921875,0,0,0.6125
0.360157125999649,0,0,1.4700398193359374,0,0,0.30625
0.36161301900028775,0,0,1.5083470458984374,0,0,0.8421875000000001
0.36305820800043875,0,0,1.5322890624999999,0,0,0.765625
0.3645070630000191,0,0,1.4604630126953124,0,0,0.765625
0.3659519929997259,0,0,1.2952630981445312,0,0,0.8421875000000001
0.3673985149998771,0,0,1.16837041015625,0,0,0.765625
0.36884303700026067,0,0,1.3814543579101561,0,0,0.6125
0.3702877819996502,0,0,1.4772224243164063,0,0,0.6125
0.3717331739999281,0,0,1.388636962890625,0,0,0.9187500000000001
0.37327578799977346,0,0,1.5227122558593749,0,0,0.9953125
0.37479892099963763,0,0,1.2904746948242187,0,0,0.9187500000000001
0.3762474610002755,0,0,1.2761094848632812,0,0,0.9187500000000001
0.37770970600013243,0,0,1.235408056640625,0,0,0.8421875000000001
0.37916622800003097,0,0,1.3024457031249999,0,0,0.6125
0.38061178699990705,0,0,1.350329736328125,0,0,0.45937500000000003
0.3820566240001426,0,0,1.4987702392578124,0,0,0.8421875000000001
0.3835544049998134,0,0,1.2521674682617188,0,0,0.9953125
0.38500266800019745,0,0,1.350329736328125,0,0,0.8421875000000001
0.386447949000285,0,0,1.3359645263671873,0,0,0.8421875000000001
0.38789265699961106,0,0,1.2689268798828124,0,0,0.6890625
0.389337290000185,0,0,1.2952630981445312,0,0,0.765625
0.39080653400014853,0,0,1.388636962890625,0,0,1.378125
0.3922633339998356,0,0,1.3862427612304686,0,0,1.0718750000000001
0.39370915299969056,0,0,1.484405029296875,0,0,0.9187500000000001
0.39515408300030685,0,0,1.4939818359375,0,0,0.8421875000000001
0.39659990099971765,0,0,1.2641384765625,0,0,1.225
0.39804481200008013,0,0,1.2569558715820313,0,0,0.8421875000000001
0.3994899640001677,0,0,1.3527239379882812,0,0,0.765625
0.4009347090004667,0,0,1.3239935180664062,0,0,0.9953125
0.40237980500023696,0,0,1.4772224243164063,0,0,0.6890625
0.40382562299964775,0,0,1.3192051147460937,0,0,2.0671875
0.4052710530004333,0,0,1.6112977172851561,0,0,1.0718750000000001
0.4067163529998652,0,0,1.3646949462890625,0,0,0.8421875000000001
0.4081621160003124,0,0,1.3263877197265623,0,0,0.6890625
0.4096067119999134,0,0,1.2330138549804688,0,0,0.6890625
0.41105149400027585,0,0,1.3431471313476562,0,0,0.6890625
0.41249679399970773,0,0,1.5035586425781249,0,0,0.45937500000000003
0.4139413160000913,0,0,1.4341267944335936,0,0,0.5359375000000001
0.41538522700011526,0,0,1.3814543579101561,0,0,0.5359375000000001
0.4168301939998855,0,0,1.3335703247070312,0,0,0.6125
0.4182754379999096,0,0,1.448492004394531,0,0,0.6890625
0.4197214610003357,0,0,1.3814543579101561,0,0,0.6125
0.4211657240002751,0,0,1.3575123413085937,0,0,0.5359375000000001
0.42261043100006646,0,0,1.407790576171875,0,0,0.45937500000000003
0.4240557680004713,0,0,1.4508862060546874,0,0,0.6890625
0.42550097500043194,0,0,1.4101847778320311,0,0,0.6125
0.42694799800028704,0,0,1.2641384765625,0,0,0.6125
0.42839364999963436,0,0,1.2593500732421874,0,0,0.765625
0.43020994600010454,0,0,1.3072341064453123,0,0,0.6890625
0.4316622460000872,0,0,1.4317325927734375,0,0,0.765625
0.4331151010001122,0,0,1.4963760375976562,0,0,0.45937500000000003
0.43456123499981913,0,0,1.4245499877929686,0,0,0.9953125
0.4360251269999935,0,0,1.465251416015625,0,0,0.9953125
0.43763827699967806,0,0,1.2808978881835937,0,0,0.9187500000000001
0.4391392799998357,0,0,1.2497732666015624,0,0,1.0718750000000001
0.4405946540000514,0,0,1.2904746948242187,0,0,0.6125
0.4420401019997371,0,0,1.3120225097656248,0,0,0.9953125
0.4434855689996766,0,0,1.4053963745117186,0,0,0.5359375000000001
0.44493059100022947,0,0,1.3910311645507811,0,0,0.8421875000000001
0.4463755389997459,0,0,1.4987702392578124,0,0,0.45937500000000003
0.44782744999974966,0,0,1.2665326782226562,0,0,0.9187500000000001
0.4492731950003872,0,0,1.3670891479492187,0,0,0.9953125
0.45072388399967167,0,0,1.3742717529296875,0,0,1.0718750000000001
0.45217868399959116,0,0,1.3239935180664062,0,0,0.30625
0.453622113000165,0,0,1.5107412475585937,0,0,0.3828125
0.4550648579997869,0,0,1.4700398193359374,0,0,0.5359375000000001
0.4565449350002382,0,0,1.388636962890625,0,0,0.6890625
0.4579832540002826,0,0,1.2856862915039062,0,0,0.6890625
0.45943249799984187,0,0,1.3072341064453123,0,0,0.9187500000000001
0.46086803900016093,0,0,1.350329736328125,0,0,0.9187500000000001
0.4623044319996552,0,0,1.39821376953125,0,0,0.765625
0.46374041699982627,0,0,1.467645617675781,0,0,0.30625
0.4651743840004201,0,0,1.4628572143554686,0,0,0.765625
0.46660985099970276,0,0,1.3048399047851562,0,0,0.9953125
0.46804703999987396,0,0,1.3263877197265623,0,0,0.9187500000000001
0.4694817839999814,0,0,1.3215993164062498,0,0,0.9187500000000001
0.4709160290003638,0,0,1.2904746948242187,0,0,0.6890625
0.4723614770000495,0,0,1.3383587280273437,0,0,0.8421875000000001
0.4737956290000511,0,0,1.4437036010742186,0,0,1.0718750000000001
0.4752294110003277,0,0,1.448492004394531,0,0,0.9187500000000001
0.4766945620003753,0,0,1.47482822265625,0,0,0.9953125
0.47814123300031497,0,0,1.438915197753906,0,0,1.1484375
0.4795881250001912,0,0,1.3024457031249999,0,0,0.8421875000000001
0.48103403599998273,0,0,1.1635820068359375,0,0,0.765625
0.48248092900030315,0,0,1.4820108276367188,0,0,0.9953125
0.4839258029996927,0,0,1.3479355346679687,0,0,1.0718750000000001
0.4853714549999495,0,0,1.4101847778320311,0,0,1.0718750000000001
0.4868182549998892,0,0,1.4125789794921875,0,0,0.8421875000000001
0.48825814799965883,0,0,1.6352397338867186,0,0,0.9953125
0.4896921879999354,0,0,1.3479355346679687,0,0,0.9187500000000001
0.4911263029998736,0,0,1.2617442749023438,0,0,0.3828125
0.4925951029999851,0,0,1.2521674682617188,0,0,0.765625
0.4940402729998823,0,0,1.4724340209960938,0,0,0.8421875000000001
0.49548492499980057,0,0,1.6831237670898436,0,0,0.8421875000000001
0.49697022500004095,0,0,1.3670891479492187,0,0,0.45937500000000003
0.4984202470004675,0,0,1.6448165405273436,0,0,0.6890625
0.4998686770004497,0,0,1.2665326782226562,0,0,0.765625
0.5059771699998237,0,0,1.438915197753906,0,0,0.5359375000000001
0.5081017780003094,0,0,1.4532804077148436,0,0,0.5359375000000001
0.5098907040000995,0,0,1.1851298217773436,0,0,0.6125
0.5113714110002547,0,0,1.3766659545898436,0,0,0.6125
0.5128142849998767,0,0,1.2234370483398436,0,0,0.8421875000000001
0.5142551030003233,0,0,1.22583125,0,0,0.6125
0.5157058109998616,0,0,1.4724340209960938,0,0,0.5359375000000001
0.5171550739996746,0,0,1.3455413330078123,0,0,0.9187500000000001
0.5185963370004174,0,0,1.3311761230468748,0,0,0.765625
0.5200461920003363,0,0,1.3431471313476562,0,0,0.765625
0.5214881410001908,0,0,1.3000515014648437,0,0,0.765625
0.5230390690003333,0,0,1.3072341064453123,0,0,0.5359375000000001
0.5247239219997937,0,0,1.3215993164062498,0,0,0.6890625
0.5261747410004318,0,0,1.467645617675781,0,0,0.5359375000000001
0.5276191519997155,0,0,1.4030021728515625,0,0,0.765625
0.5290596739996545,0,0,1.5514426757812498,0,0,0.9187500000000001
0.5304990479999105,0,0,1.2593500732421874,0,0,0.8421875000000001
0.5319500699997661,0,0,1.3168109130859373,0,0,0.8421875000000001
0.5333892219996414,0,0,1.2641384765625,0,0,1.0718750000000001
0.5348282450004263,0,0,1.2569558715820313,0,0,0.6890625
0.5362707300000693,0,0,1.4317325927734375,0,0,0.5359375000000001
0.5377107149997755,0,0,1.4413093994140624,0,0,0.6890625
0.539150200000222,0,0,1.43652099609375,0,0,0.765625
0.5406006109997179,0,0,1.4867992309570313,0,0,0.9187500000000001
0.5420481709998057,0,0,1.39821376953125,0,0,1.1484375
0.5434970449996399,0,0,1.3263877197265623,0,0,0.8421875000000001
0.5449445109998123,0,0,1.3048399047851562,0,0,0.8421875000000001
0.5463929039997311,0,0,1.4700398193359374,0,0,1.0718750000000001
0.5478433340003903,0,0,1.4030021728515625,0,0,0.6125
0.5492891710000549,0,0,1.5035586425781249,0,0,1.1484375
0.5507364519999101,0,0,1.3168109130859373,0,0,0.5359375000000001
0.55217888199968,0,0,1.3431471313476562,0,0,0.6890625
0.5536181260004014,0,0,1.2378022583007813,0,0,0.45937500000000003
0.5550572230004036,0,0,1.3551181396484375,0,0,0.765625
0.5565071520004494,0,0,1.3048399047851562,0,0,1.0718750000000001
0.5579541189999873,0,0,1.4772224243164063,0,0,0.8421875000000001
0.5594028080004136,0,0,1.3407529296874998,0,0,0.9187500000000001
0.5608431820000987,0,0,1.3431471313476562,0,0,0.8421875000000001
0.5622826119997626,0,0,1.3120225097656248,0,0,0.8421875000000001
0.5637343560001682,0,0,1.3383587280273437,0,0,0.6890625
0.5652180630004295,0,0,1.4006079711914061,0,0,0.765625
0.5666592890001994,0,0,1.2832920898437499,0,0,1.0718750000000001
0.5681118109996532,0,0,1.4915876342773438,0,0,0.6890625
0.5695626110000376,0,0,1.4125789794921875,0,0,0.6125
0.571014930000274,0,0,1.5275006591796874,0,0,0.6890625
0.5725393579996307,0,0,1.3263877197265623,0,0,0.9187500000000001
0.5741796009997415,0,0,1.2497732666015624,0,0,0.8421875000000001
0.5756381419996615,0,0,1.3383587280273437,0,0,0.6890625
0.5770834040004047,0,0,1.3096283081054687,0,0,1.0718750000000001
0.5785317039999427,0,0,1.4963760375976562,0,0,0.9187500000000001
0.5799795969996921,0,0,1.4006079711914061,0,0,0.8421875000000001
0.5814267670002664,0,0,1.659181750488281,0,0,0.765625
0.5828739010003119,0,0,1.3072341064453123,0,0,0.8421875000000001
0.5843195710003783,0,0,1.2665326782226562,0,0,0.9953125
0.5857586860001902,0,0,1.4125789794921875,0,0,0.5359375000000001
0.587200541999664,0,0,1.3814543579101561,0,0,0.8421875000000001
0.5886506189999636,0,0,1.4173673828125,0,0,0.5359375000000001
0.5901008079999883,0,0,1.3766659545898436,0,0,0.8421875000000001
0.5915500900000552,0,0,1.6304513305664061,0,0,1.0718750000000001
0.5929967600004602,0,0,1.3455413330078123,0,0,0.8421875000000001
0.5944458009998925,0,0,1.3766659545898436,0,0,1.0718750000000001
0.5958937490004246,0,0,1.3551181396484375,0,0,0.9187500000000001
0.5973405120003008,0,0,1.254561669921875,0,0,0.45937500000000003
0.5987890160004099,0,0,1.4628572143554686,0,0,0.45937500000000003
0.6002324450000742,0,0,1.3814543579101561,0,0,0.5359375000000001
0.6016715969999495,0,0,1.5275006591796874,0,0,0.6890625
0.6031115819996558,0,0,1.3096283081054687,0,0,0.9953125
0.6045616230003361,0,0,1.4963760375976562,0,0,0.9953125
0.6060088670001278,0,0,1.3000515014648437,0,0,0.765625
0.6074752969998372,0,0,1.2378022583007813,0,0,0.6890625
0.6089270230004331,0,0,1.4341267944335936,0,0,0.6890625
0.6103747119996115,0,0,1.3838485595703125,0,0,0.9953125
0.6118231970003762,0,0,1.465251416015625,0,0,0.9187500000000001
0.613262386000315,0,0,1.3359645263671873,0,0,0.8421875000000001
0.6147037040000214,0,0,1.3455413330078123,0,0,0.8421875000000001
0.6161528559996441,0,0,1.2401964599609374,0,0,0.6890625
0.6177521729996442,0,0,1.3838485595703125,0,0,1.8375000000000001
0.6192018620004092,0,0,1.3479355346679687,0,0,0.6125
0.6206505319996722,0,0,1.4820108276367188,0,0,1.1484375
0.6220982579998235,0,0,1.3527239379882812,0,0,1.0718750000000001
0.6235475579997001,0,0,1.4317325927734375,0,0,1.225
0.6249933580002107,0,0,1.3838485595703125,0,0,1.0718750000000001
0.6264420099996642,0,0,1.3551181396484375,0,0,0.9953125
0.6279046800000287,0,0,1.3742717529296875,0,0,0.6890625
0.6293483319996085,0,0,1.4149731811523436,0,0,1.225
0.6307884289999492,0,0,1.369483349609375,0,0,0.9953125
0.6322389320002912,0,0,1.3096283081054687,0,0,-8.8046875
0.6336934540004222,0,0,1.4891934326171874,0,0,1.3015625000000002
0.6351405690002139,0,0,1.388636962890625,0,0,1.225
0.6365894059999846,0,0,1.350329736328125,0,0,0.8421875000000001
0.638044280000031,0,0,1.350329736328125,0,0,0.765625
0.6394934689997172,0,0,1.2737152832031249,0,0,1.1484375
0.6409413060000588,0,0,1.5179238525390624,0,0,0.765625
0.6423887729997659,0,0,1.2401964599609374,0,0,0.9187500000000001
0.6438777020002817,0,0,1.3718775512695311,0,0,0.765625
0.6454357230004462,0,0,1.2401964599609374,0,0,0.9187500000000001
0.646923262999735,0,0,1.20667763671875,0,0,0.6125
0.6484608769997067,0,0,1.3814543579101561,0,0,0.765625
0.6499097329997312,0,0,1.4532804077148436,0,0,1.225
0.6513597920002212,0,0,1.5011644409179687,0,0,0.765625
0.6528028700004143,0,0,1.369483349609375,0,0,0.9953125
0.6542423359996974,0,0,1.350329736328125,0,0,0.765625
0.6557016360002308,0,0,1.2761094848632812,0,0,0.9953125
0.6571438250002757,0,0,1.3359645263671873,0,0,0.765625
0.6585829220002779,0,0,1.2904746948242187,0,0,0.9187500000000001
0.6600329809998584,0,0,1.4101847778320311,0,0,0.8421875000000001
0.6614812440002424,0,0,1.4796166259765624,0,0,0.9953125
0.6629288960002668,0,0,1.4006079711914061,0,0,0.765625
0.6643703250001636,0,0,1.5682020874023437,0,0,1.0718750000000001
0.6658094960002927,0,0,1.3383587280273437,0,0,1.0718750000000001
0.667248851000295,0,0,1.3144167114257812,0,0,0.9187500000000001
0.6686992249997274,0,0,1.1468225952148436,0,0,0.765625
0.6701461000002382,0,0,1.3311761230468748,0,0,0.8421875000000001
0.6715976030000093,0,0,1.4867992309570313,0,0,0.45937500000000003
0.6730454589996953,0,0,1.4604630126953124,0,0,0.8421875000000001
0.6748367549998875,0,0,1.3048399047851562,0,0,0.9953125
0.676286648000314,0,0,1.3239935180664062,0,0,0.765625
0.6777383919998101,0,0,1.2569558715820313,0,0,0.6125
0.6791858590004267,0,0,1.4173673828125,0,0,0.765625
0.6806334550001338,0,0,1.2808978881835937,0,0,0.9187500000000001
0.6820842549996087,0,0,1.3814543579101561,0,0,0.45937500000000003
0.6835293699996328,0,0,1.4628572143554686,0,0,0.3828125
0.6849689290002061,0,0,1.467645617675781,0,0,0.5359375000000001
0.6864086920004411,0,0,1.3431471313476562,0,0,0.765625
0.6878917880003428,0,0,1.2401964599609374,0,0,0.765625
0.6893928279996544,0,0,1.3646949462890625,0,0,0.9187500000000001
0.6908453500000178,0,0,1.2689268798828124,0,0,0.9953125
0.6923625199997332,0,0,1.3958195678710936,0,0,0.45937500000000003
0.6938120610002443,0,0,1.3958195678710936,0,0,2.45
0.6952599530004591,0,0,1.6232687255859375,0,0,0.765625
0.6967080309996163,0,0,1.37906015625,0,0,0.6890625
0.6981556460004867,0,0,1.3024457031249999,0,0,0.5359375000000001
0.6996039460000247,0,0,1.22583125,0,0,0.6890625
0.7010508570001548,0,0,1.3670891479492187,0,0,0.5359375000000001
0.7024978050003483,0,0,1.5107412475585937,0,0,0.45937500000000003
0.7039407530000972,0,0,1.3192051147460937,0,0,0.6890625
0.7053798130000359,0,0,1.484405029296875,0,0,0.765625
0.70681887200044,0,0,1.35990654296875,0,0,0.45937500000000003
0.7082681159999993,0,0,1.35990654296875,0,0,0.8421875000000001
0.70971682399977,0,0,1.235408056640625,0,0,0.765625
0.7111646240000482,0,0,1.3431471313476562,0,0,0.6125
0.7126123309999457,0,0,1.2521674682617188,0,0,0.6890625
0.7140598719997797,0,0,1.43652099609375,0,0,0.6125
0.7155235609998272,0,0,1.438915197753906,0,0,0.45937500000000003
0.7169709720001265,0,0,1.3192051147460937,0,0,0.6890625
0.7184186980002778,0,0,1.2665326782226562,0,0,0.8421875000000001
0.7198638130003019,0,0,1.3527239379882812,0,0,0.9187500000000001
0.7213024829998176,0,0,1.3407529296874998,0,0,0.8421875000000001
0.7227422280002429,0,0,1.5155296508789062,0,0,0.765625
0.7241903610001827,0,0,1.4867992309570313,0,0,0.765625
0.7256384570000591,0,0,1.3335703247070312,0,0,0.8421875000000001
0.7270895900001051,0,0,1.3359645263671873,0,0,0.9187500000000001
0.728537076000066,0,0,1.2737152832031249,0,0,0.8421875000000001
0.7299853940003231,0,0,1.2737152832031249,0,0,0.765625
0.7314342870004111,0,0,1.3455413330078123,0,0,0.8421875000000001
0.7328817719999279,0,0,1.4700398193359374,0,0,0.9187500000000001
0.734329331000481,0,0,1.3934253662109375,0,0,0.9953125
0.7357751680001456,0,0,1.3048399047851562,0,0,0.9187500000000001
0.7372232830002758,0,0,1.5035586425781249,0,0,0.8421875000000001
0.7386638240004686,0,0,1.3072341064453123,0,0,0.765625
0.7401126610002393,0,0,1.2737152832031249,0,0,0.6125
0.7415601640004752,0,0,1.3479355346679687,0,0,0.6125
0.7430485200002295,0,0,1.448492004394531,0,0,1.1484375
0.7445067640001071,0,0,1.6424223388671875,0,0,0.6890625
0.7459547489997931,0,0,1.3168109130859373,0,0,0.9953125
0.7474074929996277,0,0,1.465251416015625,0,0,0.8421875000000001
0.7488629790004779,0,0,1.3551181396484375,0,0,0.6890625
0.7503053159998672,0,0,1.3359645263671873,0,0,0.6890625
0.7517488749999757,0,0,1.2569558715820313,0,0,0.45937500000000003
0.753188749000401,0,0,1.3742717529296875,0,0,0.765625
0.7546282160001283,0,0,1.4987702392578124,0,0,0.6890625
0.7561129229998187,0,0,1.3742717529296875,0,0,0.8421875000000001
0.7575621670002874,0,0,1.5705962890624998,0,0,0.9953125
0.7590097629999946,0,0,1.369483349609375,0,0,0.6890625
0.7604595630000404,0,0,1.3383587280273437,0,0,0.9953125
0.7619070299997475,0,0,1.4317325927734375,0,0,0.9953125
0.7633556450000469,0,0,1.4221557861328125,0,0,0.8421875000000001
0.7648065740004313,0,0,1.467645617675781,0,0,0.5359375000000001
0.7662560230000963,0,0,1.438915197753906,0,0,0.6125
0.7677047670003958,0,0,1.5011644409179687,0,0,0.5359375000000001
0.7691514190000817,0,0,1.3335703247070312,0,0,0.6890625
0.7706082929998956,0,0,1.2569558715820313,0,0,0.6125
0.7720554449997508,0,0,1.39821376953125,0,0,0.6890625
0.7735025040001346,0,0,1.4437036010742186,0,0,1.0718750000000001
0.7749500259997149,0,0,1.484405029296875,0,0,0.3828125
0.7763984370003527,0,0,1.484405029296875,0,0,0.5359375000000001
0.7778458109996791,0,0,1.5514426757812498,0,0,0.6890625
0.7792930929999784,0,0,1.3527239379882812,0,0,0.9187500000000001
0.780734781999854,0,0,1.4437036010742186,0,0,0.9187500000000001
0.782173915000385,0,0,1.209071838378906,0,0,0.9953125
0.7836209560000498,0,0,1.3479355346679687,0,0,0.765625
0.7850685339999472,0,0,1.4987702392578124,0,0,0.8421875000000001
0.7865162600000986,0,0,1.5011644409179687,0,0,0.6890625
0.7879638000003979,0,0,1.5275006591796874,0,0,0.9187500000000001
0.7894111189998512,0,0,1.43652099609375,0,0,0.5359375000000001
0.7908584560000236,0,0,1.3215993164062498,0,0,0.9187500000000001
0.792306237000048,0,0,1.3479355346679687,0,0,0.9187500000000001
0.7937536669996916,0,0,1.3024457031249999,0,0,0.8421875000000001
0.7952033370002027,0,0,1.467645617675781,0,0,0.6890625
0.7967078960000435,0,0,1.3958195678710936,0,0,0.8421875000000001
0.7981593260001318,0,0,1.4245499877929686,0,0,0.6890625
0.7996553470002254,0,0,1.407790576171875,0,0,1.0718750000000001
0.8011019989999113,0,0,1.3096283081054687,0,0,0.9953125
0.8025504099996397,0,0,1.3479355346679687,0,0,1.0718750000000001
0.8039935070000865,0,0,1.3215993164062498,0,0,0.6125
0.8054331209996235,0,0,1.4532804077148436,0,0,1.0718750000000001
0.8068727729996681,0,0,1.4820108276367188,0,0,0.9187500000000001
0.8083228329996928,0,0,1.3168109130859373,0,0,0.765625
0.8097737810003309,0,0,1.4053963745117186,0,0,0.9187500000000001
0.8112212839996573,0,0,1.3742717529296875,0,0,0.765625
0.8126693809999779,0,0,1.2521674682617188,0,0,0.6125
0.8141175880000446,0,0,1.3551181396484375,0,0,0.9953125
0.8155660550000903,0,0,1.2761094848632812,0,0,0.9187500000000001
0.8170220399997561,0,0,1.429338391113281,0,0,0.9187500000000001
0.818470062000415,0,0,1.3814543579101561,0,0,0.9953125
0.8199202510004397,0,0,1.4245499877929686,0,0,0.6890625
0.8213675879997027,0,0,1.2282254516601563,0,0,1.0718750000000001
0.8228155360002347,0,0,1.2569558715820313,0,0,0.765625
0.8242631880002591,0,0,1.388636962890625,0,0,0.9187500000000001
0.8257111539996913,0,0,1.2401964599609374,0,0,0.9187500000000001
0.8271585100001175,0,0,1.5298948608398437,0,0,1.3015625000000002
0.8286074030002055,0,0,1.4245499877929686,0,0,0.765625
0.8300547770004414,0,0,1.5370774658203123,0,0,0.8421875000000001
0.8315258169996014,0,0,1.3335703247070312,0,0,0.5359375000000001
0.8329743949998374,0,0,1.3958195678710936,0,0,0.6125
0.8344222499999887,0,0,1.2401964599609374,0,0,0.8421875000000001
0.8358705130003727,0,0,1.4604630126953124,0,0,0.6125
0.8373183690000587,0,0,1.47482822265625,0,0,0.45937500000000003
0.838766410000062,0,0,1.5275006591796874,0,0,0.5359375000000001
0.8402141360002133,0,0,1.5658078857421873,0,0,0.6890625
0.8416615469996032,0,0,1.3575123413085937,0,0,0.6890625
0.8431088280003678,0,0,1.2425906616210938,0,0,0.5359375000000001
0.8445569610003076,0,0,1.2306196533203124,0,0,0.9187500000000001
0.84600429800048,0,0,1.2928688964843749,0,0,0.765625
0.8474543949996587,0,0,1.2761094848632812,0,0,-9.1109375
0.8489043979998314,0,0,1.467645617675781,0,0,0.765625
0.8503523839999616,0,0,1.5418658691406248,0,0,0.9187500000000001
0.8518007210004725,0,0,1.3838485595703125,0,0,0.6890625
0.8532473719997142,0,0,1.3431471313476562,0,0,0.9187500000000001
0.8546944319996328,0,0,1.3263877197265623,0,0,0.9953125
0.8561537129999124,0,0,1.3479355346679687,0,0,0.6125
0.8576051800000641,0,0,1.438915197753906,0,0,0.6890625
0.8590540539998983,0,0,1.426944189453125,0,0,0.9953125
0.8605020940003669,0,0,1.5011644409179687,0,0,0.9187500000000001
0.8619493019996298,0,0,1.3168109130859373,0,0,0.9187500000000001
0.8633971939998446,0,0,1.350329736328125,0,0,0.765625
0.8648363649999737,0,0,1.2928688964843749,0,0,0.8421875000000001
0.8662755719997222,0,0,1.2641384765625,0,0,0.5359375000000001
0.8677230020002753,0,0,1.3335703247070312,0,0,0.8421875000000001
0.869179135000195,0,0,1.407790576171875,0,0,0.9187500000000001
0.8706283239998811,0,0,1.3479355346679687,0,0,1.0718750000000001
0.8720763459996306,0,0,1.3862427612304686,0,0,0.9187500000000001
0.8735234799996761,0,0,1.3623007446289062,0,0,1.3015625000000002
0.8749713910001446,0,0,1.197100830078125,0,0,0.765625
0.8764196720003383,0,0,1.35990654296875,0,0,0.5359375000000001
0.8779390460003924,0,0,1.350329736328125,0,0,1.1484375
0.8793898829999307,0,0,1.4772224243164063,0,0,0.8421875000000001
0.8808385160000398,0,0,1.2473790649414063,0,0,0.8421875000000001
0.8822865379997893,0,0,1.484405029296875,0,0,0.5359375000000001
0.8837318010000672,0,0,1.3551181396484375,0,0,0.9187500000000001
0.8851710460003233,0,0,1.4006079711914061,0,0,0.9953125
0.8866108459997122,0,0,1.6448165405273436,0,0,1.4546875000000001
0.8880699230003302,0,0,1.8148048583984373,0,0,1.378125
0.8895179080000162,0,0,1.6041151123046875,0,0,0.9953125
0.8909651900003155,0,0,1.1540052001953125,0,0,0.45937500000000003
0.8924143969998113,0,0,1.6160861206054686,0,0,0.3828125
0.8938626790004491,0,0,1.6041151123046875,0,0,0.9187500000000001
0.8953099050004312,0,0,1.5705962890624998,0,0,1.1484375
0.8967585939999481,0,0,1.5179238525390624,0,0,1.1484375
0.8982056160002685,0,0,0.9911994873046874,0,0,0.6125
0.899653878999743,0,0,1.024718310546875,0,0,0.3828125
0.901100993,0,0,1.6328455322265625,0,0,0.3828125
0.9025484419998975,0,0,2.090138049316406,0,0,1.1484375
0.90399105600045,0,0,1.3814543579101561,0,0,1.378125
0.9054301899996062,0,0,1.1947066284179686,0,0,0.765625
0.9068693790004545,0,0,1.235408056640625,0,0,0.765625
0.9083167709995905,0,0,1.4101847778320311,0,0,0.0765625
0.9097636460001013,0,0,1.649604943847656,0,0,0.6125
0.9112100749998717,0,0,1.5945383056640625,0,0,0.6125
0.9126779119997082,0,0,1.66636435546875,0,0,0.6890625
0.9141252489998806,0,0,1.1563994018554686,0,0,1.225
0.9155731230002857,0,0,1.1875240234375,0,0,0.6125
0.9170190710001407,0,0,1.4724340209960938,0,0,0.765625
0.9184651859995938,0,0,1.4030021728515625,0,0,1.0718750000000001
0.9199127080000835,0,0,1.599326708984375,0,0,0.22968750000000002
0.9213583789996846,0,0,1.5059528442382812,0,0,1.0718750000000001
0.9228050299998358,0,0,1.419761584472656,0,0,0.8421875000000001
0.924251792999712,0,0,1.2689268798828124,0,0,0.8421875000000001
0.9256977420000112,0,0,1.419761584472656,0,0,0.9187500000000001
0.9271449859998029,0,0,1.4796166259765624,0,0,0.9187500000000001
0.9285911560000386,0,0,1.4317325927734375,0,0,0.765625
0.930037326999809,0,0,1.4628572143554686,0,0,1.225
0.9314858670004469,0,0,1.5227122558593749,0,0,0.9187500000000001
0.9329326859997309,0,0,1.5418658691406248,0,0,1.225
0.9343788010000935,0,0,1.3814543579101561,0,0,1.1484375
0.935826507999991,0,0,1.2952630981445312,0,0,1.225
0.9372730670002056,0,0,1.3623007446289062,0,0,0.6125
0.9387627369997062,0,0,1.429338391113281,0,0,0.765625
0.9403425179998521,0,0,1.4700398193359374,0,0,0.8421875000000001
0.9417934470002365,0,0,1.388636962890625,0,0,0.8421875000000001
0.9432405990000916,0,0,1.5466542724609373,0,0,1.0718750000000001
0.9446885469997142,0,0,1.6232687255859375,0,0,0.6890625
0.9461364950002462,0,0,1.3958195678710936,0,0,1.0718750000000001
0.9475840730001437,0,0,1.3527239379882812,0,0,0.9187500000000001
0.9490320400000201,0,0,1.3527239379882812,0,0,1.0718750000000001
0.9504798210000445,0,0,1.4413093994140624,0,0,0.9953125
0.9519247690004704,0,0,1.438915197753906,0,0,0.9187500000000001
0.9533822359999249,0,0,1.3862427612304686,0,0,1.1484375
0.9548213509997368,0,0,1.6831237670898436,0,0,0.6890625
0.9562766320004812,0,0,1.3239935180664062,0,0,0.9953125
0.9577250250003999,0,0,1.2976572998046874,0,0,0.5359375000000001
0.9591800469997906,0,0,1.209071838378906,0,0,0.765625
0.9606270880003649,0,0,1.2785036865234374,0,0,1.0718750000000001
0.9620744800004104,0,0,1.5251064575195312,0,0,0.6125
0.9635227799999484,0,0,1.3958195678710936,0,0,0.9953125
0.9649691169997823,0,0,1.5466542724609373,0,0,0.8421875000000001
0.9664171579997856,0,0,1.4891934326171874,0,0,0.765625
0.9678639020003175,0,0,1.4317325927734375,0,0,0.8421875000000001
0.9693020909999177,0,0,1.4700398193359374,0,0,0.6125
0.9707409650000045,0,0,1.3623007446289062,0,0,0.9187500000000001
0.9721924690002197,0,0,1.6615759521484375,0,0,1.1484375
0.9736403059996519,0,0,1.5897499023437498,0,0,0.6890625
0.9750872539998454,0,0,1.5801730957031248,0,0,0.9187500000000001
0.9765374620001239,0,0,1.22583125,0,0,1.0718750000000001
0.9779832430003808,0,0,1.3048399047851562,0,0,0.0765625
0.979445005999878,0,0,1.4221557861328125,0,0,0.9187500000000001
0.9808918799999446,0,0,1.4532804077148436,0,0,1.0718750000000001
0.9823382730000958,0,0,1.5322890624999999,0,0,0.45937500000000003
0.9837854240004162,0,0,1.37906015625,0,0,0.3828125
0.9852335759997004,0,0,1.6256629272460936,0,0,0.30625
0.9866817470001479,0,0,1.4891934326171874,0,0,0.9187500000000001
0.9881266949996643,0,0,1.3479355346679687,0,0,1.225
0.9895709949996672,0,0,1.3455413330078123,0,0,0.6125
0.9911110900002313,0,0,1.3311761230468748,0,0,0.765625
0.9925607229997695,0,0,1.426944189453125,0,0,0.3828125
0.9940089680003439,0,0,1.438915197753906,0,0,0.6125
0.9954590269999244,0,0,1.5634136840820312,0,0,0.9187500000000001
0.9969167899998865,0,0,1.2665326782226562,0,0,0.6890625
0.9983724229996369,0,0,1.3263877197265623,0,0,2.1437500000000003
0.999820611999894,0,0,1.369483349609375,0,0,0.6125
1.0013095969998176,0,0,1.3311761230468748,0,0,0.5359375000000001
1.0028443219998735,0,0,1.4125789794921875,0,0,0.5359375000000001
1.0044385459996192,0,0,1.2401964599609374,0,0,0.8421875000000001
1.0061485100004575,0,0,1.618480322265625,0,0,1.225
1.0076690320001944,0,0,1.455674609375,0,0,0.8421875000000001
1.00920607199987,0,0,1.4341267944335936,0,0,0.9187500000000001
1.0107263890004106,0,0,1.6448165405273436,0,0,0.765625
1.0122950770000898,0,0,1.3623007446289062,0,0,0.9187500000000001
1.0137974689996554,0,0,1.6807295654296874,0,0,0.9187500000000001
1.0154498960000637,0,0,1.4125789794921875,0,0,0.8421875000000001
1.0169363630002408,0,0,1.3096283081054687,0,0,0.9187500000000001
1.0183847739999692,0,0,1.2210428466796874,0,0,0.765625
1.019911239999601,0,0,1.2330138549804688,0,0,0.8421875000000001
1.0213601140003448,0,0,1.2737152832031249,0,0,0.6890625
1.0228086170000097,0,0,1.3670891479492187,0,0,0.9187500000000001
1.0242623060003098,0,0,1.484405029296875,0,0,0.9953125
1.0257398280000416,0,0,1.5011644409179687,0,0,0.8421875000000001
1.0271926280001935,0,0,1.4796166259765624,0,0,1.1484375
1.0286834460002865,0,0,1.4628572143554686,0,0,1.0718750000000001
1.0301426899995931,0,0,1.429338391113281,0,0,1.0718750000000001
1.0316323420001936,0,0,1.419761584472656,0,0,0.6890625
1.0331384930004788,0,0,1.5490484741210937,0,0,1.225
1.034647552000024,0,0,1.6615759521484375,0,0,1.225
1.0363610340000378,0,0,1.4796166259765624,0,0,0.8421875000000001
1.038014036000277,0,0,1.3623007446289062,0,0,0.9953125
1.039573983000082,0,0,1.5179238525390624,0,0,0.765625
1.0410763749996477,0,0,1.3215993164062498,0,0,0.8421875000000001
1.0425649709995923,0,0,1.2785036865234374,0,0,0.6125
1.0440953990000708,0,0,1.3072341064453123,0,0,0.45937500000000003
1.0456124579995958,0,0,1.2665326782226562,0,0,0.5359375000000001
1.0471629980002035,0,0,1.5634136840820312,0,0,0.6890625
1.0487130190003882,0,0,1.4149731811523436,0,0,0.8421875000000001
1.0501993919997403,0,0,1.429338391113281,0,0,0.765625
1.051700859000448,0,0,1.3646949462890625,0,0,2.3734375
1.0532581019997451,0,0,1.429338391113281,0,0,0.6125
1.0547311050004282,0,0,1.4413093994140624,0,0,0.153125
1.056178386999818,0,0,1.5442600708007812,0,0,0.9187500000000001
1.0576515940001627,0,0,1.429338391113281,0,0,0.6890625
1.0590888939996148,0,0,1.2976572998046874,0,0,0.8421875000000001
1.060525638999934,0,0,1.4317325927734375,0,0,0.6890625
1.0619699019998734,0,0,1.2880804931640624,0,0,0.6890625
1.0634065909998753,0,0,1.3072341064453123,0,0,0.6125
1.0648423539996656,0,0,1.4317325927734375,0,0,0.45937500000000003
1.0662764320004499,0,0,1.4149731811523436,0,0,0.6125
1.0677143060001981,0,0,1.2904746948242187,0,0,0.9953125
1.0691551059999256,0,0,1.2234370483398436,0,0,1.0718750000000001
1.0705889239998214,0,0,1.3168109130859373,0,0,1.3015625000000002
1.0720292989999507,0,0,1.4437036010742186,0,0,1.225
1.073464191000312,0,0,1.4796166259765624,0,0,1.0718750000000001
1.0748980839998694,0,0,1.6807295654296874,0,0,0.9953125
1.0763336990003154,0,0,1.7836802368164062,0,0,0.8421875000000001
1.0777980169996226,0,0,1.5729904907226562,0,0,1.1484375
1.0792335950000052,0,0,1.5562310791015623,0,0,0.6890625
1.0806703950001975,0,0,1.3862427612304686,0,0,0.765625
1.0821043810001356,0,0,1.139639990234375,0,0,0.3828125
1.0835416620002434,0,0,1.0941501586914062,0,0,0.3828125
1.0849751289997585,0,0,1.1707646118164061,0,0,0.765625
1.0864253179997831,0,0,1.2737152832031249,0,0,0.765625
1.0878642659999969,0,0,1.3239935180664062,0,0,1.1484375
1.089298455000062,0,0,1.484405029296875,0,0,0.6890625
1.090733033000106,0,0,1.3168109130859373,0,0,1.3015625000000002
1.0921794810001302,0,0,1.3718775512695311,0,0,1.1484375
1.0936278179997316,0,0,1.649604943847656,0,0,0.9187500000000001
1.0950738219999039,0,0,1.695094775390625,0,0,0.9953125
1.0965184180004144,0,0,1.7764976318359373,0,0,0.6125
1.0979926250001881,0,0,1.4939818359375,0,0,-9.1875
1.0994416100002127,0,0,1.6136919189453125,0,0,0.45937500000000003
1.1008781330001511,0,0,1.1061211669921875,0,0,0.22968750000000002
1.1023119700003008,0,0,1.0582371337890624,0,0,0.3828125
1.1037553070000286,0,0,1.0630255371093749,0,0,0.45937500000000003
1.1052015510003912,0,0,1.0821791503906248,0,0,0.6125
1.1066479439996328,0,0,1.13006318359375,0,0,0.45937500000000003
1.108087558999614,0,0,1.5083470458984374,0,0,0.9953125
1.1095217849997425,0,0,1.9105729248046874,0,0,1.1484375
1.1109566410004845,0,0,1.687912170410156,0,0,1.225
1.1124017740003183,0,0,1.8076222534179687,0,0,0.765625
1.1138472410002578,0,0,1.6927005737304686,0,0,0.9187500000000001
1.1152960780000285,0,0,1.5275006591796874,0,0,0.3828125
1.116863598999771,0,0,1.438915197753906,0,0,0.22968750000000002
1.1183142319996477,0,0,1.3096283081054687,0,0,0.30625
1.1197627170004125,0,0,1.1420341918945311,0,0,0.45937500000000003
1.1212061469996115,0,0,0.8044517578125,0,0,0.45937500000000003
1.1226516500000798,0,0,0.9648632690429687,0,0,1.225
1.1240968760002943,0,0,1.177947216796875,0,0,1.0718750000000001
1.1255418990003818,0,0,1.2306196533203124,0,0,1.1484375
1.1269964760003859,0,0,1.6927005737304686,0,0,0.8421875000000001
1.1284476279997762,0,0,1.8411410766601561,0,0,1.3015625000000002
1.1298940950000542,0,0,1.7453730102539062,0,0,0.9187500000000001
1.131358339000144,0,0,1.5873557006835937,0,0,0.765625
1.1328086949997669,0,0,1.388636962890625,0,0,0.8421875000000001
1.1342540320001717,0,0,1.2569558715820313,0,0,0.3828125
1.1356996089998574,0,0,1.1875240234375,0,0,0.30625
1.1371465020001779,0,0,1.2952630981445312,0,0,0.9953125
1.138613967999845,0,0,1.4053963745117186,0,0,1.0718750000000001
1.1400597130004826,0,0,1.659181750488281,0,0,1.3015625000000002
1.1415051240001048,0,0,1.5442600708007812,0,0,1.4546875000000001
1.1429499980004039,0,0,1.4006079711914061,0,0,1.378125
1.1444020760000058,0,0,1.4867992309570313,0,0,0.5359375000000001
1.1458475059998818,0,0,1.6831237670898436,0,0,0.765625
1.147292954000477,0,0,1.5849614990234373,0,0,0.6890625
1.148738382999909,0,0,1.5322890624999999,0,0,0.6890625
1.1501832760004618,0,0,1.0726023437499999,0,0,0.6890625
1.1516295390001687,0,0,1.1109095703125,0,0,0.3828125
1.153074320000087,0,0,1.1228805786132812,0,0,0.765625
1.1545192869998573,0,0,1.24498486328125,0,0,0.6890625
1.1559634020004523,0,0,1.3048399047851562,0,0,1.225
1.15743146099976,0,0,1.6017209106445311,0,0,1.53125
1.158878057000038,0,0,1.5418658691406248,0,0,0.9187500000000001
1.160324190999745,0,0,1.6543933471679686,0,0,0.8421875000000001
1.1617708789999597,0,0,1.848323681640625,0,0,0.9953125
1.1633277709997856,0,0,1.426944189453125,0,0,0.6890625
1.1647784599999795,0,0,1.2497732666015624,0,0,0.8421875000000001
1.1662254259999827,0,0,1.1635820068359375,0,0,0.9187500000000001
1.1676680230002603,0,0,1.3239935180664062,0,0,1.53125
1.169102619000114,0,0,1.6424223388671875,0,0,1.1484375
1.1705369560004328,0,0,1.5418658691406248,0,0,0.9953125
1.1720290339999337,0,0,1.5825672973632812,0,0,1.0718750000000001
1.1734742779999578,0,0,1.369483349609375,0,0,0.8421875000000001
1.1749195969996435,0,0,1.5083470458984374,0,0,0.30625
1.1763655820004715,0,0,1.3814543579101561,0,0,0.6890625
1.1778099740004109,0,0,1.2665326782226562,0,0,0.8421875000000001
1.1792550339996524,0,0,1.3311761230468748,0,0,0.0765625
1.180700519000311,0,0,1.3359645263671873,0,0,0.8421875000000001
1.1821456150000813,0,0,1.5418658691406248,0,0,-9.1109375
1.1835937300002115,0,0,1.0917559570312498,0,0,0.3828125
1.1850378629997067,0,0,1.3910311645507811,0,0,0.6125
1.186472551999941,0,0,1.4341267944335936,0,0,0.6890625
1.187915055999838,0,0,1.2330138549804688,0,0,0.6890625
1.1894324109998706,0,0,1.4006079711914061,0,0,0.30625
1.1910047649998887,0,0,1.6232687255859375,0,0,1.1484375
1.1924581390003368,0,0,1.9033903198242186,0,0,1.0718750000000001
1.1939037729998745,0,0,1.6424223388671875,0,0,0.9187500000000001
1.1953488320004908,0,0,1.2497732666015624,0,0,0.6125
1.1967978169996059,0,0,1.3335703247070312,0,0,0.5359375000000001
1.1982429130002856,0,0,1.5562310791015623,0,0,0.153125
1.1997051580001425,0,0,1.7932570434570312,0,0,0.45937500000000003
1.2011492540004838,0,0,1.2737152832031249,0,0,0.6125
1.202593701999831,0,0,1.2904746948242187,0,0,0.9187500000000001
1.2040386689996012,0,0,1.0558429321289062,0,0,0.8421875000000001
1.2054838949998157,0,0,1.1372457885742187,0,0,0.9187500000000001
1.2069287499998609,0,0,1.3407529296874998,0,0,0.765625
1.2083745319996524,0,0,1.6328455322265625,0,0,0.765625
1.2098194609998245,0,0,1.8052280517578123,0,0,0.30625
1.2112643540003774,0,0,1.62805712890625,0,0,1.3015625000000002
1.212710116999915,0,0,1.6017209106445311,0,0,0.8421875000000001
1.2141546949997064,0,0,1.2713210815429687,0,0,0.9187500000000001
1.2156019020003441,0,0,1.3120225097656248,0,0,0.9187500000000001
1.2170466099996702,0,0,1.407790576171875,0,0,0.9953125
1.2184914469999057,0,0,1.3910311645507811,0,0,0.6890625
1.219953302000249,0,0,1.2713210815429687,0,0,0.9187500000000001
1.2213980469996386,0,0,1.3814543579101561,0,0,0.5359375000000001
1.2228432170004453,0,0,1.3287819213867187,0,0,0.9953125
1.2242885539999406,0,0,1.39821376953125,0,0,1.1484375
1.2257351870002822,0,0,1.3192051147460937,0,0,1.4546875000000001
1.2271803760004332,0,0,1.2856862915039062,0,0,0.8421875000000001
1.2286258610001823,0,0,1.2976572998046874,0,0,0.8421875000000001
1.230070495000291,0,0,1.2832920898437499,0,0,1.0718750000000001
1.2315259979995972,0,0,1.448492004394531,0,0,0.6125
1.2329710579997482,0,0,1.484405029296875,0,0,0.6125
1.2344160980001107,0,0,1.5801730957031248,0,0,1.3015625000000002
1.2358726949996708,0,0,1.5035586425781249,0,0,1.3015625000000002
1.2373181800003294,0,0,1.465251416015625,0,0,1.4546875000000001
1.238763721000396,0,0,1.608903515625,0,0,0.9953125
1.2402134089998071,0,0,1.4173673828125,0,0,1.53125
1.2416588019996198,0,0,1.4413093994140624,0,0,0.6890625
1.2431044169998131,0,0,1.7310078002929687,0,0,0.6890625
1.2445687720000933,0,0,1.9776105712890624,0,0,0.9953125
1.246016480000435,0,0,1.465251416015625,0,0,1.225
1.2474694089996774,0,0,1.1420341918945311,0,0,0.9187500000000001
1.2489143940001668,0,0,1.2210428466796874,0,0,0.0
1.250350416999936,0,0,1.0630255371093749,0,0,0.9953125
1.2517953280002985,0,0,1.3287819213867187,0,0,0.3828125
1.2532405170004495,0,0,1.484405029296875,0,0,0.765625
1.2546871499998815,0,0,1.7022773803710936,0,0,1.0718750000000001
1.2561558019997392,0,0,1.5682020874023437,0,0,1.1484375
1.2576790270004494,0,0,1.5897499023437498,0,0,1.4546875000000001
1.25911490100043,0,0,1.637633935546875,0,0,1.1484375
1.2605669599997782,0,0,1.419761584472656,0,0,1.3015625000000002
1.262002594000478,0,0,1.3024457031249999,0,0,0.30625
1.2634415969996553,0,0,1.1851298217773436,0,0,0.3828125
1.2648826750000808,0,0,1.4987702392578124,0,0,0.30625
1.2663174939998498,0,0,1.4628572143554686,0,0,0.5359375000000001
1.2677760899996429,0,0,1.4772224243164063,0,0,1.225
1.2692115199997716,0,0,0.9504980590820312,0,0,1.378125
1.2706452089996674,0,0,0.8044517578125,0,0,0.9187500000000001
1.2720799720000286,0,0,1.216254443359375,0,0,0.0765625
1.2735139759997764,0,0,1.5203180541992187,0,0,0.5359375000000001
1.2749479430003703,0,0,1.618480322265625,0,0,1.225
1.276383149999674,0,0,1.6400281372070311,0,0,1.6078125
1.2778203389998453,0,0,1.7860744384765623,0,0,1.4546875000000001
1.279254490999847,0,0,1.5514426757812498,0,0,1.378125
1.2807072730001892,0,0,1.47482822265625,0,0,0.45937500000000003
1.2821535350003614,0,0,1.5107412475585937,0,0,0.153125
1.2836002610001742,0,0,1.6831237670898436,0,0,0.30625
1.2850444499999867,0,0,1.6017209106445311,0,0,0.765625
1.286506250000457,0,0,1.388636962890625,0,0,0.9187500000000001
1.2879518839999946,0,0,1.3407529296874998,0,0,1.378125
1.289398257999892,0,0,1.120486376953125,0,0,1.6078125
1.2908431690002544,0,0,1.0390835205078124,0,0,0.6125
1.2922885429998132,0,0,1.3646949462890625,0,0,1.378125
1.293733546999647,0,0,1.6807295654296874,0,0,0.6125
1.295178180000221,0,0,1.9919757812499999,0,0,1.6843750000000002
1.2966245910001817,0,0,1.8435352783203125,0,0,1.4546875000000001
1.2980694280004172,0,0,1.7190367919921874,0,0,1.6843750000000002
1.2995266719999563,0,0,1.3455413330078123,0,0,1.1484375
1.3009721580001496,0,0,1.2761094848632812,0,0,0.30625
1.302417623999645,0,0,1.1947066284179686,0,0,0.765625
1.3038647390003462,0,0,1.5251064575195312,0,0,0.6125
1.3053085390001797,0,0,1.659181750488281,0,0,1.3015625000000002
1.3067543580000347,0,0,1.707065783691406,0,0,1.378125
1.3081995840002492,0,0,0.8571241943359375,0,0,1.1484375
1.3096443650001675,0,0,0.6296750366210937,0,0,0.3828125
1.3110886280001068,0,0,0.9864110839843749,0,0,0.3828125
1.312533909999729,0,0,1.3096283081054687,0,0,0.8421875000000001
1.3139785060002396,0,0,1.7238251953125,0,0,1.0718750000000001
1.3154346210003496,0,0,1.9105729248046874,0,0,2.0671875
1.3168806240000777,0,0,1.9632453613281249,0,0,1.6843750000000002
1.3183254799996575,0,0,1.2306196533203124,0,0,0.765625
1.3197717060002105,0,0,1.4508862060546874,0,0,0.5359375000000001
1.3212322830004268,0,0,1.608903515625,0,0,0.6125
1.3226777870004298,0,0,1.7381904052734374,0,0,0.8421875000000001
1.324122439000348,0,0,1.9129671264648436,0,0,1.1484375
1.325566980000076,0,0,1.5155296508789062,0,0,0.9953125
1.3270190949997414,0,0,1.1156979736328125,0,0,0.6125
1.3284686719998717,0,0,0.928950244140625,0,0,0.8421875000000001
1.329913083000065,0,0,1.0797849487304687,0,0,2.5265625000000003
1.331359106000491,0,0,1.678335363769531,0,0,0.9187500000000001
1.3328031090004515,0,0,1.8219874633789062,0,0,1.6078125
1.334248168999693,0,0,1.6711527587890624,0,0,0.9187500000000001
1.3356933020004362,0,0,1.4820108276367188,0,0,0.8421875000000001
1.3372109350002575,0,0,1.465251416015625,0,0,0.22968750000000002
1.3386586229999011,0,0,1.5179238525390624,0,0,0.0
1.3401048679997984,0,0,1.6208745239257811,0,0,0.8421875000000001
1.341550537999865,0,0,1.5897499023437498,0,0,0.8421875000000001
1.3429953570002908,0,0,1.3646949462890625,0,0,0.30625
1.3444403419998707,0,0,0.6631938598632812,0,0,9.5703125
1.345884919999662,0,0,0.6631938598632812,0,0,0.153125
1.3473304609997285,0,0,1.5155296508789062,0,0,0.3828125
1.348776724000345,0,0,1.7118541870117185,0,0,1.3015625000000002
1.3502225789998192,0,0,1.8363526733398436,0,0,2.296875
1.3516688239997166,0,0,1.3335703247070312,0,0,1.53125
1.3531131239997194,0,0,1.0797849487304687,0,0,1.0718750000000001
1.3545575159996588,0,0,1.3407529296874998,0,0,0.0
1.356002890000127,0,0,1.7525556152343749,0,0,0.765625
1.357448024000405,0,0,2.4851813232421875,0,0,1.225
1.3588924719997522,0,0,2.2098481323242187,0,0,0.9953125
1.360337809000157,0,0,0.97683427734375,0,0,0.9953125
1.3617826460003926,0,0,0.5985504150390625,0,0,0.6125
1.36322720499993,0,0,0.8738836059570312,0,0,0.765625
1.3646724310001446,0,0,1.43652099609375,0,0,1.1484375
1.3661110459997872,0,0,2.308010400390625,0,0,1.9140625000000002
1.3675538650004455,0,0,1.8602946899414061,0,0,1.9140625000000002
1.368999182999687,0,0,1.4796166259765624,0,0,1.4546875000000001
1.3704442239995842,0,0,0.8475473876953125,0,0,0.765625
1.3720021520002774,0,0,1.1755530151367186,0,0,0.153125
1.373447230000238,0,0,1.9321207397460936,0,0,0.765625
1.3748925119998603,0,0,1.7453730102539062,0,0,1.0718750000000001
1.3763554970000769,0,0,1.0941501586914062,0,0,0.9953125
1.3778276299999561,0,0,0.4860229370117187,0,0,0.9187500000000001
1.3792770780000865,0,0,0.9624690673828125,0,0,0.6125
1.3807235630001742,0,0,1.599326708984375,0,0,1.378125
1.382179178000115,0,0,1.7334020019531249,0,0,1.53125
1.3836255520000122,0,0,1.618480322265625,0,0,1.7609375
1.3850696299996343,0,0,1.2665326782226562,0,0,1.6843750000000002
1.3865148189997853,0,0,1.3838485595703125,0,0,1.0718750000000001
1.3879603779996614,0,0,1.438915197753906,0,0,0.9187500000000001
1.3894051039997066,0,0,2.2960393920898436,0,0,1.225
1.3908505700001115,0,0,1.7573440185546874,0,0,1.378125
1.3922960740001145,0,0,0.9935936889648437,0,0,0.6890625
1.3937407450002866,0,0,0.6823474731445313,0,0,0.0
1.3951861739997184,0,0,1.2306196533203124,0,0,0.6890625
1.3966407329999129,0,0,1.898601916503906,0,0,0.9187500000000001
1.3980864220002331,0,0,2.1404162841796874,0,0,0.9953125
1.3995331850001094,0,0,1.6543933471679686,0,0,0.9953125
1.400977430000239,0,0,0.8116343627929687,0,0,0.5359375000000001
1.4024221190002208,0,0,1.1085153686523437,0,0,0.6125
1.4038684739998644,0,0,1.7381904052734374,0,0,0.45937500000000003
1.4053123300000152,0,0,1.656787548828125,0,0,0.765625
1.4067592219998915,0,0,1.426944189453125,0,0,0.5359375000000001
1.4082044670003597,0,0,0.8044517578125,0,0,0.0
1.4096489710000242,0,0,0.948103857421875,0,0,0.3828125
1.4110941219996675,0,0,1.1516109985351561,0,0,1.225
1.4125394590000724,0,0,1.898601916503906,0,0,3.1390625
1.4139842410004348,0,0,1.7860744384765623,0,0,1.6078125
1.41544205900027,0,0,1.2713210815429687,0,0,0.8421875000000001
1.4169997839999269,0,0,1.3192051147460937,0,0,0.0
1.418455269000333,0,0,2.0254946044921875,0,0,0.30625
1.4199024580002515,0,0,2.0470424194335934,0,0,0.6890625
1.421346129000085,0,0,1.407790576171875,0,0,0.765625
1.4227934470000037,0,0,1.1755530151367186,0,0,0.6890625
1.424239302999922,0,0,0.9433154541015625,0,0,0.6890625
1.4256848060003904,0,0,1.1276689819335937,0,0,0.6890625
1.4271304769999915,0,0,1.3814543579101561,0,0,0.0765625
1.4285763320003753,0,0,1.3287819213867187,0,0,0.9187500000000001
1.4300213919996168,0,0,1.4628572143554686,0,0,0.6125
1.4314670060002754,0,0,1.2880804931640624,0,0,0.9953125
1.4329276580001533,0,0,1.4101847778320311,0,0,-9.1109375
1.4343748649998815,0,0,1.254561669921875,0,0,0.6890625
1.43582520200016,0,0,1.0821791503906248,0,0,0.45937500000000003
1.4372716320003747,0,0,1.0893617553710937,0,0,0.8421875000000001
1.438716654000018,0,0,1.2521674682617188,0,0,1.0718750000000001
1.440201843000068,0,0,1.7190367919921874,0,0,1.378125
1.441695215999971,0,0,1.6472107421875,0,0,1.0718750000000001
1.443164663999596,0,0,1.3383587280273437,0,0,1.225
1.4446163160000651,0,0,1.3575123413085937,0,0,0.30625
1.4460613940000258,0,0,1.6472107421875,0,0,1.1484375
1.4475422679997791,0,0,1.9632453613281249,0,0,0.6890625
1.4489892339997823,0,0,1.7645266235351562,0,0,0.8421875000000001
1.4504414969997015,0,0,1.254561669921875,0,0,1.0718750000000001
1.451887631000318,0,0,1.2234370483398436,0,0,0.9953125
1.4533311900004264,0,0,1.6065093139648436,0,0,1.378125
1.4547759340002813,0,0,1.5705962890624998,0,0,1.6078125
1.4566450629999963,0,0,1.5011644409179687,0,0,0.765625
1.4581084560004456,0,0,1.199495031738281,0,0,0.30625
1.4595544590001737,0,0,1.2808978881835937,0,0,0.153125
1.4609909079999852,0,0,1.235408056640625,0,0,0.3828125
1.4624248190002618,0,0,1.20667763671875,0,0,0.765625
1.4638731000004555,0,0,0.9600748657226562,0,0,0.8421875000000001
1.4653797520004446,0,0,1.0678139404296874,0,0,1.225
1.4668165700004465,0,0,1.2593500732421874,0,0,1.1484375
1.468252425999708,0,0,1.3383587280273437,0,0,1.378125
1.4696868740002174,0,0,1.5083470458984374,0,0,1.4546875000000001
1.4711209150000286,0,0,1.4604630126953124,0,0,1.0718750000000001
1.4725669560002643,0,0,1.9321207397460936,0,0,1.378125
1.474012034000225,0,0,2.1116858642578125,0,0,1.7609375
1.475457907999953,0,0,1.5083470458984374,0,0,1.378125
1.476903171000231,0,0,1.3718775512695311,0,0,0.9187500000000001
1.4783480260002761,0,0,1.4125789794921875,0,0,1.0718750000000001
1.4797934190000888,0,0,1.7836802368164062,0,0,1.1484375
1.4812377739999647,0,0,1.6639701538085936,0,0,1.225
1.4826824080000733,0,0,1.6017209106445311,0,0,1.225
1.4841275970002243,0,0,1.1324573852539062,0,0,0.6125
1.485572804000185,0,0,1.1372457885742187,0,0,0.6125
1.4870525300002555,0,0,1.16837041015625,0,0,0.45937500000000003
1.4885199589998592,0,0,1.2018892333984375,0,0,0.5359375000000001
1.489968759000476,0,0,1.0558429321289062,0,0,1.378125
1.4914155220003522,0,0,1.2234370483398436,0,0,1.225
1.4928634150001017,0,0,1.7501614135742187,0,0,1.225
1.494308715000443,0,0,1.419761584472656,0,0,1.3015625000000002
1.4957571069999176,0,0,1.4772224243164063,0,0,1.1484375
1.497227128999839,0,0,1.5131354492187499,0,0,0.6890625
1.4986796330003926,0,0,1.7741034301757812,0,0,1.0718750000000001
1.5001289880001423,0,0,1.8938135131835936,0,0,1.0718750000000001
1.5015746030003356,0,0,1.5849614990234373,0,0,0.9187500000000001
1.5030413659997066,0,0,1.62805712890625,0,0,0.8421875000000001
1.5044878879998578,0,0,1.4053963745117186,0,0,0.9953125
1.5059343550001358,0,0,1.5729904907226562,0,0,0.3828125
1.5073824330002026,0,0,1.4173673828125,0,0,0.9953125
1.5088266590000785,0,0,1.3263877197265623,0,0,0.0765625
1.5102795140001035,0,0,1.678335363769531,0,0,0.45937500000000003
1.5117218140003388,0,0,1.47482822265625,0,0,0.45937500000000003
1.5131550590003826,0,0,1.3239935180664062,0,0,0.30625
1.514589469999919,0,0,0.6057330200195312,0,0,0.6125
1.5160340849997738,0,0,0.6440402465820312,0,0,0.765625
1.5174793659998613,0,0,1.668758557128906,0,0,1.225
1.5189245550000123,0,0,1.446097802734375,0,0,1.0718750000000001
1.520369873999698,0,0,1.3287819213867187,0,0,1.0718750000000001
1.5218143960000816,0,0,1.1276689819335937,0,0,0.6890625
1.5232592330003172,0,0,1.9728221679687499,0,0,1.0718750000000001
1.5247046630001932,0,0,1.7405846069335937,0,0,0.9187500000000001
1.526149276999604,0,0,1.879448303222656,0,0,1.1484375
1.5275950770001145,0,0,1.455674609375,0,0,1.3015625000000002
1.5290388590001385,0,0,1.2521674682617188,0,0,1.225
1.5304836220002471,0,0,1.5083470458984374,0,0,0.22968750000000002
1.5319289400003981,0,0,1.4149731811523436,0,0,0.6890625
1.533373037000274,0,0,1.4772224243164063,0,0,0.6125
1.5348175219996847,0,0,1.7525556152343749,0,0,0.5359375000000001
1.5362629150004068,0,0,1.2928688964843749,0,0,0.6125
1.5377074369998809,0,0,1.0630255371093749,0,0,0.6125
1.5391520519997357,0,0,0.6153098266601562,0,0,0.153125
1.5405968699997175,0,0,1.0845733520507812,0,0,1.0718750000000001
1.542041392000101,0,0,1.8363526733398436,0,0,1.6078125
1.543486581000252,0,0,1.7094599853515624,0,0,1.8375000000000001
1.5449236220001694,0,0,1.7741034301757812,0,0,1.378125
1.5463574409996,0,0,1.4006079711914061,0,0,0.3828125
1.5477991850002581,0,0,1.6639701538085936,0,0,0.9187500000000001
1.5492439110003033,0,0,1.9680337646484374,0,0,0.9187500000000001
1.5506880630000524,0,0,2.020706201171875,0,0,1.1484375
1.5521330479996323,0,0,1.7262193969726563,0,0,1.53125
1.5535804219998681,0,0,1.5490484741210937,0,0,1.3015625000000002
1.555034185000295,0,0,1.3455413330078123,0,0,1.0718750000000001
1.5564786889999596,0,0,0.8499415893554687,0,0,0.22968750000000002
1.557923915000174,0,0,1.1085153686523437,0,0,0.30625
1.5593695670004308,0,0,1.5059528442382812,0,0,0.6890625
1.560813699999926,0,0,1.3455413330078123,0,0,1.0718750000000001
1.5622583149997809,0,0,0.7781155395507812,0,0,0.6890625
1.5637114479995944,0,0,0.9911994873046874,0,0,1.0718750000000001
1.5651560080004856,0,0,1.5418658691406248,0,0,1.53125
1.5666012339997906,0,0,1.4963760375976562,0,0,1.225
1.5680467370002589,0,0,1.5251064575195312,0,0,0.6890625
1.5694916109996484,0,0,1.6112977172851561,0,0,0.9953125
1.5709362260004127,0,0,1.7453730102539062,0,0,1.0718750000000001
1.5723816190002253,0,0,1.8267758666992187,0,0,1.1484375
1.5738258820001647,0,0,1.6017209106445311,0,0,0.5359375000000001
1.5752705149998292,0,0,2.114080065917969,0,0,1.0718750000000001
1.5767162780002764,0,0,1.8195932617187498,0,0,1.3015625000000002
1.5781605410002157,0,0,1.458068811035156,0,0,0.6125
1.579606471000261,0,0,0.9074024291992187,0,0,0.3828125
1.5810504000000947,0,0,1.2785036865234374,0,0,0.153125
1.582496719000119,0,0,1.649604943847656,0,0,0.22968750000000002
1.5839423710003757,0,0,1.5011644409179687,0,0,1.4546875000000001
1.585386708000442,0,0,1.1635820068359375,0,0,0.8421875000000001
1.5868315630004872,0,0,1.0965443603515623,0,0,1.53125
1.5882765859996653,0,0,1.2018892333984375,0,0,1.0718750000000001
1.5897209410004507,0,0,1.2282254516601563,0,0,1.3015625000000002
1.591165314999671,0,0,1.1156979736328125,0,0,0.6125
1.5926103379997585,0,0,1.908178723144531,0,0,0.9953125
1.5940548779999517,0,0,2.080561242675781,0,0,0.9953125
1.5955004190000182,0,0,1.7429788085937499,0,0,1.3015625000000002
1.5969448120004017,0,0,1.5442600708007812,0,0,1.1484375
1.5983888339997065,0,0,1.618480322265625,0,0,1.4546875000000001
1.5998349490000692,0,0,1.2689268798828124,0,0,0.8421875000000001
1.601285562999692,0,0,1.2761094848632812,0,0,0.6125
1.6027306779997161,0,0,1.5227122558593749,0,0,-0.22968750000000002
1.6041774040004384,0,0,1.5251064575195312,0,0,0.6125
1.60562246399968,0,0,1.1851298217773436,0,0,0.6890625
1.6070699299998523,0,0,1.0630255371093749,0,0,0.6890625
1.6085170819997074,0,0,1.5155296508789062,0,0,1.6078125
1.6099625119995835,0,0,1.2665326782226562,0,0,1.53125
1.6114069040004324,0,0,1.22583125,0,0,1.4546875000000001
1.6128514450001603,0,0,1.0965443603515623,0,0,1.225
1.6142959119997613,0,0,1.8411410766601561,0,0,0.9953125
1.6157415640000181,0,0,1.879448303222656,0,0,1.6078125
1.6171870489997673,0,0,2.147598889160156,0,0,1.53125
1.6186316080002143,0,0,1.9776105712890624,0,0,1.8375000000000001
1.6200762779999422,0,0,1.7405846069335937,0,0,1.4546875000000001
1.621520892999797,0,0,0.8714894042968749,0,0,0.153125
1.6229651929998,0,0,0.7110778930664062,0,0,0.30625
1.6244181600004595,0,0,1.2665326782226562,0,0,-0.3828125
1.6258644600002299,0,0,1.1252747802734375,0,0,0.765625
1.6273128709999582,0,0,0.8858546142578124,0,0,0.30625
1.6287619490003635,0,0,1.0199299072265624,0,0,1.990625
1.6302079150000282,0,0,1.4125789794921875,0,0,1.3015625000000002
1.6316543080001793,0,0,1.4604630126953124,0,0,1.9140625000000002
1.633098274999611,0,0,1.3072341064453123,0,0,0.8421875000000001
1.6345429639995928,0,0,1.8315642700195311,0,0,1.225
1.6359883189998072,0,0,1.8842367065429686,0,0,1.0718750000000001
1.637576283999806,0,0,2.3151930053710936,0,0,1.3015625000000002
1.6390225289997034,0,0,2.133233679199219,0,0,3.521875
1.6404692180003622,0,0,1.7262193969726563,0,0,0.9953125
1.6419143140001324,0,0,1.1420341918945311,0,0,0.9187500000000001
1.6433604100002412,0,0,0.6607996582031249,0,0,0.153125
1.6449156349999612,0,0,1.0462661254882812,0,0,-0.6125
1.6464850640004443,0,0,1.1635820068359375,0,0,0.9187500000000001
1.6482477489998928,0,0,0.9409212524414062,0,0,2.3734375
1.6498901029999615,0,0,1.2713210815429687,0,0,1.990625
1.6514183649996994,0,0,1.218648645019531,0,0,1.9140625000000002
1.6529855529997803,0,0,1.2521674682617188,0,0,0.9187500000000001
1.6545243700002175,0,0,1.5466542724609373,0,0,0.9187500000000001
1.6561760200002027,0,0,2.0087351928710935,0,0,1.3015625000000002
1.6579859089997626,0,0,2.422932080078125,0,0,1.0718750000000001
1.6596730580004078,0,0,1.9632453613281249,0,0,1.7609375
1.6611733760000789,0,0,1.9129671264648436,0,0,1.3015625000000002
1.6626480280001488,0,0,1.0773907470703123,0,0,0.3828125
1.6640925310002785,0,0,0.6512228515624999,0,0,0.6890625
1.6655266090001533,0,0,1.0773907470703123,0,0,-1.3015625000000002
1.666963706000388,0,0,1.0127473022460938,0,0,0.3828125
1.6684013760004746,0,0,0.9026140258789062,0,0,-0.45937500000000003
1.6698363980003705,0,0,1.5298948608398437,0,0,1.6843750000000002
1.6712702539998645,0,0,1.149216796875,0,0,1.6078125
1.6727060359999086,0,0,1.0510545288085937,0,0,1.53125
1.6741408910002065,0,0,0.737414111328125,0,0,0.6890625
1.6756049320001694,0,0,1.8339584716796873,0,0,0.3828125
1.6770483800000875,0,0,1.7501614135742187,0,0,1.3015625000000002
1.6784943840002597,0,0,2.3367408203125,0,0,0.9187500000000001
1.679943183999967,0,0,2.269703173828125,0,0,1.4546875000000001
1.681377447000159,0,0,1.7262193969726563,0,0,2.3734375
1.6828119880001395,0,0,1.2593500732421874,0,0,0.153125
1.684257214000354,0,0,1.005564697265625,0,0,0.153125
1.6857090140001674,0,0,1.0462661254882812,0,0,-0.9187500000000001
1.6871728690002783,0,0,1.1827356201171875,0,0,0.22968750000000002
1.6886198170004718,0,0,1.2665326782226562,0,0,0.765625
1.6901213569999527,0,0,1.70467158203125,0,0,1.378125
1.6916130830004477,0,0,1.0510545288085937,0,0,2.2203125000000004
1.6930977530000746,0,0,0.6919242797851562,0,0,0.765625
1.6945694409996577,0,0,1.3096283081054687,0,0,0.6890625
1.6960122419995969,0,0,1.5562310791015623,0,0,0.6890625
1.69744683800036,0,0,2.281674182128906,0,0,0.9187500000000001
1.6988811749997694,0,0,2.370259643554687,0,0,2.0671875
1.7003376419997949,0,0,2.0542250244140625,0,0,1.9140625000000002
1.7017838860001575,0,0,1.4820108276367188,0,0,1.378125
1.703229667999949,0,0,0.9457096557617187,0,0,0.5359375000000001
1.704675670999677,0,0,1.0390835205078124,0,0,-0.5359375000000001
1.7061228969996591,0,0,0.9983820922851562,0,0,0.0
1.7075699750002968,0,0,1.22583125,0,0,0.0765625
1.7090152009996018,0,0,1.5849614990234373,0,0,1.1484375
1.710460889999922,0,0,1.0438719238281249,0,0,1.7609375
1.7119090420001157,0,0,0.6200982299804687,0,0,0.9187500000000001
1.713352544999907,0,0,0.97683427734375,0,0,0.9187500000000001
1.7147978080001849,0,0,1.1348515869140625,0,0,0.6890625
1.7162432750001244,0,0,1.66636435546875,0,0,1.1484375
1.7177773889998207,0,0,2.43250888671875,0,0,2.0671875
1.719225040999845,0,0,2.7557261108398436,0,0,2.1437500000000003
1.7206721559996367,0,0,1.8746598999023436,0,0,1.53125
1.7221182700004647,0,0,1.3431471313476562,0,0,0.6125
1.7235713669997494,0,0,0.7278373046875,0,0,9.49375
1.7250182779998795,0,0,0.9002198242187499,0,0,-0.5359375000000001
1.7264643739999883,0,0,1.235408056640625,0,0,0.5359375000000001
1.7279088409995893,0,0,1.9225439331054686,0,0,1.0718750000000001
1.7293433630002255,0,0,1.3575123413085937,0,0,2.1437500000000003
1.7307775150002271,0,0,0.9121908325195311,0,0,1.1484375
1.7322221479998916,0,0,0.6607996582031249,0,0,0.6125
1.7336677820003388,0,0,1.0654197387695312,0,0,1.3015625000000002
1.7351134150003418,0,0,1.6400281372070311,0,0,0.6125
1.7365602339996258,0,0,2.592920397949219,0,0,2.6031250000000004
1.7380061080002633,0,0,2.511517541503906,0,0,1.8375000000000001
1.7394664630000989,0,0,1.5179238525390624,0,0,1.0718750000000001
1.7409130779997213,0,0,1.3287819213867187,0,0,0.153125
1.7423589709997032,0,0,0.8643067993164062,0,0,0.0765625
1.7441671739998128,0,0,0.679953271484375,0,0,0.22968750000000002
1.7456139559999428,0,0,1.7477672119140624,0,0,0.9187500000000001
1.7470547740003894,0,0,1.6208745239257811,0,0,2.1437500000000003
1.7485376849999739,0,0,0.9935936889648437,0,0,0.765625
1.7499819479999132,0,0,0.8930372192382812,0,0,1.0718750000000001
1.7514412480004466,0,0,1.1276689819335937,0,0,0.45937500000000003
1.7528825480003434,0,0,1.5490484741210937,0,0,0.5359375000000001
1.7543221810001342,0,0,2.5953145996093747,0,0,1.6843750000000002
1.755764444000306,0,0,2.6384102294921874,0,0,1.990625
1.7572041519997583,0,0,1.7094599853515624,0,0,1.53125
1.75864508199993,0,0,1.0989385620117187,0,0,0.0
1.760093159000462,0,0,0.6248866333007812,0,0,-0.22968750000000002
1.7615434589997676,0,0,1.0510545288085937,0,0,-0.6125
1.7629915369998344,0,0,1.2401964599609374,0,0,0.6125
1.764439059000324,0,0,1.7166425903320313,0,0,1.4546875000000001
1.7658869699998831,0,0,1.2952630981445312,0,0,1.53125
1.7673460109999723,0,0,0.6775590698242188,0,0,1.0718750000000001
1.7687951810003142,0,0,0.9624690673828125,0,0,0.0
1.7702427220001482,0,0,0.9313444458007812,0,0,0.8421875000000001
1.7716913739996016,0,0,2.4971523315429685,0,0,1.1484375
1.7731384520002393,0,0,2.6048914062499997,0,0,2.1437500000000003
1.7745874000002004,0,0,1.649604943847656,0,0,1.6078125
1.7760341809998863,0,0,1.4125789794921875,0,0,0.765625
1.7774813329997414,0,0,0.47884033203125,0,0,0.0
1.7789273369999137,0,0,0.6823474731445313,0,0,-1.3015625000000002
1.780376341000192,0,0,1.6448165405273436,0,0,0.45937500000000003
1.781822363000174,0,0,2.1643583007812497,0,0,0.9187500000000001
1.7832684590002827,0,0,1.6903063720703124,0,0,1.53125
1.7847151109999686,0,0,0.5147533569335937,0,0,1.6078125
1.7861735960004808,0,0,0.5961562133789062,0,0,0.5359375000000001
1.7876226549997227,0,0,0.8451531860351562,0,0,1.0718750000000001
1.7890695109999797,0,0,1.6998831787109374,0,0,0.6890625
1.7905159029996867,0,0,3.066972326660156,0,0,1.990625
1.7919631289996687,0,0,2.583343591308594,0,0,1.7609375
1.7934099109997987,0,0,1.39821376953125,0,0,1.1484375
1.7948562660003518,0,0,0.6631938598632812,0,0,0.45937500000000003
1.7963019549997625,0,0,0.5458779785156249,0,0,-0.765625
1.7979958819996682,0,0,1.1109095703125,0,0,0.6125
1.7994521079999686,0,0,2.166752502441406,0,0,1.378125
1.800901722999697,0,0,1.838746875,0,0,0.9187500000000001
1.8023493749997215,0,0,0.9504980590820312,0,0,1.378125
1.8037969150000208,0,0,0.39743747558593745,0,0,0.22968750000000002
1.8052441039999394,0,0,0.4165910888671875,0,0,0.8421875000000001
1.80669233000026,0,0,2.1787235107421874,0,0,1.3015625000000002
1.808149370999672,0,0,2.712630480957031,0,0,1.6078125
1.8096095230002902,0,0,2.0542250244140625,0,0,1.6078125
1.8110566559998915,0,0,1.5370774658203123,0,0,0.22968750000000002
1.8125061410000853,0,0,0.373495458984375,0,0,0.3828125
1.8139535520003847,0,0,0.4333505004882812,0,0,-0.9187500000000001
1.8154022600001554,0,0,2.2481553588867187,0,0,1.0718750000000001
1.8168506709998837,0,0,1.9512743530273435,0,0,1.990625
1.8182974709998234,0,0,1.9991583862304687,0,0,1.53125
1.8197471410003345,0,0,0.967257470703125,0,0,2.1437500000000003
1.8211950710001474,0,0,0.6416460449218749,0,0,1.225
1.8226419259999602,0,0,1.7477672119140624,0,0,0.6890625
1.8240884480001114,0,0,2.492363928222656,0,0,1.3015625000000002
1.8255354149996492,0,0,2.2936451904296873,0,0,1.1484375
1.8269820670002446,0,0,1.8555062866210936,0,0,1.4546875000000001
1.8284310340004595,0,0,0.5482721801757812,0,0,0.3828125
1.8298765930003356,0,0,0.06464344482421874,0,0,0.0
1.8313300219997473,0,0,1.20667763671875,0,0,0.3828125
1.832779692999793,0,0,1.7286135986328124,0,0,1.6843750000000002
1.8342269369995847,0,0,2.0254946044921875,0,0,1.6078125
1.8356741630004763,0,0,1.426944189453125,0,0,1.53125
1.8371211109997603,0,0,1.1827356201171875,0,0,0.9187500000000001
1.8385678189997634,0,0,1.1037269653320312,0,0,0.9953125
1.84001541500038,0,0,1.9201497314453124,0,0,1.53125
1.8414626780004255,0,0,2.5354595581054684,0,0,0.9953125
1.8429090709996672,0,0,2.2768857788085937,0,0,1.1484375
1.8443696670001373,0,0,1.120486376953125,0,0,0.0765625
1.8458158189996539,0,0,0.22744915771484372,0,0,0.153125
1.8472674329996153,0,0,0.09816226806640624,0,0,0.0
1.8487143809998088,0,0,1.1516109985351561,0,0,0.22968750000000002
1.8501606629997696,0,0,1.4796166259765624,0,0,1.7609375
1.8516112220004288,0,0,1.7477672119140624,0,0,1.378125
1.8530571520004742,0,0,1.47482822265625,0,0,1.378125
1.8545033219998004,0,0,1.0031704956054688,0,0,1.0718750000000001
1.8559502520001843,0,0,1.5155296508789062,0,0,1.4546875000000001
1.857405347999702,0,0,2.446874096679687,0,0,1.4546875000000001
1.8588510549998318,0,0,2.29843359375,0,0,1.6843750000000002
1.8603014480004276,0,0,2.2170307373046874,0,0,0.153125
1.8617477850002615,0,0,1.1324573852539062,0,0,0.0765625
1.86319438099963,0,0,0.5003881469726562,0,0,9.340625000000001
1.8646411259996967,0,0,0.948103857421875,0,0,-0.153125
1.8660969439997643,0,0,1.005564697265625,0,0,0.9187500000000001
1.8676394650001384,0,0,1.4700398193359374,0,0,1.0718750000000001
1.8704632139997557,0,0,0.6655880615234374,0,0,0.5359375000000001
1.8737248850002288,0,0,2.090138049316406,0,0,0.9187500000000001
1.8769882960004907,0,0,1.6543933471679686,0,0,-9.723437500000001
1.880258447000415,0,0,0.35194764404296874,0,0,1.53125
1.8835143579999567,0,0,1.7238251953125,0,0,-8.575000000000001
1.8867783989999225,0,0,0.8571241943359375,0,0,1.1484375
1.8900475880000158,0,0,2.068590234375,0,0,0.765625
1.893298498999684,0,0,1.2665326782226562,0,0,0.0
1.8965497429999232,0,0,1.2856862915039062,0,0,1.990625
1.8998007660002258,0,0,1.3527239379882812,0,0,0.765625
1.9030478619997666,0,0,0.833182177734375,0,0,1.378125
1.9062968839998575,0,0,2.7365724975585937,0,0,0.5359375000000001
1.9095451659995888,0,0,0.08858546142578125,0,0,9.340625000000001
1.9127938920000815,0,0,1.458068811035156,0,0,1.378125
1.9160433590004686,0,0,1.7190367919921874,0,0,1.1484375
1.9192898620003689,0,0,0.9074024291992187,0,0,1.1484375
1.9225383479997618,0,0,2.308010400390625,0,0,0.6890625
1.9257867590004025,0,0,0.36152445068359373,0,0,0.5359375000000001
1.9290359659999012,0,0,1.0989385620117187,0,0,0.9953125
1.9322861179998654,0,0,1.0965443603515623,0,0,0.765625
1.9355615289996422,0,0,1.9584569580078124,0,0,1.8375000000000001
1.9389859760003674,0,0,2.0350714111328125,0,0,-0.765625
1.9446229730001505,0,0,1.2976572998046874,0,0,0.765625
1.9479058839997379,0,0,1.2593500732421874,0,0,0.9953125
1.9511593690003792,0,0,0.928950244140625,0,0,2.0671875
1.9544109099997513,0,0,2.408566870117187,0,0,0.6125
1.9576705990002665,0,0,1.120486376953125,0,0,0.153125
1.9609091399997851,0,0,1.5921441040039062,0,0,1.0718750000000001
1.964159144000405,0,0,1.0031704956054688,0,0,0.8421875000000001
1.967444388000331,0,0,1.7214309936523438,0,0,2.0671875
1.9706958540000414,0,0,2.0829554443359375,0,0,0.45937500000000003
1.9739445799996247,0,0,0.40940848388671874,0,0,0.153125
1.97719493600016,0,0,2.114080065917969,0,0,1.0718750000000001
1.9804459030001453,0,0,1.0438719238281249,0,0,0.8421875000000001
1.9836973689998558,0,0,1.5586252807617187,0,0,2.45
1.986946836000243,0,0,2.5713725830078125,0,0,0.765625
1.9901957470001435,0,0,0.5817910034179687,0,0,0.30625
1.9934734730004493,0,0,1.8004396484374998,0,0,0.153125
1.996731569000076,0,0,1.1156979736328125,0,0,1.7609375
2.000006017000487,0,0,1.8004396484374998,0,0,0.5359375000000001
2.0032672429997547,0,0,2.2002713256835937,0,0,0.0765625
2.0065191539997613,0,0,0.19871873779296872,0,0,0.0765625
2.0097722509999585,0,0,1.6065093139648436,0,0,0.9953125
2.013052236000476,0,0,0.9121908325195311,0,0,0.9187500000000001
2.0163030539997635,0,0,1.8770541015625,0,0,1.53125
2.019603835000453,0,0,2.501940734863281,0,0,0.9187500000000001
2.022854802000438,0,0,0.09576806640624999,0,0,0.22968750000000002
2.0261045460001696,0,0,1.1013327636718748,0,0,0.5359375000000001
2.0293941609998,0,0,0.9169792358398436,0,0,1.225
2.0326489609997225,0,0,2.291250988769531,0,0,1.378125
2.035899168000469,0,0,2.0757728393554684,0,0,1.225
2.039147542000137,0,0,0.143652099609375,0,0,0.9187500000000001
2.0428120420001505,0,0,1.6017209106445311,0,0,1.3015625000000002
2.0460905820000335,0,0,0.7517793212890624,0,0,1.0718750000000001
2.0493381790001877,0,0,1.9847931762695312,0,0,1.6078125
2.052584404999834,0,0,1.4628572143554686,0,0,9.49375
2.055947500000002,0,0,1.0462661254882812,0,0,1.378125
2.0596517949998088,0,0,1.4532804077148436,0,0,0.9187500000000001
2.0629534099998637,0,0,0.9050082275390624,0,0,1.225
2.06625124600032,0,0,1.93451494140625,0,0,1.4546875000000001
2.0696276380003837,0,0,0.6703764648437499,0,0,0.6890625
2.072946807000335,0,0,1.6232687255859375,0,0,0.765625
2.0766785470004834,0,0,1.5059528442382812,0,0,1.0718750000000001
2.0799899200001164,0,0,1.5251064575195312,0,0,0.9953125
2.0836767529999634,0,0,2.1308394775390624,0,0,-0.153125
2.0880977630004054,0,0,0.5099649536132812,0,0,0.765625
2.09132695199969,0,0,2.281674182128906,0,0,1.1484375
2.094601992999742,0,0,0.7757213378906249,0,0,1.0718750000000001
2.0978295710001476,0,0,1.6065093139648436,0,0,1.8375000000000001
2.1010807040001964,0,0,1.9680337646484374,0,0,-0.45937500000000003
2.1043142449998413,0,0,0.7852981445312499,0,0,1.53125
2.10762339699977,0,0,1.1085153686523437,0,0,0.9953125
2.1108689379998395,0,0,0.8044517578125,0,0,1.7609375
2.1140969970001606,0,0,2.231395947265625,0,0,1.378125
2.1173253529996146,0,0,1.3096283081054687,0,0,0.0
2.1205637270004445,0,0,1.5394716674804687,0,0,0.45937500000000003
2.1237999349996244,0,0,1.3766659545898436,0,0,0.3828125
2.127071253000395,0,0,0.7948749511718749,0,0,1.6078125
2.130330590000085,0,0,1.8435352783203125,0,0,1.0718750000000001
2.1335662789997514,0,0,0.9552864624023437,0,0,0.30625
2.136808467999799,0,0,1.9919757812499999,0,0,1.9140625000000002
2.1400432870004806,0,0,1.448492004394531,0,0,0.45937500000000003
2.1432663460000185,0,0,0.47165772705078124,0,0,1.3015625000000002
2.146509721000257,0,0,2.300827795410156,0,0,0.8421875000000001
2.1497530389997337,0,0,0.2537853759765625,0,0,0.0
2.153024172000187,0,0,1.8291700683593748,0,0,1.1484375
2.156269158000214,0,0,1.8291700683593748,0,0,0.9187500000000001
2.1595842160004395,0,0,1.0965443603515623,0,0,1.6843750000000002
2.162828182999874,0,0,2.5761609863281247,0,0,0.6890625
2.166070557000239,0,0,0.7230489013671875,0,0,0.3828125
2.16941915300049,0,0,1.5155296508789062,0,0,0.8421875000000001
2.1725545469998906,0,0,1.2665326782226562,0,0,0.6890625
2.175468035000449,0,0,1.3862427612304686,0,0,1.378125
2.178377635000288,0,0,2.4875755249023435,0,0,1.53125
2.181289420000212,0,0,1.2138602416992186,0,0,-1.1484375
2.184206019999692,0,0,0.9696516723632812,0,0,1.225
2.1871160090004196,0,0,1.608903515625,0,0,1.6843750000000002
2.190027831000407,0,0,0.13168109130859373,0,0,0.30625
2.1929957259999355,0,0,2.0829554443359375,0,0,1.53125
2.195967472999655,0,0,2.7437551025390623,0,0,1.6078125
2.198904462000428,0,0,0.10295067138671875,0,0,0.6125
2.201818710000225,0,0,1.8842367065429686,0,0,1.0718750000000001
2.2047312360000433,0,0,1.0462661254882812,0,0,-0.3828125
2.2076680390000547,0,0,1.1444283935546875,0,0,1.990625
2.2105777679998937,0,0,2.0973206542968748,0,0,0.6890625
2.2134912749997966,0,0,0.4261678955078125,0,0,0.0
2.216404300999784,0,0,1.189918225097656,0,0,2.0671875
2.219314234000194,0,0,1.8770541015625,0,0,1.7609375
2.222227778999695,0,0,0.5267243652343749,0,0,1.378125
2.225140730000021,0,0,2.2673089721679687,0,0,2.2203125000000004
2.2280553110003893,0,0,1.7310078002929687,0,0,0.9953125
2.2309643930002494,0,0,-0.06943184814453125,0,0,0.45937500000000003
2.2338779000001523,0,0,1.898601916503906,0,0,1.53125
2.2371683110004597,0,0,1.5801730957031248,0,0,0.8421875000000001
2.2400936510002794,0,0,1.2761094848632812,0,0,2.2203125000000004
2.2430032510001183,0,0,2.224213342285156,0,0,0.9953125
2.245916629000021,0,0,0.5003881469726562,0,0,0.5359375000000001
2.2488286540001354,0,0,0.9361328491210937,0,0,1.225
2.251777327999662,0,0,1.7381904052734374,0,0,1.7609375
2.2546904829996492,0,0,0.7637503295898437,0,0,2.0671875
2.25759978699989,0,0,2.6288334228515624,0,0,1.6078125
2.260648274000232,0,0,1.1180921752929687,0,0,0.0
2.263569689000178,0,0,1.0366893188476562,0,0,0.45937500000000003
2.2664654549998886,0,0,2.0829554443359375,0,0,1.53125
2.269457739000245,0,0,1.1324573852539062,0,0,0.6125
2.272357765000379,0,0,1.1276689819335937,0,0,1.1484375
2.2754684370001996,0,0,2.300827795410156,0,0,0.765625
2.278751292000379,0,0,0.1580173095703125,0,0,0.22968750000000002
2.281995518000258,0,0,1.7693150268554687,0,0,1.53125
2.2852402810003696,0,0,1.0989385620117187,0,0,0.765625
2.2884847479999735,0,0,1.3742717529296875,0,0,1.1484375
2.291753714999686,0,0,2.032677209472656,0,0,1.225
2.2950113480001164,0,0,-0.09816226806640624,0,0,0.3828125
2.2982568329998685,0,0,2.2385785522460937,0,0,2.0671875
2.3014993930000855,0,0,1.1324573852539062,0,0,0.5359375000000001
2.3047418779997315,0,0,1.9632453613281249,0,0,1.4546875000000001
2.3079853999997795,0,0,1.85790048828125,0,0,0.765625
2.311225071000081,0,0,-0.4213794921875,0,0,0.5359375000000001
2.314468296999621,0,0,1.8818425048828125,0,0,2.3734375
2.317751337000118,0,0,0.7757213378906249,0,0,1.0718750000000001
2.3209957669996584,0,0,2.39420166015625,0,0,1.378125
2.3242387709997274,0,0,1.9991583862304687,0,0,1.1484375
2.3276196440001513,0,0,0.8690952026367187,0,0,0.22968750000000002
2.330877055000201,0,0,1.7573440185546874,0,0,1.53125
2.3341258359996573,0,0,0.6775590698242188,0,0,0.9187500000000001
2.3373753030000444,0,0,2.389413256835937,0,0,1.6843750000000002
2.3406249549998392,0,0,1.465251416015625,0,0,-0.765625
2.343874606999634,0,0,0.699106884765625,0,0,0.765625
2.3471225180001056,0,0,1.4987702392578124,0,0,1.1484375
2.350367985000048,0,0,0.7541735229492187,0,0,1.225
2.35361904399997,0,0,2.422932080078125,0,0,1.53125
2.3568682149998494,0,0,0.9552864624023437,0,0,8.421875
2.360116236999602,0,0,1.0319009155273438,0,0,1.0718750000000001
2.3633871849997377,0,0,1.7836802368164062,0,0,0.6890625
2.3666405029998714,0,0,0.373495458984375,0,0,1.3015625000000002
2.3699203960004525,0,0,2.6719290527343746,0,0,1.9140625000000002
2.373168269999951,0,0,1.0199299072265624,0,0,832.6171875000001
2.376421236999704,0,0,0.9026140258789062,0,0,1.1484375
2.3796852400000716,0,0,1.4221557861328125,0,0,0.8421875000000001
2.3829348369999934,0,0,0.7829039428710937,0,0,1.6843750000000002
2.386182784999619,0,0,2.4109610717773435,0,0,0.9953125
2.38943240000026,0,0,1.2785036865234374,0,0,832.6171875000001
2.392712365999614,0,0,1.93451494140625,0,0,0.9187500000000001
2.3959900359996027,0,0,1.4508862060546874,0,0,0.5359375000000001
2.3992366510001375,0,0,0.7517793212890624,0,0,1.8375000000000001
2.402483914000186,0,0,2.375048046875,0,0,0.3828125
2.4057307330003823,0,0,0.29927520751953124,0,0,0.0
2.408978366000156,0,0,1.1252747802734375,0,0,0.3828125
2.4122268139999505,0,0,1.24498486328125,0,0,1.1484375
2.4154935400001705,0,0,0.8547299926757812,0,0,1.8375000000000001
2.418743543999881,0,0,3.0119056884765625,0,0,1.0718750000000001
2.4219917700002043,0,0,0.6057330200195312,0,0,832.69375
2.4252382180002314,0,0,1.4724340209960938,0,0,0.45937500000000003
2.4284859440003856,0,0,1.0630255371093749,0,0,0.8421875000000001
2.43175839200012,0,0,1.6448165405273436,0,0,1.378125
2.435005526000168,0,0,3.0597897216796874,0,0,1.4546875000000001
2.4382527699999628,0,0,0.47165772705078124,0,0,0.22968750000000002
2.4414993290001803,0,0,1.4317325927734375,0,0,0.5359375000000001
2.444816406999962,0,0,0.8068459594726562,0,0,0.765625
2.4481154470004185,0,0,1.7262193969726563,0,0,1.53125
2.4513738949999606,0,0,2.6192566162109374,0,0,1.4546875000000001
2.4546258620002845,0,0,0.4333505004882812,0,0,0.153125
2.457861310000226,0,0,1.7788918334960937,0,0,1.0718750000000001
2.461124702000234,0,0,0.6153098266601562,0,0,0.30625
2.4643759099999443,0,0,1.3766659545898436,0,0,1.1484375
2.467631710000205,0,0,2.3487118286132813,0,0,0.9953125
2.470929860999604,0,0,0.296881005859375,0,0,0.0
2.4741782720002448,0,0,1.8435352783203125,0,0,1.0718750000000001
2.4774320169999555,0,0,0.928950244140625,0,0,0.30625
2.4807053909999013,0,0,2.0661960327148434,0,0,1.3015625000000002
2.483954246000394,0,0,2.1906945190429687,0,0,0.8421875000000001
2.4871994909999557,0,0,-0.076614453125,0,0,0.0
2.4904489950004063,0,0,1.7836802368164062,0,0,1.53125
2.4937236650002887,0,0,0.6177040283203125,0,0,1.1484375
2.496982687000127,0,0,2.308010400390625,0,0,2.296875
2.5006148720003694,0,0,2.0350714111328125,0,0,831.928125
2.503881413000272,0,0,1.1276689819335937,0,0,0.3828125
2.507131139000194,0,0,1.8195932617187498,0,0,1.53125
2.5103719939997973,0,0,0.0526724365234375,0,0,0.765625
2.513625868999952,0,0,2.3032219970703123,0,0,2.1437500000000003
2.5168784460001916,0,0,1.6448165405273436,0,0,832.0046875
2.520129968999754,0,0,1.1731588134765625,0,0,1.0718750000000001
2.5233814539997184,0,0,1.659181750488281,0,0,0.765625
2.5266141239999342,0,0,-0.09337386474609374,0,0,1.3015625000000002
2.5298863870002606,0,0,2.308010400390625,0,0,2.1437500000000003
2.5339168829996197,0,0,0.565031591796875,0,0,0.5359375000000001
2.537241107999762,0,0,2.0925322509765625,0,0,0.6890625
2.5404955929998323,0,0,1.3048399047851562,0,0,0.5359375000000001
2.543775244999779,0,0,1.180341418457031,0,0,0.30625
2.5470050080002693,0,0,2.2266075439453124,0,0,0.9953125
2.5502640490003614,0,0,0.2753331909179687,0,0,0.5359375000000001
2.553547311999864,0,0,1.7501614135742187,0,0,1.3015625000000002
2.5567994630000612,0,0,1.1755530151367186,0,0,0.3828125
2.560045522999644,0,0,1.4963760375976562,0,0,0.6125
2.563271674999669,0,0,2.43250888671875,0,0,0.45937500000000003
2.566816397999901,0,0,-0.10773907470703124,0,0,0.22968750000000002
2.570223992999672,0,0,1.905784521484375,0,0,1.6078125
2.573564495000028,0,0,0.9504980590820312,0,0,0.765625
2.576824980999845,0,0,2.7629087158203123,0,0,1.3015625000000002
2.58007548400019,0,0,1.656787548828125,0,0,0.0765625
2.5833209700003863,0,0,-0.24660277099609373,0,0,0.153125
2.5865893990003315,0,0,2.01112939453125,0,0,1.8375000000000001
2.589820717999828,0,0,0.18435352783203124,0,0,0.3828125
2.5930665920004685,0,0,2.612074011230469,0,0,1.9140625000000002
2.5964210390002336,0,0,2.039859814453125,0,0,-9.8
2.5996664129997953,0,0,-0.02633621826171875,0,0,0.5359375000000001
2.602932972000417,0,0,1.7357962036132812,0,0,1.6078125
2.606164662000083,0,0,-0.1149216796875,0,0,0.30625
2.6094120540001313,0,0,2.683900061035156,0,0,2.0671875
2.6126612250000107,0,0,1.7118541870117185,0,0,832.5406250000001
2.6159065430001647,0,0,0.9433154541015625,0,0,0.9953125
2.6194429520000995,0,0,2.398990063476562,0,0,0.9953125
2.6226726590002727,0,0,0.055066638183593745,0,0,0.30625
2.6259218670002156,0,0,2.442085693359375,0,0,1.7609375
2.6291913889999705,0,0,0.9097966308593749,0,0,0.45937500000000003
2.6324418180001885,0,0,0.8882488159179687,0,0,1.7609375
2.6356896560000678,0,0,2.231395947265625,0,0,1.3015625000000002
2.6389372330004335,0,0,0.8259995727539062,0,0,1.3015625000000002
2.6421825890001855,0,0,2.4971523315429685,0,0,0.6125
2.645436425999833,0,0,0.737414111328125,0,0,832.6171875000001
2.648901704999844,0,0,1.656787548828125,0,0,0.45937500000000003
2.652234875000431,0,0,1.8219874633789062,0,0,1.0718750000000001
2.65568167299989,0,0,0.8786720092773437,0,0,1.4546875000000001
2.658946991000448,0,0,2.7246014892578123,0,0,0.0765625
2.6621895139996923,0,0,0.39264907226562495,0,0,0.22968750000000002
2.66542807299993,0,0,1.1348515869140625,0,0,0.6890625
2.668664077000358,0,0,1.2856862915039062,0,0,1.0718750000000001
2.6720038209996346,0,0,2.0542250244140625,0,0,1.378125
2.67494149400045,0,0,2.5067291381835934,0,0,0.45937500000000003
2.677849687000162,0,0,0.44532150878906246,0,0,0.0
2.6807596199996624,0,0,1.1037269653320312,0,0,1.4546875000000001
2.68367094200039,0,0,1.419761584472656,0,0,1.378125
2.6865936530002728,0,0,0.20350714111328125,0,0,0.6890625
2.689540956000201,0,0,2.6767174560546874,0,0,0.9187500000000001
2.694230778000019,0,0,0.143652099609375,0,0,0.153125
2.697253043999808,0,0,1.3958195678710936,0,0,0.6890625
2.700186420999671,0,0,1.3670891479492187,0,0,1.4546875000000001
2.7031015579996165,0,0,1.3144167114257812,0,0,1.0718750000000001
2.7060504159999255,0,0,2.157175695800781,0,0,1.1484375
2.70897090499966,0,0,1.0510545288085937,0,0,832.0812500000001
2.7118892640000922,0,0,0.9600748657226562,0,0,0.9187500000000001
2.715018269000211,0,0,1.35990654296875,0,0,2.0671875
2.7180549419999807,0,0,0.7278373046875,0,0,0.765625
2.7209790779998,0,0,2.789244934082031,0,0,0.8421875000000001
2.7238988079998308,0,0,1.8914193115234375,0,0,0.6890625
2.7268158520000725,0,0,-0.040701428222656245,0,0,0.153125
2.7297364329997436,0,0,1.5083470458984374,0,0,1.1484375
2.7326563480000914,0,0,1.4867992309570313,0,0,1.225
2.7355756140004814,0,0,1.0510545288085937,0,0,1.990625
2.738492065999708,0,0,2.8371289672851563,0,0,1.1484375
2.741443461000017,0,0,0.9552864624023437,0,0,0.0
2.745776953999666,0,0,1.7741034301757812,0,0,2.0671875
2.748735404999934,0,0,0.9624690673828125,0,0,0.6890625
2.751663560000452,0,0,0.679953271484375,0,0,1.378125
2.754567326999677,0,0,2.925714428710937,0,0,1.378125
2.7574876489998132,0,0,0.9337386474609375,0,0,-1.6843750000000002
2.7604043600003934,0,0,0.9433154541015625,0,0,1.4546875000000001
2.763391180999861,0,0,1.656787548828125,0,0,1.6078125
2.7663108360002298,0,0,0.3447650390625,0,0,2.0671875
2.769227955000133,0,0,2.7246014892578123,0,0,1.6078125
2.7722323680000045,0,0,2.061407629394531,0,0,-9.8
2.775328280999929,0,0,0.22505495605468748,0,0,0.3828125
2.7786159139996016,0,0,2.020706201171875,0,0,1.6843750000000002
2.7818619919999037,0,0,0.0718260498046875,0,0,0.153125
2.7851069959997403,0,0,2.655169641113281,0,0,1.3015625000000002
2.788346074000401,0,0,2.032677209472656,0,0,-9.646875000000001
2.791627872999925,0,0,0.0526724365234375,0,0,0.3828125
2.7948731919996135,0,0,1.8028338500976562,0,0,1.378125
2.7982374720004373,0,0,0.39743747558593745,0,0,0.8421875000000001
2.8015285130004486,0,0,2.712630480957031,0,0,1.9140625000000002
2.8047649800000727,0,0,1.8770541015625,0,0,-1.3015625000000002
2.8080106870002055,0,0,1.1851298217773436,0,0,1.4546875000000001
2.8112559869996403,0,0,1.2234370483398436,0,0,1.53125
2.814500954000323,0,0,0.16519991455078123,0,0,0.9953125
2.817747586999758,0,0,3.0813375366210938,0,0,1.7609375
2.821013849999872,0,0,1.01514150390625,0,0,-1.7609375
2.8242560019998564,0,0,1.3431471313476562,0,0,1.3015625000000002
2.827578338999956,0,0,1.1540052001953125,0,0,1.7609375
2.8308232310000676,0,0,0.143652099609375,0,0,1.8375000000000001
2.8340661430002,0,0,3.1459809814453124,0,0,1.1484375
2.8375229590001254,0,0,1.2042834350585936,0,0,832.2343750000001
2.8407697960001315,0,0,1.4604630126953124,0,0,0.9187500000000001
2.8440154669997355,0,0,0.6296750366210937,0,0,0.30625
2.847255970000333,0,0,0.6607996582031249,0,0,1.6843750000000002
2.850500696000381,0,0,2.8610709838867185,0,0,1.225
2.8537425710001116,0,0,0.9600748657226562,0,0,832.69375
2.8569914079998853,0,0,1.697488977050781,0,0,0.9953125
2.8602473740002097,0,0,0.842758984375,0,0,0.30625
2.863494377999814,0,0,0.5961562133789062,0,0,1.4546875000000001
2.866758623000351,0,0,2.748543505859375,0,0,2.1437500000000003
2.870007497000188,0,0,-0.09816226806640624,0,0,0.22968750000000002
2.873277278000387,0,0,1.8267758666992187,0,0,0.5359375000000001
2.8765676519997214,0,0,1.2737152832031249,0,0,0.45937500000000003
2.8798309889998563,0,0,0.35194764404296874,0,0,1.1484375
2.8830738260003272,0,0,2.501940734863281,0,0,0.5359375000000001
2.8863180329999523,0,0,0.12449848632812499,0,0,0.22968750000000002
2.8896046850004495,0,0,2.003946789550781,0,0,0.9953125
2.8928477440003917,0,0,1.1563994018554686,0,0,0.6125
2.896092488999784,0,0,1.1851298217773436,0,0,1.3015625000000002
2.8993328449996625,0,0,2.6384102294921874,0,0,0.5359375000000001
2.902605885000412,0,0,0.105344873046875,0,0,832.2343750000001
2.905880129000252,0,0,1.5729904907226562,0,0,1.3015625000000002
2.9091244849996656,0,0,1.0486603271484374,0,0,0.6890625
2.912367285000073,0,0,0.4644751220703125,0,0,1.6843750000000002
2.9156086590000996,0,0,2.829946362304687,0,0,1.3015625000000002
2.9189434219997565,0,0,1.2952630981445312,0,0,8.498437500000001
2.922189740000249,0,0,1.8291700683593748,0,0,1.8375000000000001
2.9254337250004028,0,0,0.7589619262695312,0,0,0.0
2.928676063000239,0,0,0.5267243652343749,0,0,1.4546875000000001
2.9319193439996525,0,0,3.1411925781249996,0,0,2.3734375
2.935160977999658,0,0,0.63206923828125,0,0,832.0046875
2.93840027799979,0,0,1.0893617553710937,0,0,2.0671875
2.9427918439996574,0,0,0.488417138671875,0,0,832.5406250000001
2.9461039580000943,0,0,0.7589619262695312,0,0,1.7609375
2.949543163999806,0,0,2.7629087158203123,0,0,2.1437500000000003
2.952778075000424,0,0,0.9241618408203125,0,0,-9.8
2.956010337999942,0,0,1.9680337646484374,0,0,0.5359375000000001
2.959272322999823,0,0,1.218648645019531,0,0,1.3015625000000002
2.962524086000485,0,0,0.47644613037109373,0,0,0.0765625
2.965770275000068,0,0,2.583343591308594,0,0,1.7609375
2.9690172789996723,0,0,1.0079588989257813,0,0,-0.45937500000000003
2.9723528929998793,0,0,0.8738836059570312,0,0,0.9187500000000001
2.975689118000446,0,0,1.9991583862304687,0,0,2.0671875
2.978605551000328,0,0,0.181959326171875,0,0,832.69375
2.9815209839998715,0,0,1.1755530151367186,0,0,0.6125
2.984436435999669,0,0,2.8802245971679685,0,0,1.6843750000000002
2.987375276000421,0,0,0.8403647827148437,0,0,832.2343750000001
2.9902885430001334,0,0,0.5363011718749999,0,0,832.69375
2.993201160999888,0,0,2.2457611572265623,0,0,2.296875
2.996117038999728,0,0,0.16759411621093748,0,0,0.765625
2.9992150810003295,0,0,1.1324573852539062,0,0,-9.723437500000001
3.002151958000468,0,0,2.8036101440429686,0,0,1.53125
3.00514689099964,0,0,0.8643067993164062,0,0,0.22968750000000002
3.0080582130003677,0,0,0.5889736083984375,0,0,832.69375
3.010953719999634,0,0,0.9792284790039062,0,0,0.765625
3.0138712460002353,0,0,1.3215993164062498,0,0,0.6890625
3.0168080120001832,0,0,1.0773907470703123,0,0,1.0718750000000001
3.0197256299998116,0,0,1.6735469604492186,0,0,1.8375000000000001
3.022642378000455,0,0,1.9943699829101562,0,0,0.5359375000000001
3.025542663000124,0,0,1.1947066284179686,0,0,832.69375
3.0284848000001148,0,0,0.5722141967773438,0,0,1.378125
3.031482768999922,0,0,1.8267758666992187,0,0,1.8375000000000001
3.034394739000163,0,0,0.6607996582031249,0,0,0.5359375000000001
3.037311191000299,0,0,1.656787548828125,0,0,0.22968750000000002
3.040227104999758,0,0,2.3439234252929686,0,0,1.990625
3.0431389830000626,0,0,0.8044517578125,0,0,0.22968750000000002
3.04605200900005,0,0,0.82360537109375,0,0,0.5359375000000001
3.0489655530000164,0,0,0.63206923828125,0,0,1.1484375
3.051880060000258,0,0,1.5969325073242187,0,0,0.6125
3.054791049000414,0,0,1.1324573852539062,0,0,0.5359375000000001
3.0577048519999153,0,0,1.8363526733398436,0,0,0.765625
3.0606263970003056,0,0,2.288856787109375,0,0,0.9187500000000001
3.063588255000468,0,0,0.565031591796875,0,0,832.69375
3.066538279999804,0,0,0.7948749511718749,0,0,-852.8296875000001
3.0694401580003614,0,0,1.2976572998046874,0,0,0.8421875000000001
3.072441719999915,0,0,1.3718775512695311,0,0,0.5359375000000001
3.0753773750002438,0,0,1.637633935546875,0,0,0.765625
3.0786236570002075,0,0,2.0877438476562498,0,0,1.378125
3.081868401000065,0,0,1.5897499023437498,0,0,832.3109375
3.08514214600018,0,0,0.6272808349609375,0,0,0.0
3.088388612000017,0,0,0.5793968017578125,0,0,1.0718750000000001
3.091632579000361,0,0,1.2593500732421874,0,0,1.9140625000000002
3.0948745830000917,0,0,1.0869675537109373,0,0,0.6890625
3.0981181240003934,0,0,1.9680337646484374,0,0,1.225
3.101376978999724,0,0,1.89620771484375,0,0,0.6125
3.1046215200003644,0,0,0.6727706665039062,0,0,832.8468750000001
3.1078650420004124,0,0,1.2234370483398436,0,0,0.5359375000000001
3.11110456500046,0,0,1.1563994018554686,0,0,1.0718750000000001
3.114347050000106,0,0,1.446097802734375,0,0,2.45
3.1175903319999634,0,0,1.7118541870117185,0,0,0.9187500000000001
3.1208317430000534,0,0,1.675941162109375,0,0,1.1484375
3.124077579999721,0,0,1.608903515625,0,0,832.8468750000001
3.1274341569996977,0,0,1.0702081420898437,0,0,0.3828125
3.130685011999958,0,0,0.8547299926757812,0,0,0.8421875000000001
3.133927887000027,0,0,1.2282254516601563,0,0,1.8375000000000001
3.1374799240002176,0,0,1.1348515869140625,0,0,0.8421875000000001
3.1407275580004352,0,0,2.0374656127929685,0,0,0.3828125
3.1439725250002084,0,0,1.37906015625,0,0,0.6125
3.1472154539997064,0,0,0.44532150878906246,0,0,0.22968750000000002
3.1504582910001773,0,0,1.149216796875,0,0,0.45937500000000003
3.153701758000352,0,0,0.9792284790039062,0,0,1.6078125
3.1569446700004846,0,0,1.7717092285156248,0,0,1.3015625000000002
3.160354190000362,0,0,1.3120225097656248,0,0,0.22968750000000002
3.163598842000283,0,0,1.6831237670898436,0,0,0.3828125
3.1668429760002255,0,0,1.6807295654296874,0,0,0.765625
3.17008646100021,0,0,0.7948749511718749,0,0,0.5359375000000001
3.173363908999818,0,0,1.2641384765625,0,0,0.9187500000000001
3.176612338000268,0,0,1.0917559570312498,0,0,1.3015625000000002
3.1798569350003163,0,0,1.9656395629882812,0,0,1.225
3.183097641999666,0,0,0.9696516723632812,0,0,0.45937500000000003
3.1863737940002466,0,0,1.6903063720703124,0,0,1.0718750000000001
3.1896227979996183,0,0,1.6807295654296874,0,0,0.765625
3.19286646799992,0,0,0.699106884765625,0,0,832.8468750000001
3.1961735269997007,0,0,1.7429788085937499,0,0,0.6890625
3.1996331769996686,0,0,0.8116343627929687,0,0,0.0
3.2029279759999554,0,0,1.2904746948242187,0,0,1.0718750000000001
3.2061767759996656,0,0,1.2018892333984375,0,0,0.5359375000000001
3.20941152100022,0,0,1.8171990600585937,0,0,0.9953125
3.212921393000215,0,0,1.6041151123046875,0,0,0.6890625
3.2161712300003273,0,0,1.0606313354492187,0,0,0.3828125
3.2194745289998536,0,0,1.2832920898437499,0,0,0.0765625
3.2227549219996945,0,0,1.3359645263671873,0,0,0.45937500000000003
3.225984814000185,0,0,0.5817910034179687,0,0,1.53125
3.229232614000466,0,0,1.7884686401367187,0,0,1.378125
3.2324787659999856,0,0,1.2761094848632812,0,0,0.9187500000000001
3.235751492000418,0,0,1.5514426757812498,0,0,1.0718750000000001
3.238996385000064,0,0,1.2593500732421874,0,0,0.8421875000000001
3.2422404999997525,0,0,1.5729904907226562,0,0,0.22968750000000002
3.2458151849996284,0,0,1.5610194824218748,0,0,0.5359375000000001
3.249126355000044,0,0,1.1659762084960936,0,0,0.153125
3.2523820630003684,0,0,1.35990654296875,0,0,0.8421875000000001
3.2556124740003725,0,0,1.426944189453125,0,0,-8.8046875
3.258841292999932,0,0,1.13006318359375,0,0,0.765625
3.262097036999876,0,0,1.5562310791015623,0,0,0.9187500000000001
3.2653295410000283,0,0,1.216254443359375,0,0,0.765625
3.268572044999928,0,0,1.235408056640625,0,0,0.3828125
3.271821215000273,0,0,1.16837041015625,0,0,0.3828125
3.275081570999646,0,0,1.4915876342773438,0,0,0.0
3.2783107229997768,0,0,0.6368576416015624,0,0,1.225
3.28155278200029,0,0,1.7908628417968748,0,0,1.225
3.284795860000486,0,0,0.8355763793945312,0,0,0.5359375000000001
3.28804286400009,0,0,1.5466542724609373,0,0,0.9953125
3.2912817380001798,0,0,1.2641384765625,0,0,0.3828125
3.294524853000439,0,0,1.4891934326171874,0,0,0.8421875000000001
3.297768356999768,0,0,1.419761584472656,0,0,0.5359375000000001
3.3010116200002813,0,0,1.4796166259765624,0,0,0.30625
3.30425584600016,0,0,1.1276689819335937,0,0,0.5359375000000001
3.307553089999601,0,0,1.2401964599609374,0,0,1.0718750000000001
3.31079609399967,0,0,1.2473790649414063,0,0,0.8421875000000001
3.314038671999697,0,0,1.0606313354492187,0,0,1.1484375
3.317282564999914,0,0,1.9536685546875,0,0,0.9187500000000001
3.3205270870003005,0,0,0.49320554199218747,0,0,-852.8296875000001
3.3237723869997353,0,0,1.924938134765625,0,0,1.3015625000000002
3.3270132240004386,0,0,1.0390835205078124,0,0,0.3828125
3.3302564870000424,0,0,1.4700398193359374,0,0,0.3828125
3.3335004359996674,0,0,0.9217676391601562,0,0,0.22968750000000002
3.336771921000036,0,0,0.86191259765625,0,0,1.225
3.340017794999767,0,0,1.7166425903320313,0,0,1.1484375
3.343257335999624,0,0,1.1252747802734375,0,0,0.9953125
3.346501525000349,0,0,2.4109610717773435,0,0,1.4546875000000001
3.349745509999593,0,0,0.6512228515624999,0,0,0.0
3.352988476999599,0,0,1.2737152832031249,0,0,0.9187500000000001
3.356232703000387,0,0,2.1260510742187497,0,0,0.5359375000000001
3.3594964470003106,0,0,0.7565677246093749,0,0,0.30625
3.362736080999639,0,0,1.6998831787109374,0,0,0.5359375000000001
3.3659770659996866,0,0,0.6272808349609375,0,0,0.45937500000000003
3.369218069999988,0,0,1.3215993164062498,0,0,1.53125
3.372462629000438,0,0,1.1252747802734375,0,0,0.0
3.3757601699999213,0,0,1.3455413330078123,0,0,1.0718750000000001
3.379016691999823,0,0,2.2601263671875,0,0,0.153125
3.3822671950001677,0,0,0.603338818359375,0,0,-852.8296875000001
3.385513735999666,0,0,1.93451494140625,0,0,0.5359375000000001
3.3887573140000313,0,0,1.13006318359375,0,0,0.45937500000000003
3.3920008739996774,0,0,0.8714894042968749,0,0,0.8421875000000001
3.3952407659999153,0,0,1.7022773803710936,0,0,0.5359375000000001
3.398485380999773,0,0,0.603338818359375,0,0,0.6125
3.401726791999863,0,0,1.2832920898437499,0,0,1.378125
3.4049690000001647,0,0,1.4772224243164063,0,0,0.3828125
3.4082390410003427,0,0,1.3096283081054687,0,0,1.0718750000000001
3.411482526000327,0,0,1.9225439331054686,0,0,1.1484375
3.4147239740004807,0,0,0.9361328491210937,0,0,0.0765625
3.4179667739999786,0,0,1.0031704956054688,0,0,0.6890625
3.421209629999794,0,0,1.8339584716796873,0,0,1.4546875000000001
3.424448560000201,0,0,0.8930372192382812,0,0,0.45937500000000003
3.4277101750003567,0,0,1.6831237670898436,0,0,1.3015625000000002
3.430951123000341,0,0,1.5849614990234373,0,0,0.3828125
3.434224849000202,0,0,0.488417138671875,0,0,0.30625
3.437520184999812,0,0,1.618480322265625,0,0,1.4546875000000001
3.4407688560004317,0,0,1.235408056640625,0,0,0.6125
3.4440203780004595,0,0,1.1923124267578125,0,0,0.6125
3.4474054359998263,0,0,1.7717092285156248,0,0,0.765625
3.4507367539999905,0,0,0.8403647827148437,0,0,0.3828125
3.4540757559998383,0,0,0.8762778076171874,0,0,0.765625
3.4575854980002987,0,0,1.6208745239257811,0,0,1.53125
3.460844631999862,0,0,1.438915197753906,0,0,0.9187500000000001
3.464095764999911,0,0,0.9504980590820312,0,0,0.45937500000000003
3.467378139000175,0,0,1.7310078002929687,0,0,0.9953125
3.4706036609995863,0,0,0.7613561279296874,0,0,0.0
3.4738522210000156,0,0,0.9528922607421875,0,0,0.6125
3.4771388170001956,0,0,1.7836802368164062,0,0,1.1484375
3.480389598000329,0,0,1.4724340209960938,0,0,0.45937500000000003
3.4836328609999327,0,0,1.2689268798828124,0,0,0.45937500000000003
3.4868783649999386,0,0,1.467645617675781,0,0,1.0718750000000001
3.490124795000156,0,0,1.1827356201171875,0,0,0.765625
3.4933695210002043,0,0,1.1180921752929687,0,0,0.45937500000000003
3.496651782999834,0,0,1.714248388671875,0,0,0.6125
3.4999088800004756,0,0,1.2641384765625,0,0,0.5359375000000001
3.5031560320003337,0,0,1.1109095703125,0,0,0.6125
3.506570219000423,0,0,1.3311761230468748,0,0,0.153125
3.509817555999689,0,0,1.2401964599609374,0,0,0.9187500000000001
3.5130960220003544,0,0,1.3215993164062498,0,0,0.153125
3.5163785810000263,0,0,1.3311761230468748,0,0,0.5359375000000001
3.519781046999924,0,0,1.455674609375,0,0,1.225
3.523029975999634,0,0,1.4772224243164063,0,0,0.30625
3.5262765540001055,0,0,1.0366893188476562,0,0,0.30625
3.529523594999773,0,0,1.9129671264648436,0,0,0.6890625
3.53276859899961,0,0,1.1372457885742187,0,0,0.9953125
3.5360172509999757,0,0,1.0510545288085937,0,0,0.22968750000000002
3.539262328999939,0,0,1.43652099609375,0,0,0.3828125
3.5425081470002624,0,0,1.5634136840820312,0,0,0.9953125
3.5457533549997606,0,0,0.9648632690429687,0,0,0.5359375000000001
3.548999155000274,0,0,1.1516109985351561,0,0,0.6890625
3.552242751000449,0,0,1.5921441040039062,0,0,0.765625
3.5554888289998416,0,0,1.2378022583007813,0,0,0.8421875000000001
3.5587297219999527,0,0,1.180341418457031,0,0,0.0765625
3.561957058999724,0,0,1.2952630981445312,0,0,0.8421875000000001
3.5652020810002796,0,0,1.4245499877929686,0,0,0.765625
3.5684474560002855,0,0,1.0582371337890624,0,0,0.6125
3.5716879040001004,0,0,1.446097802734375,0,0,1.0718750000000001
3.574928686000021,0,0,1.3144167114257812,0,0,0.9187500000000001
3.578202448000411,0,0,1.3623007446289062,0,0,0.6125
3.581445247999909,0,0,1.4915876342773438,0,0,0.765625
3.584714714999791,0,0,0.9935936889648437,0,0,0.8421875000000001
3.5879591630000505,0,0,1.2761094848632812,0,0,-8.728125
3.5912009080002463,0,0,1.4700398193359374,0,0,0.6890625
3.594444319000104,0,0,1.6065093139648436,0,0,0.30625
3.5977165080003033,0,0,1.0749965454101562,0,0,0.3828125
3.600960808000309,0,0,0.9935936889648437,0,0,0.9953125
3.6042048489998706,0,0,1.4987702392578124,0,0,1.1484375
3.6074610380001104,0,0,1.4939818359375,0,0,0.5359375000000001
3.610709264000434,0,0,1.467645617675781,0,0,0.22968750000000002
3.6139813780000623,0,0,1.0726023437499999,0,0,0.9187500000000001
3.6172285299999203,0,0,1.0007762939453124,0,0,0.8421875000000001
3.620473664000201,0,0,1.2976572998046874,0,0,0.6125
3.6237175380001645,0,0,1.637633935546875,0,0,0.0765625
3.6270000969998364,0,0,1.3479355346679687,0,0,0.22968750000000002
3.630291767000017,0,0,1.216254443359375,0,0,0.765625
3.633569528999942,0,0,1.3527239379882812,0,0,1.225
3.6368182369997157,0,0,1.455674609375,0,0,-8.728125
3.64007031500023,0,0,1.5059528442382812,0,0,0.765625
3.6433132820002356,0,0,1.678335363769531,0,0,0.30625
3.6466292109998903,0,0,1.2018892333984375,0,0,0.9187500000000001
3.6552388820000488,0,0,1.5107412475585937,0,0,0.8421875000000001
3.658511847999762,0,0,1.5251064575195312,0,0,0.6890625
3.6617774630003623,0,0,1.3407529296874998,0,0,0.22968750000000002
3.665016726000431,0,0,1.22583125,0,0,0.0
3.6682690819998243,0,0,1.0031704956054688,0,0,0.8421875000000001
3.671522251999704,0,0,1.254561669921875,0,0,1.3015625000000002
3.6747777000000497,0,0,1.7357962036132812,0,0,1.1484375
3.6781344250002803,0,0,1.5562310791015623,0,0,0.6890625
3.681225837999591,0,0,1.3527239379882812,0,0,0.45937500000000003
3.6841431969996847,0,0,1.1923124267578125,0,0,0.5359375000000001
3.687062519000392,0,0,1.16837041015625,0,0,0.8421875000000001
3.6899826179997035,0,0,1.1635820068359375,0,0,0.6125
3.692897439999797,0,0,1.2713210815429687,0,0,0.8421875000000001
3.695897612999943,0,0,1.6352397338867186,0,0,0.9953125
3.6989684150003086,0,0,1.4724340209960938,0,0,1.225
3.701914663000025,0,0,1.218648645019531,0,0,0.30625
3.704837113999929,0,0,1.3623007446289062,0,0,1.0718750000000001
3.7077631769998334,0,0,1.5562310791015623,0,0,0.9953125
3.7106819809996523,0,0,1.1875240234375,0,0,0.6890625
3.7135870060001253,0,0,1.2521674682617188,0,0,0.8421875000000001
3.716506921000473,0,0,1.3311761230468748,0,0,1.0718750000000001
3.7194616679998944,0,0,1.484405029296875,0,0,1.225
3.722383045999777,0,0,1.3287819213867187,0,0,0.6890625
3.7253024049996384,0,0,1.5251064575195312,0,0,0.765625
3.7282172080003875,0,0,1.458068811035156,0,0,0.765625
3.7311153640002885,0,0,1.0821791503906248,0,0,0.9953125
3.7340360190000865,0,0,1.3359645263671873,0,0,1.0718750000000001
3.737001841000165,0,0,1.3359645263671873,0,0,0.9953125
3.7399259029998575,0,0,1.4724340209960938,0,0,0.8421875000000001
3.7428388919997815,0,0,1.216254443359375,0,0,0.6125
3.7470179600004485,0,0,1.455674609375,0,0,0.5359375000000001
3.7499826149996807,0,0,1.5490484741210937,0,0,0.30625
3.7528947520004294,0,0,1.2689268798828124,0,0,-9.1875
3.755881109999791,0,0,1.3024457031249999,0,0,0.6890625
3.758784894999735,0,0,1.369483349609375,0,0,0.6890625
3.7616862360000596,0,0,1.2904746948242187,0,0,0.3828125
3.7645894469997074,0,0,1.0941501586914062,0,0,0.5359375000000001
3.767587471999832,0,0,1.4532804077148436,0,0,0.22968750000000002
3.770485052999902,0,0,1.4724340209960938,0,0,0.8421875000000001
3.7735050040000715,0,0,1.0749965454101562,0,0,0.9187500000000001
3.776430418000018,0,0,1.2856862915039062,0,0,0.30625
3.7794439250001233,0,0,1.4700398193359374,0,0,0.6125
3.782572336999692,0,0,1.1755530151367186,0,0,0.9187500000000001
3.7858245440002065,0,0,1.2497732666015624,0,0,1.6078125
3.7890766780001286,0,0,1.2473790649414063,0,0,0.9187500000000001
3.792325606999839,0,0,1.4939818359375,0,0,1.0718750000000001
3.795577500000036,0,0,1.0534487304687499,0,0,0.9953125
3.7988397629997053,0,0,1.6448165405273436,0,0,1.1484375
3.802167783999721,0,0,1.446097802734375,0,0,0.9953125
3.8054186400004255,0,0,1.20667763671875,0,0,0.45937500000000003
3.8086769589999676,0,0,1.467645617675781,0,0,0.6125
3.8119263700000374,0,0,1.407790576171875,0,0,0.6890625
3.815194318000067,0,0,1.3311761230468748,0,0,0.6890625
3.818458618000477,0,0,1.2952630981445312,0,0,0.8421875000000001
3.8217063250003775,0,0,1.5538368774414062,0,0,0.45937500000000003
3.8249527730004047,0,0,1.189918225097656,0,0,0.9953125
3.8282003140002416,0,0,1.3263877197265623,0,0,0.30625
3.8314488360001633,0,0,1.1875240234375,0,0,0.765625
3.834695933000148,0,0,1.5634136840820312,0,0,0.9953125
3.837944621999668,0,0,1.2665326782226562,0,0,0.0765625
3.8411906069995894,0,0,0.9624690673828125,0,0,0.45937500000000003
3.8444402220002303,0,0,1.3646949462890625,0,0,1.3015625000000002
3.84769011499975,0,0,1.1276689819335937,0,0,0.9953125
3.8509346000000733,0,0,1.4053963745117186,0,0,1.0718750000000001
3.8541811960003542,0,0,1.7645266235351562,0,0,0.45937500000000003
3.8574291820004873,0,0,0.9050082275390624,0,0,0.45937500000000003
3.860683130000325,0,0,1.22583125,0,0,0.8421875000000001
3.863937115000226,0,0,1.3575123413085937,0,0,1.1484375
3.867185045000042,0,0,1.2593500732421874,0,0,0.765625
3.870431510999879,0,0,1.3838485595703125,0,0,0.5359375000000001
3.873678163000477,0,0,1.5514426757812498,0,0,-9.340625000000001
3.876935907999723,0,0,0.9983820922851562,0,0,0.6125
3.880236781000349,0,0,1.209071838378906,0,0,0.9953125
3.883487951999996,0,0,1.2401964599609374,0,0,1.0718750000000001
3.886742695999601,0,0,1.5083470458984374,0,0,0.8421875000000001
3.8899878669999453,0,0,1.484405029296875,0,0,0.45937500000000003
3.8932335560002684,0,0,1.254561669921875,0,0,0.6890625
3.896483540999725,0,0,1.2569558715820313,0,0,0.6125
3.899778470000456,0,0,1.3311761230468748,0,0,0.5359375000000001
3.903062307000255,0,0,1.4006079711914061,0,0,0.3828125
3.906312236999838,0,0,1.2569558715820313,0,0,0.6125
3.90956196299976,0,0,1.2808978881835937,0,0,0.8421875000000001
3.9128096699996604,0,0,1.4796166259765624,0,0,1.0718750000000001
3.9160557479999625,0,0,1.2665326782226562,0,0,0.9953125
3.9193198439998014,0,0,1.3000515014648437,0,0,0.6125
3.9225687919997654,0,0,1.4700398193359374,0,0,0.45937500000000003
3.925815741000406,0,0,1.43652099609375,0,0,0.765625
3.9290625410003486,0,0,1.2521674682617188,0,0,0.6890625
3.9323099700004605,0,0,1.3072341064453123,0,0,0.9187500000000001
3.935584417999962,0,0,1.465251416015625,0,0,0.6890625
3.938833459000307,0,0,1.3048399047851562,0,0,0.9187500000000001
3.942081111000334,0,0,1.254561669921875,0,0,0.6125
3.945330763000129,0,0,1.3838485595703125,0,0,1.0718750000000001
3.9486703210004634,0,0,1.2378022583007813,0,0,0.5359375000000001
3.9519596390000515,0,0,1.3072341064453123,0,0,0.0
3.9552023289998033,0,0,1.484405029296875,0,0,0.765625
3.958449851000296,0,0,1.2665326782226562,0,0,0.8421875000000001
3.9616979100001117,0,0,1.2689268798828124,0,0,0.9187500000000001
3.964945431999695,0,0,1.5227122558593749,0,0,0.9187500000000001
3.968194770000082,0,0,1.22583125,0,0,-8.728125
3.9714431069996863,0,0,1.177947216796875,0,0,0.765625
3.9746962030003488,0,0,1.5346832641601562,0,0,0.9187500000000001
3.9779433730000164,0,0,1.4724340209960938,0,0,1.0718750000000001
3.981233561999943,0,0,1.3168109130859373,0,0,0.6890625
3.9844843990003938,0,0,1.2856862915039062,0,0,0.5359375000000001
3.987761364999642,0,0,1.6519991455078125,0,0,0.8421875000000001
3.9910090539997327,0,0,1.2976572998046874,0,0,0.5359375000000001
3.994282650999594,0,0,1.2497732666015624,0,0,0.765625
3.997548413000004,0,0,1.3551181396484375,0,0,0.8421875000000001
4.0008052499997575,0,0,1.2808978881835937,0,0,0.8421875000000001
4.0040609759998915,0,0,1.24498486328125,0,0,0.45937500000000003
4.0073133129999405,0,0,1.2976572998046874,0,0,0.9187500000000001
4.010582761000478,0,0,1.2713210815429687,0,0,0.8421875000000001
4.0138513580004656,0,0,1.2761094848632812,0,0,0.45937500000000003
4.017097527999795,0,0,1.4053963745117186,0,0,0.9187500000000001
4.020374235000418,0,0,1.3263877197265623,0,0,0.765625
4.023627182999917,0,0,1.2880804931640624,0,0,1.1484375
4.026873945999796,0,0,1.4125789794921875,0,0,0.8421875000000001
4.030119949999971,0,0,1.4437036010742186,0,0,0.6890625
4.033367379999618,0,0,1.2641384765625,0,0,0.45937500000000003
4.036670919999779,0,0,1.4724340209960938,0,0,0.6890625
4.039956090000487,0,0,1.5298948608398437,0,0,0.6890625
4.043202001000282,0,0,1.1061211669921875,0,0,0.6125
4.046457616000225,0,0,1.6112977172851561,0,0,0.6890625
4.04970847200002,0,0,1.5945383056640625,0,0,0.6125
4.052956939000069,0,0,1.22583125,0,0,0.9187500000000001
4.056203146000371,0,0,1.4939818359375,0,0,0.6890625
4.059854905000066,0,0,1.6615759521484375,0,0,0.6890625
4.063099038000473,0,0,1.448492004394531,0,0,0.9953125
4.066335782999886,0,0,1.0917559570312498,0,0,0.6125
4.069573157000377,0,0,1.3551181396484375,0,0,0.9187500000000001
4.07282710599975,0,0,1.3311761230468748,0,0,0.6125
4.0760823869995875,0,0,1.1875240234375,0,0,0.5359375000000001
4.079376335000234,0,0,1.4437036010742186,0,0,0.8421875000000001
4.082629857000029,0,0,1.3527239379882812,0,0,0.6890625
4.0858646389997375,0,0,1.3072341064453123,0,0,0.8421875000000001
4.089116215999638,0,0,1.5083470458984374,0,0,0.765625
4.092367887000364,0,0,1.3958195678710936,0,0,1.0718750000000001
4.095618094000201,0,0,1.3048399047851562,0,0,1.225
4.098866987000292,0,0,1.388636962890625,0,0,0.9187500000000001
4.102118824000172,0,0,1.448492004394531,0,0,0.9953125
4.105367383000157,0,0,1.2713210815429687,0,0,0.5359375000000001
4.108620109000185,0,0,1.2617442749023438,0,0,0.5359375000000001
4.1118685210003605,0,0,1.6472107421875,0,0,0.9187500000000001
4.11511358000007,0,0,1.3287819213867187,0,0,0.9953125
4.118408397999701,0,0,1.2521674682617188,0,0,0.5359375000000001
4.121664291000343,0,0,1.3814543579101561,0,0,0.6125
4.124945163999655,0,0,1.3120225097656248,0,0,1.0718750000000001
4.1282165940001505,0,0,1.2473790649414063,0,0,0.3828125
4.131472097999904,0,0,1.4245499877929686,0,0,0.6890625
4.134767638000085,0,0,1.4173673828125,0,0,0.45937500000000003
4.138026067999817,0,0,1.20667763671875,0,0,-9.1875
4.141278459999739,0,0,1.5131354492187499,0,0,0.765625
4.144529481999598,0,0,1.2593500732421874,0,0,0.765625
4.147779486000218,0,0,1.2880804931640624,0,0,1.1484375
4.151025971000308,0,0,1.446097802734375,0,0,0.9953125
4.154275419999976,0,0,1.4125789794921875,0,0,1.1484375
4.157525349000025,0,0,1.2689268798828124,0,0,0.3828125
4.160785908999969,0,0,1.429338391113281,0,0,0.765625
4.1640382269997644,0,0,1.5203180541992187,0,0,0.8421875000000001
4.167288026999813,0,0,1.3000515014648437,0,0,0.8421875000000001
4.170537326999693,0,0,1.2808978881835937,0,0,1.1484375
4.173787089999678,0,0,1.5753846923828123,0,0,0.8421875000000001
4.177069242000471,0,0,1.2856862915039062,0,0,0.8421875000000001
4.180362633999721,0,0,1.2713210815429687,0,0,0.8421875000000001
4.1836141009998755,0,0,1.39821376953125,0,0,0.8421875000000001
4.18686327100022,0,0,1.2832920898437499,0,0,0.9187500000000001
4.190111607999825,0,0,1.3670891479492187,0,0,0.153125
4.193360408000444,0,0,1.4173673828125,0,0,0.765625
4.196984148999945,0,0,1.2593500732421874,0,0,0.9187500000000001
4.200316393000321,0,0,1.2401964599609374,0,0,0.765625
4.20357176699963,0,0,1.5131354492187499,0,0,1.378125
4.206814363000376,0,0,1.2880804931640624,0,0,0.5359375000000001
4.210061663000488,0,0,1.24498486328125,0,0,1.9140625000000002
