Time (s),Accel X,Accel Y,Accel Z,Gyro X,Gyro Y,Gyro Z,Temperature (C)
0.015508875992964022,-1.0342951171875,-9.710881933593749,1.1923124267578125,0,0,0,0
0.01838141999905929,-0.8762778076171874,-9.598354455566406,1.3000515014648437,0,0,0,0
0.021332536998670548,-0.7278373046875,-9.581595043945311,1.3527239379882812,0,0,0,0
0.024189396994188428,-0.7038952880859375,-9.686939916992188,1.3766659545898436,0,0,0,0
0.02698208999936469,-0.8954314208984374,-9.708487731933593,1.2665326782226562,0,0,0,0
0.03009248299349565,-0.9121908325195311,-9.524134204101562,1.3359645263671873,0,0,0,0
0.03296236100140959,-0.6871358764648438,-9.519345800781249,1.3359645263671873,0,0,0,0
0.03594273800263181,-0.737414111328125,-9.72285294189453,1.1180921752929687,0,0,0,0
0.03933694299485069,-0.967257470703125,-9.64623848876953,1.2713210815429687,0,0,0,0
0.04254909500014037,-0.8834604125976562,-9.457096557617186,1.254561669921875,0,0,0,0
0.04571515500720125,-0.6177040283203125,-9.622296472167967,1.350329736328125,0,0,0,0
0.04897308400541078,-0.8355763793945312,-9.727641345214844,1.1611878051757811,0,0,0,0
0.05209051400015596,-0.9121908325195311,-9.557653027343749,1.1707646118164061,0,0,0,0
0.054864392994204536,-0.7038952880859375,-9.552864624023437,1.35990654296875,0,0,0,0
0.05810976699285675,-0.7637503295898437,-9.725247143554688,1.1707646118164061,0,0,0,0
0.06119160499656573,-0.9002198242187499,-9.698910925292969,1.197100830078125,0,0,0,0
0.06447346000641119,-0.8786720092773437,-9.576806640625,1.2904746948242187,0,0,0,0
0.06736630000523292,-0.6775590698242188,-9.564835632324218,1.2617442749023438,0,0,0,0
0.07015278999460861,-0.8212111694335937,-9.756371765136718,1.180341418457031,0,0,0,0
0.07281011399754789,-0.8906430175781249,-9.80665,1.1827356201171875,0,0,0,0
0.07578176799870562,-0.8475473876953125,-9.533711010742186,1.24498486328125,0,0,0,0
0.07881529199949,-0.679953271484375,-9.514557397460937,1.1923124267578125,0,0,0,0
0.08198164800705854,-0.842758984375,-9.660603698730467,1.3766659545898436,0,0,0,0
0.084950228992966,-0.9648632690429687,-9.595960253906249,1.2497732666015624,0,0,0,0
0.08779668000352103,-0.8092401611328125,-9.600748657226562,1.2473790649414063,0,0,0,0
0.09080077899852768,-0.6392518432617187,-9.624690673828125,1.2737152832031249,0,0,0,0
0.0938757469994016,-0.7996633544921875,-9.686939916992188,1.1827356201171875,0,0,0,0
0.09603116899961606,-0.9050082275390624,-9.639055883789062,1.2042834350585936,0,0,0,0
0.09751315400353633,-0.86191259765625,-9.564835632324218,1.1731588134765625,0,0,0,0
0.09882680700684432,-0.8810662109374999,-9.56962403564453,1.20667763671875,0,0,0,0
0.10001816500152927,-0.7829039428710937,-9.533711010742186,1.0917559570312498,0,0,0,0
0.10121942999830935,-0.679953271484375,-9.572018237304688,1.1851298217773436,0,0,0,0
0.10250578699924517,-0.6536170532226562,-9.595960253906249,1.177947216796875,0,0,0,0
0.10384114300541114,-0.7637503295898437,-9.651026892089844,1.1540052001953125,0,0,0,0
0.10519844399823342,-0.8643067993164062,-9.701305126953125,1.2401964599609374,0,0,0,0
0.10647346799669322,-0.9193734375,-9.617508068847656,1.2330138549804688,0,0,0,0
0.10761080800148193,-0.967257470703125,-9.686939916992188,1.2497732666015624,0,0,0,0
0.10893994200159796,-0.8403647827148437,-9.593566052246093,1.2569558715820313,0,0,0,0
0.11022505900473334,-0.7541735229492187,-9.528922607421874,1.3263877197265623,0,0,0,0
0.11155995199806057,-0.70868369140625,-9.526528405761718,1.2832920898437499,0,0,0,0
0.11271214399312157,-0.7038952880859375,-9.516951599121093,1.2952630981445312,0,0,0,0
0.11381444700236898,-0.6943184814453125,-9.595960253906249,1.3192051147460937,0,0,0,0
0.11490571399917826,-0.6584054565429687,-9.643844287109374,1.22583125,0,0,0,0
0.11599361000116915,-0.9145850341796874,-9.689334118652344,1.149216796875,0,0,0,0
0.1172437820059713,-0.9840168823242187,-9.686939916992188,1.2497732666015624,0,0,0,0
0.11850141700415406,-0.8954314208984374,-9.643844287109374,1.1947066284179686,0,0,0,0
0.11985771800391376,-0.8858546142578124,-9.631873278808593,1.197100830078125,0,0,0,0
0.1210693530010758,-0.8451531860351562,-9.588777648925781,1.2928688964843749,0,0,0,0
0.12227339600212872,-0.7733271362304687,-9.595960253906249,1.3120225097656248,0,0,0,0
0.1236454930040054,-0.7445967163085937,-9.629479077148437,1.2713210815429687,0,0,0,0
0.12498984999547247,-0.7637503295898437,-9.567229833984374,1.1420341918945311,0,0,0,0
0.12632118799956515,-0.699106884765625,-9.706093530273437,1.1731588134765625,0,0,0,0
0.12774850599817,-0.8499415893554687,-9.744400756835937,1.197100830078125,0,0,0,0
0.12915365799563006,-0.9145850341796874,-9.65342109375,1.235408056640625,0,0,0,0
0.13061301299603656,-0.8475473876953125,-9.60793126220703,1.3072341064453123,0,0,0,0
0.13211640500230715,-0.8259995727539062,-9.504980590820312,1.2808978881835937,0,0,0,0
0.13348755800689105,-0.7038952880859375,-9.497797985839844,1.3670891479492187,0,0,0,0
0.13492237600439694,-0.7350199096679687,-9.521740002441407,1.1947066284179686,0,0,0,0
0.13633360200037714,-0.6679822631835937,-9.641450085449218,1.209071838378906,0,0,0,0
0.1377646979963174,-0.814028564453125,-9.701305126953125,1.1827356201171875,0,0,0,0
0.13904766700579785,-0.8906430175781249,-9.701305126953125,1.2832920898437499,0,0,0,0
0.1403428750054445,-0.9241618408203125,-9.662997900390625,1.218648645019531,0,0,0,0
0.14159473299514502,-0.9337386474609375,-9.639055883789062,1.2952630981445312,0,0,0,0
0.14294118199904915,-0.9145850341796874,-9.593566052246093,1.2689268798828124,0,0,0,0
0.1444496479962254,-0.6919242797851562,-9.490615380859374,1.3096283081054687,0,0,0,0
0.14588805900712032,-0.6488286499023437,-9.53131680908203,1.2832920898437499,0,0,0,0
0.14715436000551563,-0.718260498046875,-9.598354455566406,1.3072341064453123,0,0,0,0
0.14857740100705996,-0.7781155395507812,-9.662997900390625,1.3431471313476562,0,0,0,0
0.1500079050019849,-0.8667010009765624,-9.80665,1.1516109985351561,0,0,0,0
0.15139500099758152,-0.9026140258789062,-9.689334118652344,1.1540052001953125,0,0,0,0
0.15264495099836495,-0.9097966308593749,-9.679757312011718,1.2665326782226562,0,0,0,0
0.15416919499693904,-0.8930372192382812,-9.550470422363281,1.235408056640625,0,0,0,0
0.15565595700172707,-0.7565677246093749,-9.457096557617186,1.3192051147460937,0,0,0,0
0.15705414599506184,-0.699106884765625,-9.552864624023437,1.2880804931640624,0,0,0,0
0.1584081509936368,-0.6775590698242188,-9.555258825683593,1.1324573852539062,0,0,0,0
0.15983728399442043,-0.6847416748046875,-9.588777648925781,1.1516109985351561,0,0,0,0
0.1613300830067601,-0.6919242797851562,-9.636661682128906,1.158793603515625,0,0,0,0
0.16293982599745505,-0.9457096557617187,-9.782707983398437,1.2042834350585936,0,0,0,0
0.1644898469967302,-0.8930372192382812,-9.605537060546874,1.2330138549804688,0,0,0,0
0.1660220530029619,-0.7948749511718749,-9.502586389160156,1.2952630981445312,0,0,0,0
0.16755496300174855,-0.7015010864257812,-9.471461767578125,1.3287819213867187,0,0,0,0
0.16893485600303393,-0.6272808349609375,-9.548076220703125,1.149216796875,0,0,0,0
0.17037554499984253,-0.7134720947265625,-9.627084875488281,1.139639990234375,0,0,0,0
0.1716922350024106,-0.9193734375,-9.665392102050781,1.1420341918945311,0,0,0,0
0.17312451600446366,-0.9433154541015625,-9.70369932861328,1.1061211669921875,0,0,0,0
0.17468364800151903,-0.9241618408203125,-9.641450085449218,0.9911994873046874,0,0,0,0
0.1761987810023129,-0.9696516723632812,-9.564835632324218,1.149216796875,0,0,0,0
0.1775653219956439,-0.7781155395507812,-9.552864624023437,1.254561669921875,0,0,0,0
0.17891532699286472,-0.74699091796875,-9.5384994140625,1.3575123413085937,0,0,0,0
0.1804432920034742,-0.7015010864257812,-9.555258825683593,1.3311761230468748,0,0,0,0
0.18209310800011735,-0.6607996582031249,-9.651026892089844,1.2330138549804688,0,0,0,0
0.1836583510012133,-0.8451531860351562,-9.737218151855469,1.1109095703125,0,0,0,0
0.18501957799890079,-0.8667010009765624,-9.720458740234374,1.1659762084960936,0,0,0,0
0.1867550970055163,-0.9121908325195311,-9.658209497070311,1.2521674682617188,0,0,0,0
0.18831589599722065,-0.7948749511718749,-9.540893615722656,1.189918225097656,0,0,0,0
0.19009815499885008,-0.7565677246093749,-9.536105212402344,1.235408056640625,0,0,0,0
0.19157460299902596,-0.679953271484375,-9.560047229003906,1.2928688964843749,0,0,0,0
0.1929156809928827,-0.6727706665039062,-9.509768994140625,1.2114660400390624,0,0,0,0
0.19433424099406693,-0.8475473876953125,-9.648632690429688,1.2114660400390624,0,0,0,0
0.19566683800076135,-0.8667010009765624,-9.679757312011718,1.0845733520507812,0,0,0,0
0.1969305649981834,-0.9241618408203125,-9.655815295410155,1.1611878051757811,0,0,0,0
0.19830673599790316,-0.8978256225585937,-9.567229833984374,1.2210428466796874,0,0,0,0
0.1998051470000064,-0.7972691528320313,-9.648632690429688,1.1827356201171875,0,0,0,0
0.201250076002907,-0.7254431030273437,-9.526528405761718,1.2761094848632812,0,0,0,0
0.20251713700417895,-0.6919242797851562,-9.593566052246093,1.2832920898437499,0,0,0,0
0.203882567002438,-0.7254431030273437,-9.605537060546874,1.3168109130859373,0,0,0,0
0.20512581399816554,-0.6655880615234374,-9.6917283203125,1.2210428466796874,0,0,0,0
0.20634481900196988,-0.8355763793945312,-9.658209497070311,1.24498486328125,0,0,0,0
0.20746669700019993,-0.9217676391601562,-9.698910925292969,1.218648645019531,0,0,0,0
0.20856687000195961,-0.9816226806640624,-9.665392102050781,1.209071838378906,0,0,0,0
0.20985802399809472,-0.9313444458007812,-9.78031378173828,1.149216796875,0,0,0,0
0.21101765999628697,-0.8643067993164062,-9.504980590820312,1.189918225097656,0,0,0,0
0.21221270300156903,-0.814028564453125,-9.524134204101562,1.2832920898437499,0,0,0,0
0.2133318389969645,-0.6296750366210937,-9.555258825683593,1.3072341064453123,0,0,0,0
0.21455165999941528,-0.7015010864257812,-9.548076220703125,1.2665326782226562,0,0,0,0
0.21595407200220507,-0.7062894897460937,-9.629479077148437,1.1659762084960936,0,0,0,0
0.21728272399923299,-0.9097966308593749,-9.679757312011718,1.2401964599609374,0,0,0,0
0.21856258099433035,-0.8499415893554687,-9.720458740234374,1.2306196533203124,0,0,0,0
0.21981586499896366,-0.9265560424804687,-9.636661682128906,1.2210428466796874,0,0,0,0
0.2209804269950837,-0.9217676391601562,-9.581595043945311,1.20667763671875,0,0,0,0
0.22215150699776132,-0.82360537109375,-9.490615380859374,1.2042834350585936,0,0,0,0
0.22325845899467822,-0.7206546997070312,-9.507374792480467,1.254561669921875,0,0,0,0
0.22436085500521585,-0.7613561279296874,-9.457096557617186,1.2210428466796874,0,0,0,0
0.22556178699596785,-0.7015010864257812,-9.548076220703125,1.2473790649414063,0,0,0,0
0.2267529039963847,-0.6631938598632812,-9.60793126220703,1.197100830078125,0,0,0,0
0.227918207005132,-0.7445967163085937,-9.543287817382812,1.2785036865234374,0,0,0,0
0.22902347300259862,-0.8954314208984374,-9.689334118652344,1.1707646118164061,0,0,0,0
0.23023034899961203,-0.8810662109374999,-9.651026892089844,1.139639990234375,0,0,0,0
0.23152450199995656,-0.9433154541015625,-9.660603698730467,1.1037269653320312,0,0,0,0
0.2327925999998115,-0.8571241943359375,-9.576806640625,1.2425906616210938,0,0,0,0
0.23392084799706936,-0.7876923461914062,-9.49300958251953,1.2234370483398436,0,0,0,0
0.23521514900494367,-0.6943184814453125,-9.564835632324218,1.216254443359375,0,0,0,0
0.23648745099490043,-0.7422025146484375,-9.560047229003906,1.3311761230468748,0,0,0,0
0.2378121219953755,-0.7637503295898437,-9.519345800781249,1.2306196533203124,0,0,0,0
0.23894207300327253,-0.7350199096679687,-9.686939916992188,1.1707646118164061,0,0,0,0
0.24004846900061239,-0.8882488159179687,-9.686939916992188,1.2210428466796874,0,0,0,0
0.24134277099801693,-0.9026140258789062,-9.643844287109374,1.2641384765625,0,0,0,0
0.2425614800013136,-0.9074024291992187,-9.679757312011718,1.189918225097656,0,0,0,0
0.2437807639944367,-0.8667010009765624,-9.598354455566406,1.2904746948242187,0,0,0,0
0.24506480600393843,-0.8092401611328125,-9.528922607421874,1.2785036865234374,0,0,0,0
0.24650262499926612,-0.6847416748046875,-9.528922607421874,1.0941501586914062,0,0,0,0
0.2479579609935172,-0.6655880615234374,-9.576806640625,1.3000515014648437,0,0,0,0
0.24937068700091913,-0.7302315063476562,-9.65342109375,1.2952630981445312,0,0,0,0
0.25069161799910944,-0.814028564453125,-9.658209497070311,1.2234370483398436,0,0,0,0
0.252003789995797,-0.9097966308593749,-9.763554370117188,1.2234370483398436,0,0,0,0
0.2532997020025505,-0.8906430175781249,-9.64623848876953,1.1731588134765625,0,0,0,0
0.2545750410063192,-0.8283937744140625,-9.617508068847656,1.2904746948242187,0,0,0,0
0.2558191940042889,-0.852335791015625,-9.548076220703125,1.2976572998046874,0,0,0,0
0.25695036799879745,-0.8858546142578124,-9.471461767578125,1.2880804931640624,0,0,0,0
0.25805707900144625,-0.6703764648437499,-9.550470422363281,1.3072341064453123,0,0,0,0
0.2593162690027384,-0.7589619262695312,-9.545682019042967,1.2713210815429687,0,0,0,0
0.2605789969966281,-0.7230489013671875,-9.662997900390625,1.2042834350585936,0,0,0,0
0.26187759499589447,-0.7924807495117187,-9.70369932861328,1.1923124267578125,0,0,0,0
0.26313641500019,-0.9792284790039062,-9.744400756835937,1.20667763671875,0,0,0,0
0.26435066100384574,-0.9696516723632812,-9.660603698730467,1.2210428466796874,0,0,0,0
0.2655587600020226,-0.948103857421875,-9.706093530273437,1.2880804931640624,0,0,0,0
0.26693306099332403,-0.8355763793945312,-9.617508068847656,1.3120225097656248,0,0,0,0
0.2682711579982424,-0.7302315063476562,-9.540893615722656,1.2641384765625,0,0,0,0
0.2696600320050493,-0.70868369140625,-9.550470422363281,1.2713210815429687,0,0,0,0
0.27084070499404334,-0.6967126831054687,-9.5384994140625,1.2425906616210938,0,0,0,0
0.2720841179980198,-0.6847416748046875,-9.648632690429688,1.2210428466796874,0,0,0,0
0.27328286500414833,-0.8595183959960937,-9.715670336914062,1.180341418457031,0,0,0,0
0.2744556859979639,-0.9313444458007812,-9.765948571777344,1.1133037719726562,0,0,0,0
0.2755685629963409,-0.8738836059570312,-9.775525378417969,1.1755530151367186,0,0,0,0
0.2766645520023303,-0.9145850341796874,-9.670180505371093,1.3072341064453123,0,0,0,0
0.2777660220017424,-0.9552864624023437,-9.600748657226562,1.3048399047851562,0,0,0,0
0.2790550270001404,-0.7948749511718749,-9.567229833984374,1.2880804931640624,0,0,0,0
0.28051890099595767,-0.6416460449218749,-9.488221179199218,1.2018892333984375,0,0,0,0
0.28174779600522015,-0.6560112548828124,-9.574412438964844,1.2832920898437499,0,0,0,0
0.28297298699908424,-0.6703764648437499,-9.627084875488281,1.350329736328125,0,0,0,0
0.28430397300689947,-0.7876923461914062,-9.674968908691406,1.2832920898437499,0,0,0,0
0.28571406900300644,-0.86191259765625,-9.770736975097655,1.1420341918945311,0,0,0,0
0.2872244239988504,-0.9864110839843749,-9.662997900390625,1.1037269653320312,0,0,0,0
0.2886001500010025,-0.9121908325195311,-9.6151138671875,1.1875240234375,0,0,0,0
0.28980611900624353,-0.8092401611328125,-9.519345800781249,1.2210428466796874,0,0,0,0
0.2911599009967176,-0.6871358764648438,-9.536105212402344,1.235408056640625,0,0,0,0
0.29248588799964637,-0.6775590698242188,-9.555258825683593,1.3479355346679687,0,0,0,0
0.29369963399949484,-0.7015010864257812,-9.598354455566406,1.2665326782226562,0,0,0,0
0.29480884500662796,-0.7015010864257812,-9.665392102050781,1.120486376953125,0,0,0,0
0.2959202039928641,-0.86191259765625,-9.730035546875,1.2473790649414063,0,0,0,0
0.29723204199399333,-0.8403647827148437,-9.660603698730467,1.1827356201171875,0,0,0,0
0.29845647400361486,-0.8954314208984374,-9.68454571533203,1.2018892333984375,0,0,0,0
0.2995827400009148,-0.8403647827148437,-9.591171850585937,1.2832920898437499,0,0,0,0
0.30080676400393713,-0.8810662109374999,-9.605537060546874,1.3048399047851562,0,0,0,0
0.3019786219956586,-0.8355763793945312,-9.519345800781249,1.2976572998046874,0,0,0,0
0.3032933310023509,-0.7206546997070312,-9.509768994140625,1.2761094848632812,0,0,0,0
0.3046115579927573,-0.679953271484375,-9.567229833984374,1.254561669921875,0,0,0,0
0.30588278599316254,-0.7015010864257812,-9.64623848876953,1.2330138549804688,0,0,0,0
0.3071928279969143,-0.8044517578125,-9.658209497070311,1.2401964599609374,0,0,0,0
0.30850311000540387,-0.852335791015625,-9.701305126953125,1.1635820068359375,0,0,0,0
0.3098727259930456,-0.7876923461914062,-9.643844287109374,1.2808978881835937,0,0,0,0
0.31118947100185324,-0.8690952026367187,-9.543287817382812,1.2641384765625,0,0,0,0
0.31236866299877875,-0.8403647827148437,-9.526528405761718,1.369483349609375,0,0,0,0
0.3136381490039639,-0.8403647827148437,-9.399635717773437,1.209071838378906,0,0,0,0
0.3149127659999067,-0.699106884765625,-9.593566052246093,1.2306196533203124,0,0,0,0
0.3161117529962212,-0.6919242797851562,-9.610325463867188,1.2306196533203124,0,0,0,0
0.31747846100188326,-0.7517793212890624,-9.68454571533203,1.1707646118164061,0,0,0,0
0.3187663370044902,-0.8786720092773437,-9.689334118652344,1.2042834350585936,0,0,0,0
0.32013002700114157,-0.8978256225585937,-9.689334118652344,1.209071838378906,0,0,0,0
0.3215568260056898,-0.9409212524414062,-9.56962403564453,1.1659762084960936,0,0,0,0
0.32282270200084895,-0.7876923461914062,-9.564835632324218,1.1851298217773436,0,0,0,0
0.32408643000235315,-0.7805097412109374,-9.598354455566406,1.22583125,0,0,0,0
0.32527634300640784,-0.6679822631835937,-9.488221179199218,1.369483349609375,0,0,0,0
0.32653757100342773,-0.7134720947265625,-9.579200842285156,1.2617442749023438,0,0,0,0
0.32778818800579756,-0.6584054565429687,-9.643844287109374,1.2713210815429687,0,0,0,0
0.329078655995545,-0.7637503295898437,-9.670180505371093,1.197100830078125,0,0,0,0
0.33036490199447144,-0.8595183959960937,-9.732429748535155,1.1324573852539062,0,0,0,0
0.3316492960002506,-0.8930372192382812,-9.662997900390625,1.16837041015625,0,0,0,0
0.3330376520025311,-0.9121908325195311,-9.598354455566406,1.199495031738281,0,0,0,0
0.33434052699885797,-0.8092401611328125,-9.6151138671875,1.2665326782226562,0,0,0,0
0.33574614199460484,-0.8906430175781249,-9.516951599121093,1.2473790649414063,0,0,0,0
0.3370200549979927,-0.5985504150390625,-9.562441430664062,1.2617442749023438,0,0,0,0
0.338241449004272,-0.6727706665039062,-9.576806640625,1.3287819213867187,0,0,0,0
0.3396220650029136,-0.7278373046875,-9.696516723632811,1.180341418457031,0,0,0,0
0.3409407180006383,-0.8762778076171874,-9.6917283203125,1.2018892333984375,0,0,0,0
0.3422043710015714,-0.8906430175781249,-9.708487731933593,1.2114660400390624,0,0,0,0
0.3433218230056809,-0.9864110839843749,-9.701305126953125,1.1420341918945311,0,0,0,0
0.344555717005278,-0.9720458740234375,-9.6151138671875,1.2378022583007813,0,0,0,0
0.34581149999576155,-0.8643067993164062,-9.533711010742186,1.3239935180664062,0,0,0,0
0.3471018389973324,-0.7900865478515624,-9.543287817382812,1.2737152832031249,0,0,0,0
0.34840926999459043,-0.689530078125,-9.516951599121093,1.2617442749023438,0,0,0,0
0.34966881200671196,-0.6727706665039062,-9.588777648925781,1.3120225097656248,0,0,0,0
0.3507919120020233,-0.6464344482421874,-9.6917283203125,1.2641384765625,0,0,0,0
0.3518925670068711,-0.814028564453125,-9.751583361816406,1.2138602416992186,0,0,0,0
0.3529901480069384,-0.9265560424804687,-9.6917283203125,1.2282254516601563,0,0,0,0
0.35417139499622863,-0.9552864624023437,-9.715670336914062,1.2904746948242187,0,0,0,0
0.35538916000223253,-0.9864110839843749,-9.643844287109374,1.216254443359375,0,0,0,0
0.3565182970050955,-0.9433154541015625,-9.533711010742186,1.1372457885742187,0,0,0,0
0.3577154319937108,-0.9169792358398436,-9.524134204101562,1.1707646118164061,0,0,0,0
0.35896215999673586,-0.7062894897460937,-9.543287817382812,1.2521674682617188,0,0,0,0
0.3602620909950929,-0.6727706665039062,-9.536105212402344,1.2425906616210938,0,0,0,0
0.3616156880016206,-0.6943184814453125,-9.598354455566406,1.2856862915039062,0,0,0,0
0.3629209520004224,-0.814028564453125,-9.682151513671874,1.24498486328125,0,0,0,0
0.3643155489990022,-0.8595183959960937,-9.682151513671874,1.177947216796875,0,0,0,0
0.36561268400691915,-0.8595183959960937,-9.962273107910155,1.0510545288085937,0,0,0,0
0.3669623180030612,0.5363011718749999,-10.730811840820312,0.5291185668945312,0,0,0,0
0.3685998010041658,1.9847931762695312,-10.692504614257812,-0.8882488159179687,0,0,0,0
0.3700857299991185,1.3862427612304686,-10.991779821777342,-2.1715409057617188,0,0,0,0
0.37164995400235057,0.05746083984375,-9.634267480468749,-4.963180041503906,0,0,0,0
0.3728550340019865,-2.3822306518554686,-9.74200655517578,-6.1459156616210935,0,0,0,0
0.3739718750002794,-2.7533319091796873,-9.390058911132812,-6.9168485961914055,0,0,0,0
0.37530378700466827,-3.7421371948242186,-8.75320126953125,-7.407659936523437,0,0,0,0
0.3767032169998856,-4.697423657226563,-8.008604553222655,-7.182604980468749,0,0,0,0
0.3780214989965316,-4.637568615722656,-7.953537915039062,-6.337451794433593,0,0,0,0
0.37925693100260105,-4.139574670410156,-7.589619262695312,-4.900930798339844,0,0,0,0
0.38038440099626314,-3.909731311035156,-7.635109094238281,-1.3048399047851562,0,0,0,0
0.3816040730016539,-2.5450363647460934,-9.141061938476563,0.6823474731445313,0,0,0,0
0.3829417259985348,0.5746083984375,-8.908824377441405,2.93050283203125,0,0,0,0
0.38419061999593396,2.185906115722656,-9.813832604980469,4.690241052246093,0,0,0,0
0.38531110899930354,3.8379052612304685,-10.639832177734375,7.208941198730468,0,0,0,0
0.38665237299574073,4.187458703613281,-9.775525378417969,7.81467421875,0,0,0,0
0.3879767659964273,2.4492682983398435,-9.509768994140625,7.644685900878906,0,0,0,0
0.3892741419986123,1.8195932617187498,-9.291896643066405,6.306327172851562,0,0,0,0
0.39058251699316315,1.1516109985351561,-8.84178673095703,5.154716174316406,0,0,0,0
0.39170033899426926,0.0526724365234375,-9.524134204101562,3.835511059570312,0,0,0,0
0.3928031050018035,-0.229843359375,-10.635043774414061,2.384624853515625,0,0,0,0
0.39409596199402586,-0.737414111328125,-10.654197387695312,1.1540052001953125,0,0,0,0
0.395267319996492,-1.5107412475585937,-10.59194814453125,-1.1037269653320312,0,0,0,0
0.3965385290066479,-1.9680337646484374,-9.943119494628906,-1.9656395629882812,0,0,0,0
0.39771634999488015,-2.6527754394531247,-9.785102185058593,-2.501940734863281,0,0,0,0
0.39887730100599583,-3.414131567382812,-9.464279162597656,-2.7581203125,0,0,0,0
0.40014843600511085,-4.216189123535156,-9.56962403564453,-2.980781066894531,0,0,0,0
0.4013521640008548,-4.2688615600585935,-10.297461340332031,-2.3678654418945313,0,0,0,0
0.4025655959994765,-3.7325603881835936,-10.587159741210938,-1.2856862915039062,0,0,0,0
0.40368641799432226,-1.9800047729492187,-10.965443603515624,-0.18914193115234373,0,0,0,0
0.4047826099995291,-0.5291185668945312,-11.18571015625,0.9864110839843749,0,0,0,0
0.40587833999597933,0.0526724365234375,-10.421959826660157,2.157175695800781,0,0,0,0
0.4072011779935565,0.3854664672851562,-9.878476049804688,3.883395092773437,0,0,0,0
0.40845683100633323,0.5889736083984375,-9.68454571533203,4.2688615600585935,0,0,0,0
0.4097153549955692,1.0606313354492187,-9.509768994140625,4.611232397460937,0,0,0,0
0.4108613620046526,0.5243301635742187,-9.457096557617186,4.548983154296875,0,0,0,0
0.41212097799871117,0.5482721801757812,-9.9215716796875,4.2880151733398435,0,0,0,0
0.41339161299401894,1.2473790649414063,-9.643844287109374,3.1747114013671873,0,0,0,0
0.4145925269986037,1.2952630981445312,-8.992621435546875,2.427720483398437,0,0,0,0
0.4157666630053427,-0.26336218261718747,-8.674192614746094,1.3934253662109375,0,0,0,0
0.4171239449933637,-0.7038952880859375,-8.207323291015625,-0.2561795776367187,0,0,0,0
0.41859476300305687,-1.2138602416992186,-8.219294299316406,-1.0534487304687499,0,0,0,0
0.4199440450029215,-2.080561242675781,-8.394071020507813,-1.5370774658203123,0,0,0,0
0.4212417539965827,-2.2673089721679687,-8.576030346679687,-1.8315642700195311,0,0,0,0
0.42253036999318283,-2.616862414550781,-8.307879760742187,-1.6472107421875,0,0,0,0
0.42375632100447547,-2.607285607910156,-8.44674345703125,-1.0893617553710937,0,0,0,0
0.42510365799535066,-1.927332336425781,-9.04050546875,0.5243301635742187,0,0,0,0
0.4264609219972044,-1.2593500732421874,-9.516951599121093,1.3527239379882812,0,0,0,0
0.42781394500343595,-0.15562310791015624,-10.036493359375,2.147598889160156,0,0,0,0
0.42909180199785624,0.3687070556640625,-9.909600671386718,3.047818713378906,0,0,0,0
0.4302665489958599,0.7254431030273437,-9.878476049804688,3.9169139160156248,0,0,0,0
0.4315031470032409,1.0199299072265624,-10.244788903808594,3.907337109375,0,0,0,0
0.4326967090019025,0.5913678100585937,-10.304643945312499,3.7134067749023436,0,0,0,0
0.4340877500071656,0.086191259765625,-10.20169327392578,2.8850130004882812,0,0,0,0
0.43535697800689377,-0.5027823486328125,-10.50815108642578,2.1930887207031247,0,0,0,0
0.4365323170059128,-0.6153098266601562,-10.445901843261717,1.6352397338867186,0,0,0,0
0.4379124330007471,-0.7972691528320313,-10.302249743652343,1.1156979736328125,0,0,0,0
0.4393297140049981,-0.7781155395507812,-10.019733947753906,0.0143652099609375,0,0,0,0
0.44078134700248484,-1.8626888916015625,-9.919177478027343,-0.4477157104492187,0,0,0,0
0.44220294400292914,-2.4851813232421875,-9.605537060546874,-0.6751648681640625,0,0,0,0
0.44365157700667623,-1.936909143066406,-10.599130749511717,-0.7158662963867187,0,0,0,0
0.44504861799941864,-1.5921441040039062,-10.345345373535155,0.047884033203124995,0,0,0,0
0.4464391030051047,-1.0845733520507812,-10.182539660644531,0.5123591552734374,0,0,0,0
0.44793097699584905,-0.6823474731445313,-9.888052856445311,0.6655880615234374,0,0,0,0
0.4494025909953052,-0.8379705810546875,-9.165003955078124,1.37906015625,0,0,0,0
0.450804131993209,-1.1444283935546875,-9.083601098632812,1.659181750488281,0,0,0,0
0.4522303209960228,-0.7541735229492187,-9.509768994140625,2.1739351074218747,0,0,0,0
0.4536020850064233,-0.02154781494140625,-9.09796630859375,2.3870190551757813,0,0,0,0
0.4552332339953864,0.469263525390625,-8.932766394042968,2.5378537597656248,0,0,0,0
0.4566699790011626,0.19871873779296872,-8.580818749999999,2.398990063476562,0,0,0,0
0.4581535739998799,-0.6248866333007812,-7.996633544921875,1.9416975463867185,0,0,0,0
0.45950078300666064,-0.9409212524414062,-9.124302526855468,1.6400281372070311,0,0,0,0
0.4609224159939913,-0.105344873046875,-9.14824454345703,1.4101847778320311,0,0,0,0
0.46221353199507575,-0.21787235107421873,-9.428366137695312,1.0510545288085937,0,0,0,0
0.4635876289976295,-0.44053310546874996,-9.540893615722656,0.7038952880859375,0,0,0,0
0.4649489849980455,-0.8403647827148437,-9.327809667968749,0.11013327636718749,0,0,0,0
0.46641137699771207,-1.5251064575195312,-9.495403784179686,-0.047884033203124995,0,0,0,0
0.46787034400040284,-1.886630908203125,-9.765948571777344,0.0047884033203125,0,0,0,0
0.4693201250047423,-1.6400281372070311,-9.938331091308592,0.30885201416015623,0,0,0,0
0.4706399999995483,-0.8882488159179687,-10.223241088867187,0.488417138671875,0,0,0,0
0.47208096699614543,-0.6919242797851562,-10.079588989257813,1.1540052001953125,0,0,0,0
0.47341834199323785,-0.7206546997070312,-9.938331091308592,1.5059528442382812,0,0,0,0
0.474777790994267,-1.465251416015625,-10.070012182617187,1.6472107421875,0,0,0,0
0.47606581400032155,-0.7685387329101562,-10.75714805908203,2.0925322509765625,0,0,0,0
0.47738180099986494,-0.40940848388671874,-10.364498986816406,2.2194249389648437,0,0,0,0
0.4786641020036768,-0.10295067138671875,-10.297461340332031,2.224213342285156,0,0,0,0
0.4800258839968592,-0.19393033447265623,-10.005368737792969,1.7956512451171873,0,0,0,0
0.4812072789936792,-0.4955997436523437,-9.483432775878907,1.5346832641601562,0,0,0,0
0.48249898799986113,-1.4149731811523436,-9.576806640625,1.180341418457031,0,0,0,0
0.4836867169942707,-1.3766659545898436,-9.694122521972655,0.9576806640625,0,0,0,0
0.4849139260040829,-1.1420341918945311,-9.706093530273437,0.63206923828125,0,0,0,0
0.48608845099806786,-1.2042834350585936,-9.576806640625,0.612915625,0,0,0,0
0.48731832699559163,-0.9696516723632812,-9.351751684570312,0.718260498046875,0,0,0,0
0.4889507909974782,-1.3862427612304686,-9.37808790283203,0.9840168823242187,0,0,0,0
0.49021142699348275,-1.6424223388671875,-8.777143286132812,1.1180921752929687,0,0,0,0
0.4913746550009819,-1.89620771484375,-9.481038574218749,1.3096283081054687,0,0,0,0
0.49249966199568007,-0.040701428222656245,-9.17458076171875,1.7573440185546874,0,0,0,0
0.49378857499687,0.2442085693359375,-9.124302526855468,2.020706201171875,0,0,0,0
0.49500008100585546,0.2537853759765625,-9.279925634765624,1.9536685546875,0,0,0,0
0.4961913459992502,0.17956512451171874,-9.234435803222656,1.8291700683593748,0,0,0,0
0.49731642700498924,0.05027823486328125,-9.34696328125,1.5538368774414062,0,0,0,0
0.4987517819972709,-0.8571241943359375,-9.375693701171874,1.3623007446289062,0,0,0,0
0.5001020649942802,-1.01514150390625,-9.433154541015625,0.6823474731445313,0,0,0,0
0.5013907550019212,-0.8451531860351562,-9.157821350097656,0.6536170532226562,0,0,0,0
0.5026302790065529,-0.8092401611328125,-9.215282189941405,0.6081272216796875,0,0,0,0
0.5038065819971962,-0.9457096557617187,-9.208099584960937,0.5434837768554687,0,0,0,0
0.504992588001187,-1.0486603271484374,-9.181763366699219,0.7110778930664062,0,0,0,0
0.5062431300029857,-1.426944189453125,-9.550470422363281,0.7996633544921875,0,0,0,0
0.5073980260058306,-0.7972691528320313,-10.457872851562499,0.9050082275390624,0,0,0,0
0.5089111580018653,-0.33039982910156246,-10.376469995117187,1.458068811035156,0,0,0,0
0.5100547019974329,-0.3136404174804687,-10.570400329589843,1.7190367919921874,0,0,0,0
0.5112214490072802,-0.4213794921875,-10.314220751953124,1.7381904052734374,0,0,0,0
0.512482916994486,-0.5315127685546874,-10.101136804199218,1.5562310791015623,0,0,0,0
0.5136829980037874,-1.0510545288085937,-9.86411083984375,1.5035586425781249,0,0,0,0
0.5149117260007188,-1.4987702392578124,-9.8449572265625,1.158793603515625,0,0,0,0
0.5160187330038752,-1.3718775512695311,-10.110713610839843,1.0630255371093749,0,0,0,0
0.5171083320019534,-0.9576806640625,-9.734823950195311,1.1444283935546875,0,0,0,0
0.5183622640033718,-0.8738836059570312,-9.988609326171874,1.024718310546875,0,0,0,0
0.5196234909963096,-0.9600748657226562,-9.727641345214844,1.1085153686523437,0,0,0,0
0.5211466049950104,-1.2593500732421874,-9.402029919433593,1.2689268798828124,0,0,0,0
0.5226604600029532,-1.47482822265625,-9.351751684570312,1.458068811035156,0,0,0,0
0.5240496860060375,-0.6248866333007812,-9.610325463867188,1.7908628417968748,0,0,0,0
0.5254106539941859,-0.0143652099609375,-9.536105212402344,1.9584569580078124,0,0,0,0
0.5267265470029088,-0.277727392578125,-9.457096557617186,1.8650830932617186,0,0,0,0
0.5279569790000096,-0.40940848388671874,-9.471461767578125,1.3814543579101561,0,0,0,0
0.5291830960049992,-0.5746083984375,-8.973467822265624,1.2665326782226562,0,0,0,0
0.5305789520061808,-1.1516109985351561,-9.014169250488282,1.0079588989257813,0,0,0,0
0.5319863629993051,-0.9504980590820312,-9.425971936035156,0.6536170532226562,0,0,0,0
0.5337160490016686,-0.7493851196289062,-9.052476477050782,0.7637503295898437,0,0,0,0
0.5351453119947109,-0.63206923828125,-9.129090930175781,0.51714755859375,0,0,0,0
0.5365966109966394,-1.6232687255859375,-9.184157568359375,0.5099649536132812,0,0,0,0
0.5378942279930925,-1.6927005737304686,-9.332598071289063,0.8786720092773437,0,0,0,0
0.5390444929944351,-1.7717092285156248,-9.289502441406249,1.0845733520507812,0,0,0,0
0.54015496300417,-0.7134720947265625,-9.715670336914062,1.714248388671875,0,0,0,0
0.5416289109998615,0.3327940307617187,-9.56962403564453,1.85790048828125,0,0,0,0
0.5429174349992536,0.22266075439453123,-9.797073193359374,1.8435352783203125,0,0,0,0
0.5440492189954966,0.12449848632812499,-9.83777462158203,1.7477672119140624,0,0,0,0
0.545157651999034,-0.5099649536132812,-9.81862100830078,1.5059528442382812,0,0,0,0
0.5467771349940449,-1.6400281372070311,-9.97903251953125,1.180341418457031,0,0,0,0
0.5480951219942654,-1.7166425903320313,-9.976638317871092,1.1947066284179686,0,0,0,0
0.5493112020049011,-0.8906430175781249,-9.586383447265625,1.3910311645507811,0,0,0,0
0.550439857004676,-0.49320554199218747,-9.809044201660155,1.4006079711914061,0,0,0,0
0.5519725810008822,-0.6607996582031249,-9.720458740234374,1.218648645019531,0,0,0,0
0.5532387720013503,-1.0223241088867188,-9.74200655517578,1.199495031738281,0,0,0,0
0.5544854259933345,-1.4963760375976562,-9.775525378417969,1.2210428466796874,0,0,0,0
0.5556190799979959,-0.9265560424804687,-10.307038146972655,1.1731588134765625,0,0,0,0
0.5567293469939614,-0.430956298828125,-9.931148486328125,1.448492004394531,0,0,0,0
0.5578311319986824,-0.3064578125,-9.686939916992188,1.62805712890625,0,0,0,0
0.5591758210066473,-0.5961562133789062,-9.665392102050781,1.3383587280273437,0,0,0,0
0.5606115470000077,-0.6631938598632812,-9.476250170898437,1.1348515869140625,0,0,0,0
0.5618846639990807,-0.6679822631835937,-9.090783703613281,0.6943184814453125,0,0,0,0
0.5631125950021669,-1.0510545288085937,-9.507374792480467,0.5482721801757812,0,0,0,0
0.5643947490025312,-0.6440402465820312,-9.619902270507811,0.5386953735351562,0,0,0,0
0.5655920319986762,-0.8044517578125,-9.411606726074218,0.488417138671875,0,0,0,0
0.5671699049999006,-0.7948749511718749,-9.562441430664062,0.5315127685546874,0,0,0,0
0.5683536150027066,-1.350329736328125,-9.337386474609374,0.6368576416015624,0,0,0,0
0.569502565995208,-1.37906015625,-9.323021264648437,0.7685387329101562,0,0,0,0
0.5708435150008881,-1.5131354492187499,-9.205705383300781,1.2473790649414063,0,0,0,0
0.5722078160033561,0.05027823486328125,-9.600748657226562,1.5610194824218748,0,0,0,0
0.5734445989946835,0.33758243408203126,-9.342174877929686,1.908178723144531,0,0,0,0
0.5746469940058887,0.06943184814453125,-9.583989245605467,1.8004396484374998,0,0,0,0
0.5765304189990275,-0.4572925170898437,-9.555258825683593,1.6136919189453125,0,0,0,0
0.5780251630058046,-0.8858546142578124,-9.634267480468749,1.3335703247070312,0,0,0,0
0.5793937410053331,-1.209071838378906,-9.801861596679688,1.20667763671875,0,0,0,0
0.5806716350052739,-0.8212111694335937,-9.8449572265625,1.1085153686523437,0,0,0,0
0.582462246005889,-0.8667010009765624,-9.696516723632811,1.0438719238281249,0,0,0,0
0.5837943799997447,-1.0007762939453124,-9.404424121093749,1.0845733520507812,0,0,0,0
0.5851215889997547,-1.2713210815429687,-9.658209497070311,1.1013327636718748,0,0,0,0
0.5865372779953759,-1.6232687255859375,-9.593566052246093,1.3359645263671873,0,0,0,0
0.587915393000003,-1.0678139404296874,-10.376469995117187,1.649604943847656,0,0,0,0
0.5892115460010245,-0.16519991455078123,-10.019733947753906,1.8052280517578123,0,0,0,0
0.5904070520045934,-0.2657563842773437,-9.969455712890625,1.93451494140625,0,0,0,0
0.5915513920044759,-0.2825157958984375,-9.909600671386718,1.8555062866210936,0,0,0,0
0.5926514739985578,-0.55545478515625,-9.672574707031249,1.438915197753906,0,0,0,0
0.5939206269977149,-1.0271125122070313,-9.289502441406249,1.1372457885742187,0,0,0,0
0.5951972250040853,-1.4963760375976562,-9.581595043945311,1.0342951171875,0,0,0,0
0.5964095459930832,-0.7158662963867187,-9.830592016601562,0.9026140258789062,0,0,0,0
0.5975214049976785,-0.4955997436523437,-9.629479077148437,0.86191259765625,0,0,0,0
0.59861989300407,-0.47644613037109373,-9.81862100830078,0.7733271362304687,0,0,0,0
0.5998425290017622,-0.7206546997070312,-9.555258825683593,0.6416460449218749,0,0,0,0
0.6010186640050961,-1.216254443359375,-9.423577734375,0.5722141967773438,0,0,0,0
0.6021450419939356,-2.051830822753906,-9.052476477050782,0.7445967163085937,0,0,0,0
0.6032538629951887,-1.668758557128906,-9.734823950195311,0.7517793212890624,0,0,0,0
0.6044579620065633,-0.5770026000976562,-9.751583361816406,1.180341418457031,0,0,0,0
0.6057208190031815,-0.05746083984375,-9.356540087890625,1.6927005737304686,0,0,0,0
0.6069495470001129,0.062249243164062495,-9.442731347656249,1.7310078002929687,0,0,0,0
0.6080787579994649,0.2609679809570312,-9.198522778320312,1.7094599853515624,0,0,0,0
0.6092914490000112,-0.3711012573242187,-9.126696728515624,1.5777788940429687,0,0,0,0
0.6105975649988977,-0.9959878906249999,-9.380482104492186,1.0127473022460938,0,0,0,0
0.6118801809934666,-1.5921441040039062,-10.038887561035155,0.9864110839843749,0,0,0,0
0.6130611319968011,-0.9337386474609375,-9.746794958496093,1.0031704956054688,0,0,0,0
0.6143119710031897,-0.6105214233398437,-9.548076220703125,1.0438719238281249,0,0,0,0
0.6155169400008162,-0.6440402465820312,-9.445125549316407,1.1061211669921875,0,0,0,0
0.6167317049985286,-0.9864110839843749,-9.289502441406249,1.0366893188476562,0,0,0,0
0.6179471740033478,-1.2378022583007813,-9.09796630859375,1.0917559570312498,0,0,0,0
0.6191870500042569,-1.2138602416992186,-9.9215716796875,0.9528922607421875,0,0,0,0
0.6204450179939158,-0.41898529052734373,-10.187328063964843,1.2785036865234374,0,0,0,0
0.6216507649951382,-0.34237083740234375,-10.228029492187499,1.5466542724609373,0,0,0,0
0.6229339919955237,-0.3687070556640625,-10.335768566894531,1.6615759521484375,0,0,0,0
0.6242124050040729,-0.5123591552734374,-9.981426721191406,1.656787548828125,0,0,0,0
0.6254767070058733,-0.9050082275390624,-9.562441430664062,1.429338391113281,0,0,0,0
0.6267774709995138,-1.5538368774414062,-9.672574707031249,1.2138602416992186,0,0,0,0
0.6280360880045919,-0.7757213378906249,-10.036493359375,1.0869675537109373,0,0,0,0
0.6293032969988417,-0.5961562133789062,-9.785102185058593,1.1659762084960936,0,0,0,0
0.6305812829959905,-0.6248866333007812,-9.763554370117188,1.0342951171875,0,0,0,0
0.6319125839945627,-0.7110778930664062,-9.291896643066405,1.0845733520507812,0,0,0,0
0.6333139399939682,-0.9361328491210937,-9.100360510253905,1.1180921752929687,0,0,0,0
0.6345000569999684,-1.714248388671875,-8.86094034423828,1.1875240234375,0,0,0,0
0.6356290270050522,-1.2928688964843749,-9.591171850585937,1.3479355346679687,0,0,0,0
0.6367321080033435,-0.7302315063476562,-9.548076220703125,1.4915876342773438,0,0,0,0
0.6379107630054932,-0.430956298828125,-9.720458740234374,1.5346832641601562,0,0,0,0
0.6392233600054169,-0.2561795776367187,-9.540893615722656,1.6735469604492186,0,0,0,0
0.6407569919974776,-0.1005564697265625,-9.117119921875,1.5251064575195312,0,0,0,0
0.6420165720046498,-1.0175357055664063,-9.17458076171875,1.22583125,0,0,0,0
0.6432177999959094,-1.2378022583007813,-9.574412438964844,0.9792284790039062,0,0,0,0
0.6444222319987603,-0.8092401611328125,-9.86411083984375,1.005564697265625,0,0,0,0
0.6457233849941986,-0.8212111694335937,-9.758765966796874,0.6272808349609375,0,0,0,0
0.6470155940041877,-1.0726023437499999,-9.718064538574218,0.6488286499023437,0,0,0,0
0.6482601549942046,-1.3551181396484375,-9.469067565917967,0.7541735229492187,0,0,0,0
0.6493588110024575,-1.3623007446289062,-9.449913952636718,0.9002198242187499,0,0,0,0
0.6504421510035172,-1.6711527587890624,-9.124302526855468,1.1372457885742187,0,0,0,0
0.6517255640064832,-1.2138602416992186,-9.868899243164062,1.5586252807617187,0,0,0,0
0.6528511079959571,-0.430956298828125,-9.737218151855469,2.0087351928710935,0,0,0,0
0.6541316130023915,-0.00718260498046875,-9.85692823486328,2.0374656127929685,0,0,0,0
0.6552678419975564,0.02633621826171875,-9.892841259765625,2.013523596191406,0,0,0,0
0.6565105699992273,-0.062249243164062495,-9.950302099609374,1.649604943847656,0,0,0,0
0.6576988909946522,-0.5027823486328125,-9.773131176757811,1.3431471313476562,0,0,0,0
0.6589471000042977,-1.637633935546875,-9.852139831542969,1.1324573852539062,0,0,0,0
0.6601771239947993,-1.1324573852539062,-9.955090502929687,0.9624690673828125,0,0,0,0
0.6615621840028325,-0.86191259765625,-9.777919580078125,0.7493851196289062,0,0,0,0
0.6633301649999339,-0.8068459594726562,-9.564835632324218,0.6153098266601562,0,0,0,0
0.6647090769984061,-1.177947216796875,-9.349357482910156,0.5410895751953124,0,0,0,0
0.6661254880018532,-1.8746598999023436,-9.0788126953125,0.8379705810546875,0,0,0,0
0.6673576049943222,-1.5514426757812498,-9.70369932861328,0.8259995727539062,0,0,0,0
0.6685544999927515,-0.7062894897460937,-9.866505041503906,1.6711527587890624,0,0,0,0
0.6698932639992563,-0.1771709228515625,-9.830592016601562,1.9728221679687499,0,0,0,0
0.6712253059959039,-0.08140285644531249,-9.789890588378906,2.1116858642578125,0,0,0,0
0.672544792003464,-0.05746083984375,-9.70369932861328,1.9776105712890624,0,0,0,0
0.6737532050028676,-0.27293898925781246,-9.425971936035156,1.675941162109375,0,0,0,0
0.6749608590034768,-0.8978256225585937,-9.545682019042967,1.438915197753906,0,0,0,0
0.6762996229954297,-0.603338818359375,-9.593566052246093,1.3096283081054687,0,0,0,0
0.6776370720035629,-0.6200982299804687,-9.349357482910156,0.833182177734375,0,0,0,0
0.6789338179951301,-0.9193734375,-9.397241516113281,0.7996633544921875,0,0,0,0
0.6800875649933005,-1.2234370483398436,-9.334992272949219,0.612915625,0,0,0,0
0.6811886469949968,-1.369483349609375,-9.512163195800781,0.4285620971679687,0,0,0,0
0.6824400780024007,-1.8363526733398436,-9.220070593261719,0.7206546997070312,0,0,0,0
0.6837956939998548,-1.4628572143554686,-9.868899243164062,1.0917559570312498,0,0,0,0
0.6850532359967474,-0.27293898925781246,-9.701305126953125,1.3479355346679687,0,0,0,0
0.6861708539945539,-0.0718260498046875,-9.969455712890625,1.5275006591796874,0,0,0,0
0.6874135630059754,-0.2561795776367187,-9.777919580078125,1.448492004394531,0,0,0,0
0.6887489749933593,-0.4261678955078125,-9.536105212402344,1.5562310791015623,0,0,0,0
0.6900242959964089,-1.158793603515625,-9.442731347656249,1.4963760375976562,0,0,0,0
0.6912002280005254,-1.2832920898437499,-9.682151513671874,1.2832920898437499,0,0,0,0
0.692935358005343,-0.4955997436523437,-9.70369932861328,1.2713210815429687,0,0,0,0
0.6943074550072197,-0.6440402465820312,-9.617508068847656,1.0965443603515623,0,0,0,0
0.6959626409952762,-1.1875240234375,-9.3852705078125,1.0845733520507812,0,0,0,0
0.6973810710042017,-1.1540052001953125,-9.411606726074218,1.0366893188476562,0,0,0,0
0.6985846699972171,-1.6065093139648436,-9.648632690429688,1.0007762939453124,0,0,0,0
0.6999732849944849,-0.6655880615234374,-9.983820922851562,1.189918225097656,0,0,0,0
0.7012485489976825,-0.22266075439453123,-9.823409411621093,1.22583125,0,0,0,0
0.7025077209982555,-0.37828386230468747,-9.80665,1.5466542724609373,0,0,0,0
0.7040895009995438,-0.5315127685546874,-9.782707983398437,1.3646949462890625,0,0,0,0
0.7054599130060524,-0.8499415893554687,-9.397241516113281,1.2497732666015624,0,0,0,0
0.7071375990053639,-1.5801730957031248,-9.576806640625,1.197100830078125,0,0,0,0
0.7086585460056085,-0.8188169677734375,-9.528922607421874,1.2761094848632812,0,0,0,0
0.7098019050026778,-0.46686932373046874,-9.483432775878907,1.3000515014648437,0,0,0,0
0.7109160230029374,-0.277727392578125,-9.6917283203125,1.2378022583007813,0,0,0,0
0.7121164359996328,-0.7637503295898437,-9.342174877929686,1.3168109130859373,0,0,0,0
0.7133245349978097,-0.928950244140625,-9.41639512939453,1.2378022583007813,0,0,0,0
0.714968222004245,-1.3287819213867187,-9.775525378417969,1.1013327636718748,0,0,0,0
0.716333096002927,-0.6153098266601562,-10.062829577636718,1.388636962890625,0,0,0,0
0.7175522869947599,-0.4285620971679687,-9.430760339355468,1.5705962890624998,0,0,0,0
0.7187727929995162,-0.6488286499023437,-9.576806640625,1.5921441040039062,0,0,0,0
0.7199575400009053,-0.296881005859375,-9.567229833984374,1.35990654296875,0,0,0,0
0.7211138989950996,-0.5770026000976562,-9.342174877929686,1.2832920898437499,0,0,0,0
0.7222158130025491,-0.7038952880859375,-9.763554370117188,1.0893617553710937,0,0,0,0
0.7233211529965047,-0.9888052856445312,-9.830592016601562,1.0271125122070313,0,0,0,0
0.7245368069998221,-0.7326257080078125,-9.90241806640625,0.8762778076171874,0,0,0,0
0.7260946430033073,-1.1372457885742187,-9.564835632324218,0.814028564453125,0,0,0,0
0.727275130993803,-1.35990654296875,-9.514557397460937,0.7350199096679687,0,0,0,0
0.728438414997072,-1.3814543579101561,-9.289502441406249,0.8858546142578124,0,0,0,0
0.7296197919931728,-1.1635820068359375,-9.272743029785156,1.139639990234375,0,0,0,0
0.7308004280057503,-1.0175357055664063,-9.739612353515625,1.2042834350585936,0,0,0,0
0.7323038379981881,-0.22505495605468748,-10.002974536132811,1.8243816650390623,0,0,0,0
0.7334137150028255,0.0909796630859375,-9.631873278808593,1.8555062866210936,0,0,0,0
0.7345494070032146,0.10295067138671875,-9.639055883789062,1.7597382202148437,0,0,0,0
0.735739284005831,-0.6464344482421874,-9.552864624023437,1.5658078857421873,0,0,0,0
0.7369231229968136,-1.0893617553710937,-9.469067565917967,1.4987702392578124,0,0,0,0
0.7383534599939594,-1.3048399047851562,-9.550470422363281,1.216254443359375,0,0,0,0
0.7395266520034056,-1.35990654296875,-9.943119494628906,1.1061211669921875,0,0,0,0
0.7406342879985459,-0.5530605834960938,-9.612719665527344,1.158793603515625,0,0,0,0
0.7418232579948381,-0.34715924072265625,-9.390058911132812,1.1755530151367186,0,0,0,0
0.7430247820011573,-0.5051765502929687,-9.651026892089844,0.7445967163085937,0,0,0,0
0.7445067850057967,-1.2378022583007813,-9.540893615722656,0.5578489868164063,0,0,0,0
0.7456701810006052,-1.6472107421875,-9.478644372558593,0.7134720947265625,0,0,0,0
0.7467800580052426,-1.7741034301757812,-10.395623608398436,0.9935936889648437,0,0,0,0
0.7489402759965742,-0.39264907226562495,-10.01733974609375,1.5059528442382812,0,0,0,0
0.7503659100038931,-0.17477672119140625,-9.835380419921874,1.8938135131835936,0,0,0,0
0.7514864719996694,0.0047884033203125,-9.421183532714844,1.7453730102539062,0,0,0,0
0.7525808310019784,-0.3711012573242187,-9.14824454345703,1.6543933471679686,0,0,0,0
0.7536790599988308,-0.7134720947265625,-9.392453112792968,1.4604630126953124,0,0,0,0
0.7548078079998959,-1.24498486328125,-9.593566052246093,1.2976572998046874,0,0,0,0
0.7564045129984152,-0.603338818359375,-9.866505041503906,1.254561669921875,0,0,0,0
0.757763461995637,-0.603338818359375,-9.686939916992188,1.13006318359375,0,0,0,0
0.7591626700013876,-0.7134720947265625,-9.83777462158203,0.9624690673828125,0,0,0,0
0.7602879920013947,-1.3335703247070312,-9.299079248046874,0.7398083129882812,0,0,0,0
0.7613921470037894,-1.458068811035156,-9.49300958251953,0.8834604125976562,0,0,0,0
0.7626095790037652,-1.5729904907226562,-9.409212524414063,0.8690952026367187,0,0,0,0
0.7640073229995323,-0.8667010009765624,-9.797073193359374,1.005564697265625,0,0,0,0
0.7651244970038533,-0.33758243408203126,-9.696516723632811,1.3359645263671873,0,0,0,0
0.7662228559929645,-0.24899697265624998,-9.689334118652344,1.6160861206054686,0,0,0,0
0.7677129520016024,-0.3064578125,-9.777919580078125,1.5658078857421873,0,0,0,0
0.7690650120057398,-0.5913678100585937,-9.662997900390625,1.467645617675781,0,0,0,0
0.7703370170056587,-0.7852981445312499,-9.727641345214844,1.2234370483398436,0,0,0,0
0.7714553020050516,-1.2665326782226562,-9.600748657226562,1.1444283935546875,0,0,0,0
0.7731394139991608,-0.7445967163085937,-9.4618849609375,1.1516109985351561,0,0,0,0
0.774615657996037,-0.9696516723632812,-9.423577734375,1.1085153686523437,0,0,0,0
0.7759583290026058,-1.0175357055664063,-9.449913952636718,1.1659762084960936,0,0,0,0
0.7771387980028521,-0.6416460449218749,-9.639055883789062,1.2832920898437499,0,0,0,0
0.7785376170068048,-0.8451531860351562,-9.56962403564453,1.2282254516601563,0,0,0,0
0.7802425989939366,-0.584185205078125,-10.101136804199218,1.4772224243164063,0,0,0,0
0.7821938379929634,-0.3902548706054687,-9.813832604980469,1.2234370483398436,0,0,0,0
0.783487677006633,-0.7422025146484375,-9.593566052246093,1.01514150390625,0,0,0,0
0.7854232859972399,-1.199495031738281,-9.572018237304688,0.9600748657226562,0,0,0,0
0.7874105060036527,-1.3287819213867187,-9.744400756835937,1.0223241088867188,0,0,0,0
0.7888321210048161,-0.3447650390625,-9.497797985839844,1.2497732666015624,0,0,0,0
0.7902667540038237,-0.4381389038085937,-9.107543115234375,1.2808978881835937,0,0,0,0
0.7917411649978021,-0.7541735229492187,-9.464279162597656,1.235408056640625,0,0,0,0
0.7931846680003218,-0.8307879760742187,-9.70369932861328,1.3575123413085937,0,0,0,0
0.7947875219979323,-1.5251064575195312,-10.000580334472655,1.3215993164062498,0,0,0,0
0.7963955979939783,-0.8355763793945312,-9.483432775878907,1.7166425903320313,0,0,0,0
0.7978388240007916,0.22266075439453123,-9.41639512939453,1.8124106567382812,0,0,0,0
0.7992759939952521,0.023942016601562498,-9.524134204101562,1.3407529296874998,0,0,0,0
0.8007328859966947,-0.833182177734375,-9.469067565917967,1.2569558715820313,0,0,0,0
0.8020701320056105,-1.1013327636718748,-9.576806640625,0.7493851196289062,0,0,0,0
0.8034513769962359,-1.7788918334960937,-10.24000050048828,0.6009446166992187,0,0,0,0
0.8047665110061644,-0.9744400756835937,-10.067617980957031,0.7110778930664062,0,0,0,0
0.8059083700063638,-0.7996633544921875,-9.550470422363281,0.9050082275390624,0,0,0,0
0.807001951005077,-0.5482721801757812,-9.696516723632811,0.8403647827148437,0,0,0,0
0.8081799759966088,-0.9121908325195311,-9.270348828125,1.0199299072265624,0,0,0,0
0.809349425995606,-0.9696516723632812,-9.176974963378905,1.2713210815429687,0,0,0,0
0.8106408760068007,-1.5131354492187499,-9.387664709472656,1.3120225097656248,0,0,0,0
0.8118679740000516,-1.120486376953125,-9.931148486328125,1.4030021728515625,0,0,0,0
0.813228237995645,-0.3016694091796875,-10.053252770996092,1.9129671264648436,0,0,0,0
0.8145221510058036,0.13407529296874998,-9.756371765136718,1.9895815795898437,0,0,0,0
0.8158187299995916,-0.06943184814453125,-9.782707983398437,1.7645266235351562,0,0,0,0
0.817101623993949,-0.5913678100585937,-9.325415466308593,1.3718775512695311,0,0,0,0
0.8182729819964152,-1.0271125122070313,-9.404424121093749,1.0534487304687499,0,0,0,0
0.8193927300017094,-1.4173673828125,-9.516951599121093,0.8667010009765624,0,0,0,0
0.820576327998424,-0.9600748657226562,-9.483432775878907,0.8978256225585937,0,0,0,0
0.8218174079956952,-0.7613561279296874,-9.512163195800781,0.9911994873046874,0,0,0,0
0.8231162650045007,-0.48123453369140623,-9.698910925292969,0.8858546142578124,0,0,0,0
0.8244577330042375,-0.6584054565429687,-9.643844287109374,0.8451531860351562,0,0,0,0
0.8257340529962676,-1.3168109130859373,-9.495403784179686,0.9528922607421875,0,0,0,0
0.8271225200005574,-1.70467158203125,-9.545682019042967,0.9624690673828125,0,0,0,0
0.8284738569927868,-0.565031591796875,-9.679757312011718,1.2904746948242187,0,0,0,0
0.8297284180007409,0.0047884033203125,-9.593566052246093,1.6208745239257811,0,0,0,0
0.831103663003887,0.047884033203124995,-9.622296472167967,1.6615759521484375,0,0,0,0
0.8323752800060902,-0.1149216796875,-9.2320416015625,1.5897499023437498,0,0,0,0
0.8336935249972157,-0.7589619262695312,-9.246406811523437,1.3958195678710936,0,0,0,0
0.835155880995444,-1.24498486328125,-9.610325463867188,0.928950244140625,0,0,0,0
0.8364907000068342,-1.0821791503906248,-9.923965881347655,0.93852705078125,0,0,0,0
0.8378207789937733,-0.8906430175781249,-9.792284790039062,1.13006318359375,0,0,0,0
0.8392343199957395,-0.6943184814453125,-9.629479077148437,0.9864110839843749,0,0,0,0
0.8405557130026864,-0.8547299926757812,-9.617508068847656,1.0007762939453124,0,0,0,0
0.8418860700039659,-1.139639990234375,-9.287108239746093,1.2928688964843749,0,0,0,0
0.8432477229944197,-1.4101847778320311,-9.976638317871092,1.218648645019531,0,0,0,0
0.8445364869985497,-0.45489831542968745,-9.749189160156249,1.4341267944335936,0,0,0,0
0.845926750000217,-0.00718260498046875,-9.737218151855469,1.6304513305664061,0,0,0,0
0.8472138109937077,-0.1005564697265625,-9.938331091308592,1.3455413330078123,0,0,0,0
0.8484574280009838,-0.8978256225585937,-9.698910925292969,1.197100830078125,0,0,0,0
0.849675378005486,-1.024718310546875,-9.627084875488281,1.0223241088867188,0,0,0,0
0.850926957995398,-1.4508862060546874,-9.667786303710937,0.9792284790039062,0,0,0,0
0.8523160540062236,-1.458068811035156,-9.459490759277344,1.0390835205078124,0,0,0,0
0.8536165410041576,-0.6153098266601562,-9.169792358398437,1.1851298217773436,0,0,0,0
0.8548739169928012,-0.3950432739257812,-9.598354455566406,1.1659762084960936,0,0,0,0
0.8561097740021069,-0.7613561279296874,-9.579200842285156,0.9457096557617187,0,0,0,0
0.8573134280013619,-0.8690952026367187,-9.579200842285156,1.2569558715820313,0,0,0,0
0.858592396005406,-1.5275006591796874,-9.70369932861328,1.35990654296875,0,0,0,0
0.8608122069999808,-0.36152445068359373,-9.612719665527344,1.6400281372070311,0,0,0,0
0.8620358049956849,0.02154781494140625,-9.595960253906249,1.8124106567382812,0,0,0,0
0.8632854960014811,0.11252747802734374,-9.504980590820312,1.659181750488281,0,0,0,0
0.8646222230017884,-0.603338818359375,-9.294290844726563,1.5131354492187499,0,0,0,0
0.8659327649947954,-0.852335791015625,-9.358934289550781,0.9648632690429687,0,0,0,0
0.867164141003741,-1.426944189453125,-9.710881933593749,0.8355763793945312,0,0,0,0
0.868272628998966,-1.4149731811523436,-9.789890588378906,0.7781155395507812,0,0,0,0
0.8693688030034536,-0.7445967163085937,-9.583989245605467,0.9169792358398436,0,0,0,0
0.8706260309991194,-0.45489831542968745,-9.873687646484374,0.9720458740234375,0,0,0,0
0.8718435369955841,-0.7134720947265625,-9.689334118652344,0.9576806640625,0,0,0,0
0.873053079994861,-1.0749965454101562,-9.595960253906249,1.1324573852539062,0,0,0,0
0.8741624200047227,-1.350329736328125,-9.327809667968749,1.189918225097656,0,0,0,0
0.8755729050026275,-1.1013327636718748,-9.847351428222655,1.20667763671875,0,0,0,0
0.876973853999516,-0.3806780639648437,-9.548076220703125,1.7980454467773437,0,0,0,0
0.8781522490025964,0.0383072265625,-9.634267480468749,1.89620771484375,0,0,0,0
0.8792561820009723,0.11013327636718749,-9.775525378417969,1.6998831787109374,0,0,0,0
0.8806033900036709,-0.5506663818359374,-9.708487731933593,1.5322890624999999,0,0,0,0
0.8819155800010776,-0.8259995727539062,-9.5384994140625,0.9983820922851562,0,0,0,0
0.8832815100031439,-1.2713210815429687,-9.758765966796874,0.7350199096679687,0,0,0,0
0.8843888879928272,-1.2473790649414063,-9.70369932861328,0.7517793212890624,0,0,0,0
0.8854844690067694,-1.0486603271484374,-9.485826977539062,0.9504980590820312,0,0,0,0
0.886579365003854,-0.7541735229492187,-9.631873278808593,0.8667010009765624,0,0,0,0
0.8880187390022911,-0.9361328491210937,-9.5001921875,0.9935936889648437,0,0,0,0
0.8893088369950419,-0.9074024291992187,-9.327809667968749,1.1109095703125,0,0,0,0
0.8907908580004005,-1.1947066284179686,-9.332598071289063,1.2832920898437499,0,0,0,0
0.892029401002219,-0.7996633544921875,-10.103531005859374,1.659181750488281,0,0,0,0
0.8933180169988191,-0.29927520751953124,-9.694122521972655,1.6639701538085936,0,0,0,0
0.8947532619931735,-0.42377369384765623,-9.859322436523437,1.6208745239257811,0,0,0,0
0.895948100995156,-0.6153098266601562,-9.785102185058593,1.484405029296875,0,0,0,0
0.8970470530039165,-0.7158662963867187,-9.447519750976562,1.3383587280273437,0,0,0,0
0.8981398930045543,-0.679953271484375,-9.473855969238281,1.1276689819335937,0,0,0,0
0.8995648039999651,-1.16837041015625,-9.404424121093749,0.9528922607421875,0,0,0,0
0.9010428809997393,-0.6607996582031249,-9.253589416503905,0.9409212524414062,0,0,0,0
0.9022195730067324,-0.6248866333007812,-9.354145886230468,0.9241618408203125,0,0,0,0
0.9033237650000956,-1.2282254516601563,-9.572018237304688,0.8020575561523438,0,0,0,0
0.9045384750061203,-1.3096283081054687,-9.82580361328125,0.8978256225585937,0,0,0,0
0.9058334239962278,-1.4221557861328125,-9.751583361816406,1.189918225097656,0,0,0,0
0.9069525049999356,-1.6065093139648436,-9.804255798339844,1.2234370483398436,0,0,0,0
0.9080618640000466,-0.8690952026367187,-9.631873278808593,1.8315642700195311,0,0,0,0
0.9093720730015775,0.19871873779296872,-9.433154541015625,1.9752163696289062,0,0,0,0
0.9106938740005717,0.1292868896484375,-9.576806640625,2.032677209472656,0,0,0,0
0.9119789899996249,-0.26336218261718747,-9.576806640625,1.5035586425781249,0,0,0,0
0.9131500520015834,-0.47165772705078124,-9.610325463867188,1.4006079711914061,0,0,0,0
0.9143569279985968,-1.209071838378906,-9.730035546875,1.0271125122070313,0,0,0,0
0.9156436740013305,-1.5322890624999999,-10.019733947753906,0.6703764648437499,0,0,0,0
0.9167861070018262,-1.0390835205078124,-10.024522351074218,0.718260498046875,0,0,0,0
0.9178766139957588,-0.9864110839843749,-9.552864624023437,0.7134720947265625,0,0,0,0
0.9189657139941119,-0.852335791015625,-9.502586389160156,0.6847416748046875,0,0,0,0
0.9201636090001557,-1.0271125122070313,-9.143456140136719,0.6751648681640625,0,0,0,0
0.9217266850027954,-1.429338391113281,-9.0788126953125,1.2617442749023438,0,0,0,0
0.9229414319997886,-1.5179238525390624,-9.126696728515624,1.2737152832031249,0,0,0,0
0.9242437149951002,-0.09816226806640624,-9.708487731933593,1.7908628417968748,0,0,0,0
0.9253617579961428,0.3016694091796875,-9.852139831542969,2.0638018310546875,0,0,0,0
0.9265568940027151,0.12449848632812499,-9.883264453125,2.0350714111328125,0,0,0,0
0.928145099998801,-0.3016694091796875,-9.701305126953125,1.7238251953125,0,0,0,0
0.9294306420051726,-0.6943184814453125,-9.373299499511718,1.5753846923828123,0,0,0,0
0.9307687020045705,-1.0678139404296874,-9.428366137695312,0.9528922607421875,0,0,0,0
0.9320298560051015,-1.3144167114257812,-9.4618849609375,0.842758984375,0,0,0,0
0.9333238419931149,-0.9624690673828125,-9.246406811523437,0.689530078125,0,0,0,0
0.9357813539972994,-1.2234370483398436,-9.651026892089844,0.6153098266601562,0,0,0,0
0.9370080450025853,-1.3718775512695311,-9.672574707031249,0.7757213378906249,0,0,0,0
0.9396485920005944,-0.9744400756835937,-10.081983190917969,1.5490484741210937,0,0,0,0
0.9411485760065261,-0.18435352783203124,-9.612719665527344,1.675941162109375,0,0,0,0
0.942699763996643,-0.24660277099609373,-9.603142858886718,1.714248388671875,0,0,0,0
0.9439405470038764,-0.6560112548828124,-9.445125549316407,1.6112977172851561,0,0,0,0
0.9456527879956411,-0.8092401611328125,-9.203311181640624,1.429338391113281,0,0,0,0
0.9469110899954103,-0.9864110839843749,-9.727641345214844,1.2497732666015624,0,0,0,0
0.9481336699973326,-0.5482721801757812,-9.792284790039062,1.1851298217773436,0,0,0,0
0.949405787003343,-0.411802685546875,-9.536105212402344,1.2569558715820313,0,0,0,0
0.9508226239995565,-0.5578489868164063,-9.734823950195311,1.0199299072265624,0,0,0,0
0.9523698480043095,-1.5322890624999999,-9.447519750976562,0.8283937744140625,0,0,0,0
0.9536184839962516,-1.4963760375976562,-9.581595043945311,1.0654197387695312,0,0,0,0
0.9548601739952574,-1.68551796875,-10.022128149414062,1.0510545288085937,0,0,0,0
0.9563082149979891,-0.2657563842773437,-9.81862100830078,1.4245499877929686,0,0,0,0
0.9576284229988232,0.1867477294921875,-9.634267480468749,1.7118541870117185,0,0,0,0
0.9589032799995039,0.062249243164062495,-9.734823950195311,1.4628572143554686,0,0,0,0
0.960460874994169,-0.7541735229492187,-9.658209497070311,1.3192051147460937,0,0,0,0
0.9618036949977977,-0.8786720092773437,-9.536105212402344,0.9265560424804687,0,0,0,0
0.9629227569967043,-1.1037269653320312,-9.751583361816406,0.6560112548828124,0,0,0,0
0.9640133939974476,-1.5418658691406248,-9.878476049804688,0.689530078125,0,0,0,0
0.9651088639948284,-1.0127473022460938,-9.524134204101562,0.8475473876953125,0,0,0,0
0.9663042960019084,-0.8044517578125,-9.478644372558593,0.86191259765625,0,0,0,0
0.9676150229934137,-0.7350199096679687,-9.435548742675781,0.9600748657226562,0,0,0,0
0.9687266039982205,-1.024718310546875,-9.234435803222656,1.0773907470703123,0,0,0,0
0.9700304980069632,-0.9457096557617187,-9.325415466308593,1.407790576171875,0,0,0,0
0.971641666998039,-0.8906430175781249,-9.904812268066406,1.6352397338867186,0,0,0,0
0.9730486149928765,-0.3687070556640625,-9.763554370117188,1.7980454467773437,0,0,0,0
0.9741493070032448,-0.316034619140625,-9.79946739501953,1.9105729248046874,0,0,0,0
0.9752482220064849,-0.5530605834960938,-9.811438403320311,1.7788918334960937,0,0,0,0
0.9763455619977321,-0.7062894897460937,-9.629479077148437,1.5801730957031248,0,0,0,0
0.9775396049953997,-0.8403647827148437,-9.349357482910156,1.4891934326171874,0,0,0,0
0.9788277220068267,-1.0390835205078124,-9.552864624023437,1.0821791503906248,0,0,0,0
0.9799413209984777,-1.1851298217773436,-9.667786303710937,0.9265560424804687,0,0,0,0
0.9810371619969374,-0.6655880615234374,-9.548076220703125,0.9696516723632812,0,0,0,0
0.9822285380068934,-0.7852981445312499,-9.81862100830078,0.8355763793945312,0,0,0,0
0.9837846890004585,-1.1324573852539062,-9.545682019042967,0.6081272216796875,0,0,0,0
0.9849560650036437,-1.6639701538085936,-9.674968908691406,0.6057330200195312,0,0,0,0
0.9862670889997389,-1.8626888916015625,-9.344569079589844,0.9624690673828125,0,0,0,0
0.9875825199997053,-1.4030021728515625,-9.828197814941406,1.5610194824218748,0,0,0,0
0.9897719599975972,0.2825157958984375,-9.433154541015625,2.2290017456054687,0,0,0,0
0.9910499279940268,0.15083470458984374,-9.629479077148437,2.094926452636719,0,0,0,0
0.9923579140013317,-0.1580173095703125,-9.605537060546874,1.9297265380859374,0,0,0,0
0.9935837719967822,-0.5530605834960938,-9.399635717773437,1.5873557006835937,0,0,0,0
0.9948191669973312,-0.9983820922851562,-9.789890588378906,1.1516109985351561,0,0,0,0
0.9960231360018952,-1.2330138549804688,-9.888052856445311,0.9959878906249999,0,0,0,0
0.9972216790047241,-0.9193734375,-9.641450085449218,0.9864110839843749,0,0,0,0
0.9985052020056173,-0.6009446166992187,-9.80665,0.852335791015625,0,0,0,0
0.999745744993561,-0.7589619262695312,-9.248801013183593,0.6751648681640625,0,0,0,0
1.0009911399974953,-1.2785036865234374,-9.447519750976562,0.5458779785156249,0,0,0,0
1.00209346099291,-1.6424223388671875,-9.102754711914063,0.7398083129882812,0,0,0,0
1.0033923919982044,-1.5777788940429687,-9.744400756835937,0.9026140258789062,0,0,0,0
1.0046919529995648,-0.8690952026367187,-9.974244116210937,1.3455413330078123,0,0,0,0
1.0059103289968334,-0.3399766357421875,-9.976638317871092,1.6352397338867186,0,0,0,0
1.007223223001347,0.0,-10.249577307128906,1.6328455322265625,0,0,0,0
1.008693873998709,-0.36152445068359373,-9.528922607421874,1.6232687255859375,0,0,0,0
1.0099843979987781,-0.9696516723632812,-9.526528405761718,1.4437036010742186,0,0,0,0
1.0113151249970542,-1.5658078857421873,-9.217676391601563,1.24498486328125,0,0,0,0
1.0125063900050009,-1.0486603271484374,-9.435548742675781,1.16837041015625,0,0,0,0
1.0136980259994743,-0.6871358764648438,-9.255983618164063,1.1851298217773436,0,0,0,0
1.0147891630040249,-0.44053310546874996,-9.70369932861328,1.01514150390625,0,0,0,0
1.0159488359931856,-0.9193734375,-9.6151138671875,0.948103857421875,0,0,0,0
1.0173237290000543,-1.1468225952148436,-9.679757312011718,1.0319009155273438,0,0,0,0
1.0186648450035136,-1.697488977050781,-9.811438403320311,0.9816226806640624,0,0,0,0
1.0199545719951857,-0.699106884765625,-9.674968908691406,1.3623007446289062,0,0,0,0
1.021229170000879,-0.17956512451171874,-9.382876306152344,1.6615759521484375,0,0,0,0
1.0224400279985275,0.0383072265625,-9.622296472167967,1.7549498168945312,0,0,0,0
1.0236760340048932,0.0,-9.574412438964844,1.5705962890624998,0,0,0,0
1.0251380739937304,-0.4285620971679687,-9.49300958251953,1.5083470458984374,0,0,0,0
1.02647898599389,-0.9911994873046874,-9.7683427734375,0.9959878906249999,0,0,0,0
1.027796787006082,-1.6208745239257811,-9.89523546142578,0.8475473876953125,0,0,0,0
1.028993329993682,-0.8212111694335937,-9.605537060546874,0.9528922607421875,0,0,0,0
1.030358685995452,-0.6823474731445313,-9.605537060546874,1.0438719238281249,0,0,0,0
1.0315955620026216,-0.7422025146484375,-9.70369932861328,0.8690952026367187,0,0,0,0
1.032843752996996,-1.1755530151367186,-9.3086560546875,0.9337386474609375,0,0,0,0
1.0341394249990117,-1.4508862060546874,-9.258377819824219,1.139639990234375,0,0,0,0
1.03546068900323,-1.3934253662109375,-9.871293444824218,1.3407529296874998,0,0,0,0
1.0366696209966904,-0.7565677246093749,-9.725247143554688,1.6998831787109374,0,0,0,0
1.0379759219940752,0.23702596435546874,-9.763554370117188,1.9416975463867185,0,0,0,0
1.039293870999245,0.08858546142578125,-9.9215716796875,1.7334020019531249,0,0,0,0
1.0406890050071524,-0.239420166015625,-9.41639512939453,1.4939818359375,0,0,0,0
1.0420327129977522,-1.0989385620117187,-9.49300958251953,1.1444283935546875,0,0,0,0
1.0433751810051035,-1.7022773803710936,-9.53131680908203,0.6584054565429687,0,0,0,0
1.0447177780006314,-1.2401964599609374,-9.351751684570312,0.7996633544921875,0,0,0,0
1.0460959670017473,-0.51714755859375,-9.495403784179686,0.8307879760742187,0,0,0,0
1.0474566009943374,-0.5147533569335937,-9.696516723632811,0.8044517578125,0,0,0,0
1.048655588994734,-0.8930372192382812,-9.524134204101562,0.7924807495117187,0,0,0,0
1.0498025400011102,-1.0510545288085937,-9.3852705078125,0.9696516723632812,0,0,0,0
1.0511745260009775,-1.649604943847656,-9.751583361816406,0.9121908325195311,0,0,0,0
1.0525565480056684,-1.189918225097656,-9.878476049804688,1.697488977050781,0,0,0,0
1.0538034979981603,-0.5267243652343749,-9.82580361328125,2.068590234375,0,0,0,0
1.0549717459944077,-0.016759411621093748,-9.852139831542969,2.147598889160156,0,0,0,0
1.056179325998528,0.076614453125,-9.76116016845703,2.1356278808593747,0,0,0,0
1.0573285360005684,-0.13646949462890623,-9.34696328125,2.070984436035156,0,0,0,0
1.0585319490055554,-0.5817910034179687,-9.404424121093749,1.426944189453125,0,0,0,0
1.059954379001283,-1.1707646118164061,-9.785102185058593,1.24498486328125,0,0,0,0
1.0612984019971918,-0.9121908325195311,-9.763554370117188,1.01514150390625,0,0,0,0
1.062606092003989,-0.8164227661132812,-9.832986218261718,0.7398083129882812,0,0,0,0
1.0639501520054182,-1.1324573852539062,-9.437942944335937,0.6584054565429687,0,0,0,0
1.065288824000163,-1.1372457885742187,-9.287108239746093,0.7326257080078125,0,0,0,0
1.0668470300006447,-1.6807295654296874,-9.406818322753905,0.689530078125,0,0,0,0
1.068484827002976,-1.0917559570312498,-9.440337145996093,1.446097802734375,0,0,0,0
1.0697524620045442,-0.5147533569335937,-9.579200842285156,1.6328455322265625,0,0,0,0
1.0709370800032048,0.02633621826171875,-9.746794958496093,1.8100164550781248,0,0,0,0
1.0721609000029275,-0.12689268798828124,-9.8449572265625,1.7812860351562498,0,0,0,0
1.073631014995044,-0.19871873779296872,-9.588777648925781,1.6903063720703124,0,0,0,0
1.0750290739961201,-1.2497732666015624,-9.627084875488281,1.448492004394531,0,0,0,0
1.0763773570070043,-1.3048399047851562,-9.677363110351562,1.1516109985351561,0,0,0,0
1.0776955100009218,-0.8571241943359375,-9.60793126220703,0.9528922607421875,0,0,0,0
1.0789288119995035,-0.5913678100585937,-9.821015209960937,0.8882488159179687,0,0,0,0
1.080226871999912,-0.9145850341796874,-9.562441430664062,0.7805097412109374,0,0,0,0
1.0814921550045256,-1.158793603515625,-9.229647399902344,0.7302315063476562,0,0,0,0
1.0827651610015891,-1.6232687255859375,-9.70369932861328,0.6464344482421874,0,0,0,0
1.0840958129992941,-1.1252747802734375,-9.842563024902343,0.8595183959960937,0,0,0,0
1.0853740220045438,-0.6248866333007812,-9.763554370117188,1.2378022583007813,0,0,0,0
1.086680267995689,-0.4285620971679687,-9.943119494628906,1.448492004394531,0,0,0,0
1.0879807180026546,-0.49799394531249996,-9.888052856445311,1.5705962890624998,0,0,0,0
1.0892177049972815,-0.4860229370117187,-9.64623848876953,1.448492004394531,0,0,0,0
1.0904788769985316,-0.7613561279296874,-9.428366137695312,1.3862427612304686,0,0,0,0
1.091829418000998,-0.9409212524414062,-9.64623848876953,1.2832920898437499,0,0,0,0
1.0933210689981934,-0.5458779785156249,-9.392453112792968,1.3718775512695311,0,0,0,0
1.0947947209933773,-0.4285620971679687,-9.928754284667969,1.1851298217773436,0,0,0,0
1.096189966003294,-0.8212111694335937,-9.548076220703125,0.9457096557617187,0,0,0,0
1.0976957459934056,-0.7948749511718749,-9.327809667968749,1.0342951171875,0,0,0,0
1.0991571199992904,-1.5969325073242187,-9.507374792480467,0.9409212524414062,0,0,0,0
1.1005688650038792,-1.1444283935546875,-9.342174877929686,1.1468225952148436,0,0,0,0
1.1017239640059415,-0.3232172241210937,-9.241618408203124,1.484405029296875,0,0,0,0
1.1030124319950119,-0.4333505004882812,-9.399635717773437,1.5634136840820312,0,0,0,0
1.1041097349952906,-0.30885201416015623,-9.72285294189453,1.3766659545898436,0,0,0,0
1.1051866869966034,-0.3136404174804687,-9.490615380859374,1.608903515625,0,0,0,0
1.1063617670006352,-0.6344634399414062,-9.543287817382812,1.1516109985351561,0,0,0,0
1.1078363819979131,-1.0773907470703123,-9.957484704589843,1.0462661254882812,0,0,0,0
1.1093379399972036,-0.8571241943359375,-9.725247143554688,1.1348515869140625,0,0,0,0
1.110602631000802,-0.8068459594726562,-9.562441430664062,1.0390835205078124,0,0,0,0
1.1125686470040819,-1.1228805786132812,-9.253589416503905,1.1755530151367186,0,0,0,0
1.1138837629987393,-0.93852705078125,-9.052476477050782,1.429338391113281,0,0,0,0
1.115253379000933,-1.1324573852539062,-9.526528405761718,1.3120225097656248,0,0,0,0
1.1163786819961388,-0.5099649536132812,-10.194510668945313,1.6017209106445311,0,0,0,0
1.1175996319943806,-0.143652099609375,-10.110713610839843,1.5370774658203123,0,0,0,0
1.1187808050017338,-0.6655880615234374,-10.196904870605469,1.3910311645507811,0,0,0,0
1.1199113490001764,-0.9935936889648437,-9.947907897949218,1.180341418457031,0,0,0,0
1.1209992630028864,-1.158793603515625,-9.5001921875,1.2282254516601563,0,0,0,0
1.1222821950068465,-1.2330138549804688,-9.402029919433593,1.0199299072265624,0,0,0,0
1.1235033109987853,-1.4867992309570313,-9.555258825683593,1.0773907470703123,0,0,0,0
1.1247170209971955,-0.26336218261718747,-9.598354455566406,1.1563994018554686,0,0,0,0
1.1258519539987901,-0.2657563842773437,-9.682151513671874,1.180341418457031,0,0,0,0
1.1269148319988744,-0.3902548706054687,-10.005368737792969,1.0223241088867188,0,0,0,0
1.1280183570052031,-0.8978256225585937,-9.7683427734375,0.9026140258789062,0,0,0,0
1.1291949190053856,-1.2665326782226562,-9.81862100830078,0.9983820922851562,0,0,0,0
1.1303612030023942,-1.7980454467773437,-9.473855969238281,0.97683427734375,0,0,0,0
1.131476858005044,-1.9608511596679685,-9.792284790039062,1.2234370483398436,0,0,0,0
1.1326398649980547,-0.16280571289062498,-9.469067565917967,1.7214309936523438,0,0,0,0
1.1338277600007132,0.16280571289062498,-9.53131680908203,1.8435352783203125,0,0,0,0
1.1350434509949991,0.033518823242187495,-9.5384994140625,1.917755529785156,0,0,0,0
1.1361962170049082,-0.11731588134765625,-9.56962403564453,1.6639701538085936,0,0,0,0
1.1373544270027196,-0.4429273071289062,-9.428366137695312,1.3551181396484375,0,0,0,0
1.1384869890025584,-0.74699091796875,-9.737218151855469,1.01514150390625,0,0,0,0
1.1397942530020373,-1.2665326782226562,-9.931148486328125,0.8044517578125,0,0,0,0
1.1410578140057623,-0.7661445312499999,-9.720458740234374,1.0534487304687499,0,0,0,0
1.1422640429955209,-0.8403647827148437,-9.459490759277344,0.7613561279296874,0,0,0,0
1.143374698003754,-0.7685387329101562,-9.354145886230468,0.7924807495117187,0,0,0,0
1.144516297004884,-1.0271125122070313,-9.279925634765624,0.7948749511718749,0,0,0,0
1.1457685060013318,-1.3551181396484375,-9.023746057128905,0.9552864624023437,0,0,0,0
1.1470099559955997,-1.6136919189453125,-9.330203869628905,0.8283937744140625,0,0,0,0
1.1482010729960166,-1.0678139404296874,-9.686939916992188,1.659181750488281,0,0,0,0
1.149392783001531,-0.3016694091796875,-9.868899243164062,1.7597382202148437,0,0,0,0
1.1506072149932152,-0.19632453613281248,-9.878476049804688,1.8938135131835936,0,0,0,0
1.1517197960056365,-0.33518823242187495,-9.988609326171874,1.6543933471679686,0,0,0,0
1.1529335429950152,-0.5339069702148437,-9.677363110351562,1.8363526733398436,0,0,0,0
1.154108307993738,-0.6057330200195312,-9.696516723632811,1.3742717529296875,0,0,0,0
1.1552283890050603,-1.1755530151367186,-9.696516723632811,1.1923124267578125,0,0,0,0
1.1565273199958028,-0.7038952880859375,-9.540893615722656,1.1516109985351561,0,0,0,0
1.1577781780069927,-0.9241618408203125,-9.315838659667968,1.005564697265625,0,0,0,0
1.159027165005682,-0.8882488159179687,-9.658209497070311,0.852335791015625,0,0,0,0
1.1601909489982063,-1.209071838378906,-9.466673364257812,0.7326257080078125,0,0,0,0
1.161477139001363,-1.1228805786132812,-9.485826977539062,0.8930372192382812,0,0,0,0
1.1628194590011844,-1.6424223388671875,-9.677363110351562,0.8020575561523438,0,0,0,0
1.164365054006339,-0.9624690673828125,-9.706093530273437,1.3239935180664062,0,0,0,0
1.1670999509951798,-0.49320554199218747,-9.82580361328125,1.5035586425781249,0,0,0,0
1.1684575300023425,-0.6392518432617187,-9.512163195800781,1.5275006591796874,0,0,0,0
1.1698469039984047,-0.8283937744140625,-9.485826977539062,1.4149731811523436,0,0,0,0
1.1718548829958308,-0.8451531860351562,-9.634267480468749,1.5083470458984374,0,0,0,0
1.1732339799928013,-0.30406361083984373,-9.4618849609375,1.39821376953125,0,0,0,0
1.1748093899950618,-0.7230489013671875,-9.849745629882811,1.2378022583007813,0,0,0,0
1.1762260230025277,-1.0462661254882812,-9.526528405761718,0.9050082275390624,0,0,0,0
1.1775380470062373,-1.3718775512695311,-9.265560424804686,1.0390835205078124,0,0,0,0
1.1788544959999854,-1.5586252807617187,-9.394847314453125,1.0199299072265624,0,0,0,0
1.1800989460025448,-0.8810662109374999,-9.715670336914062,1.3335703247070312,0,0,0,0
1.1814125800010515,-0.14604630126953125,-9.504980590820312,1.429338391113281,0,0,0,0
1.1828062139975373,-0.201112939453125,-9.610325463867188,1.2306196533203124,0,0,0,0
1.1841663670056732,-0.4213794921875,-9.715670336914062,1.1707646118164061,0,0,0,0
1.1856748879945371,-1.1659762084960936,-9.715670336914062,1.0223241088867188,0,0,0,0
1.1868749129935168,-1.6352397338867186,-9.701305126953125,0.9433154541015625,0,0,0,0
1.188063751993468,-1.5035586425781249,-9.667786303710937,1.1372457885742187,0,0,0,0
1.189235017998726,-0.8475473876953125,-9.215282189941405,1.388636962890625,0,0,0,0
1.1904039130022284,-0.7062894897460937,-9.600748657226562,1.4006079711914061,0,0,0,0
1.191874601005111,-0.4644751220703125,-9.495403784179686,1.5849614990234373,0,0,0,0
1.1934909359988524,-0.5961562133789062,-9.3086560546875,1.6328455322265625,0,0,0,0
1.1948501629958628,-0.9121908325195311,-9.648632690429688,1.4963760375976562,0,0,0,0
1.196107280004071,-0.7996633544921875,-10.199299072265624,1.438915197753906,0,0,0,0
1.197335748001933,-0.5099649536132812,-10.060435375976562,1.2641384765625,0,0,0,0
1.1984693849954056,-0.9145850341796874,-9.880870251464843,1.22583125,0,0,0,0
1.1996599830017658,-1.1109095703125,-9.756371765136718,1.0510545288085937,0,0,0,0
1.2009023779974086,-1.0223241088867188,-9.576806640625,0.9409212524414062,0,0,0,0
1.2020475510071265,-0.8786720092773437,-9.497797985839844,0.9217676391601562,0,0,0,0
1.2033278339949902,-1.216254443359375,-9.586383447265625,0.8882488159179687,0,0,0,0
1.2045457289932529,-0.7015010864257812,-9.72285294189453,0.7733271362304687,0,0,0,0
1.2057504569966113,-0.7900865478515624,-9.481038574218749,0.9050082275390624,0,0,0,0
1.2071037760033505,-0.8283937744140625,-9.811438403320311,0.8475473876953125,0,0,0,0
1.208465724994312,-1.2593500732421874,-9.70369932861328,0.9911994873046874,0,0,0,0
1.209716989993467,-1.2401964599609374,-9.390058911132812,1.2808978881835937,0,0,0,0
1.210969384002965,-1.209071838378906,-9.349357482910156,1.4939818359375,0,0,0,0
1.2122097789979307,-0.6703764648437499,-9.516951599121093,1.8938135131835936,0,0,0,0
1.213550968997879,0.17477672119140625,-9.507374792480467,1.946485949707031,0,0,0,0
1.2148737880052067,-0.00718260498046875,-9.617508068847656,1.6232687255859375,0,0,0,0
1.2162293849978596,-0.16759411621093748,-9.524134204101562,1.3838485595703125,0,0,0,0
1.2175182979990495,-0.9097966308593749,-9.423577734375,1.2282254516601563,0,0,0,0
1.2189062840043334,-1.5179238525390624,-9.488221179199218,0.7924807495117187,0,0,0,0
1.2202160110027762,-1.5514426757812498,-9.49300958251953,0.7517793212890624,0,0,0,0
1.2215293670014944,-0.8212111694335937,-9.363722692871093,0.8403647827148437,0,0,0,0
1.2227540949970717,-0.584185205078125,-9.670180505371093,1.0702081420898437,0,0,0,0
1.2240205270063598,-0.5961562133789062,-9.421183532714844,1.024718310546875,0,0,0,0
1.2253401610068977,-0.7781155395507812,-9.34696328125,1.180341418457031,0,0,0,0
1.2265836479928112,-1.7310078002929687,-9.564835632324218,1.1875240234375,0,0,0,0
1.227836987003684,-1.2617442749023438,-10.096348400878906,1.6448165405273436,0,0,0,0
1.2291276960022515,-0.3902548706054687,-9.859322436523437,1.7477672119140624,0,0,0,0
1.2304850149957929,0.040701428222656245,-9.947907897949218,1.9393033447265624,0,0,0,0
1.2318276489968412,-0.11013327636718749,-9.945513696289062,1.8435352783203125,0,0,0,0
1.233069099005661,-0.42377369384765623,-9.6151138671875,1.448492004394531,0,0,0,0
1.2343051789939636,-0.6584054565429687,-9.478644372558593,1.1755530151367186,0,0,0,0
1.2355581110023195,-1.5969325073242187,-9.512163195800781,0.9792284790039062,0,0,0,0
1.236905800004024,-1.2234370483398436,-9.555258825683593,0.8044517578125,0,0,0,0
1.2382462120003765,-1.0366893188476562,-9.68454571533203,0.7278373046875,0,0,0,0
1.239617808998446,-0.7996633544921875,-9.591171850585937,0.852335791015625,0,0,0,0
1.2409579990053317,-0.9193734375,-9.509768994140625,1.005564697265625,0,0,0,0
1.242302465994726,-1.5586252807617187,-9.540893615722656,1.0414777221679687,0,0,0,0
1.2438319880020572,-1.1037269653320312,-10.211270080566406,1.407790576171875,0,0,0,0
1.245238417002838,-0.6560112548828124,-9.751583361816406,1.5753846923828123,0,0,0,0
1.246564089000458,-0.38307226562499996,-9.840168823242188,1.675941162109375,0,0,0,0
1.2478112609969685,-0.4644751220703125,-9.667786303710937,1.5610194824218748,0,0,0,0
1.2490843220002716,-0.5626373901367188,-9.33978067626953,1.3575123413085937,0,0,0,0
1.2504773440014105,-1.0917559570312498,-9.244012609863281,1.2401964599609374,0,0,0,0
1.2517653870017966,-1.1516109985351561,-9.375693701171874,1.1013327636718748,0,0,0,0
1.2530215029983083,-0.7254431030273437,-9.303867651367186,1.3048399047851562,0,0,0,0
1.254307212002459,-0.5961562133789062,-9.763554370117188,1.24498486328125,0,0,0,0
1.2557491229963489,-0.7996633544921875,-9.708487731933593,1.0462661254882812,0,0,0,0
1.2571295160014415,-0.9935936889648437,-9.588777648925781,1.1037269653320312,0,0,0,0
1.2584830389969284,-1.6017209106445311,-9.533711010742186,1.1420341918945311,0,0,0,0
1.259841099003097,-1.1109095703125,-9.919177478027343,1.369483349609375,0,0,0,0
1.2610791049955878,-0.38786066894531246,-9.49300958251953,1.5873557006835937,0,0,0,0
1.2623904060019413,-0.18914193115234373,-9.770736975097655,1.5969325073242187,0,0,0,0
1.2637607619981281,-0.4908113403320312,-9.878476049804688,1.2928688964843749,0,0,0,0
1.2650565259973519,-0.8188169677734375,-9.70369932861328,1.1923124267578125,0,0,0,0
1.266406883005402,-1.3742717529296875,-9.76116016845703,1.0103531005859374,0,0,0,0
1.267733775996021,-1.7525556152343749,-9.809044201660155,0.8595183959960937,0,0,0,0
1.2690189669956453,-1.2689268798828124,-9.323021264648437,1.0462661254882812,0,0,0,0
1.2703073979937471,-0.5506663818359374,-9.437942944335937,1.2425906616210938,0,0,0,0
1.2715971249999711,-0.47644613037109373,-9.459490759277344,1.3192051147460937,0,0,0,0
1.2728597420064034,-0.5363011718749999,-9.37808790283203,1.4891934326171874,0,0,0,0
1.2741901539993705,-0.6248866333007812,-9.392453112792968,1.5442600708007812,0,0,0,0
1.2754934179974953,-1.1324573852539062,-10.156203442382813,1.2976572998046874,0,0,0,0
1.2767534599988721,-0.5626373901367188,-9.91438907470703,1.70467158203125,0,0,0,0
1.2779989289992955,-0.19393033447265623,-9.871293444824218,1.608903515625,0,0,0,0
1.2793532850046176,-0.6248866333007812,-9.176974963378905,0.9097966308593749,0,0,0,0
1.2829699699941557,-1.1611878051757811,-9.430760339355468,0.7613561279296874,0,0,0,0
1.2842846410057973,-0.7422025146484375,-9.576806640625,0.8403647827148437,0,0,0,0
1.2857302009942941,-0.6153098266601562,-9.543287817382812,0.8092401611328125,0,0,0,0
1.287013872002717,-0.5482721801757812,-9.900023864746093,0.8355763793945312,0,0,0,0
1.28842459799489,-1.218648645019531,-9.782707983398437,0.8259995727539062,0,0,0,0
1.2896258079999825,-1.47482822265625,-9.593566052246093,0.9457096557617187,0,0,0,0
1.29078768499312,-1.7381904052734374,-9.287108239746093,1.2737152832031249,0,0,0,0
1.2920440239977324,-1.2234370483398436,-9.392453112792968,1.7453730102539062,0,0,0,0
1.2935612860019319,0.12210428466796874,-9.205705383300781,2.080561242675781,0,0,0,0
1.295215880003525,-0.047884033203124995,-9.892841259765625,1.9512743530273435,0,0,0,0
1.2965132740064291,-0.3136404174804687,-9.792284790039062,1.8243816650390623,0,0,0,0
1.2977680750045693,-0.5530605834960938,-9.72285294189453,1.1156979736328125,0,0,0,0
1.2992565229942556,-1.8195932617187498,-9.734823950195311,0.9074024291992187,0,0,0,0
1.3006433970003854,-1.4796166259765624,-9.737218151855469,0.7924807495117187,0,0,0,0
1.301977106006234,-1.1156979736328125,-9.605537060546874,0.8786720092773437,0,0,0,0
1.3033294619963272,-0.9744400756835937,-9.65342109375,0.8307879760742187,0,0,0,0
1.3046139119978761,-1.01514150390625,-9.524134204101562,0.7781155395507812,0,0,0,0
1.3060032119974494,-0.9864110839843749,-9.239224206542968,1.2976572998046874,0,0,0,0
1.3072506619937485,-1.0319009155273438,-10.034099157714843,1.2521674682617188,0,0,0,0
1.3084806120023131,-0.42377369384765623,-9.842563024902343,1.6807295654296874,0,0,0,0
1.3097194879956078,-0.11731588134765625,-9.715670336914062,1.9105729248046874,0,0,0,0
1.3111299000011059,-0.3232172241210937,-10.000580334472655,1.8291700683593748,0,0,0,0
1.3124951630015858,-0.44053310546874996,-9.72285294189453,1.7788918334960937,0,0,0,0
1.3136166890035383,-0.28969840087890625,-9.366116894531249,1.6615759521484375,0,0,0,0
1.3147093070001574,-0.8212111694335937,-9.277531433105468,0.9983820922851562,0,0,0,0
1.3160051080049016,-1.2401964599609374,-9.433154541015625,0.8643067993164062,0,0,0,0
1.3176963870064355,-0.9145850341796874,-9.100360510253905,0.5243301635742187,0,0,0,0
1.318953911002609,-0.9457096557617187,-9.811438403320311,0.5291185668945312,0,0,0,0
1.3201422690035542,-1.465251416015625,-9.710881933593749,0.5865794067382812,0,0,0,0
1.3213937929976964,-1.407790576171875,-9.696516723632811,0.6775590698242188,0,0,0,0
1.3228139629936777,-1.4221557861328125,-9.85692823486328,1.0342951171875,0,0,0,0
1.3241311720048543,-0.29927520751953124,-9.591171850585937,1.5346832641601562,0,0,0,0
1.3254275469953427,-0.009576806640625,-9.404424121093749,1.7932570434570312,0,0,0,0
1.326931068993872,-0.3016694091796875,-9.785102185058593,1.62805712890625,0,0,0,0
1.3281453899980988,-0.5051765502929687,-9.749189160156249,1.4724340209960938,0,0,0,0
1.3295228939969093,-0.6703764648437499,-9.65342109375,1.3311761230468748,0,0,0,0
1.3308678059984231,-1.0510545288085937,-9.679757312011718,1.024718310546875,0,0,0,0
1.3323604379984317,-0.9121908325195311,-9.634267480468749,1.005564697265625,0,0,0,0
1.3336277399939718,-0.7996633544921875,-9.279925634765624,1.0702081420898437,0,0,0,0
1.3349140409991378,-0.814028564453125,-9.710881933593749,1.0223241088867188,0,0,0,0
1.336406692993478,-1.2737152832031249,-9.548076220703125,0.8762778076171874,0,0,0,0
1.3375508659955813,-1.180341418457031,-9.581595043945311,1.0127473022460938,0,0,0,0
1.338667539996095,-1.3215993164062498,-9.330203869628905,1.254561669921875,0,0,0,0
1.3398365269968053,-0.97683427734375,-9.672574707031249,1.4867992309570313,0,0,0,0
1.3409509049961343,-0.19393033447265623,-9.430760339355468,1.7669208251953124,0,0,0,0
1.3421507260063663,-0.28490999755859375,-9.540893615722656,1.7717092285156248,0,0,0,0
1.3434785819990793,-0.5889736083984375,-9.861716638183593,1.39821376953125,0,0,0,0
1.344579626005725,-0.8307879760742187,-9.821015209960937,1.4125789794921875,0,0,0,0
1.3457618730026297,-0.9959878906249999,-9.648632690429688,1.1372457885742187,0,0,0,0
1.3469488050031941,-1.3742717529296875,-9.8449572265625,0.9528922607421875,0,0,0,0
1.3482549769978505,-0.9074024291992187,-9.65342109375,0.9792284790039062,0,0,0,0
1.3497032209997997,-0.49799394531249996,-9.198522778320312,1.1468225952148436,0,0,0,0
1.3511793729994679,-0.6488286499023437,-9.504980590820312,1.0678139404296874,0,0,0,0
1.3525549509940902,-1.0319009155273438,-9.337386474609374,1.0558429321289062,0,0,0,0
1.3544040239939932,-1.4125789794921875,-9.627084875488281,1.1611878051757811,0,0,0,0
1.356023100001039,-0.4860229370117187,-9.988609326171874,1.446097802734375,0,0,0,0
1.3572289389994694,-0.08140285644531249,-9.603142858886718,1.6065093139648436,0,0,0,0
1.3585242590052076,-0.19871873779296872,-9.600748657226562,1.5586252807617187,0,0,0,0
1.3600435770058539,-0.7230489013671875,-9.37808790283203,1.3838485595703125,0,0,0,0
1.3613862479978707,-0.689530078125,-9.330203869628905,0.7422025146484375,0,0,0,0
1.3638626850006403,-1.4915876342773438,-9.823409411621093,0.8044517578125,0,0,0,0
1.365336485003354,-0.7733271362304687,-9.581595043945311,0.842758984375,0,0,0,0
1.366810154999257,-0.8571241943359375,-9.624690673828125,0.7757213378906249,0,0,0,0
1.368388804999995,-1.3431471313476562,-9.284714038085937,0.8379705810546875,0,0,0,0
1.369720642993343,-1.3862427612304686,-9.327809667968749,1.2330138549804688,0,0,0,0
1.37112794299901,-1.1420341918945311,-9.78031378173828,1.3479355346679687,0,0,0,0
1.3723452819976956,-0.2920926025390625,-9.97184991455078,1.5490484741210937,0,0,0,0
1.3735563069931231,0.16998831787109375,-9.612719665527344,1.956062756347656,0,0,0,0
1.3746722210053122,0.062249243164062495,-9.718064538574218,1.8195932617187498,0,0,0,0
1.3761699460010277,-0.5698199951171875,-9.763554370117188,1.5107412475585937,0,0,0,0
1.377415896000457,-0.7278373046875,-9.595960253906249,1.2808978881835937,0,0,0,0
1.3786848460003966,-1.0845733520507812,-9.835380419921874,0.9409212524414062,0,0,0,0
1.3798270559927914,-1.218648645019531,-9.938331091308592,0.7278373046875,0,0,0,0
1.381221467992873,-0.8834604125976562,-9.464279162597656,0.8667010009765624,0,0,0,0
1.382402382005239,-0.9265560424804687,-9.466673364257812,0.6584054565429687,0,0,0,0
1.383569832003559,-0.8690952026367187,-9.651026892089844,0.9002198242187499,0,0,0,0
1.3846670799975982,-1.1156979736328125,-9.366116894531249,0.93852705078125,0,0,0,0
1.385969862996717,-1.180341418457031,-9.37808790283203,1.1827356201171875,0,0,0,0
1.387269793995074,-1.180341418457031,-9.852139831542969,1.139639990234375,0,0,0,0
1.3884958739945432,-0.6344634399414062,-10.002974536132811,1.7573440185546874,0,0,0,0
1.3896358060010243,-0.3184288208007812,-9.955090502929687,1.8602946899414061,0,0,0,0
1.3907335169933503,-0.4381389038085937,-9.892841259765625,1.85790048828125,0,0,0,0
1.391838060997543,-0.3758896606445312,-9.744400756835937,1.848323681640625,0,0,0,0
1.3929381799971452,-0.4261678955078125,-9.253589416503905,1.7357962036132812,0,0,0,0
1.3941896670003189,-0.7302315063476562,-9.318232861328125,1.465251416015625,0,0,0,0
1.3955655970057705,-0.9552864624023437,-9.603142858886718,0.928950244140625,0,0,0,0
1.396964729996398,-0.5889736083984375,-9.502586389160156,0.8714894042968749,0,0,0,0
1.3982189579983242,-0.82360537109375,-9.581595043945311,0.7637503295898437,0,0,0,0
1.3996321659942623,-1.1635820068359375,-9.282319836425781,0.4429273071289062,0,0,0,0
1.4009668740036432,-1.5945383056640625,-9.488221179199218,0.411802685546875,0,0,0,0
1.4021838799963007,-1.8746598999023436,-8.961496813964843,0.6464344482421874,0,0,0,0
1.4036336239951197,-1.4030021728515625,-10.058041174316406,1.4173673828125,0,0,0,0
1.4050310349994106,0.2561795776367187,-9.545682019042967,1.889025109863281,0,0,0,0
1.4064771130069857,0.143652099609375,-9.751583361816406,1.9895815795898437,0,0,0,0
1.4078996540047228,-0.1149216796875,-9.617508068847656,1.8626888916015625,0,0,0,0
1.4092601769953035,-0.5865794067382812,-9.466673364257812,1.714248388671875,0,0,0,0
1.4105682189983781,-1.0702081420898437,-9.900023864746093,1.189918225097656,0,0,0,0
1.4118157979974058,-1.139639990234375,-9.976638317871092,0.9816226806640624,0,0,0,0
1.4131947470013984,-0.63206923828125,-9.797073193359374,1.0486603271484374,0,0,0,0
1.4144989930064185,-0.718260498046875,-9.617508068847656,0.8643067993164062,0,0,0,0
1.4156779990007635,-0.7015010864257812,-9.354145886230468,0.8547299926757812,0,0,0,0
1.4167998949997127,-0.9744400756835937,-9.306261853027344,0.7685387329101562,0,0,0,0
1.4180632700008573,-1.8100164550781248,-9.133879333496093,0.814028564453125,0,0,0,0
1.4193297019955935,-1.8243816650390623,-9.809044201660155,1.1420341918945311,0,0,0,0
1.4206010769994464,-0.9864110839843749,-9.892841259765625,1.4030021728515625,0,0,0,0
1.421715194999706,-0.4285620971679687,-10.007762939453125,1.5705962890624998,0,0,0,0
1.4228134800068801,-0.02633621826171875,-10.002974536132811,1.707065783691406,0,0,0,0
1.4239199319999898,-0.2154781494140625,-9.696516723632811,1.7836802368164062,0,0,0,0
1.4251113270001952,-0.4429273071289062,-9.323021264648437,1.8028338500976562,0,0,0,0
1.426304591994267,-0.9026140258789062,-9.356540087890625,1.1611878051757811,0,0,0,0
1.4274373950029258,-1.687912170410156,-9.497797985839844,1.0606313354492187,0,0,0,0
1.4285364209936233,-1.1037269653320312,-9.555258825683593,1.1755530151367186,0,0,0,0
1.4298188149987254,-0.5578489868164063,-9.483432775878907,1.1563994018554686,0,0,0,0
1.4309697290009353,-0.5578489868164063,-9.730035546875,0.967257470703125,0,0,0,0
1.4322535670071375,-0.8882488159179687,-9.433154541015625,0.9816226806640624,0,0,0,0
1.4334472589980578,-0.9361328491210937,-9.390058911132812,1.1420341918945311,0,0,0,0
1.4347619489999488,-1.5610194824218748,-9.536105212402344,0.9888052856445312,0,0,0,0
1.4361503050022293,-1.0342951171875,-9.686939916992188,1.1037269653320312,0,0,0,0
1.4374672539997846,-0.4333505004882812,-9.907206469726562,1.4820108276367188,0,0,0,0
1.4389182570012053,-0.4070142822265625,-9.880870251464843,1.4867992309570313,0,0,0,0
1.4403612239984795,-0.42377369384765623,-9.718064538574218,1.4939818359375,0,0,0,0
1.4418391899962444,-0.6655880615234374,-9.33978067626953,1.446097802734375,0,0,0,0
1.4432855820050463,-1.2138602416992186,-9.521740002441407,1.0007762939453124,0,0,0,0
1.444542087992886,-0.9433154541015625,-9.548076220703125,1.0342951171875,0,0,0,0
1.4458164639945608,-0.7350199096679687,-9.617508068847656,0.9433154541015625,0,0,0,0
1.4471458390034968,-0.8762778076171874,-9.94072529296875,0.8547299926757812,0,0,0,0
1.448321271003806,-1.3838485595703125,-9.555258825683593,0.8044517578125,0,0,0,0
1.449688534004963,-1.5203180541992187,-9.255983618164063,1.0726023437499999,0,0,0,0
1.4511647040053504,-1.4173673828125,-9.548076220703125,1.4437036010742186,0,0,0,0
1.452602596997167,-0.6200982299804687,-9.60793126220703,1.8219874633789062,0,0,0,0
1.4540212120045908,0.22744915771484372,-9.969455712890625,1.924938134765625,0,0,0,0
1.4553610309958458,0.09816226806640624,-9.993397729492187,1.7429788085937499,0,0,0,0
1.4566740919981385,-0.24899697265624998,-9.883264453125,1.637633935546875,0,0,0,0
1.4579257080040406,-1.16837041015625,-9.751583361816406,1.2521674682617188,0,0,0,0
1.459256454007118,-1.7501614135742187,-9.694122521972655,0.7589619262695312,0,0,0,0
1.460476699998253,-1.5466542724609373,-9.397241516113281,0.7924807495117187,0,0,0,0
1.4620502210018458,-0.8738836059570312,-9.17458076171875,1.0103531005859374,0,0,0,0
1.463325356002315,-0.7781155395507812,-9.399635717773437,0.8954314208984374,0,0,0,0
1.4646677120035747,-0.6200982299804687,-9.404424121093749,1.0007762939453124,0,0,0,0
1.4664391569967847,-0.967257470703125,-9.765948571777344,1.180341418457031,0,0,0,0
1.4683348959952127,-0.9337386474609375,-9.86411083984375,1.7238251953125,0,0,0,0
1.4697299560066313,-0.5003881469726562,-9.782707983398437,1.7214309936523438,0,0,0,0
1.4709137769968947,-0.4165910888671875,-9.581595043945311,1.8124106567382812,0,0,0,0
1.4721028390049469,-0.296881005859375,-9.581595043945311,1.7310078002929687,0,0,0,0
1.4735513049963629,-0.2561795776367187,-9.13627353515625,1.5394716674804687,0,0,0,0
1.4747957920044428,-0.9816226806640624,-9.406818322753905,1.2665326782226562,0,0,0,0
1.4759533909964375,-0.82360537109375,-9.65342109375,1.0606313354492187,0,0,0,0
1.4770695460028946,-0.7398083129882812,-9.610325463867188,0.8882488159179687,0,0,0,0
1.478269700994133,-1.0678139404296874,-9.737218151855469,0.46686932373046874,0,0,0,0
1.4799469980061986,-1.7405846069335937,-9.583989245605467,0.4477157104492187,0,0,0,0
1.4812694470019778,-1.6208745239257811,-9.629479077148437,0.8930372192382812,0,0,0,0
1.482379380002385,-1.6041151123046875,-9.471461767578125,0.9696516723632812,0,0,0,0
1.4834857950045262,-1.350329736328125,-9.773131176757811,1.3215993164062498,0,0,0,0
1.484702208006638,-0.01915361328125,-9.497797985839844,1.7022773803710936,0,0,0,0
1.4860819159948733,0.00718260498046875,-9.928754284667969,1.7214309936523438,0,0,0,0
1.4871969780069776,-0.18435352783203124,-10.000580334472655,1.6711527587890624,0,0,0,0
1.4882930780004244,-0.4525041137695312,-10.120290417480469,1.5562310791015623,0,0,0,0
1.489499157993123,-0.8283937744140625,-9.64623848876953,1.407790576171875,0,0,0,0
1.4909517540072557,-1.6160861206054686,-9.543287817382812,1.3359645263671873,0,0,0,0
1.4922258330043405,-0.9337386474609375,-9.775525378417969,1.5203180541992187,0,0,0,0
1.493452246999368,-0.33039982910156246,-9.241618408203124,1.4125789794921875,0,0,0,0
1.4946508269931655,-0.39743747558593745,-9.519345800781249,1.0965443603515623,0,0,0,0
1.4958706100005656,-0.7302315063476562,-9.260772021484375,1.0271125122070313,0,0,0,0
1.496996172994841,-1.0223241088867188,-9.473855969238281,0.7829039428710937,0,0,0,0
1.498090716995648,-1.5538368774414062,-9.342174877929686,0.8355763793945312,0,0,0,0
1.4991980199993122,-1.9416975463867185,-9.698910925292969,0.8595183959960937,0,0,0,0
1.500478543995996,-1.3215993164062498,-9.674968908691406,1.2306196533203124,0,0,0,0
1.5018762700055959,-0.296881005859375,-9.746794958496093,1.2880804931640624,0,0,0,0
1.503082238996285,-0.354341845703125,-9.572018237304688,1.5538368774414062,0,0,0,0
1.5042388010042487,-0.16759411621093748,-9.622296472167967,1.5514426757812498,0,0,0,0
1.5055328250018647,-0.21068974609375,-9.210493786621093,1.4437036010742186,0,0,0,0
1.5067398859973764,-1.3934253662109375,-9.528922607421874,1.1947066284179686,0,0,0,0
1.508065390997217,-1.1276689819335937,-9.74200655517578,1.158793603515625,0,0,0,0
1.509377359005157,-0.8906430175781249,-9.629479077148437,1.2497732666015624,0,0,0,0
1.5105860129988287,-0.7565677246093749,-9.900023864746093,1.2976572998046874,0,0,0,0
1.5118607589975,-0.7733271362304687,-9.504980590820312,1.3287819213867187,0,0,0,0
1.513157986002625,-0.48123453369140623,-9.777919580078125,1.4963760375976562,0,0,0,0
1.5144092139962595,-0.8116343627929687,-9.665392102050781,1.2952630981445312,0,0,0,0
1.5155477950029308,-0.7685387329101562,-10.117896215820313,1.209071838378906,0,0,0,0
1.516640821006149,-0.3232172241210937,-9.641450085449218,1.4987702392578124,0,0,0,0
1.5177969009964727,-0.5578489868164063,-9.718064538574218,1.39821376953125,0,0,0,0
1.51912909100065,-0.7158662963867187,-9.926360083007811,1.1516109985351561,0,0,0,0
1.5203814300039085,-0.6751648681640625,-9.56962403564453,1.1827356201171875,0,0,0,0
1.5216566019953461,-1.0438719238281249,-9.593566052246093,1.0702081420898437,0,0,0,0
1.522819164005341,-1.4053963745117186,-9.732429748535155,0.967257470703125,0,0,0,0
1.5239586329989834,-1.01514150390625,-9.74200655517578,0.9911994873046874,0,0,0,0
1.525235952998628,-0.36391865234375,-9.548076220703125,1.0319009155273438,0,0,0,0
1.5265113289933652,-0.9983820922851562,-9.701305126953125,0.8068459594726562,0,0,0,0
1.5278009820031002,-1.1827356201171875,-9.334992272949219,0.9002198242187499,0,0,0,0
1.529028377000941,-1.1707646118164061,-9.476250170898437,1.1420341918945311,0,0,0,0
1.5302417719940422,-1.3359645263671873,-9.425971936035156,1.177947216796875,0,0,0,0
1.531566573001328,-0.8259995727539062,-9.835380419921874,1.2330138549804688,0,0,0,0
1.5327950229984708,0.00718260498046875,-9.402029919433593,1.7621324218749999,0,0,0,0
1.5339672330010217,0.1388636962890625,-9.524134204101562,1.7238251953125,0,0,0,0
1.5351099060062552,0.009576806640625,-9.777919580078125,1.8531120849609375,0,0,0,0
1.5362157469935482,-0.05746083984375,-9.536105212402344,1.5610194824218748,0,0,0,0
1.5375467330013635,-1.0893617553710937,-9.619902270507811,1.3287819213867187,0,0,0,0
1.5388098679977702,-1.6472107421875,-9.667786303710937,0.967257470703125,0,0,0,0
1.5400403550011106,-1.4317325927734375,-9.631873278808593,0.9792284790039062,0,0,0,0
1.54140134100453,-0.5410895751953124,-9.176974963378905,0.97683427734375,0,0,0,0
1.5427011419960763,-0.4955997436523437,-9.507374792480467,0.9145850341796874,0,0,0,0
1.543911371001741,-0.6440402465820312,-9.406818322753905,1.0103531005859374,0,0,0,0
1.5451118769997265,-0.8858546142578124,-9.603142858886718,0.8714894042968749,0,0,0,0
1.5462155690038344,-1.3455413330078123,-9.835380419921874,0.8954314208984374,0,0,0,0
1.5473278349963948,-1.956062756347656,-10.369287390136718,0.9217676391601562,0,0,0,0
1.5485958589997608,-0.7781155395507812,-9.809044201660155,1.458068811035156,0,0,0,0
1.5498108460014919,-0.45489831542968745,-9.72285294189453,1.6232687255859375,0,0,0,0
1.550957704996108,-0.22744915771484372,-9.70369932861328,2.0446482177734375,0,0,0,0
1.552048711993848,0.011971008300781249,-9.476250170898437,2.0278888061523435,0,0,0,0
1.5534462159994291,-0.18435352783203124,-9.504980590820312,1.8626888916015625,0,0,0,0
1.5546567029959988,-0.9145850341796874,-9.696516723632811,1.5514426757812498,0,0,0,0
1.5559048389986856,-1.1109095703125,-9.919177478027343,1.1252747802734375,0,0,0,0
1.5572374909970677,-0.9888052856445312,-9.725247143554688,0.8259995727539062,0,0,0,0
1.558543830004055,-1.4245499877929686,-9.935936889648437,0.718260498046875,0,0,0,0
1.5598927789978916,-1.4317325927734375,-9.533711010742186,0.6751648681640625,0,0,0,0
1.5611768950038822,-0.9911994873046874,-9.081206896972656,0.8762778076171874,0,0,0,0
1.562293734998093,-0.8786720092773437,-9.052476477050782,1.0103531005859374,0,0,0,0
1.5635958140046569,-0.86191259765625,-9.686939916992188,1.1013327636718748,0,0,0,0
1.5647961539943935,-0.3232172241210937,-9.497797985839844,1.3838485595703125,0,0,0,0
1.566123954995419,-0.18914193115234373,-9.955090502929687,1.4963760375976562,0,0,0,0
1.5672628869942855,-0.39264907226562495,-9.830592016601562,1.3192051147460937,0,0,0,0
1.568474151994451,-0.7972691528320313,-9.6917283203125,1.3215993164062498,0,0,0,0
1.5697314730059588,-0.8810662109374999,-9.605537060546874,1.4341267944335936,0,0,0,0
1.5708443869953044,-1.3431471313476562,-9.540893615722656,1.3383587280273437,0,0,0,0
1.572103373997379,-1.2042834350585936,-9.366116894531249,1.3192051147460937,0,0,0,0
1.5733760830044048,-0.5793968017578125,-9.10993731689453,1.438915197753906,0,0,0,0
1.57483556799707,-0.5243301635742187,-9.605537060546874,1.2880804931640624,0,0,0,0
1.5761715730041033,-0.7972691528320313,-9.536105212402344,1.139639990234375,0,0,0,0
1.5774823179963278,-1.0007762939453124,-9.478644372558593,1.1851298217773436,0,0,0,0
1.5786872129974654,-1.5227122558593749,-9.557653027343749,1.1923124267578125,0,0,0,0
1.57993414500379,-1.2234370483398436,-10.156203442382813,1.455674609375,0,0,0,0
1.5811040400003549,-0.45968671875,-9.605537060546874,1.4413093994140624,0,0,0,0
1.5822202319977805,-0.22744915771484372,-9.79946739501953,1.4413093994140624,0,0,0,0
1.583324609004194,-0.44053310546874996,-9.65342109375,1.3263877197265623,0,0,0,0
1.5844162279972807,-0.7206546997070312,-9.437942944335937,1.254561669921875,0,0,0,0
1.5855123640067177,-0.9145850341796874,-9.45470235595703,1.1061211669921875,0,0,0,0
1.5870319039968308,-1.446097802734375,-9.502586389160156,0.7445967163085937,0,0,0,0
1.5884966669982532,-0.9193734375,-9.64623848876953,0.842758984375,0,0,0,0
1.5897069500060752,-0.8355763793945312,-9.394847314453125,1.0175357055664063,0,0,0,0
1.5909822340036044,-0.8882488159179687,-9.868899243164062,1.1109095703125,0,0,0,0
1.5923680340056308,-0.7781155395507812,-9.4618849609375,1.2473790649414063,0,0,0,0
1.593718556992826,-1.01514150390625,-9.313444458007812,1.37906015625,0,0,0,0
1.5950933569984045,-1.3479355346679687,-10.067617980957031,1.37906015625,0,0,0,0
1.5964459359965986,-0.14604630126953125,-9.478644372558593,1.7621324218749999,0,0,0,0
1.5978344769973774,0.028730419921875,-9.581595043945311,1.6400281372070311,0,0,0,0
1.599148259992944,-0.05027823486328125,-9.732429748535155,1.4724340209960938,0,0,0,0
1.6003871360007906,-0.6248866333007812,-9.56962403564453,1.2378022583007813,0,0,0,0
1.6017019739956595,-0.8403647827148437,-9.445125549316407,0.9409212524414062,0,0,0,0
1.602967960992828,-1.5490484741210937,-9.404424121093749,0.603338818359375,0,0,0,0
1.6041623369965237,-1.5801730957031248,-9.572018237304688,0.6153098266601562,0,0,0,0
1.6054400830034865,-1.0319009155273438,-9.375693701171874,0.7326257080078125,0,0,0,0
1.6067601990071125,-0.842758984375,-9.787496386718749,0.6296750366210937,0,0,0,0
1.6081600920006167,-0.6272808349609375,-9.275137231445312,0.9864110839843749,0,0,0,0
1.6094364120071987,-1.158793603515625,-9.275137231445312,1.0917559570312498,0,0,0,0
1.6106486219941871,-1.5562310791015623,-9.430760339355468,1.2976572998046874,0,0,0,0
1.6122470309928758,-0.3112462158203125,-9.797073193359374,1.7741034301757812,0,0,0,0
1.613540684003965,0.12210428466796874,-9.976638317871092,1.9871873779296874,0,0,0,0
1.614979168996797,-0.05027823486328125,-10.038887561035155,1.9033903198242186,0,0,0,0
1.6161141579941614,-0.16998831787109375,-9.677363110351562,1.66636435546875,0,0,0,0
1.617219591003959,-0.3495534423828125,-9.366116894531249,1.5562310791015623,0,0,0,0
1.6184437820047606,-1.5610194824218748,-9.442731347656249,1.1611878051757811,0,0,0,0
1.6196614539949223,-1.5059528442382812,-9.749189160156249,0.967257470703125,0,0,0,0
1.6208259239938343,-0.9864110839843749,-9.548076220703125,0.9241618408203125,0,0,0,0
1.6219357450027019,-0.9959878906249999,-9.215282189941405,0.8259995727539062,0,0,0,0
1.6231798990047537,-0.679953271484375,-9.5384994140625,0.8954314208984374,0,0,0,0
1.6244624039973132,-0.6248866333007812,-9.373299499511718,0.9050082275390624,0,0,0,0
1.6258585379982833,-0.842758984375,-9.437942944335937,1.0486603271484374,0,0,0,0
1.6271269510034472,-1.8028338500976562,-10.007762939453125,0.9528922607421875,0,0,0,0
1.6282321239996236,-0.7876923461914062,-9.672574707031249,1.3814543579101561,0,0,0,0
1.6293215949990554,-0.5243301635742187,-9.634267480468749,1.6328455322265625,0,0,0,0
1.6305820440029493,-0.33518823242187495,-9.871293444824218,1.8459294799804686,0,0,0,0
1.6318021430051886,0.15562310791015624,-9.79946739501953,1.8100164550781248,0,0,0,0
1.6329467049945379,0.047884033203124995,-9.354145886230468,1.7310078002929687,0,0,0,0
1.6340439339983277,-0.25139117431640623,-9.483432775878907,1.3024457031249999,0,0,0,0
1.6353096429957077,-1.1563994018554686,-9.612719665527344,0.9840168823242187,0,0,0,0
1.6366305929986993,-1.0749965454101562,-9.588777648925781,0.7948749511718749,0,0,0,0
1.6379760790005093,-1.4006079711914061,-9.883264453125,0.5865794067382812,0,0,0,0
1.6391878620052012,-1.2832920898437499,-9.636661682128906,0.7709329345703124,0,0,0,0
1.6404172939946875,-1.0414777221679687,-9.421183532714844,0.8164227661132812,0,0,0,0
1.6416072080028243,-1.0438719238281249,-9.303867651367186,1.0199299072265624,0,0,0,0
1.6427582140022423,-1.407790576171875,-9.050082275390624,1.177947216796875,0,0,0,0
1.6438656469981652,-0.7948749511718749,-9.749189160156249,1.6927005737304686,0,0,0,0
1.644962153994129,-0.13646949462890623,-9.662997900390625,1.6615759521484375,0,0,0,0
1.6461809189931955,-0.2825157958984375,-10.204087475585936,1.5705962890624998,0,0,0,0
1.6473547589994268,-0.29927520751953124,-10.115502014160155,1.5322890624999999,0,0,0,0
1.6484500999940792,-0.6727706665039062,-9.888052856445311,1.467645617675781,0,0,0,0
1.649734307997278,-1.0558429321289062,-9.701305126953125,1.139639990234375,0,0,0,0
1.6509197959967423,-1.4173673828125,-9.375693701171874,1.0127473022460938,0,0,0,0
1.6521874500031117,-0.8930372192382812,-9.289502441406249,1.0702081420898437,0,0,0,0
1.6533641779969912,-0.8259995727539062,-9.253589416503905,1.1468225952148436,0,0,0,0
1.6545211110060336,-0.7254431030273437,-9.651026892089844,1.1731588134765625,0,0,0,0
1.6558025790000102,-0.5865794067382812,-9.502586389160156,0.9552864624023437,0,0,0,0
1.6571193609997863,-1.1516109985351561,-9.789890588378906,0.9911994873046874,0,0,0,0
1.6584366809984203,-1.8315642700195311,-9.564835632324218,1.1947066284179686,0,0,0,0
1.6595754279987887,-1.3910311645507811,-9.986215124511718,1.2210428466796874,0,0,0,0
1.660879841001588,-0.6775590698242188,-9.64623848876953,1.6639701538085936,0,0,0,0
1.6619872000010218,-0.25139117431640623,-9.758765966796874,1.7501614135742187,0,0,0,0
1.66319796499738,-0.1197100830078125,-9.758765966796874,1.7310078002929687,0,0,0,0
1.6646388020017184,-0.411802685546875,-9.627084875488281,1.426944189453125,0,0,0,0
1.6659663439932046,-0.6847416748046875,-9.622296472167967,1.1468225952148436,0,0,0,0
1.667230182007188,-1.3958195678710936,-9.801861596679688,0.7996633544921875,0,0,0,0
1.6688445170002524,-1.218648645019531,-9.414000927734374,0.9002198242187499,0,0,0,0
1.6700913380045677,-1.13006318359375,-9.504980590820312,1.0079588989257813,0,0,0,0
1.6712596959987422,-0.7829039428710937,-9.457096557617186,1.0726023437499999,0,0,0,0
1.6723730550002074,-0.63206923828125,-9.442731347656249,1.1827356201171875,0,0,0,0
1.67346833999909,-0.5770026000976562,-9.287108239746093,1.369483349609375,0,0,0,0
1.674559217004571,-0.967257470703125,-9.1554271484375,1.599326708984375,0,0,0,0
1.6759840169979725,-0.6847416748046875,-9.76116016845703,1.4604630126953124,0,0,0,0
1.6772651149949525,-0.4908113403320312,-9.65342109375,1.4820108276367188,0,0,0,0
1.6784279179992154,-0.5674257934570313,-9.787496386718749,1.5873557006835937,0,0,0,0
1.6795413320069201,-0.47165772705078124,-9.911994873046874,1.4700398193359374,0,0,0,0
1.6807905780005967,-0.74699091796875,-9.706093530273437,1.149216796875,0,0,0,0
1.6819998069986468,-1.0582371337890624,-9.397241516113281,0.9074024291992187,0,0,0,0
1.6831962760043098,-1.120486376953125,-9.490615380859374,0.8834604125976562,0,0,0,0
1.684294560996932,-0.8355763793945312,-9.636661682128906,0.70868369140625,0,0,0,0
1.6853869009937625,-0.9983820922851562,-9.588777648925781,0.6368576416015624,0,0,0,0
1.6868794600013644,-1.0366893188476562,-9.234435803222656,0.842758984375,0,0,0,0
1.6881608349940507,-1.5418658691406248,-9.351751684570312,0.9337386474609375,0,0,0,0
1.6894051190029131,-1.149216796875,-9.80665,1.01514150390625,0,0,0,0
1.6905128479993436,-1.4101847778320311,-9.715670336914062,1.3048399047851562,0,0,0,0
1.6918569819972618,-1.0821791503906248,-9.859322436523437,1.8004396484374998,0,0,0,0
1.6932403380051255,0.3687070556640625,-9.370905297851563,2.2361843505859373,0,0,0,0
1.6944948059972376,0.3280056274414062,-9.698910925292969,2.4396914916992185,0,0,0,0
1.6955986649991246,-0.19632453613281248,-9.943119494628906,1.6041151123046875,0,0,0,0
1.6969087809993653,-1.0558429321289062,-9.53131680908203,1.388636962890625,0,0,0,0
1.698194564000005,-0.9409212524414062,-9.732429748535155,1.149216796875,0,0,0,0
1.6996038460056297,-1.3623007446289062,-9.880870251464843,0.6200982299804687,0,0,0,0
1.7012869580066763,-0.8355763793945312,-9.272743029785156,0.6871358764648438,0,0,0,0
1.702709702993161,-0.6751648681640625,-9.296685046386719,0.7254431030273437,0,0,0,0
1.7041977799963206,-1.5298948608398437,-9.437942944335937,0.55545478515625,0,0,0,0
1.705787633996806,-1.6160861206054686,-9.526528405761718,0.9696516723632812,0,0,0,0
1.7072739330033073,-1.158793603515625,-10.261548315429687,1.2042834350585936,0,0,0,0
1.7087329549976857,-0.5434837768554687,-9.404424121093749,2.023100402832031,0,0,0,0
1.7103303829935612,0.48123453369140623,-9.698910925292969,2.1835119140624997,0,0,0,0
1.7117376090027392,0.3854664672851562,-9.60793126220703,1.7932570434570312,0,0,0,0
1.7133635920035886,-0.6512228515624999,-9.3852705078125,1.3838485595703125,0,0,0,0
1.7147671510028886,-0.948103857421875,-9.672574707031249,1.0342951171875,0,0,0,0
1.716174952001893,-1.2641384765625,-9.859322436523437,0.6919242797851562,0,0,0,0
1.7174773830047343,-1.3766659545898436,-9.564835632324218,0.6488286499023437,0,0,0,0
1.7187349440064281,-1.1372457885742187,-9.581595043945311,0.6679822631835937,0,0,0,0
1.7200149669952225,-0.8355763793945312,-9.279925634765624,0.7852981445312499,0,0,0,0
1.7213283430028241,-0.8882488159179687,-9.143456140136719,0.93852705078125,0,0,0,0
1.7225854040007107,-1.3168109130859373,-9.050082275390624,1.01514150390625,0,0,0,0
1.7236931700026616,-1.1420341918945311,-9.686939916992188,1.3718775512695311,0,0,0,0
1.724780546996044,-0.6464344482421874,-10.058041174316406,1.5059528442382812,0,0,0,0
1.725870998998289,-0.36152445068359373,-10.137049829101562,1.5682020874023437,0,0,0,0
1.7271777260029921,-0.5602431884765625,-10.168174450683592,1.6041151123046875,0,0,0,0
1.7283742319996236,-0.5722141967773438,-10.156203442382813,1.6424223388671875,0,0,0,0
1.7295993489969987,-0.5434837768554687,-9.60793126220703,1.426944189453125,0,0,0,0
1.7308432069985429,-0.9217676391601562,-9.639055883789062,1.0749965454101562,0,0,0,0
1.7321051570033887,-0.8307879760742187,-9.598354455566406,0.948103857421875,0,0,0,0
1.7333399030030705,-0.6775590698242188,-9.210493786621093,1.01514150390625,0,0,0,0
1.7345441679935902,-0.86191259765625,-9.370905297851563,0.8355763793945312,0,0,0,0
1.735672490001889,-1.0007762939453124,-9.402029919433593,0.8906430175781249,0,0,0,0
1.7367775150050875,-1.2665326782226562,-9.526528405761718,0.9983820922851562,0,0,0,0
1.7378748369956156,-1.180341418457031,-9.390058911132812,1.2880804931640624,0,0,0,0
1.7391519170050742,-1.350329736328125,-9.907206469726562,1.2401964599609374,0,0,0,0
1.7405468469951302,-0.38786066894531246,-9.950302099609374,1.8339584716796873,0,0,0,0
1.741821482006344,0.25139117431640623,-9.674968908691406,1.8746598999023436,0,0,0,0
1.742978395006503,-0.1388636962890625,-9.588777648925781,1.7788918334960937,0,0,0,0
1.7441876789962407,-0.44053310546874996,-9.397241516113281,1.5586252807617187,0,0,0,0
1.7454149260011036,-0.7398083129882812,-9.234435803222656,1.1420341918945311,0,0,0,0
1.7465778019977733,-1.0534487304687499,-9.639055883789062,0.9121908325195311,0,0,0,0
1.747677642997587,-1.4796166259765624,-9.624690673828125,0.8307879760742187,0,0,0,0
1.7487698720069602,-1.1156979736328125,-9.3086560546875,0.9074024291992187,0,0,0,0
1.7498555649945047,-0.9457096557617187,-9.619902270507811,0.86191259765625,0,0,0,0
1.7509433679952053,-0.8475473876953125,-9.765948571777344,0.8475473876953125,0,0,0,0
1.752150818996597,-1.0342951171875,-9.306261853027344,0.9983820922851562,0,0,0,0
1.753540341000189,-0.9888052856445312,-9.586383447265625,1.3120225097656248,0,0,0,0
1.7548009949969128,-1.5107412475585937,-9.689334118652344,1.2617442749023438,0,0,0,0
1.7559283720038366,-0.41419688720703124,-9.859322436523437,1.5682020874023437,0,0,0,0
1.7571647300064797,0.19393033447265623,-9.78031378173828,1.8004396484374998,0,0,0,0
1.7585772699967492,0.02633621826171875,-10.050858569335936,1.675941162109375,0,0,0,0
1.7598539419996087,-0.7829039428710937,-9.686939916992188,1.3814543579101561,0,0,0,0
1.7610657259938307,-1.22583125,-9.504980590820312,1.254561669921875,0,0,0,0
1.7621586960012792,-1.5179238525390624,-9.60793126220703,0.9888052856445312,0,0,0,0
1.7634985339973355,-1.7310078002929687,-9.72285294189453,0.689530078125,0,0,0,0
1.7647943170013605,-1.0079588989257813,-9.572018237304688,0.7661445312499999,0,0,0,0
1.7659529530064901,-0.6823474731445313,-9.497797985839844,0.842758984375,0,0,0,0
1.7670412940060487,-0.6416460449218749,-9.495403784179686,0.8475473876953125,0,0,0,0
1.7682650960050523,-1.120486376953125,-9.114725720214842,0.8259995727539062,0,0,0,0
1.7695836380007677,-1.39821376953125,-9.311050256347656,1.0630255371093749,0,0,0,0
1.7707253289991058,-1.5346832641601562,-9.641450085449218,1.2569558715820313,0,0,0,0
1.7719139649998397,-0.6009446166992187,-9.9215716796875,1.5658078857421873,0,0,0,0
1.7730097500025295,-0.17477672119140625,-9.658209497070311,1.838746875,0,0,0,0
1.774290254994412,-0.21068974609375,-9.665392102050781,2.0757728393554684,0,0,0,0
1.7755821680038935,-0.05027823486328125,-9.581595043945311,1.9512743530273435,0,0,0,0
1.777078059996711,-0.3711012573242187,-9.402029919433593,1.8124106567382812,0,0,0,0
1.7783947870047996,-0.507570751953125,-9.739612353515625,1.1372457885742187,0,0,0,0
1.7797001250000903,-0.8475473876953125,-10.022128149414062,0.8810662109374999,0,0,0,0
1.7810252589988522,-1.199495031738281,-9.713276135253906,0.63206923828125,0,0,0,0
1.7822974309965502,-1.455674609375,-9.425971936035156,0.4525041137695312,0,0,0,0
1.7835670110071078,-1.3263877197265623,-9.124302526855468,0.5578489868164063,0,0,0,0
1.784775387000991,-1.3168109130859373,-9.349357482910156,0.6703764648437499,0,0,0,0
1.7859809299989138,-1.3646949462890625,-9.083601098632812,0.9864110839843749,0,0,0,0
1.7875732840038836,-1.2593500732421874,-9.627084875488281,1.4437036010742186,0,0,0,0
1.789098046006984,-0.17477672119140625,-9.883264453125,1.7310078002929687,0,0,0,0
1.7904423470026813,0.0,-10.244788903808594,2.1021090576171875,0,0,0,0
1.7917140740028117,-0.15322890625,-10.105925207519531,2.0254946044921875,0,0,0,0
1.7928558029962005,-0.28969840087890625,-9.598354455566406,2.04943662109375,0,0,0,0
1.7941315119969659,-0.7134720947265625,-9.3852705078125,1.7094599853515624,0,0,0,0
1.7953245370008517,-1.20667763671875,-9.507374792480467,1.1013327636718748,0,0,0,0
1.7965161169995554,-1.1659762084960936,-9.514557397460937,1.0007762939453124,0,0,0,0
1.7976160499965772,-0.8116343627929687,-9.574412438964844,0.814028564453125,0,0,0,0
1.7987088910012972,-0.7805097412109374,-9.6151138671875,0.6488286499023437,0,0,0,0
1.8001660610025283,-1.3527239379882812,-9.30147344970703,0.6416460449218749,0,0,0,0
1.8014477700053249,-1.1372457885742187,-8.951920007324219,0.7852981445312499,0,0,0,0
1.802670275006676,-1.4508862060546874,-9.320627062988281,0.7948749511718749,0,0,0,0
1.8041536300006555,-0.8259995727539062,-9.935936889648437,1.0678139404296874,0,0,0,0
1.805455117006204,-0.239420166015625,-9.789890588378906,1.5586252807617187,0,0,0,0
1.8066893999930471,-0.3232172241210937,-10.098742602539062,1.6160861206054686,0,0,0,0
1.8079843680025078,-0.3136404174804687,-9.871293444824218,1.599326708984375,0,0,0,0
1.809187948005274,-0.5961562133789062,-9.648632690429688,1.5897499023437498,0,0,0,0
1.810289325992926,-0.8954314208984374,-9.514557397460937,1.4149731811523436,0,0,0,0
1.8117272179952124,-0.8762778076171874,-9.524134204101562,1.2425906616210938,0,0,0,0
1.812834317999659,-0.4525041137695312,-9.521740002441407,1.180341418457031,0,0,0,0
1.8143201360071544,-0.7900865478515624,-9.45470235595703,0.9840168823242187,0,0,0,0
1.815848176003783,-0.8475473876953125,-9.564835632324218,1.005564697265625,0,0,0,0
1.8172661980061093,-1.0941501586914062,-9.686939916992188,0.9935936889648437,0,0,0,0
1.8184519820060814,-1.85790048828125,-9.68454571533203,0.9648632690429687,0,0,0,0
1.8196660429966869,-1.6927005737304686,-9.926360083007811,1.180341418457031,0,0,0,0
1.820958326003165,-0.39743747558593745,-9.411606726074218,1.6352397338867186,0,0,0,0
1.8221985540003516,-0.2657563842773437,-9.595960253906249,1.7980454467773437,0,0,0,0
1.8233094869938213,0.0,-9.629479077148437,1.7597382202148437,0,0,0,0
1.8243946239963407,0.10295067138671875,-9.651026892089844,1.6041151123046875,0,0,0,0
1.8254767790058395,-0.24660277099609373,-9.813832604980469,1.3527239379882812,0,0,0,0
1.8265648230008082,-0.9074024291992187,-9.82580361328125,1.0965443603515623,0,0,0,0
1.827747218994773,-1.20667763671875,-9.935936889648437,0.9935936889648437,0,0,0,0
1.8289260580058908,-0.9720458740234375,-9.756371765136718,0.9600748657226562,0,0,0,0
1.8301546750008129,-1.1635820068359375,-9.33978067626953,1.0582371337890624,0,0,0,0
1.8317024739953922,-0.7948749511718749,-9.143456140136719,1.005564697265625,0,0,0,0
1.8329715349973412,-0.9241618408203125,-9.162609753417968,0.9600748657226562,0,0,0,0
1.8343430950044421,-1.3838485595703125,-9.085995300292968,1.149216796875,0,0,0,0
1.8357158019935014,-0.7206546997070312,-9.988609326171874,1.3072341064453123,0,0,0,0
1.837493265993544,-0.430956298828125,-10.072406384277343,1.6232687255859375,0,0,0,0
1.8388203070062445,-0.02633621826171875,-9.94072529296875,1.9201497314453124,0,0,0,0
1.840303107004729,-0.1388636962890625,-9.787496386718749,1.4867992309570313,0,0,0,0
1.8419302940019406,-0.9433154541015625,-9.598354455566406,1.3431471313476562,0,0,0,0
1.8433048159931786,-1.4508862060546874,-9.507374792480467,0.7972691528320313,0,0,0,0
1.8445103410049342,-1.3096283081054687,-9.682151513671874,0.7829039428710937,0,0,0,0
1.8458774750033626,-1.0103531005859374,-9.459490759277344,0.74699091796875,0,0,0,0
1.8472164239938138,-0.7493851196289062,-9.634267480468749,0.8164227661132812,0,0,0,0
1.8484194299962837,-0.8786720092773437,-9.552864624023437,0.7924807495117187,0,0,0,0
1.8496055660070851,-1.5370774658203123,-9.337386474609374,0.97683427734375,0,0,0,0
1.8509663110016845,-1.7118541870117185,-9.629479077148437,1.0749965454101562,0,0,0,0
1.8522856860072352,-1.1013327636718748,-10.065223779296874,1.5777788940429687,0,0,0,0
1.8534721549949609,-0.4333505004882812,-9.888052856445311,1.7788918334960937,0,0,0,0
1.8546433099982096,-0.04548983154296875,-9.746794958496093,2.0159177978515626,0,0,0,0
1.856018666003365,0.1292868896484375,-9.639055883789062,1.9919757812499999,0,0,0,0
1.8573387999931583,-0.105344873046875,-9.208099584960937,1.4437036010742186,0,0,0,0
1.858534603001317,-0.6488286499023437,-9.399635717773437,1.2282254516601563,0,0,0,0
1.8597296090010786,-1.3215993164062498,-9.6917283203125,1.0007762939453124,0,0,0,0
1.861115093997796,-1.01514150390625,-9.801861596679688,0.8499415893554687,0,0,0,0
1.862521597999148,-0.9576806640625,-9.593566052246093,0.814028564453125,0,0,0,0
1.8649582390062278,-0.8116343627929687,-9.351751684570312,0.8355763793945312,0,0,0,0
1.8661601710045943,-1.3168109130859373,-9.030928662109375,1.0678139404296874,0,0,0,0
1.8673687139962567,-1.5418658691406248,-9.8449572265625,1.158793603515625,0,0,0,0
1.8685347019927576,-0.70868369140625,-9.409212524414063,1.5945383056640625,0,0,0,0
1.8696355430001859,-0.38786066894531246,-9.87608184814453,1.5897499023437498,0,0,0,0
1.870732623996446,-0.296881005859375,-10.158597644042969,1.687912170410156,0,0,0,0
1.8719694260071265,-0.0526724365234375,-10.101136804199218,1.8291700683593748,0,0,0,0
1.8731310620059958,-0.26336218261718747,-9.91438907470703,1.4125789794921875,0,0,0,0
1.8742438470071647,-0.9816226806640624,-9.797073193359374,1.2282254516601563,0,0,0,0
1.875336632001563,-1.5418658691406248,-9.689334118652344,1.0678139404296874,0,0,0,0
1.8764098240062594,-0.9911994873046874,-9.528922607421874,1.1252747802734375,0,0,0,0
1.877605941001093,-1.0773907470703123,-9.358934289550781,1.0342951171875,0,0,0,0
1.878850983994198,-0.7278373046875,-9.682151513671874,0.8834604125976562,0,0,0,0
1.8801843959954567,-0.8188169677734375,-9.471461767578125,0.7685387329101562,0,0,0,0
1.8814181979978457,-0.9528922607421875,-9.550470422363281,0.7829039428710937,0,0,0,0
1.8828629789932165,-1.70467158203125,-9.6917283203125,0.8762778076171874,0,0,0,0
1.8842472980031744,-0.8283937744140625,-10.168174450683592,1.3096283081054687,0,0,0,0
1.8855608769954415,-0.6607996582031249,-9.789890588378906,1.3910311645507811,0,0,0,0
1.8868319379980676,-0.3136404174804687,-9.710881933593749,1.68551796875,0,0,0,0
