Time (s),Accel X1,Accel Y1,Accel Z1,Accel X2,Accel Y2,Accel Z2
9.385100020153914e-05,0,0,1.3263877197265623,0,0,0.6890625
0.003710199000124703,0,0,1.3000515014648437,0,0,0.30625
0.008050464999541873,0,0,1.4508862060546874,0,0,0.6890625
0.011581942999328021,0,0,1.3718775512695311,0,0,0.6125
0.016205686999455793,0,0,1.5107412475585937,0,0,1.0718750000000001
0.01977574000011373,0,0,1.3814543579101561,0,0,0.8421875000000001
0.02519021599982807,0,0,1.3168109130859373,0,0,0.9187500000000001
0.0288848220006912,0,0,1.5490484741210937,0,0,0.5359375000000001
0.032498669999768026,0,0,1.3575123413085937,0,0,1.0718750000000001
0.03603913000006287,0,0,1.6041151123046875,0,0,0.45937500000000003
0.03960957100025553,0,0,1.5777788940429687,0,0,1.3015625000000002
0.04291912699954992,0,0,1.3479355346679687,0,0,1.0718750000000001
0.04613410899946757,0,0,1.5011644409179687,0,0,0.5359375000000001
0.04929701800028852,0,0,1.6998831787109374,0,0,0.45937500000000003
0.0524842599988915,0,0,1.2785036865234374,0,0,0.30625
0.05564755699924717,0,0,1.3527239379882812,0,0,0.765625
0.05889248399944336,0,0,1.6639701538085936,0,0,0.6125
0.06246453600033419,0,0,1.3096283081054687,0,0,0.30625
0.06568631399932201,0,0,1.2330138549804688,0,0,0.9187500000000001
0.06888818600054947,0,0,1.5059528442382812,0,0,1.225
0.07210481599940977,0,0,1.1109095703125,0,0,0.9187500000000001
0.0752931869992608,0,0,1.2952630981445312,0,0,0.153125
0.07848172500052897,0,0,1.3431471313476562,0,0,1.1484375
0.0822048320005706,0,0,1.235408056640625,0,0,1.0718750000000001
0.08547825799905695,0,0,1.3431471313476562,0,0,0.153125
0.08869549900009588,0,0,1.5251064575195312,0,0,0.9187500000000001
0.09194677699997555,0,0,1.3000515014648437,0,0,1.225
0.09523220299888635,0,0,1.2617442749023438,0,0,0.3828125
0.09854412899949239,0,0,1.3742717529296875,0,0,0.8421875000000001
0.10200645999975677,0,0,1.2497732666015624,0,0,1.1484375
0.10551340199890547,0,0,1.3239935180664062,0,0,0.0765625
0.10880599399933999,0,0,1.6208745239257811,0,0,0.8421875000000001
0.11202358799891954,0,0,1.3455413330078123,0,0,1.1484375
0.11524829200061504,0,0,1.2330138549804688,0,0,0.9187500000000001
0.11862503200063657,0,0,1.4221557861328125,0,0,0.6125
0.1219811609989847,0,0,1.235408056640625,0,0,0.45937500000000003
0.12523340199913946,0,0,1.2928688964843749,0,0,0.30625
0.12894834100006847,0,0,1.3479355346679687,0,0,0.9953125
0.13225106299978506,0,0,1.3144167114257812,0,0,0.765625
0.1358855409998796,0,0,1.3551181396484375,0,0,0.30625
0.13910963399939646,0,0,1.2473790649414063,0,0,0.6125
0.1417719559995021,0,0,1.3215993164062498,0,0,1.3015625000000002
0.14439818599930732,0,0,1.2378022583007813,0,0,0.9187500000000001
0.14738789299917698,0,0,1.4030021728515625,0,0,0.6890625
0.1500345849999576,0,0,1.4604630126953124,0,0,1.378125
0.1528113869990193,0,0,1.0797849487304687,0,0,0.6890625
0.15544063500055927,0,0,1.369483349609375,0,0,0.22968750000000002
0.15843406400017557,0,0,1.5107412475585937,0,0,0.8421875000000001
0.1619996720000927,0,0,1.2282254516601563,0,0,0.8421875000000001
0.16531095000027562,0,0,1.3144167114257812,0,0,0.6125
0.16794056800063117,0,0,1.455674609375,0,0,1.1484375
0.17065018599896575,0,0,1.3215993164062498,0,0,1.3015625000000002
0.17324234199986677,0,0,1.2425906616210938,0,0,0.30625
0.17593029300041962,0,0,1.3359645263671873,0,0,0.765625
0.17871992800064618,0,0,1.5035586425781249,0,0,0.8421875000000001
0.18146645200067724,0,0,1.668758557128906,0,0,0.3828125
0.18405257099948358,0,0,1.2401964599609374,0,0,0.765625
0.1869654090005497,0,0,1.3431471313476562,0,0,0.6125
0.18977239599917084,0,0,1.419761584472656,0,0,0.6890625
0.1923769219993119,0,0,1.2761094848632812,0,0,1.3015625000000002
0.19508141000005708,0,0,1.407790576171875,0,0,0.6890625
0.1976809179996053,0,0,1.3958195678710936,0,0,0.30625
0.20059845899959328,0,0,1.4508862060546874,0,0,0.9187500000000001
0.20325839199904294,0,0,1.2713210815429687,0,0,0.3828125
0.2058985660005419,0,0,1.3120225097656248,0,0,0.9187500000000001
0.20885488400017493,0,0,1.4772224243164063,0,0,1.6078125
0.2116427790006128,0,0,1.6328455322265625,0,0,0.9187500000000001
0.21432869300042512,0,0,1.3670891479492187,0,0,1.225
0.21718019800027832,0,0,1.35990654296875,0,0,0.9953125
0.22006238699941605,0,0,1.4030021728515625,0,0,0.8421875000000001
0.22299983599987172,0,0,1.2569558715820313,0,0,1.378125
0.22581263699976262,0,0,1.1707646118164061,0,0,1.0718750000000001
0.22863995700026862,0,0,1.484405029296875,0,0,0.9953125
0.23136325999985274,0,0,1.4149731811523436,0,0,1.225
0.23411185899931297,0,0,1.3215993164062498,0,0,0.765625
0.23686736399940855,0,0,1.3168109130859373,0,0,1.1484375
0.24036526899908495,0,0,1.22583125,0,0,0.6890625
0.24340369799938344,0,0,1.3072341064453123,0,0,0.8421875000000001
0.24651403300049424,0,0,1.3359645263671873,0,0,0.8421875000000001
0.24947088899898517,0,0,1.4221557861328125,0,0,0.153125
0.25236970799960545,0,0,1.6711527587890624,0,0,0.6890625
0.2552441389998421,0,0,1.2761094848632812,0,0,0.45937500000000003
0.2583333450002101,0,0,1.3024457031249999,0,0,0.0765625
0.2613093479994859,0,0,1.2306196533203124,0,0,0.45937500000000003
0.2643248879994644,0,0,1.350329736328125,0,0,0.22968750000000002
0.2672031889997015,0,0,1.2856862915039062,0,0,0.6125
0.27027569100027904,0,0,1.608903515625,0,0,0.9187500000000001
0.27331341599892767,0,0,1.4317325927734375,0,0,1.0718750000000001
0.27685844999905385,0,0,1.3048399047851562,0,0,1.1484375
0.27982206500018947,0,0,1.3551181396484375,0,0,0.9953125
0.28271099499943375,0,0,1.484405029296875,0,0,0.8421875000000001
0.28561444399929314,0,0,1.3239935180664062,0,0,0.3828125
0.28907712699947297,0,0,1.2832920898437499,0,0,0.153125
0.2925301249997574,0,0,1.2521674682617188,0,0,-8.6515625
0.29576514399923326,0,0,1.1923124267578125,0,0,0.6890625
0.2988452019999386,0,0,1.3096283081054687,0,0,0.6125
0.30181924299904495,0,0,1.448492004394531,0,0,0.5359375000000001
0.3046976919995359,0,0,1.235408056640625,0,0,1.1484375
0.3081182459991396,0,0,1.3048399047851562,0,0,0.45937500000000003
0.3111716189996514,0,0,1.4413093994140624,0,0,0.8421875000000001
0.31422339900018414,0,0,1.2880804931640624,0,0,1.1484375
0.3171157739998307,0,0,1.3766659545898436,0,0,1.0718750000000001
0.3201053140001022,0,0,1.4532804077148436,0,0,0.9953125
0.3231538910004019,0,0,1.6472107421875,0,0,0.22968750000000002
0.3262041340003634,0,0,1.3048399047851562,0,0,1.225
0.329074490999119,0,0,1.4508862060546874,0,0,1.3015625000000002
0.33206197599974985,0,0,1.3527239379882812,0,0,0.8421875000000001
0.3349415909997333,0,0,1.4437036010742186,0,0,1.225
0.33817366599942034,0,0,1.2713210815429687,0,0,1.225
0.3409633749997738,0,0,1.5203180541992187,0,0,1.225
0.34371730699967884,0,0,1.3742717529296875,0,0,1.0718750000000001
0.346402481000041,0,0,1.2521674682617188,0,0,1.378125
0.3491073940003844,0,0,1.2425906616210938,0,0,1.6843750000000002
0.3520990460001485,0,0,1.484405029296875,0,0,0.8421875000000001
0.3547799230000237,0,0,1.5394716674804687,0,0,1.3015625000000002
0.35750420700060204,0,0,1.0869675537109373,0,0,0.3828125
0.36034432300039043,0,0,1.3934253662109375,0,0,0.6125
0.3633705110005394,0,0,1.3192051147460937,0,0,0.6890625
0.3661573129993485,0,0,1.3383587280273437,0,0,0.30625
0.3689362999994046,0,0,1.2306196533203124,0,0,1.0718750000000001
0.3716120110002521,0,0,1.254561669921875,0,0,0.6890625
0.3743240909989254,0,0,1.5945383056640625,0,0,1.1484375
0.3771813370003656,0,0,1.254561669921875,0,0,0.9187500000000001
0.3804003009990993,0,0,1.3000515014648437,0,0,0.45937500000000003
0.38323930600017775,0,0,1.2641384765625,0,0,0.765625
0.38621756800057483,0,0,1.2425906616210938,0,0,0.6890625
0.388849298000423,0,0,1.16837041015625,0,0,0.9953125
0.3915894889996707,0,0,1.5155296508789062,0,0,1.0718750000000001
0.39422084800025914,0,0,1.4604630126953124,0,0,1.378125
0.39697581700056617,0,0,1.2832920898437499,0,0,0.30625
0.39973011999973096,0,0,1.5011644409179687,0,0,0.6125
0.4024599959993793,0,0,1.3814543579101561,0,0,0.6125
0.40504735600006825,0,0,1.5322890624999999,0,0,0.6890625
0.40780489899952954,0,0,1.3144167114257812,0,0,1.378125
0.4104709429993818,0,0,1.24498486328125,0,0,1.4546875000000001
0.413874071000464,0,0,1.4173673828125,0,0,0.5359375000000001
0.41663637300007395,0,0,1.3239935180664062,0,0,1.0718750000000001
0.4194108789997699,0,0,1.2713210815429687,0,0,0.8421875000000001
0.42200446099923283,0,0,1.446097802734375,0,0,0.9953125
0.4247414490000665,0,0,1.3718775512695311,0,0,1.4546875000000001
0.4276466569990589,0,0,1.3575123413085937,0,0,1.0718750000000001
0.4305008840001392,0,0,1.4628572143554686,0,0,0.45937500000000003
0.43318055700001423,0,0,1.4125789794921875,0,0,0.3828125
0.43594234100055473,0,0,1.5394716674804687,0,0,0.8421875000000001
0.4386620320001384,0,0,1.2713210815429687,0,0,0.765625
0.4414914819990372,0,0,1.22583125,0,0,0.153125
0.4444680220003647,0,0,1.2641384765625,0,0,0.9187500000000001
0.44753841400051897,0,0,1.22583125,0,0,0.5359375000000001
0.4504256769996573,0,0,1.5251064575195312,0,0,0.30625
0.45334412599913776,0,0,1.484405029296875,0,0,0.5359375000000001
0.45642111000051955,0,0,1.426944189453125,0,0,0.6890625
0.45973188700008905,0,0,1.0821791503906248,0,0,1.6843750000000002
0.4626960200002941,0,0,1.484405029296875,0,0,1.225
0.46571324599972286,0,0,1.438915197753906,0,0,1.225
0.4686412310002197,0,0,1.2617442749023438,0,0,0.8421875000000001
0.47157866099951207,0,0,1.5107412475585937,0,0,1.225
0.4745044430001144,0,0,1.4604630126953124,0,0,1.1484375
0.4774992980001116,0,0,1.2808978881835937,0,0,0.9187500000000001
0.4804530239998712,0,0,1.2665326782226562,0,0,0.765625
0.4837337640001351,0,0,1.4053963745117186,0,0,0.5359375000000001
0.4866683420004847,0,0,1.5729904907226562,0,0,0.5359375000000001
0.48957945800066227,0,0,1.2761094848632812,0,0,0.45937500000000003
0.4924576849989535,0,0,1.5298948608398437,0,0,0.22968750000000002
0.49538659599966195,0,0,1.3383587280273437,0,0,1.378125
0.4986715960003494,0,0,1.2785036865234374,0,0,0.6890625
0.51030096499926,0,0,1.2210428466796874,0,0,0.6125
0.513388262999797,0,0,1.3120225097656248,0,0,1.0718750000000001
0.5164919870003359,0,0,1.3838485595703125,0,0,1.225
0.5193755479995161,0,0,1.3407529296874998,0,0,0.6890625
0.5224692720003077,0,0,1.438915197753906,0,0,0.3828125
0.5255973109997285,0,0,1.3168109130859373,0,0,0.6890625
0.5285281849992316,0,0,1.2880804931640624,0,0,0.8421875000000001
0.5314120229995751,0,0,1.3359645263671873,0,0,0.45937500000000003
0.5343107859989686,0,0,1.429338391113281,0,0,0.5359375000000001
0.5373053450002772,0,0,1.5705962890624998,0,0,0.6890625
0.5405865299999277,0,0,1.2114660400390624,0,0,0.22968750000000002
0.5435976819990174,0,0,1.4724340209960938,0,0,1.0718750000000001
0.5465035010001884,0,0,1.2689268798828124,0,0,1.1484375
0.5493839869996009,0,0,1.3239935180664062,0,0,-852.8296875000001
0.5523275830000784,0,0,1.4891934326171874,0,0,1.0718750000000001
0.5552100320001045,0,0,1.4413093994140624,0,0,0.6890625
0.558116924999922,0,0,1.4221557861328125,0,0,0.5359375000000001
0.5611567609994381,0,0,1.2282254516601563,0,0,0.8421875000000001
0.5640984689998731,0,0,1.419761584472656,0,0,1.1484375
0.5669890469998791,0,0,1.2425906616210938,0,0,1.1484375
0.5699280699991505,0,0,1.2497732666015624,0,0,0.6125
0.5728197409989662,0,0,1.4245499877929686,0,0,1.3015625000000002
0.5758270770002127,0,0,1.3910311645507811,0,0,0.8421875000000001
0.5791038000006665,0,0,1.2401964599609374,0,0,0.9187500000000001
0.5820932659989921,0,0,1.407790576171875,0,0,0.5359375000000001
0.5857729839990498,0,0,1.4053963745117186,0,0,0.6890625
0.5887357279989374,0,0,1.6352397338867186,0,0,0.8421875000000001
0.5922090410003875,0,0,1.3527239379882812,0,0,0.8421875000000001
0.5953148200005671,0,0,1.4891934326171874,0,0,0.3828125
0.5987548369994329,0,0,1.5945383056640625,0,0,0.765625
0.6017533029989863,0,0,1.158793603515625,0,0,0.45937500000000003
0.6047830099996645,0,0,1.3239935180664062,0,0,1.378125
0.607859567999185,0,0,1.3407529296874998,0,0,1.0718750000000001
0.610769849999997,0,0,1.3144167114257812,0,0,0.8421875000000001
0.6137861679999332,0,0,1.4724340209960938,0,0,1.7609375
0.6166671720002341,0,0,1.3958195678710936,0,0,1.225
0.619784840999273,0,0,1.4317325927734375,0,0,0.9187500000000001
0.6226295859996753,0,0,1.1228805786132812,0,0,0.765625
0.6256117379998614,0,0,1.5251064575195312,0,0,1.1484375
0.6285496489999787,0,0,1.6041151123046875,0,0,1.225
0.6314776719991642,0,0,1.2976572998046874,0,0,0.8421875000000001
0.6344321750002564,0,0,1.3718775512695311,0,0,0.9953125
0.63732582800003,0,0,1.3670891479492187,0,0,0.45937500000000003
0.6403999409994867,0,0,1.2306196533203124,0,0,0.6125
0.6434728509993874,0,0,1.3814543579101561,0,0,0.5359375000000001
0.6465192609994119,0,0,1.467645617675781,0,0,0.5359375000000001
0.6494098029997986,0,0,1.5394716674804687,0,0,0.6890625
0.6523858250002377,0,0,1.2785036865234374,0,0,0.9187500000000001
0.6552950330005842,0,0,1.3287819213867187,0,0,-9.723437500000001
0.6583079060001182,0,0,1.2401964599609374,0,0,0.6890625
0.661178595999445,0,0,1.4125789794921875,0,0,0.6125
0.6643699489995925,0,0,1.3120225097656248,0,0,1.1484375
0.6674157479992573,0,0,1.429338391113281,0,0,1.3015625000000002
0.6706414340005722,0,0,1.2952630981445312,0,0,1.1484375
0.6735429750006006,0,0,1.2378022583007813,0,0,0.765625
0.6766007000005629,0,0,1.429338391113281,0,0,0.6890625
0.6795068520004861,0,0,1.5490484741210937,0,0,0.765625
0.68248531899917,0,0,1.3551181396484375,0,0,0.8421875000000001
0.6854363780003041,0,0,1.2713210815429687,0,0,-9.723437500000001
0.6884465479997743,0,0,1.3766659545898436,0,0,0.3828125
0.6913480519997393,0,0,1.3766659545898436,0,0,0.5359375000000001
0.6943759249988943,0,0,1.4724340209960938,0,0,0.6890625
0.6972876139989239,0,0,1.407790576171875,0,0,0.45937500000000003
0.7004430969991517,0,0,1.5514426757812498,0,0,0.6125
0.7034228789998451,0,0,1.0845733520507812,0,0,0.8421875000000001
0.706323419999535,0,0,1.3407529296874998,0,0,1.378125
0.7091982210004062,0,0,1.3407529296874998,0,0,0.9187500000000001
0.712128429000586,0,0,1.426944189453125,0,0,0.8421875000000001
0.7149981549991935,0,0,1.3048399047851562,0,0,0.9187500000000001
0.7179205850006838,0,0,1.47482822265625,0,0,0.6125
0.7207946460002859,0,0,1.6065093139648436,0,0,0.765625
0.7237942230003682,0,0,1.0773907470703123,0,0,0.45937500000000003
0.7267709669995384,0,0,1.4724340209960938,0,0,1.0718750000000001
0.7298653020006896,0,0,1.3479355346679687,0,0,1.225
0.7327238809994014,0,0,1.3862427612304686,0,0,0.9187500000000001
0.735658051999053,0,0,1.4413093994140624,0,0,1.4546875000000001
0.738536111999565,0,0,1.2713210815429687,0,0,0.9953125
0.7414791709998099,0,0,1.4628572143554686,0,0,0.6890625
0.7442580289989564,0,0,1.1156979736328125,0,0,0.8421875000000001
0.7470663309995871,0,0,1.2976572998046874,0,0,1.4546875000000001
0.7507128079996619,0,0,1.6807295654296874,0,0,0.9953125
0.753639127000497,0,0,1.2737152832031249,0,0,0.6890625
0.7564038729997264,0,0,1.2856862915039062,0,0,0.8421875000000001
0.7591394169994601,0,0,1.2832920898437499,0,0,1.0718750000000001
0.7617181650002749,0,0,1.4101847778320311,0,0,0.8421875000000001
0.7645173559994873,0,0,1.2114660400390624,0,0,0.9187500000000001
0.7671248269998614,0,0,1.4006079711914061,0,0,0.0
0.7698837209991325,0,0,1.3335703247070312,0,0,0.5359375000000001
0.7729411309992429,0,0,1.13006318359375,0,0,1.6843750000000002
0.7758988019995741,0,0,1.4245499877929686,0,0,1.1484375
0.7788379909998184,0,0,1.5131354492187499,0,0,0.22968750000000002
0.7814970719991834,0,0,1.6400281372070311,0,0,1.53125
0.784244836999278,0,0,1.1180921752929687,0,0,0.765625
0.787037768999653,0,0,1.407790576171875,0,0,0.8421875000000001
0.7896307949995389,0,0,1.3551181396484375,0,0,0.9187500000000001
0.7922302839997428,0,0,1.2808978881835937,0,0,1.1484375
0.7950883630001044,0,0,1.3048399047851562,0,0,0.6125
0.7978154430002178,0,0,1.2928688964843749,0,0,0.45937500000000003
0.8005329679999704,0,0,1.2904746948242187,0,0,0.6125
0.8031385310005135,0,0,1.3958195678710936,0,0,0.765625
0.8064326610001444,0,0,1.467645617675781,0,0,2.45
0.8095213109991164,0,0,1.4963760375976562,0,0,0.765625
0.8123898339999869,0,0,1.5227122558593749,0,0,0.9187500000000001
0.8151497109993215,0,0,1.2737152832031249,0,0,0.765625
0.8179924380001466,0,0,1.2928688964843749,0,0,0.153125
0.8207455920000939,0,0,1.2665326782226562,0,0,0.6890625
0.8235297270002775,0,0,1.3096283081054687,0,0,0.153125
0.8263458620003803,0,0,1.4891934326171874,0,0,0.765625
0.8291365530003532,0,0,1.446097802734375,0,0,0.765625
0.8317528200004745,0,0,1.47482822265625,0,0,1.225
0.834641527999338,0,0,1.4030021728515625,0,0,0.9187500000000001
0.8373751819999598,0,0,1.22583125,0,0,1.4546875000000001
0.8400641699990956,0,0,1.3934253662109375,0,0,0.9953125
0.8431729130006715,0,0,1.2737152832031249,0,0,1.8375000000000001
0.846449931999814,0,0,1.5298948608398437,0,0,0.6125
0.8492033639995498,0,0,1.4915876342773438,0,0,0.9187500000000001
0.8519705729995621,0,0,1.2737152832031249,0,0,1.378125
0.8546582839990151,0,0,1.2880804931640624,0,0,0.9187500000000001
0.8574792889994569,0,0,1.5179238525390624,0,0,2.296875
0.8603271079991828,0,0,1.3742717529296875,0,0,0.9187500000000001
0.8630116339991218,0,0,1.608903515625,0,0,0.765625
0.8657611399994494,0,0,1.1851298217773436,0,0,0.765625
0.8683647029993153,0,0,1.4006079711914061,0,0,0.3828125
0.8711672819990781,0,0,1.2856862915039062,0,0,0.9953125
0.8738384190000943,0,0,1.2282254516601563,0,0,0.9953125
0.8765268890001607,0,0,1.2856862915039062,0,0,0.6890625
0.8790987859993038,0,0,1.446097802734375,0,0,0.45937500000000003
0.881863827999041,0,0,1.3311761230468748,0,0,0.8421875000000001
0.884550742999636,0,0,1.4915876342773438,0,0,0.6125
0.8872344529991096,0,0,1.369483349609375,0,0,0.8421875000000001
0.8899623109991808,0,0,1.4101847778320311,0,0,0.9187500000000001
0.8931477009991795,0,0,1.7094599853515624,0,0,1.0718750000000001
0.8963187389999803,0,0,1.209071838378906,0,0,0.45937500000000003
0.8990365240006213,0,0,1.5227122558593749,0,0,0.153125
0.9018219549998321,0,0,1.2401964599609374,0,0,0.6125
0.9047029230005137,0,0,1.01514150390625,0,0,0.30625
0.9073095229996397,0,0,2.003946789550781,0,0,1.1484375
0.9099966409994522,0,0,1.3910311645507811,0,0,0.9187500000000001
0.9127209799989942,0,0,1.3479355346679687,0,0,0.5359375000000001
0.9155414859997109,0,0,1.5322890624999999,0,0,0.6890625
0.9181493819996831,0,0,1.1516109985351561,0,0,1.225
0.9208822029995645,0,0,1.3455413330078123,0,0,0.45937500000000003
0.9234913589989446,0,0,1.9225439331054686,0,0,0.9953125
0.9261804580000899,0,0,1.2832920898437499,0,0,0.8421875000000001
0.9287782070005051,0,0,1.2401964599609374,0,0,1.53125
0.9316130259994679,0,0,1.5466542724609373,0,0,1.0718750000000001
0.934342385000491,0,0,1.2593500732421874,0,0,0.8421875000000001
0.9372161110004527,0,0,1.2856862915039062,0,0,0.6125
0.940096022999569,0,0,1.3958195678710936,0,0,1.7609375
0.9428808809989278,0,0,1.4030021728515625,0,0,1.0718750000000001
0.945797885000502,0,0,1.3575123413085937,0,0,0.6125
0.9486491490006301,0,0,1.5251064575195312,0,0,1.0718750000000001
0.9515576350004267,0,0,1.5705962890624998,0,0,0.9187500000000001
0.9545615080005518,0,0,1.448492004394531,0,0,0.6125
0.9574453459990764,0,0,1.369483349609375,0,0,1.225
0.9601767229996767,0,0,1.4820108276367188,0,0,1.0718750000000001
0.9630355979988963,0,0,1.2521674682617188,0,0,0.9953125
0.9658176409993757,0,0,1.13006318359375,0,0,0.9187500000000001
0.9687849219990312,0,0,1.407790576171875,0,0,0.8421875000000001
0.9715917789999367,0,0,1.3838485595703125,0,0,0.9187500000000001
0.9745870049991936,0,0,1.678335363769531,0,0,0.9953125
0.9775138599998172,0,0,1.2689268798828124,0,0,0.8421875000000001
0.9807791940002062,0,0,1.5107412475585937,0,0,1.378125
0.9837284009990981,0,0,1.388636962890625,0,0,1.0718750000000001
0.9865243330004887,0,0,1.47482822265625,0,0,0.765625
0.9893065050000587,0,0,1.4963760375976562,0,0,1.6078125
0.9920542700001533,0,0,1.388636962890625,0,0,0.5359375000000001
0.9946654079994914,0,0,1.6735469604492186,0,0,0.9187500000000001
0.997549096999137,0,0,1.3575123413085937,0,0,0.9953125
1.000340917998983,0,0,1.3718775512695311,0,0,-852.8296875000001
1.0031678300001658,0,0,1.3215993164062498,0,0,0.45937500000000003
1.0059154099999432,0,0,1.120486376953125,0,0,0.9187500000000001
1.008694526999534,0,0,1.5131354492187499,0,0,1.0718750000000001
1.0114281629994366,0,0,1.5346832641601562,0,0,1.1484375
1.0141851129992574,0,0,1.7908628417968748,0,0,1.225
1.0170556180000858,0,0,1.5203180541992187,0,0,0.9953125
1.0204960979990574,0,0,1.2282254516601563,0,0,-9.8
1.023293566000575,0,0,1.2928688964843749,0,0,0.5359375000000001
1.0261975699995673,0,0,1.2497732666015624,0,0,0.5359375000000001
1.0291143340000417,0,0,1.2306196533203124,0,0,0.6125
1.0319663390000642,0,0,1.5035586425781249,0,0,0.6125
1.0347713999999542,0,0,1.687912170410156,0,0,1.1484375
1.037509776000661,0,0,1.4891934326171874,0,0,0.8421875000000001
1.040378891999353,0,0,1.426944189453125,0,0,1.6843750000000002
1.0429693259993655,0,0,1.6304513305664061,0,0,0.9187500000000001
1.045612574000188,0,0,1.5251064575195312,0,0,0.6890625
1.0481938409993745,0,0,1.0199299072265624,0,0,0.6125
1.0508452920003037,0,0,1.3024457031249999,0,0,0.153125
1.0533832820001408,0,0,1.388636962890625,0,0,1.990625
1.0562408980003966,0,0,1.2761094848632812,0,0,1.3015625000000002
1.0590098299999227,0,0,1.5011644409179687,0,0,0.9953125
1.0617929469990486,0,0,1.6112977172851561,0,0,1.4546875000000001
1.0644128059993818,0,0,1.4939818359375,0,0,1.0718750000000001
1.0670492389999708,0,0,1.0917559570312498,0,0,0.3828125
1.0698471519990562,0,0,1.2689268798828124,0,0,0.3828125
1.072400345999995,0,0,1.4030021728515625,0,0,1.0718750000000001
1.074912501999279,0,0,1.5298948608398437,0,0,1.4546875000000001
1.077615952999622,0,0,1.4987702392578124,0,0,1.4546875000000001
1.0803121270000702,0,0,1.6400281372070311,0,0,0.8421875000000001
1.0828752460001851,0,0,1.7310078002929687,0,0,0.0
1.0856098450003628,0,0,1.714248388671875,0,0,0.8421875000000001
1.0882227040001453,0,0,0.9169792358398436,0,0,0.6125
1.090837730000203,0,0,1.16837041015625,0,0,1.225
1.0933905719994073,0,0,1.4030021728515625,0,0,0.9187500000000001
1.0960102459994232,0,0,1.7717092285156248,0,0,0.9187500000000001
1.0986288269996294,0,0,1.3838485595703125,0,0,0.8421875000000001
1.1013972219989228,0,0,1.70467158203125,0,0,-9.1875
1.104083210000681,0,0,1.3934253662109375,0,0,0.5359375000000001
1.106678310999996,0,0,1.3168109130859373,0,0,0.5359375000000001
1.1090854129997751,0,0,1.0223241088867188,0,0,0.765625
1.1115969219990802,0,0,1.180341418457031,0,0,1.6078125
1.1140997820002667,0,0,1.5921441040039062,0,0,1.4546875000000001
1.1165018289993895,0,0,1.9752163696289062,0,0,1.1484375
1.1188510989995848,0,0,1.8243816650390623,0,0,0.6125
1.121577679999973,0,0,1.5251064575195312,0,0,1.1484375
1.1242063169993344,0,0,1.0295067138671874,0,0,0.765625
1.1267806390005717,0,0,1.0127473022460938,0,0,0.765625
1.129407758000525,0,0,1.0941501586914062,0,0,0.9187500000000001
1.131911914999364,0,0,1.6136919189453125,0,0,1.1484375
1.1344349789997068,0,0,1.7022773803710936,0,0,1.1484375
1.1368015999996715,0,0,1.7357962036132812,0,0,0.5359375000000001
1.1394722370005184,0,0,1.1061211669921875,0,0,0.5359375000000001
1.1419304499995633,0,0,1.1707646118164061,0,0,0.765625
1.1435761909997382,0,0,1.3000515014648437,0,0,1.378125
1.1452622639990295,0,0,1.47482822265625,0,0,1.378125
1.146812802000568,0,0,1.8004396484374998,0,0,1.3015625000000002
1.1483445069989102,0,0,1.695094775390625,0,0,0.9187500000000001
1.1498746010001923,0,0,1.66636435546875,0,0,0.9187500000000001
1.1515076199993928,0,0,1.7094599853515624,0,0,0.6890625
1.1530845460001728,0,0,1.4508862060546874,0,0,0.0
1.1546091029995296,0,0,1.2330138549804688,0,0,0.0
1.1561932339991472,0,0,1.1563994018554686,0,0,0.3828125
1.15790143599952,0,0,0.9457096557617187,0,0,0.8421875000000001
1.1596079909995751,0,0,1.2330138549804688,0,0,1.0718750000000001
1.1612989349996496,0,0,1.4628572143554686,0,0,0.9187500000000001
1.1630050639996625,0,0,1.438915197753906,0,0,0.9187500000000001
1.164840061999712,0,0,1.5442600708007812,0,0,0.3828125
1.1665171360000386,0,0,1.848323681640625,0,0,0.765625
1.1681849870001315,0,0,1.446097802734375,0,0,0.5359375000000001
1.169806523999796,0,0,1.180341418457031,0,0,0.8421875000000001
1.171454506000373,0,0,1.2880804931640624,0,0,1.1484375
1.1731297280002764,0,0,1.2473790649414063,0,0,1.1484375
1.1747149319999153,0,0,1.5634136840820312,0,0,1.0718750000000001
1.1762420809991454,0,0,1.9033903198242186,0,0,0.6125
1.1777557309997064,0,0,1.5849614990234373,0,0,0.9187500000000001
1.1794063050001569,0,0,1.3862427612304686,0,0,0.6125
1.180987694999203,0,0,1.438915197753906,0,0,0.9187500000000001
1.1828555249994679,0,0,1.2928688964843749,0,0,1.4546875000000001
1.1844731549990684,0,0,1.2114660400390624,0,0,1.0718750000000001
1.1861277850002807,0,0,1.3144167114257812,0,0,1.0718750000000001
1.1877105820003635,0,0,1.37906015625,0,0,0.9953125
1.189305971000067,0,0,1.2306196533203124,0,0,0.6125
1.190905045999898,0,0,1.2665326782226562,0,0,0.30625
1.192583026999273,0,0,1.1659762084960936,0,0,0.30625
1.1941811380002036,0,0,1.2976572998046874,0,0,0.5359375000000001
1.1958398599999782,0,0,1.6615759521484375,0,0,1.225
1.1974221019991091,0,0,1.8363526733398436,0,0,1.3015625000000002
1.199159748999591,0,0,1.6256629272460936,0,0,0.9953125
1.2011234120000154,0,0,1.0821791503906248,0,0,0.5359375000000001
1.202885206999781,0,0,1.5203180541992187,0,0,1.1484375
1.2045474289989215,0,0,1.6807295654296874,0,0,0.9953125
1.2061566329994093,0,0,1.2689268798828124,0,0,2.0671875
1.2078762059991277,0,0,1.158793603515625,0,0,1.3015625000000002
1.2094722250003542,0,0,1.0079588989257813,0,0,0.5359375000000001
1.2115439979988878,0,0,1.5179238525390624,0,0,0.9953125
1.2132472569992387,0,0,1.6232687255859375,0,0,1.7609375
1.2147801099999924,0,0,1.9129671264648436,0,0,1.4546875000000001
1.2163694810005836,0,0,1.7286135986328124,0,0,0.9187500000000001
1.2180477210004028,0,0,1.5466542724609373,0,0,0.9187500000000001
1.2198269599994092,0,0,1.5442600708007812,0,0,0.9953125
1.221488811999734,0,0,1.6041151123046875,0,0,1.225
1.2240708749995974,0,0,1.484405029296875,0,0,832.6171875000001
1.226002815999891,0,0,1.254561669921875,0,0,0.6125
1.2277357229995687,0,0,1.6041151123046875,0,0,0.6125
1.2293420379992313,0,0,1.5107412475585937,0,0,0.8421875000000001
1.2308776320005563,0,0,1.1540052001953125,0,0,0.9953125
1.2326624449997325,0,0,1.209071838378906,0,0,0.3828125
1.2343539260000398,0,0,1.3575123413085937,0,0,832.69375
1.236023073999604,0,0,1.6065093139648436,0,0,0.6890625
1.2379093489998922,0,0,1.8315642700195311,0,0,0.9953125
1.2394767379992118,0,0,1.3958195678710936,0,0,0.765625
1.2410029990005569,0,0,1.2785036865234374,0,0,2.2203125000000004
1.2428264409991243,0,0,1.3838485595703125,0,0,0.9187500000000001
1.244492903999344,0,0,1.649604943847656,0,0,0.22968750000000002
1.2461089779990289,0,0,1.407790576171875,0,0,0.45937500000000003
1.247637627999211,0,0,1.6807295654296874,0,0,0.0
1.2493213870002364,0,0,1.656787548828125,0,0,0.6890625
1.2510118119989784,0,0,1.3335703247070312,0,0,0.9187500000000001
1.252930197999376,0,0,1.2378022583007813,0,0,0.9187500000000001
1.254605864000041,0,0,1.4628572143554686,0,0,832.6171875000001
1.2562845119991835,0,0,1.1611878051757811,0,0,0.30625
1.2578863079997973,0,0,1.7812860351562498,0,0,0.5359375000000001
1.2594185500001913,0,0,1.465251416015625,0,0,0.8421875000000001
1.2610018840005068,0,0,1.5179238525390624,0,0,0.9953125
1.2626333850002993,0,0,1.6448165405273436,0,0,1.3015625000000002
1.264235811000617,0,0,1.6017209106445311,0,0,1.3015625000000002
1.265777218999574,0,0,1.388636962890625,0,0,0.0765625
1.2679400279994297,0,0,1.4006079711914061,0,0,0.6125
1.269808285000181,0,0,1.2378022583007813,0,0,0.22968750000000002
1.2715174320001097,0,0,1.429338391113281,0,0,0.765625
1.273116692000258,0,0,1.465251416015625,0,0,1.225
1.2747641919995658,0,0,1.0917559570312498,0,0,0.0
1.2763628590000735,0,0,0.9026140258789062,0,0,0.0
1.2779940079999506,0,0,1.407790576171875,0,0,0.22968750000000002
1.279732746999798,0,0,1.4772224243164063,0,0,1.225
1.2813842659998045,0,0,1.6903063720703124,0,0,1.6078125
1.282915989000685,0,0,1.7262193969726563,0,0,1.6078125
1.2844433789996401,0,0,1.407790576171875,0,0,1.7609375
1.2861083789994154,0,0,1.1420341918945311,0,0,0.8421875000000001
1.2877903039989178,0,0,1.7860744384765623,0,0,0.3828125
1.2893747870002699,0,0,1.5849614990234373,0,0,1.0718750000000001
1.2911262849993363,0,0,1.4006079711914061,0,0,1.1484375
1.2928199329999188,0,0,1.3742717529296875,0,0,1.0718750000000001
1.294362712000293,0,0,1.1659762084960936,0,0,1.6843750000000002
1.2959144350006682,0,0,1.3575123413085937,0,0,1.0718750000000001
1.2976975069996115,0,0,1.5634136840820312,0,0,0.6125
1.2992828780006676,0,0,1.6998831787109374,0,0,0.8421875000000001
1.3013224480000645,0,0,1.5634136840820312,0,0,1.4546875000000001
1.303289555999072,0,0,1.675941162109375,0,0,1.3015625000000002
1.304901647999941,0,0,1.2282254516601563,0,0,-9.49375
1.3064439270001458,0,0,1.1444283935546875,0,0,0.0
1.308026279999467,0,0,1.4149731811523436,0,0,0.30625
1.309796464000101,0,0,1.5179238525390624,0,0,0.9187500000000001
1.3119346059993404,0,0,1.149216796875,0,0,0.9187500000000001
1.3138118070000928,0,0,0.7996633544921875,0,0,0.0
1.3155656759990961,0,0,1.0869675537109373,0,0,832.69375
1.3171137509998516,0,0,1.3335703247070312,0,0,0.3828125
1.3186384189993987,0,0,2.059013427734375,0,0,1.53125
1.3204612320005253,0,0,1.8818425048828125,0,0,1.53125
1.3220623439992778,0,0,1.2737152832031249,0,0,1.225
1.323586549000538,0,0,1.254561669921875,0,0,0.6890625
1.325162660999922,0,0,1.2761094848632812,0,0,0.0
1.3267884199995024,0,0,1.8746598999023436,0,0,0.45937500000000003
1.3284032169995044,0,0,2.157175695800781,0,0,0.8421875000000001
1.329985513999418,0,0,1.5035586425781249,0,0,1.1484375
1.3316330689995084,0,0,0.5770026000976562,0,0,0.6125
1.3333149579993915,0,0,1.0821791503906248,0,0,0.765625
1.3350459569992381,0,0,1.3000515014648437,0,0,1.9140625000000002
1.3366286979999131,0,0,1.9776105712890624,0,0,1.225
1.3383979739992355,0,0,1.9823989746093749,0,0,1.53125
1.3400989740002842,0,0,1.3718775512695311,0,0,1.0718750000000001
1.3417275480005628,0,0,1.0127473022460938,0,0,0.45937500000000003
1.3433141229998,0,0,1.6304513305664061,0,0,0.45937500000000003
1.3455819859991607,0,0,1.7812860351562498,0,0,0.22968750000000002
1.3476436479995755,0,0,0.928950244140625,0,0,0.9953125
1.3495631450005021,0,0,0.6009446166992187,0,0,0.3828125
1.3512482000005548,0,0,0.6751648681640625,0,0,0.6125
1.3530103829998552,0,0,1.4604630126953124,0,0,1.225
1.3547781039997062,0,0,2.080561242675781,0,0,1.6078125
1.3565353989997675,0,0,1.3623007446289062,0,0,1.9140625000000002
1.3581805100002384,0,0,1.0749965454101562,0,0,0.9953125
1.359806122000009,0,0,1.455674609375,0,0,0.153125
1.3619074130001536,0,0,1.9967641845703124,0,0,1.4546875000000001
1.3636156339998706,0,0,1.8339584716796873,0,0,1.53125
1.3661174579992803,0,0,0.8451531860351562,0,0,0.45937500000000003
1.367944993000492,0,0,0.7493851196289062,0,0,0.30625
1.3695632519993524,0,0,1.7286135986328124,0,0,0.9953125
1.371167641998909,0,0,1.9321207397460936,0,0,1.3015625000000002
1.3729215479997947,0,0,1.4987702392578124,0,0,1.225
1.3746092689998477,0,0,0.9145850341796874,0,0,0.3828125
1.3763419539991446,0,0,1.5131354492187499,0,0,0.6125
1.3782463209990965,0,0,1.8435352783203125,0,0,0.9953125
1.3800852080003096,0,0,1.68551796875,0,0,0.9187500000000001
1.3817591699989862,0,0,0.7062894897460937,0,0,0.5359375000000001
1.3835722980002174,0,0,0.6057330200195312,0,0,0.6890625
1.3855620529993757,0,0,1.9105729248046874,0,0,1.3015625000000002
1.3872464599990053,0,0,2.27927998046875,0,0,1.225
1.389032273000339,0,0,1.5729904907226562,0,0,1.3015625000000002
1.3907706979989598,0,0,1.1516109985351561,0,0,0.6890625
1.3927195649994246,0,0,1.5538368774414062,0,0,0.765625
1.3944557859995257,0,0,1.9895815795898437,0,0,1.1484375
1.3961919699995633,0,0,1.6328455322265625,0,0,0.0765625
1.3978120259998832,0,0,0.9217676391601562,0,0,0.0
1.3994864889991732,0,0,1.2497732666015624,0,0,0.6890625
1.4012266169993381,0,0,1.5203180541992187,0,0,1.3015625000000002
1.4030880959999195,0,0,1.5945383056640625,0,0,1.6078125
1.4048325210005714,0,0,1.2641384765625,0,0,1.0718750000000001
1.406605316000423,0,0,1.2497732666015624,0,0,0.0765625
1.4082747230004315,0,0,1.47482822265625,0,0,0.8421875000000001
1.4098106319997896,0,0,1.838746875,0,0,0.9187500000000001
1.4114310019995173,0,0,1.16837041015625,0,0,0.6125
1.413255573999777,0,0,0.59376201171875,0,0,0.9187500000000001
1.4152274779989966,0,0,1.1109095703125,0,0,1.3015625000000002
1.4169671059989923,0,0,2.0877438476562498,0,0,1.8375000000000001
1.4187457160005579,0,0,1.6519991455078125,0,0,1.225
1.4205225850000716,0,0,1.199495031738281,0,0,1.225
1.4221069369996258,0,0,1.4245499877929686,0,0,2.3734375
1.424145654998938,0,0,2.1068974609374997,0,0,1.4546875000000001
1.4260331519999454,0,0,1.5131354492187499,0,0,0.9953125
1.4278589459991053,0,0,0.9720458740234375,0,0,0.30625
1.4296157600001607,0,0,1.4891934326171874,0,0,0.6125
1.4311535199994978,0,0,1.5753846923828123,0,0,0.9187500000000001
1.4327142990005086,0,0,1.37906015625,0,0,0.9187500000000001
1.4343407069991372,0,0,1.1276689819335937,0,0,0.765625
1.4360000579999905,0,0,1.216254443359375,0,0,1.0718750000000001
1.4377926119996118,0,0,1.5969325073242187,0,0,0.5359375000000001
1.4396682579990738,0,0,1.6041151123046875,0,0,0.5359375000000001
1.4415428480006085,0,0,0.9241618408203125,0,0,0.6890625
1.4432574580005166,0,0,0.8786720092773437,0,0,0.8421875000000001
1.4449745870006154,0,0,1.7381904052734374,0,0,1.3015625000000002
1.4466747530004795,0,0,1.5442600708007812,0,0,0.6125
1.4483027160003985,0,0,1.5107412475585937,0,0,0.8421875000000001
1.4499085129991727,0,0,1.7836802368164062,0,0,0.6125
1.4518115840000974,0,0,2.001552587890625,0,0,0.8421875000000001
1.4535136760005116,0,0,1.47482822265625,0,0,0.9953125
1.455129379999562,0,0,1.3455413330078123,0,0,0.6890625
1.4569302300005802,0,0,1.3670891479492187,0,0,832.69375
1.4585674890004157,0,0,1.6472107421875,0,0,0.8421875000000001
1.460174026000459,0,0,1.9488801513671874,0,0,0.765625
1.4621035599993775,0,0,1.0582371337890624,0,0,0.153125
1.4637596899992786,0,0,1.3096283081054687,0,0,0.5359375000000001
1.4654398929997114,0,0,1.4437036010742186,0,0,0.6125
1.4673003349998908,0,0,1.3096283081054687,0,0,0.0
1.4689162979993853,0,0,0.6512228515624999,0,0,0.6125
1.4705784830002813,0,0,1.20667763671875,0,0,1.3015625000000002
1.4723361849992216,0,0,1.599326708984375,0,0,1.3015625000000002
1.4739956670000538,0,0,1.4221557861328125,0,0,1.53125
1.4757813500000339,0,0,1.5011644409179687,0,0,1.225
1.477687884000261,0,0,1.8267758666992187,0,0,1.1484375
1.479418827999325,0,0,1.908178723144531,0,0,0.9953125
1.481115475000479,0,0,1.70467158203125,0,0,1.0718750000000001
1.482846585000516,0,0,1.2593500732421874,0,0,0.8421875000000001
1.4844570669993118,0,0,1.455674609375,0,0,0.9187500000000001
1.4860571600002004,0,0,1.3359645263671873,0,0,0.6890625
1.487813918000029,0,0,1.3024457031249999,0,0,0.8421875000000001
1.4894538259995898,0,0,1.7549498168945312,0,0,0.9953125
1.4910512709993782,0,0,1.6256629272460936,0,0,0.8421875000000001
1.4930453960005252,0,0,1.2737152832031249,0,0,0.765625
1.4947778949990607,0,0,0.8307879760742187,0,0,0.9187500000000001
1.4965188019996276,0,0,1.43652099609375,0,0,1.4546875000000001
1.4982135419995757,0,0,1.6807295654296874,0,0,1.990625
1.500155759998961,0,0,1.6711527587890624,0,0,1.378125
1.5018815370003722,0,0,1.2497732666015624,0,0,1.0718750000000001
1.5037894229990343,0,0,1.4628572143554686,0,0,1.225
1.5057934189990192,0,0,1.7621324218749999,0,0,1.0718750000000001
1.5074644739997893,0,0,1.5490484741210937,0,0,9.646875000000001
1.5093344159995468,0,0,1.4053963745117186,0,0,1.0718750000000001
1.5111826180000207,0,0,1.7741034301757812,0,0,1.0718750000000001
1.5128738210005395,0,0,1.4030021728515625,0,0,0.3828125
1.5145603389992175,0,0,1.5083470458984374,0,0,0.6125
1.5162053200001537,0,0,1.5538368774414062,0,0,0.0
1.5177958580006816,0,0,1.1563994018554686,0,0,-0.153125
1.5195743559997936,0,0,0.7062894897460937,0,0,0.5359375000000001
1.5212251709999691,0,0,1.2306196533203124,0,0,1.6078125
1.5228212269994401,0,0,1.7262193969726563,0,0,1.378125
1.5246354099999735,0,0,1.3215993164062498,0,0,1.378125
1.5263060020006378,0,0,1.0989385620117187,0,0,0.0765625
1.5279379099993093,0,0,1.7190367919921874,0,0,0.0
1.529706649000218,0,0,1.9129671264648436,0,0,0.9953125
1.5313529830000334,0,0,2.214636535644531,0,0,1.4546875000000001
1.532964501000606,0,0,1.2569558715820313,0,0,1.4546875000000001
1.5350324409992027,0,0,1.3670891479492187,0,0,0.9953125
1.5369207160001679,0,0,1.1276689819335937,0,0,1.6078125
1.5386581219991058,0,0,1.5849614990234373,0,0,1.0718750000000001
1.5405088610004896,0,0,1.848323681640625,0,0,0.765625
1.542122897999434,0,0,1.3335703247070312,0,0,0.9953125
1.5438286009994044,0,0,0.4955997436523437,0,0,0.6890625
1.5455555819989968,0,0,1.3551181396484375,0,0,1.378125
1.5472083219992783,0,0,1.5825672973632812,0,0,2.0671875
1.5488267109994922,0,0,1.6400281372070311,0,0,1.990625
1.5506425610001315,0,0,1.5322890624999999,0,0,0.9953125
1.5522825980006019,0,0,1.6232687255859375,0,0,1.1484375
1.5542356869991636,0,0,1.7381904052734374,0,0,1.0718750000000001
1.5561877759992058,0,0,1.7166425903320313,0,0,0.765625
1.5578266100001201,0,0,1.707065783691406,0,0,0.0
1.559494442999494,0,0,0.9576806640625,0,0,0.765625
1.5612014979997184,0,0,1.0989385620117187,0,0,0.0765625
1.562813331000143,0,0,1.5179238525390624,0,0,0.6890625
1.5644912570005545,0,0,1.3359645263671873,0,0,0.6125
1.566595177999261,0,0,0.6847416748046875,0,0,0.5359375000000001
1.5683950829989044,0,0,0.7805097412109374,0,0,0.6890625
1.5700746749989776,0,0,1.637633935546875,0,0,1.0718750000000001
1.5718130629993539,0,0,1.6160861206054686,0,0,1.53125
1.5734206010001799,0,0,1.22583125,0,0,0.9187500000000001
1.575027601000329,0,0,1.5825672973632812,0,0,0.9953125
1.5768353399998887,0,0,1.5801730957031248,0,0,0.8421875000000001
1.5784566179991089,0,0,1.7645266235351562,0,0,0.6125
1.5800668400006543,0,0,2.070984436035156,0,0,1.53125
1.5818530979995558,0,0,1.5442600708007812,0,0,1.1484375
1.5833979879989784,0,0,0.8547299926757812,0,0,0.0
1.5849610259992915,0,0,1.0342951171875,0,0,0.22968750000000002
1.5865803039996536,0,0,1.5897499023437498,0,0,0.45937500000000003
1.5881683229999908,0,0,1.5035586425781249,0,0,0.0
1.5896937870002148,0,0,0.7948749511718749,0,0,0.30625
1.5913211389997741,0,0,1.197100830078125,0,0,1.53125
1.5929156029997102,0,0,1.1875240234375,0,0,1.1484375
1.594507010999223,0,0,1.22583125,0,0,1.4546875000000001
1.5962389359992812,0,0,1.4820108276367188,0,0,1.225
1.5979858609989606,0,0,1.838746875,0,0,0.22968750000000002
1.6000218749995838,0,0,1.7956512451171873,0,0,0.9953125
1.6018594279994431,0,0,1.8411410766601561,0,0,1.0718750000000001
1.6036258519998228,0,0,1.4700398193359374,0,0,0.8421875000000001
1.6052506489995721,0,0,0.928950244140625,0,0,0.6890625
1.6071347939996485,0,0,1.2808978881835937,0,0,0.153125
1.6093726769995556,0,0,1.2665326782226562,0,0,0.6890625
1.6111561380002968,0,0,1.0319009155273438,0,0,0.765625
1.6128378409994184,0,0,1.39821376953125,0,0,1.6843750000000002
1.6144634150005004,0,0,1.3479355346679687,0,0,1.53125
1.6161455450001085,0,0,1.2904746948242187,0,0,1.6078125
1.6178345999996964,0,0,1.199495031738281,0,0,1.7609375
1.6194403039989993,0,0,1.9201497314453124,0,0,1.378125
1.6210469149991695,0,0,2.090138049316406,0,0,1.1484375
1.6229738380006893,0,0,1.924938134765625,0,0,1.6843750000000002
1.624937611999485,0,0,1.2976572998046874,0,0,1.0718750000000001
1.6267313139996986,0,0,0.7517793212890624,0,0,0.0765625
1.6286852920002275,0,0,1.3551181396484375,0,0,-0.9953125
1.6303172179996182,0,0,1.2952630981445312,0,0,0.765625
1.6321973819995037,0,0,1.22583125,0,0,0.3828125
1.6340913610001735,0,0,1.3168109130859373,0,0,1.990625
1.6358777479999844,0,0,1.3311761230468748,0,0,1.990625
1.6375684699996782,0,0,1.0319009155273438,0,0,0.9953125
1.63948289200016,0,0,1.944091748046875,0,0,1.6843750000000002
1.6413974999995844,0,0,1.9512743530273435,0,0,1.378125
1.6436432709997462,0,0,1.9919757812499999,0,0,1.3015625000000002
1.6453526219993364,0,0,1.7429788085937499,0,0,1.1484375
1.6469608269999298,0,0,0.9504980590820312,0,0,0.0765625
1.6489687670000421,0,0,1.1827356201171875,0,0,-0.765625
1.6506770249998226,0,0,1.1013327636718748,0,0,0.8421875000000001
1.6525022639998497,0,0,0.9337386474609375,0,0,0.6125
1.6542411150003318,0,0,1.2138602416992186,0,0,1.9140625000000002
1.6560014099995897,0,0,1.2018892333984375,0,0,2.296875
1.657726167999499,0,0,1.13006318359375,0,0,0.9953125
1.6593427610005165,0,0,1.2473790649414063,0,0,1.225
1.6611110190006002,0,0,2.0063409912109376,0,0,1.1484375
1.6627328340000531,0,0,2.0829554443359375,0,0,1.225
1.6653993410000112,0,0,1.8818425048828125,0,0,1.225
1.667217950000122,0,0,1.484405029296875,0,0,0.30625
1.668959022999843,0,0,1.0989385620117187,0,0,-0.22968750000000002
1.670506024000133,0,0,0.8690952026367187,0,0,-0.8421875000000001
1.6721074870001758,0,0,1.218648645019531,0,0,1.9140625000000002
1.6737501169991447,0,0,0.8475473876953125,0,0,1.1484375
1.6753334139993967,0,0,1.656787548828125,0,0,1.53125
1.676863451999452,0,0,1.197100830078125,0,0,2.1437500000000003
1.6785220999990997,0,0,0.9241618408203125,0,0,0.5359375000000001
1.680343523999909,0,0,1.66636435546875,0,0,0.6890625
1.6819088030006242,0,0,2.1021090576171875,0,0,1.4546875000000001
1.6835074329992494,0,0,2.1356278808593747,0,0,1.4546875000000001
1.6851279139991675,0,0,2.422932080078125,0,0,1.378125
1.6866618789990753,0,0,1.7429788085937499,0,0,1.6078125
1.6882983790001163,0,0,0.9361328491210937,0,0,1.1484375
1.689872397999352,0,0,0.97683427734375,0,0,0.0
1.6913920659990254,0,0,0.8738836059570312,0,0,0.8421875000000001
1.6932109339995804,0,0,1.1827356201171875,0,0,0.9953125
1.6949442479999561,0,0,1.7262193969726563,0,0,1.3015625000000002
1.696599007000259,0,0,0.8499415893554687,0,0,1.7609375
1.6984123389993329,0,0,0.7230489013671875,0,0,1.990625
1.700014153999291,0,0,1.4700398193359374,0,0,1.3015625000000002
1.7019583170003898,0,0,2.360682836914062,0,0,0.6125
1.7041650150003989,0,0,2.454056701660156,0,0,1.8375000000000001
1.7063529339993693,0,0,1.4317325927734375,0,0,1.4546875000000001
1.7080548779995297,0,0,1.0606313354492187,0,0,0.0
1.7096271749996959,0,0,0.9959878906249999,0,0,0.30625
1.7118417609999597,0,0,1.0079588989257813,0,0,0.0
1.7134105770001042,0,0,1.5203180541992187,0,0,1.378125
1.7153054070004146,0,0,1.448492004394531,0,0,1.8375000000000001
1.7170238510007039,0,0,0.6272808349609375,0,0,1.3015625000000002
1.7185991110000032,0,0,1.0702081420898437,0,0,1.225
1.7201902229990083,0,0,1.5203180541992187,0,0,2.0671875
1.721987442999307,0,0,2.2170307373046874,0,0,2.1437500000000003
1.724605043000338,0,0,2.013523596191406,0,0,1.6843750000000002
1.7264433370000916,0,0,1.2306196533203124,0,0,0.45937500000000003
1.7281099850006285,0,0,0.8954314208984374,0,0,8.957812500000001
1.7296494679994794,0,0,0.7733271362304687,0,0,-0.8421875000000001
1.731405206999625,0,0,0.928950244140625,0,0,0.9187500000000001
1.7330221150004945,0,0,2.0925322509765625,0,0,1.3015625000000002
1.7345605230002548,0,0,0.9169792358398436,0,0,1.378125
1.736167041999579,0,0,0.3591302490234375,0,0,1.1484375
1.7379994109996915,0,0,1.0989385620117187,0,0,0.3828125
1.7397097619996202,0,0,1.927332336425781,0,0,0.153125
1.741370095000093,0,0,2.300827795410156,0,0,2.1437500000000003
1.7431296489994565,0,0,2.568978381347656,0,0,1.8375000000000001
1.7447106130002794,0,0,1.39821376953125,0,0,2.45
1.7462850579995575,0,0,0.7685387329101562,0,0,-0.6125
1.7480422600001475,0,0,0.8810662109374999,0,0,-0.6125
1.7496198349999759,0,0,1.7645266235351562,0,0,0.0
1.7511443919993326,0,0,1.9536685546875,0,0,1.0718750000000001
1.7528727610006172,0,0,1.5179238525390624,0,0,1.225
1.7546005379990675,0,0,0.8164227661132812,0,0,1.3015625000000002
1.756516682999063,0,0,1.0319009155273438,0,0,0.9187500000000001
1.758365921999939,0,0,1.7908628417968748,0,0,0.5359375000000001
1.760005218000515,0,0,2.858676782226562,0,0,1.3015625000000002
1.761548866999874,0,0,1.6400281372070311,0,0,1.9140625000000002
1.7631175900005474,0,0,1.5322890624999999,0,0,0.6890625
1.7648313119989325,0,0,0.584185205078125,0,0,0.6125
1.7664075899992895,0,0,0.507570751953125,0,0,-0.3828125
1.7680833119993622,0,0,1.8363526733398436,0,0,0.6890625
1.7697645709995413,0,0,1.8124106567382812,0,0,1.6078125
1.7715467359994364,0,0,0.6200982299804687,0,0,0.22968750000000002
1.7730849590006983,0,0,1.2018892333984375,0,0,0.6890625
1.7746158680001827,0,0,1.0749965454101562,0,0,1.1484375
1.7763080530003208,0,0,1.5849614990234373,0,0,1.0718750000000001
1.777903090000109,0,0,2.7748797241210936,0,0,2.0671875
1.7796349780001037,0,0,1.9416975463867185,0,0,0.9953125
1.781316089000029,0,0,1.6615759521484375,0,0,0.0
1.7830213289998937,0,0,0.9457096557617187,0,0,0.0765625
1.7845829039997625,0,0,0.7876923461914062,0,0,0.30625
1.786196719000145,0,0,1.7166425903320313,0,0,0.6125
1.787875403999351,0,0,1.8148048583984373,0,0,1.990625
1.789454792999095,0,0,1.0917559570312498,0,0,2.0671875
1.7913437530005467,0,0,0.6871358764648438,0,0,0.30625
1.7930542529993545,0,0,1.4891934326171874,0,0,0.22968750000000002
1.794595475999813,0,0,2.808398547363281,0,0,2.3734375
1.7961336619991926,0,0,3.0526071166992184,0,0,1.53125
1.797708125999634,0,0,1.7334020019531249,0,0,1.4546875000000001
1.7994199959994148,0,0,0.8571241943359375,0,0,1.378125
1.8015459529997315,0,0,0.6248866333007812,0,0,-1.0718750000000001
1.803232508000292,0,0,1.848323681640625,0,0,0.8421875000000001
1.8049407849994168,0,0,2.0542250244140625,0,0,1.0718750000000001
1.806513730000006,0,0,1.7597382202148437,0,0,1.6078125
1.8080475829992793,0,0,0.7398083129882812,0,0,0.30625
1.8099557839996123,0,0,0.6105214233398437,0,0,0.765625
1.811597914000231,0,0,2.3295582153320313,0,0,1.378125
1.8136147980003443,0,0,2.549824768066406,0,0,1.0718750000000001
1.8152800759999081,0,0,1.7669208251953124,0,0,0.5359375000000001
1.8183317269995314,0,0,0.076614453125,0,0,-0.3828125
1.8203382970004895,0,0,1.5466542724609373,0,0,9.340625000000001
1.8220735359991522,0,0,2.2553379638671873,0,0,1.4546875000000001
1.8237149809992843,0,0,1.5155296508789062,0,0,1.3015625000000002
1.825262833999659,0,0,0.9457096557617187,0,0,-8.957812500000001
1.8268547049992776,0,0,0.8595183959960937,0,0,0.5359375000000001
1.8287121649991604,0,0,2.205059729003906,0,0,1.378125
1.8304920520004089,0,0,2.4061726684570313,0,0,0.153125
1.8320324609994714,0,0,1.8459294799804686,0,0,0.5359375000000001
1.8336440540006151,0,0,0.6153098266601562,0,0,0.9187500000000001
1.8352417400001286,0,0,-0.033518823242187495,0,0,-0.3828125
1.836946645998978,0,0,1.1755530151367186,0,0,0.5359375000000001
1.838612498000657,0,0,2.1164742675781247,0,0,1.3015625000000002
1.8402996269996947,0,0,1.8363526733398436,0,0,0.8421875000000001
1.8418892569989112,0,0,1.2425906616210938,0,0,0.45937500000000003
1.8443543769990356,0,0,1.6448165405273436,0,0,1.53125
1.8461194319988863,0,0,2.3151930053710936,0,0,1.4546875000000001
1.8477954499994667,0,0,1.956062756347656,0,0,1.0718750000000001
1.849333543999819,0,0,1.5179238525390624,0,0,0.5359375000000001
1.851038728000276,0,0,0.40940848388671874,0,0,-0.6890625
1.8527423380000982,0,0,1.0486603271484374,0,0,0.3828125
1.8542821909995837,0,0,1.5586252807617187,0,0,1.6843750000000002
1.8558122479989834,0,0,1.714248388671875,0,0,0.9187500000000001
1.857428692999747,0,0,1.4101847778320311,0,0,1.53125
1.8590877850001561,0,0,0.9074024291992187,0,0,0.6125
1.8607754330005264,0,0,2.128445275878906,0,0,0.22968750000000002
1.8624338770005124,0,0,2.559401574707031,0,0,0.6125
1.8642871159991046,0,0,2.5713725830078125,0,0,0.6125
1.8659387450006761,0,0,1.22583125,0,0,0.9187500000000001
1.8675279859999137,0,0,0.5889736083984375,0,0,-0.5359375000000001
1.8692567079997389,0,0,0.5817910034179687,0,0,0.153125
1.87079581999933,0,0,1.3718775512695311,0,0,0.30625
1.8726489469991066,0,0,1.3718775512695311,0,0,1.7609375
1.874317224999686,0,0,1.4604630126953124,0,0,1.0718750000000001
1.875869651999892,0,0,1.180341418457031,0,0,1.0718750000000001
1.877399986000455,0,0,1.66636435546875,0,0,1.6843750000000002
1.8789973389993975,0,0,2.224213342285156,0,0,1.378125
1.8806540980003774,0,0,1.7980454467773437,0,0,0.765625
1.8823123010006384,0,0,1.2952630981445312,0,0,0.153125
1.8840378370005055,0,0,0.5530605834960938,0,0,0.30625
1.885657540999091,0,0,1.2904746948242187,0,0,0.9187500000000001
1.887259264000022,0,0,1.6615759521484375,0,0,1.7609375
1.8888294309999765,0,0,1.2713210815429687,0,0,1.378125
1.8904653760000656,0,0,0.9337386474609375,0,0,1.3015625000000002
1.8921856899996783,0,0,1.1707646118164061,0,0,1.3015625000000002
1.8938163749990053,0,0,2.616862414550781,0,0,1.6078125
1.8954314120001072,0,0,2.3367408203125,0,0,1.53125
1.8970299869997689,0,0,1.6017209106445311,0,0,0.3828125
1.8985792839994247,0,0,0.2537853759765625,0,0,0.0765625
1.9001559699991049,0,0,-0.08140285644531249,0,0,1.1484375
1.9018124699996406,0,0,1.6735469604492186,0,0,1.4546875000000001
1.9036187269994116,0,0,1.9991583862304687,0,0,1.53125
1.9056051679999655,0,0,0.8188169677734375,0,0,1.4546875000000001
1.9074344809996546,0,0,0.5530605834960938,0,0,0.6125
1.908986852000453,0,0,2.104503259277344,0,0,1.225
1.9105673340000067,0,0,2.645592834472656,0,0,1.6843750000000002
1.9123793879989535,0,0,2.272097375488281,0,0,1.225
1.913917407999179,0,0,0.9313444458007812,0,0,0.765625
1.9156500179997238,0,0,-0.201112939453125,0,0,0.0
1.9179404730002716,0,0,1.455674609375,0,0,1.1484375
1.9195201410002483,0,0,1.9201497314453124,0,0,1.3015625000000002
1.921057789999395,0,0,1.4987702392578124,0,0,1.4546875000000001
1.9227702520001912,0,0,0.70868369140625,0,0,0.6890625
1.9243493449994276,0,0,1.43652099609375,0,0,0.9187500000000001
1.9258794950001175,0,0,2.5043349365234375,0,0,1.378125
1.927801861998887,0,0,2.090138049316406,0,0,1.0718750000000001
1.9294069179995859,0,0,1.7549498168945312,0,0,0.5359375000000001
1.9309441410005093,0,0,0.076614453125,0,0,-0.9953125
1.9325738819989056,0,0,0.0,0,0,0.30625
1.9341674570005125,0,0,1.3215993164062498,0,0,0.9953125
1.9357323469994299,0,0,1.2665326782226562,0,0,1.1484375
1.937462104999213,0,0,1.3311761230468748,0,0,0.8421875000000001
1.9395871180004178,0,0,1.3000515014648437,0,0,0.8421875000000001
1.9416682239989314,0,0,2.5570073730468748,0,0,1.7609375
1.9436585719995492,0,0,2.2744915771484373,0,0,1.378125
1.9453238679998321,0,0,2.023100402832031,0,0,0.5359375000000001
1.9471523659995,0,0,0.5961562133789062,0,0,-0.45937500000000003
1.9489667710004142,0,0,0.9600748657226562,0,0,-9.8
1.9506421599999157,0,0,1.3120225097656248,0,0,0.9953125
1.9523127890006435,0,0,1.1180921752929687,0,0,1.8375000000000001
1.954102490999503,0,0,0.7038952880859375,0,0,1.4546875000000001
1.9558128049993684,0,0,0.9959878906249999,0,0,1.3015625000000002
1.9575100820002262,0,0,1.9752163696289062,0,0,2.296875
1.959199840999645,0,0,2.288856787109375,0,0,1.990625
1.9615476849994593,0,0,1.2832920898437499,0,0,9.340625000000001
1.9639233429988963,0,0,0.565031591796875,0,0,9.646875000000001
1.9656353800000943,0,0,1.5873557006835937,0,0,0.5359375000000001
1.9672475469997153,0,0,1.66636435546875,0,0,0.9187500000000001
1.9689001579990872,0,0,0.7852981445312499,0,0,1.3015625000000002
1.9707041189994925,0,0,0.5386953735351562,0,0,0.9187500000000001
1.9723383410000679,0,0,1.0893617553710937,0,0,1.7609375
1.9754107690005185,0,0,2.5665841796874997,0,0,2.2203125000000004
1.977370377000625,0,0,1.8052280517578123,0,0,0.6890625
1.9790409510005702,0,0,0.22744915771484372,0,0,-0.5359375000000001
1.9808735780006828,0,0,1.3263877197265623,0,0,1.1484375
1.982536022000204,0,0,1.9656395629882812,0,0,1.8375000000000001
1.984104244998889,0,0,1.4317325927734375,0,0,1.7609375
1.9857555420003337,0,0,0.8307879760742187,0,0,0.9953125
1.9877909450005973,0,0,1.1109095703125,0,0,1.378125
1.9895244059989636,0,0,1.7932570434570312,0,0,1.378125
1.9910708150000573,0,0,2.2290017456054687,0,0,1.378125
1.992692370999066,0,0,1.7812860351562498,0,0,0.765625
1.994290982000166,0,0,0.8690952026367187,0,0,0.6125
1.9958197609994386,0,0,0.13407529296874998,0,0,0.153125
1.9974821310006519,0,0,1.0630255371093749,0,0,0.30625
1.9991306129995792,0,0,1.4149731811523436,0,0,1.225
2.000827001000289,0,0,1.0031704956054688,0,0,1.6078125
2.002488407999408,0,0,0.9361328491210937,0,0,0.6890625
2.004088853000212,0,0,1.3742717529296875,0,0,1.378125
2.005614539999442,0,0,2.3535002319335936,0,0,2.296875
2.0071848549996503,0,0,2.2290017456054687,0,0,0.9953125
2.008807356000034,0,0,1.4915876342773438,0,0,0.153125
2.010343597999963,0,0,0.833182177734375,0,0,0.0765625
2.01190933900034,0,0,0.3232172241210937,0,0,-0.9187500000000001
2.0138132070005668,0,0,1.6472107421875,0,0,0.765625
2.0154100220006512,0,0,1.879448303222656,0,0,1.378125
2.016941596999459,0,0,0.6464344482421874,0,0,1.53125
2.0184624869998515,0,0,0.33518823242187495,0,0,1.3015625000000002
2.0208542569998826,0,0,2.224213342285156,0,0,2.1437500000000003
2.022821104999821,0,0,2.473210314941406,0,0,0.8421875000000001
2.0245497149990115,0,0,2.3535002319335936,0,0,1.1484375
2.0262005669992504,0,0,1.3239935180664062,0,0,0.9953125
2.02786462199947,0,0,0.30885201416015623,0,0,0.0
2.0294769930005714,0,0,1.0438719238281249,0,0,0.22968750000000002
2.0310694559993863,0,0,1.1228805786132812,0,0,0.45937500000000003
2.0328403250005067,0,0,0.9935936889648437,0,0,1.225
2.0344725849990937,0,0,0.9169792358398436,0,0,1.225
2.0365826159995777,0,0,1.2401964599609374,0,0,1.9140625000000002
2.0382659120004973,0,0,2.1691467041015624,0,0,1.225
2.0398055980003846,0,0,2.3678654418945313,0,0,1.8375000000000001
2.041392413999347,0,0,2.0087351928710935,0,0,1.53125
2.043010265999328,0,0,0.7278373046875,0,0,-0.22968750000000002
2.044595711000511,0,0,0.45010991210937495,0,0,0.0765625
2.0461221009991277,0,0,1.7022773803710936,0,0,1.3015625000000002
2.0479688399991574,0,0,1.2378022583007813,0,0,1.1484375
2.049544043999049,0,0,0.6943184814453125,0,0,0.6890625
2.051068063999992,0,0,0.47884033203125,0,0,0.3828125
2.0528588769993803,0,0,1.7501614135742187,0,0,0.6890625
2.0544464149988926,0,0,2.4061726684570313,0,0,1.4546875000000001
2.0559758420004073,0,0,2.6240450195312497,0,0,1.990625
2.0577463959998568,0,0,1.189918225097656,0,0,0.9953125
2.0593101009999373,0,0,0.3854664672851562,0,0,-0.6890625
2.060847656999613,0,0,1.5969325073242187,0,0,0.45937500000000003
2.0627702839992708,0,0,1.9632453613281249,0,0,0.6890625
2.06439724700067,0,0,1.254561669921875,0,0,1.378125
2.0659295820005354,0,0,1.0941501586914062,0,0,1.0718750000000001
2.067718005999268,0,0,0.8690952026367187,0,0,0.9187500000000001
2.069309987999077,0,0,1.3000515014648437,0,0,1.225
2.0708373969991953,0,0,2.2290017456054687,0,0,1.1484375
2.072594654999193,0,0,2.4109610717773435,0,0,-0.30625
2.0741790259999107,0,0,1.1061211669921875,0,0,0.30625
2.0757290639994608,0,0,0.469263525390625,0,0,-0.8421875000000001
2.077377155999784,0,0,1.2904746948242187,0,0,0.30625
2.07901621199926,0,0,1.5610194824218748,0,0,1.4546875000000001
2.0805570089996763,0,0,1.4437036010742186,0,0,1.225
2.0821403249992727,0,0,0.948103857421875,0,0,0.9187500000000001
2.083956082000441,0,0,1.0606313354492187,0,0,1.0718750000000001
2.085526712000501,0,0,1.7381904052734374,0,0,1.7609375
2.087156027000674,0,0,2.3965958618164063,0,0,1.378125
2.0889050259993382,0,0,1.7836802368164062,0,0,0.6890625
2.0906402290002006,0,0,0.3447650390625,0,0,-0.0765625
2.092264618000627,0,0,0.0383072265625,0,0,-9.1109375
2.094606295000631,0,0,1.4149731811523436,0,0,1.4546875000000001
2.0962186840006325,0,0,1.5705962890624998,0,0,1.53125
2.097840962000191,0,0,0.8547299926757812,0,0,0.6890625
2.099479425000027,0,0,0.47884033203125,0,0,1.0718750000000001
2.101158776999,0,0,1.8746598999023436,0,0,1.225
2.1026971299997967,0,0,2.674323254394531,0,0,0.8421875000000001
2.1044309440003417,0,0,2.712630480957031,0,0,0.6890625
2.1062134049989254,0,0,1.4030021728515625,0,0,0.30625
2.1080976800003555,0,0,0.229843359375,0,0,0.22968750000000002
2.109841494000648,0,0,1.5945383056640625,0,0,0.0765625
2.111734472000535,0,0,1.4437036010742186,0,0,0.9187500000000001
2.113921651000055,0,0,0.5291185668945312,0,0,0.22968750000000002
2.1159662949994527,0,0,1.0510545288085937,0,0,0.765625
2.1178639589998056,0,0,2.43250888671875,0,0,1.53125
2.1196609569997236,0,0,2.5139117431640625,0,0,1.990625
2.1214465659995767,0,0,2.147598889160156,0,0,0.6890625
2.1232089349996386,0,0,0.5506663818359374,0,0,-1.6078125
2.1248159909991955,0,0,1.3383587280273437,0,0,0.0765625
2.1264438060006796,0,0,1.93451494140625,0,0,0.9953125
2.128066121000302,0,0,1.3814543579101561,0,0,0.45937500000000003
2.129593659999955,0,0,0.9648632690429687,0,0,0.8421875000000001
2.1311929559997225,0,0,0.36391865234375,0,0,0.6890625
2.1331144899995707,0,0,1.4604630126953124,0,0,0.45937500000000003
2.1351833190001344,0,0,2.0877438476562498,0,0,1.6078125
2.1369583169998805,0,0,1.9201497314453124,0,0,1.4546875000000001
2.1386252239990426,0,0,1.0486603271484374,0,0,0.5359375000000001
2.14016609600003,0,0,0.4644751220703125,0,0,0.3828125
2.141683522999301,0,0,2.233790148925781,0,0,0.8421875000000001
2.143427392000376,0,0,2.2266075439453124,0,0,0.22968750000000002
2.1450535589992796,0,0,1.1923124267578125,0,0,0.6890625
2.146577597999567,0,0,1.0702081420898437,0,0,0.22968750000000002
2.1481727459995454,0,0,0.5434837768554687,0,0,0.45937500000000003
2.1498272650005674,0,0,1.6400281372070311,0,0,1.1484375
2.1514002650001203,0,0,2.205059729003906,0,0,1.7609375
2.1529555069992057,0,0,1.5562310791015623,0,0,0.45937500000000003
2.1546099520001007,0,0,0.8690952026367187,0,0,0.5359375000000001
2.1561905819999083,0,0,0.5195417602539062,0,0,0.5359375000000001
2.1577096199998778,0,0,1.9297265380859374,0,0,1.225
2.15930769499937,0,0,1.9919757812499999,0,0,1.0718750000000001
2.160887455000193,0,0,1.4915876342773438,0,0,1.7609375
2.162414029999127,0,0,1.0702081420898437,0,0,1.0718750000000001
2.164022307999403,0,0,0.7278373046875,0,0,0.9953125
2.165829195000697,0,0,2.166752502441406,0,0,1.6078125
2.167484288000196,0,0,2.437297290039062,0,0,1.53125
2.169114566000644,0,0,1.5203180541992187,0,0,0.3828125
2.1707812509994255,0,0,0.09816226806640624,0,0,0.0765625
2.1723817700003565,0,0,0.21787235107421873,0,0,0.765625
2.1739071600004536,0,0,1.7573440185546874,0,0,1.225
2.1755489189999935,0,0,1.9584569580078124,0,0,0.9187500000000001
2.1772060669991333,0,0,1.599326708984375,0,0,1.6843750000000002
2.1787329019989556,0,0,0.6967126831054687,0,0,0.6125
2.18045982699914,0,0,0.6967126831054687,0,0,1.225
2.1821321040006296,0,0,2.0925322509765625,0,0,1.378125
2.1836684200006857,0,0,2.6096798095703124,0,0,0.8421875000000001
2.1854093999991164,0,0,1.9488801513671874,0,0,1.225
2.187044677999438,0,0,0.4860229370117187,0,0,-9.49375
2.188662270998975,0,0,0.29448680419921874,0,0,-0.3828125
2.1905728239999007,0,0,1.5298948608398437,0,0,0.6890625
2.192521004999435,0,0,1.2952630981445312,0,0,0.5359375000000001
2.1940985250002996,0,0,0.8906430175781249,0,0,0.45937500000000003
2.1958031529993605,0,0,1.0223241088867188,0,0,0.30625
2.197358247000011,0,0,1.9033903198242186,0,0,1.990625
2.1990277099994273,0,0,2.1260510742187497,0,0,1.4546875000000001
2.200953428999128,0,0,1.714248388671875,0,0,1.0718750000000001
2.2026753350000945,0,0,0.4213794921875,0,0,0.9187500000000001
2.204376890000276,0,0,0.7565677246093749,0,0,1.0718750000000001
2.206324905000656,0,0,2.070984436035156,0,0,1.378125
2.208196940000562,0,0,1.438915197753906,0,0,0.9187500000000001
2.209842476999256,0,0,0.5051765502929687,0,0,0.45937500000000003
2.2114946990004682,0,0,0.4165910888671875,0,0,0.45937500000000003
2.2130800140002975,0,0,1.5418658691406248,0,0,1.7609375
2.21463653399951,0,0,2.020706201171875,0,0,1.1484375
2.2163710509994416,0,0,2.1260510742187497,0,0,1.225
2.217977162999887,0,0,0.9648632690429687,0,0,1.378125
2.2195133120003447,0,0,0.36631285400390623,0,0,0.0
2.221049628000401,0,0,1.6065093139648436,0,0,0.9953125
2.2229661799992755,0,0,1.5873557006835937,0,0,0.9187500000000001
2.2247760119989834,0,0,1.47482822265625,0,0,1.4546875000000001
2.226475104000201,0,0,1.2808978881835937,0,0,0.9953125
2.228060456000094,0,0,0.7996633544921875,0,0,0.30625
2.229744677999406,0,0,1.675941162109375,0,0,1.6843750000000002
2.2313114940006926,0,0,1.7908628417968748,0,0,0.8421875000000001
2.232836827999563,0,0,1.4030021728515625,0,0,0.9953125
2.2344953100000566,0,0,0.8164227661132812,0,0,0.30625
2.2364207509999687,0,0,0.4070142822265625,0,0,1.53125
2.237971362999815,0,0,1.687912170410156,0,0,1.378125
2.239632917999188,0,0,2.0829554443359375,0,0,1.378125
2.2415616369999043,0,0,1.6807295654296874,0,0,1.7609375
2.243113082999116,0,0,0.5913678100585937,0,0,0.9953125
2.2446475840006315,0,0,0.9145850341796874,0,0,0.9953125
2.246253324999998,0,0,2.250549560546875,0,0,0.9187500000000001
2.2478500849992997,0,0,2.2864625854492187,0,0,1.3015625000000002
2.2499290609994205,0,0,0.8810662109374999,0,0,0.9953125
2.2519670570000017,0,0,0.04548983154296875,0,0,0.0765625
2.2536738149992743,0,0,0.622492431640625,0,0,0.5359375000000001
2.2552187609999237,0,0,1.6735469604492186,0,0,0.9187500000000001
2.2567507439998735,0,0,1.956062756347656,0,0,1.3015625000000002
2.258366873998966,0,0,1.2904746948242187,0,0,1.378125
2.2599772439989465,0,0,1.1156979736328125,0,0,1.378125
2.2615047460003552,0,0,1.7669208251953124,0,0,2.0671875
2.263090987000396,0,0,2.020706201171875,0,0,1.7609375
2.264832929999102,0,0,1.7741034301757812,0,0,0.6125
2.266369819999454,0,0,1.0558429321289062,0,0,0.30625
2.2682383360006497,0,0,0.16280571289062498,0,0,0.0
2.2699017060003825,0,0,1.1635820068359375,0,0,0.45937500000000003
2.2715435400004935,0,0,1.5107412475585937,0,0,1.1484375
2.2730849670006137,0,0,1.158793603515625,0,0,2.0671875
2.2747039120004047,0,0,0.5985504150390625,0,0,1.225
2.276513316999626,0,0,1.1875240234375,0,0,1.6843750000000002
2.278174076000141,0,0,2.5163059448242184,0,0,1.3015625000000002
2.2799770559995522,0,0,2.384624853515625,0,0,1.3015625000000002
2.281577001000187,0,0,1.7788918334960937,0,0,0.6890625
2.283107093999206,0,0,0.4740519287109375,0,0,9.340625000000001
2.2848759080006857,0,0,1.197100830078125,0,0,0.3828125
2.286430594000194,0,0,1.6328455322265625,0,0,0.9187500000000001
2.28812357499919,0,0,1.7166425903320313,0,0,1.378125
2.2897989630000666,0,0,0.7852981445312499,0,0,0.9187500000000001
2.291396704998988,0,0,0.3184288208007812,0,0,0.765625
2.2929394469992985,0,0,1.4963760375976562,0,0,1.0718750000000001
2.2948077029996057,0,0,2.118868469238281,0,0,1.3015625000000002
2.2966199050006253,0,0,2.205059729003906,0,0,1.1484375
2.298222072000499,0,0,1.235408056640625,0,0,0.765625
2.2997799799995846,0,0,0.21308394775390624,0,0,0.0
2.30138801800058,0,0,0.9433154541015625,0,0,-9.49375
2.3032036639997386,0,0,1.9201497314453124,0,0,1.6843750000000002
2.3050495690004027,0,0,1.5322890624999999,0,0,2.2203125000000004
2.306688476999625,0,0,0.9169792358398436,0,0,0.6125
2.308289976999731,0,0,0.9193734375,0,0,0.6125
2.3098349970005074,0,0,2.1404162841796874,0,0,1.1484375
2.31144579300053,0,0,1.9680337646484374,0,0,0.6125
2.31310790399948,0,0,1.6519991455078125,0,0,1.0718750000000001
2.3151451960002305,0,0,0.02154781494140625,0,0,-0.45937500000000003
2.3168830840004375,0,0,1.3551181396484375,0,0,0.5359375000000001
2.318681414999446,0,0,1.89620771484375,0,0,2.0671875
2.320385711000199,0,0,2.003946789550781,0,0,2.1437500000000003
2.322075877000316,0,0,1.1156979736328125,0,0,1.6078125
2.323711822000405,0,0,0.8786720092773437,0,0,1.0718750000000001
2.3253888029994414,0,0,1.8004396484374998,0,0,1.6078125
2.3271074679996673,0,0,2.5426421630859375,0,0,1.1484375
2.3287245800001983,0,0,1.687912170410156,0,0,0.765625
2.330393524000101,0,0,0.9720458740234375,0,0,0.3828125
2.332081485999879,0,0,0.02154781494140625,0,0,0.0
2.3336983200006216,0,0,1.197100830078125,0,0,1.3015625000000002
2.3359446470003604,0,0,1.5490484741210937,0,0,0.45937500000000003
2.337593886999457,0,0,1.6208745239257811,0,0,1.6078125
2.339125406999301,0,0,0.8810662109374999,0,0,1.378125
2.340654297000583,0,0,1.388636962890625,0,0,1.3015625000000002
2.3423559999991994,0,0,2.250549560546875,0,0,1.6843750000000002
2.3441889610003273,0,0,2.059013427734375,0,0,1.4546875000000001
2.345794961000138,0,0,0.8475473876953125,0,0,0.22968750000000002
2.3474033509992296,0,0,0.24181436767578124,0,0,-0.9187500000000001
2.3490587390006112,0,0,1.2856862915039062,0,0,0.22968750000000002
2.3506595919989195,0,0,1.5969325073242187,0,0,1.378125
2.3522327589998895,0,0,1.429338391113281,0,0,1.53125
2.3539412949994585,0,0,0.718260498046875,0,0,1.8375000000000001
2.355733459999101,0,0,1.0462661254882812,0,0,1.3015625000000002
2.3573428679992503,0,0,1.908178723144531,0,0,1.8375000000000001
2.3590430160002143,0,0,2.4660277099609376,0,0,1.0718750000000001
2.360584182999446,0,0,2.4971523315429685,0,0,1.225
2.362107536999247,0,0,0.8307879760742187,0,0,1.0718750000000001
2.3637284809992707,0,0,0.05027823486328125,0,0,-0.9187500000000001
2.365428351000446,0,0,1.3718775512695311,0,0,0.153125
2.3670863320003264,0,0,1.9321207397460936,0,0,1.4546875000000001
2.3686662220006838,0,0,1.9752163696289062,0,0,1.9140625000000002
2.3703343699999095,0,0,0.8068459594726562,0,0,0.9953125
2.371948426000017,0,0,0.8475473876953125,0,0,0.765625
2.373618276998968,0,0,1.8770541015625,0,0,1.378125
2.3754603489996953,0,0,2.5641899780273434,0,0,0.9953125
2.3771901999989495,0,0,1.7669208251953124,0,0,0.9953125
2.3789123839997046,0,0,0.2705447875976562,0,0,-0.3828125
2.380612660999759,0,0,0.21787235107421873,0,0,0.153125
2.3822522909995314,0,0,1.2761094848632812,0,0,0.9187500000000001
2.3838188469999295,0,0,1.5251064575195312,0,0,0.6125
2.385437106999234,0,0,1.5634136840820312,0,0,1.0718750000000001
2.387142383999162,0,0,0.6943184814453125,0,0,0.8421875000000001
2.3889429930004553,0,0,1.7597382202148437,0,0,1.378125
2.3906572149990097,0,0,2.389413256835937,0,0,1.1484375
2.3924346759995387,0,0,2.2457611572265623,0,0,1.3015625000000002
2.393979696000315,0,0,1.0319009155273438,0,0,0.5359375000000001
2.395594603000063,0,0,0.59376201171875,0,0,-1.79921875
2.397188659000676,0,0,1.2665326782226562,0,0,0.0765625
2.398716587000308,0,0,2.0159177978515626,0,0,1.0718750000000001
2.4006685459989967,0,0,1.678335363769531,0,0,1.7609375
2.4024416739994194,0,0,0.8259995727539062,0,0,0.9187500000000001
2.404183505999754,0,0,0.7326257080078125,0,0,1.0718750000000001
2.4058821170001465,0,0,2.243366955566406,0,0,1.6843750000000002
2.4075773379991006,0,0,2.2266075439453124,0,0,1.1484375
2.4091326910001953,0,0,1.8722656982421875,0,0,0.6890625
2.41079709800033,0,0,0.14604630126953125,0,0,-0.45937500000000003
2.4126269850003155,0,0,0.0526724365234375,0,0,0.6125
2.4142801699999836,0,0,1.0510545288085937,0,0,1.378125
2.4161037239991856,0,0,1.2593500732421874,0,0,1.6843750000000002
2.4186470650001866,0,0,1.429338391113281,0,0,1.0718750000000001
2.4202736770002957,0,0,1.1444283935546875,0,0,1.3015625000000002
2.4219501949992264,0,0,2.6001030029296874,0,0,1.6843750000000002
2.4235162879995187,0,0,2.8371289672851563,0,0,1.7609375
2.4251862509991042,0,0,1.9776105712890624,0,0,-0.45937500000000003
2.4268728059996647,0,0,0.40462008056640625,0,0,-0.9187500000000001
2.428448713999387,0,0,0.488417138671875,0,0,-0.5359375000000001
2.429975140999886,0,0,1.4173673828125,0,0,0.3828125
2.431666899999982,0,0,1.39821376953125,0,0,0.8421875000000001
2.4332809560000896,0,0,0.8858546142578124,0,0,1.53125
2.434893067000303,0,0,0.055066638183593745,0,0,0.6890625
2.4366471399989678,0,0,0.8643067993164062,0,0,1.225
2.438277528999606,0,0,2.849099975585937,0,0,1.53125
2.4398080669998308,0,0,2.6240450195312497,0,0,2.2203125000000004
2.441445864000343,0,0,1.8914193115234375,0,0,0.9187500000000001
2.443032253000638,0,0,0.2753331909179687,0,0,-0.45937500000000003
2.4447861409989855,0,0,1.199495031738281,0,0,0.5359375000000001
2.446445399998993,0,0,1.4939818359375,0,0,1.0718750000000001
2.4480542889996286,0,0,1.6448165405273436,0,0,1.1484375
2.4495789569991757,0,0,1.0438719238281249,0,0,0.5359375000000001
2.4517194330001075,0,0,0.21308394775390624,0,0,0.9187500000000001
2.4534171359991888,0,0,1.9297265380859374,0,0,1.53125
2.4549565260003874,0,0,2.868253588867187,0,0,1.53125
2.4564834529992368,0,0,2.7964275390625,0,0,-8.575000000000001
2.4583768769989547,0,0,1.2761094848632812,0,0,0.3828125
2.4601947629998904,0,0,0.3399766357421875,0,0,0.0
2.461938688000373,0,0,1.3359645263671873,0,0,0.3828125
2.463524910999695,0,0,1.8267758666992187,0,0,0.5359375000000001
2.4658244410002226,0,0,0.7422025146484375,0,0,1.225
2.467532550999749,0,0,0.37828386230468747,0,0,0.765625
2.4691304589996435,0,0,1.2713210815429687,0,0,1.378125
2.4708380510001007,0,0,2.3151930053710936,0,0,1.0718750000000001
2.472383959000581,0,0,2.437297290039062,0,0,1.6843750000000002
2.4744556400000874,0,0,1.1731588134765625,0,0,0.9187500000000001
2.4762628039989067,0,0,0.6416460449218749,0,0,1.1484375
2.477935044998958,0,0,1.6927005737304686,0,0,0.765625
2.479959226000574,0,0,1.448492004394531,0,0,1.225
2.4817790010001772,0,0,0.7709329345703124,0,0,0.9187500000000001
2.4834731299997657,0,0,0.3327940307617187,0,0,0.765625
2.4850187430001824,0,0,1.3096283081054687,0,0,1.1484375
2.486542262000512,0,0,2.195482922363281,0,0,0.9187500000000001
2.488258706000124,0,0,2.6575638427734374,0,0,1.3015625000000002
2.4899652789990796,0,0,0.97683427734375,0,0,1.6078125
2.491557928000475,0,0,0.3399766357421875,0,0,-0.9187500000000001
2.4930981889992836,0,0,1.0390835205078124,0,0,0.22968750000000002
2.49485342799926,0,0,1.8531120849609375,0,0,1.53125
2.496497649999583,0,0,1.7118541870117185,0,0,1.9140625000000002
2.498025910999786,0,0,1.0319009155273438,0,0,1.1484375
2.4998554089997924,0,0,0.9050082275390624,0,0,1.1484375
2.5014887420002196,0,0,1.848323681640625,0,0,1.9140625000000002
2.503020705999006,0,0,2.221819140625,0,0,1.225
2.504761371999848,0,0,1.5251064575195312,0,0,0.9187500000000001
2.506619017000048,0,0,1.0702081420898437,0,0,0.6125
2.5083045909996144,0,0,0.39983167724609375,0,0,0.6125
2.509871498999928,0,0,1.6304513305664061,0,0,0.9953125
2.511633942000117,0,0,1.8315642700195311,0,0,1.53125
2.513234295000075,0,0,1.01514150390625,0,0,1.9140625000000002
2.514785461999054,0,0,0.105344873046875,0,0,1.225
2.516415000000052,0,0,0.6655880615234374,0,0,1.225
2.5180011480006215,0,0,2.6719290527343746,0,0,1.6843750000000002
2.5197687950003456,0,0,2.6767174560546874,0,0,2.45
2.5215963480004575,0,0,2.01112939453125,0,0,1.53125
2.52328249600032,0,0,0.17477672119140625,0,0,-0.8421875000000001
2.524907015000281,0,0,1.4125789794921875,0,0,0.0
2.5264282940006524,0,0,1.7621324218749999,0,0,0.0
2.528411531000529,0,0,1.5251064575195312,0,0,1.8375000000000001
2.530041975000131,0,0,0.32561142578124996,0,0,1.1484375
2.5315759949990024,0,0,-0.0383072265625,0,0,0.9187500000000001
2.53310571899965,0,0,1.4125789794921875,0,0,1.990625
2.5350527150003472,0,0,2.403778466796875,0,0,1.53125
2.536698436999359,0,0,2.722207287597656,0,0,1.990625
2.5388006729990593,0,0,1.01514150390625,0,0,0.0765625
2.5406252079992555,0,0,0.8116343627929687,0,0,0.30625
2.5423517620001803,0,0,1.7214309936523438,0,0,0.9187500000000001
2.544011354999384,0,0,1.5634136840820312,0,0,0.9953125
2.5459375549999095,0,0,0.5817910034179687,0,0,-0.153125
2.5475781109998934,0,0,0.17956512451171874,0,0,0.0
2.5491843710005924,0,0,1.637633935546875,0,0,0.9953125
2.551036868000665,0,0,2.27927998046875,0,0,1.6078125
2.552885643999616,0,0,1.5298948608398437,0,0,0.8421875000000001
2.5556018539991783,0,0,0.14604630126953125,0,0,0.22968750000000002
2.55738735200066,0,0,1.7573440185546874,0,0,0.6890625
2.5591151289991103,0,0,2.6982652709960937,0,0,1.4546875000000001
2.560844923998957,0,0,1.4437036010742186,0,0,1.6078125
2.5630745839989686,0,0,0.10773907470703124,0,0,0.3828125
2.5648536940007034,0,0,1.637633935546875,0,0,0.45937500000000003
2.5665211750001617,0,0,2.578555187988281,0,0,0.6125
2.568302876999951,0,0,2.1978771240234374,0,0,1.1484375
2.570126763999724,0,0,0.55545478515625,0,0,0.6890625
2.5723017759992217,0,0,0.016759411621093748,0,0,0.6890625
2.574122718999206,0,0,1.695094775390625,0,0,1.4546875000000001
2.575864680999075,0,0,1.8028338500976562,0,0,1.378125
2.5774992179995024,0,0,1.3862427612304686,0,0,2.1437500000000003
2.5790542559989262,0,0,0.603338818359375,0,0,0.6890625
2.5807133670004987,0,0,1.216254443359375,0,0,1.53125
2.5822898860005807,0,0,2.636016027832031,0,0,0.9953125
2.584126309999192,0,0,2.0829554443359375,0,0,1.1484375
2.5858476419998624,0,0,0.59376201171875,0,0,0.9953125
2.587586289000683,0,0,-0.11013327636718749,0,0,8.498437500000001
2.589167197000279,0,0,1.7908628417968748,0,0,0.153125
2.5907897719989705,0,0,1.9919757812499999,0,0,1.7609375
2.592432474999441,0,0,1.4006079711914061,0,0,1.6078125
2.594575672999781,0,0,0.4836287353515625,0,0,0.45937500000000003
2.5962649140001304,0,0,1.1516109985351561,0,0,0.0
2.5981680959994264,0,0,2.9544448486328125,0,0,1.53125
2.59991976099991,0,0,2.583343591308594,0,0,1.9140625000000002
2.601564946000508,0,0,1.3120225097656248,0,0,0.6125
2.6032901859998674,0,0,-0.21308394775390624,0,0,-0.9953125
2.604838668999946,0,0,1.4006079711914061,0,0,0.3828125
2.60641853999914,0,0,1.7262193969726563,0,0,0.22968750000000002
2.6080859279991273,0,0,1.429338391113281,0,0,1.3015625000000002
2.609817426999143,0,0,0.70868369140625,0,0,0.9953125
2.611460779000481,0,0,0.28730419921875,0,0,0.6125
2.613179575000686,0,0,1.9393033447265624,0,0,1.3015625000000002
2.6147221499995794,0,0,2.5522189697265625,0,0,1.1484375
2.616302151000127,0,0,2.1619640991210938,0,0,1.3015625000000002
2.618015760999697,0,0,0.6512228515624999,0,0,0.765625
2.619553614000324,0,0,0.1149216796875,0,0,-0.6890625
2.621196243000668,0,0,1.5849614990234373,0,0,0.765625
2.622870242999852,0,0,1.9895815795898437,0,0,1.8375000000000001
2.624561687000096,0,0,1.6903063720703124,0,0,1.7609375
2.626193316998979,0,0,0.7278373046875,0,0,0.765625
2.6277719469999283,0,0,0.430956298828125,0,0,0.6890625
2.629394280998895,0,0,2.04943662109375,0,0,1.4546875000000001
2.631003447999319,0,0,2.1978771240234374,0,0,1.4546875000000001
2.632717705999312,0,0,2.1978771240234374,0,0,0.9953125
2.6344038719998935,0,0,0.5315127685546874,0,0,0.6890625
2.636002761999407,0,0,0.047884033203124995,0,0,0.8421875000000001
2.6375387810003303,0,0,1.426944189453125,0,0,1.225
2.6391147449994605,0,0,2.47081611328125,0,0,1.6078125
2.6407276899990393,0,0,2.2960393920898436,0,0,2.45
2.6423906149993854,0,0,1.0534487304687499,0,0,0.9953125
2.6440160789989022,0,0,0.7661445312499999,0,0,0.6890625
2.6456413569994766,0,0,1.927332336425781,0,0,1.6843750000000002
2.647366207000232,0,0,2.370259643554687,0,0,1.9140625000000002
2.6489003200003935,0,0,1.8339584716796873,0,0,0.8421875000000001
2.6504257100004907,0,0,0.9313444458007812,0,0,0.8421875000000001
2.652041098999689,0,0,-0.0143652099609375,0,0,0.30625
2.653874466999696,0,0,1.3958195678710936,0,0,0.153125
2.655476672000077,0,0,1.85790048828125,0,0,0.765625
2.657095635000587,0,0,1.7310078002929687,0,0,1.0718750000000001
2.658744320000551,0,0,0.928950244140625,0,0,0.6125
2.6602830619995075,0,0,1.4700398193359374,0,0,0.6890625
2.6618098220005777,0,0,2.588131994628906,0,0,1.4546875000000001
2.664324052999291,0,0,2.360682836914062,0,0,0.9953125
2.666343474998939,0,0,0.5961562133789062,0,0,0.45937500000000003
2.668056529999376,0,0,0.0430956298828125,0,0,0.153125
2.6696693260000757,0,0,1.0965443603515623,0,0,0.3828125
2.6714428430004773,0,0,1.6112977172851561,0,0,1.1484375
2.6730243809997773,0,0,1.1827356201171875,0,0,1.990625
2.6745476790001703,0,0,0.5626373901367188,0,0,1.1484375
2.6763001769995753,0,0,1.0558429321289062,0,0,1.3015625000000002
2.6779866029992263,0,0,2.5641899780273434,0,0,1.6843750000000002
2.679660101999616,0,0,2.5234885498046875,0,0,1.9140625000000002
2.681309342999157,0,0,1.9728221679687499,0,0,0.765625
2.6829698429992277,0,0,0.18435352783203124,0,0,-0.6890625
2.684520528999201,0,0,0.28969840087890625,0,0,2.2203125000000004
2.6860520119989815,0,0,1.22583125,0,0,0.6125
2.6876621049996174,0,0,1.5729904907226562,0,0,1.9140625000000002
2.6894769549999182,0,0,1.2617442749023438,0,0,1.53125
2.6911274359990784,0,0,0.46208092041015625,0,0,0.9953125
2.6928257870004018,0,0,2.185906115722656,0,0,1.3015625000000002
2.6944266030004655,0,0,2.50912333984375,0,0,1.1484375
2.69595630799995,0,0,2.3127988037109373,0,0,1.53125
2.697554770998977,0,0,1.7573440185546874,0,0,0.3828125
2.6992511409989675,0,0,-0.07900865478515624,0,0,-0.9953125
2.70092686299904,0,0,1.0917559570312498,0,0,0.8421875000000001
2.702596122000614,0,0,1.5945383056640625,0,0,1.1484375
2.7041861960005917,0,0,1.2330138549804688,0,0,1.990625
2.705812881999009,0,0,0.9600748657226562,0,0,1.53125
2.7075017699989985,0,0,0.8403647827148437,0,0,0.6125
2.7090459190003457,0,0,2.0566192260742184,0,0,1.0718750000000001
2.710571476000041,0,0,2.645592834472656,0,0,0.765625
2.7121484210001654,0,0,2.2864625854492187,0,0,0.9187500000000001
2.7138432350002404,0,0,0.6703764648437499,0,0,0.5359375000000001
2.715526030999172,0,0,-0.12689268798828124,0,0,-0.9953125
2.7171320130000822,0,0,1.1037269653320312,0,0,-9.8
2.718782308998925,0,0,1.4221557861328125,0,0,1.225
2.7203239219998068,0,0,1.7381904052734374,0,0,2.0671875
2.7218484040004114,0,0,0.8379705810546875,0,0,1.378125
2.723723068000254,0,0,0.6919242797851562,0,0,1.0718750000000001
2.725512806999177,0,0,2.308010400390625,0,0,1.1484375
2.727101214999493,0,0,2.5665841796874997,0,0,0.8421875000000001
2.7287544190003246,0,0,2.389413256835937,0,0,0.3828125
2.7303845490005187,0,0,0.82360537109375,0,0,0.0
2.7320553999998083,0,0,0.0143652099609375,0,0,0.0
2.7337069929999416,0,0,0.9696516723632812,0,0,0.3828125
2.7355098799998814,0,0,1.5753846923828123,0,0,1.0718750000000001
2.7371582129999297,0,0,1.2234370483398436,0,0,1.1484375
2.738814027999979,0,0,0.7254431030273437,0,0,0.8421875000000001
2.740533730999232,0,0,1.7525556152343749,0,0,1.225
2.7423830989991984,0,0,2.722207287597656,0,0,1.3015625000000002
2.7441423189993657,0,0,2.501940734863281,0,0,1.53125
2.7457372459994076,0,0,1.7501614135742187,0,0,0.153125
2.7476109099989117,0,0,-0.36152445068359373,0,0,-0.6125
2.749291797999831,0,0,1.2473790649414063,0,0,9.49375
2.7508255220000137,0,0,1.5825672973632812,0,0,1.3015625000000002
2.7524570030000177,0,0,1.5227122558593749,0,0,1.990625
2.7541567989992473,0,0,0.35194764404296874,0,0,1.6078125
2.7557141699999192,0,0,0.6009446166992187,0,0,0.6890625
2.7573315970003023,0,0,2.0302830078125,0,0,0.8421875000000001
2.759074409999812,0,0,2.655169641113281,0,0,1.225
2.7606088560005446,0,0,2.8131869506835936,0,0,0.153125
2.7622254670004622,0,0,0.8451531860351562,0,0,0.9953125
2.76405131699903,0,0,-0.08858546142578125,0,0,0.3828125
2.7656553920005535,0,0,1.2569558715820313,0,0,0.153125
2.7672354289989016,0,0,1.7741034301757812,0,0,1.1484375
2.768899058999523,0,0,1.0175357055664063,0,0,1.9140625000000002
2.770509965999736,0,0,0.7302315063476562,0,0,0.6125
2.772488758999316,0,0,1.2282254516601563,0,0,1.53125
2.7742374610006664,0,0,2.252943762207031,0,0,1.0718750000000001
2.775950200999432,0,0,2.3511060302734372,0,0,1.1484375
2.777474868998979,0,0,1.7693150268554687,0,0,-0.22968750000000002
2.77900827799931,0,0,0.1005564697265625,0,0,-1.7609375
2.780952293000155,0,0,1.9321207397460936,0,0,0.0765625
2.7827225319997524,0,0,1.687912170410156,0,0,1.4546875000000001
2.784456494000551,0,0,0.9600748657226562,0,0,1.225
2.786062512999706,0,0,0.3711012573242187,0,0,0.8421875000000001
2.7875933479990636,0,0,0.5578489868164063,0,0,0.0
2.7893484579999495,0,0,1.8291700683593748,0,0,0.8421875000000001
2.790992439000547,0,0,2.786850732421875,0,0,0.6890625
2.792573161999826,0,0,2.6982652709960937,0,0,0.9187500000000001
2.794108034000601,0,0,0.8930372192382812,0,0,0.9187500000000001
2.7956242939999356,0,0,0.20350714111328125,0,0,-0.6890625
2.797249813000235,0,0,1.024718310546875,0,0,0.3828125
2.798994237999068,0,0,1.3670891479492187,0,0,1.225
2.8005794979999337,0,0,1.1851298217773436,0,0,1.8375000000000001
2.8021121290003066,0,0,0.6416460449218749,0,0,1.225
2.8037705730002926,0,0,0.7541735229492187,0,0,0.6125
2.80536840700006,0,0,2.370259643554687,0,0,2.3734375
2.806912296999144,0,0,2.540247961425781,0,0,2.1437500000000003
2.8085379999993165,0,0,2.5450363647460934,0,0,1.3015625000000002
2.810211796000658,0,0,0.9864110839843749,0,0,0.45937500000000003
2.8117936670005292,0,0,0.5793968017578125,0,0,-0.153125
2.8134192420002364,0,0,1.5227122558593749,0,0,1.4546875000000001
2.816222432000359,0,0,0.8355763793945312,0,0,1.378125
2.817882135999753,0,0,0.14125789794921875,0,0,0.30625
2.819650744999308,0,0,0.4285620971679687,0,0,0.45937500000000003
2.821410169999581,0,0,2.7269956909179687,0,0,1.990625
2.8232893160002277,0,0,2.6192566162109374,0,0,2.3734375
2.825108683999133,0,0,1.7166425903320313,0,0,0.22968750000000002
2.8269867550006893,0,0,0.07422025146484375,0,0,-0.45937500000000003
2.8287703650003095,0,0,0.373495458984375,0,0,0.45937500000000003
2.830512123000517,0,0,1.455674609375,0,0,1.4546875000000001
2.832414250000511,0,0,0.7110778930664062,0,0,1.6843750000000002
2.834084971998891,0,0,0.20350714111328125,0,0,0.8421875000000001
2.8356472319992463,0,0,0.4429273071289062,0,0,1.4546875000000001
2.8374035079996247,0,0,2.346317626953125,0,0,2.6031250000000004
2.838995824000449,0,0,2.8754361938476563,0,0,1.990625
2.840531436000674,0,0,2.6216508178710938,0,0,1.3015625000000002
2.8422098430000915,0,0,0.7230489013671875,0,0,0.30625
2.8438602869991882,0,0,0.15322890625,0,0,-0.3828125
2.845551156999136,0,0,1.5897499023437498,0,0,0.0765625
2.8471174169990263,0,0,1.458068811035156,0,0,1.53125
2.8487737129999005,0,0,1.0175357055664063,0,0,2.2203125000000004
2.8503743250003026,0,0,0.086191259765625,0,0,0.765625
2.852336154999648,0,0,1.1372457885742187,0,0,0.9953125
2.854009931999826,0,0,2.6815058593749996,0,0,1.7609375
2.855854614999771,0,0,2.616862414550781,0,0,2.5265625000000003
2.857441670999833,0,0,1.7238251953125,0,0,0.9187500000000001
2.859067690000302,0,0,0.3136404174804687,0,0,-0.45937500000000003
2.860651004999454,0,0,0.7565677246093749,0,0,0.6125
2.862281746000008,0,0,1.848323681640625,0,0,1.1484375
2.8640889849993982,0,0,0.8906430175781249,0,0,1.225
2.8656219490003423,0,0,0.5099649536132812,0,0,0.5359375000000001
2.8671944309990067,0,0,0.09337386474609374,0,0,0.8421875000000001
2.8688276169996243,0,0,0.8930372192382812,0,0,1.8375000000000001
2.8704437840005994,0,0,2.3630770385742186,0,0,1.6843750000000002
2.871990691999599,0,0,2.4684219116210935,0,0,1.990625
2.873759523999979,0,0,1.8291700683593748,0,0,1.1484375
2.8756219659990165,0,0,0.06703764648437499,0,0,-1.3015625000000002
2.8774042610002653,0,0,1.6112977172851561,0,0,0.153125
2.8792347960006737,0,0,1.9393033447265624,0,0,2.0671875
2.880943906000539,0,0,1.189918225097656,0,0,1.9140625000000002
2.882637923999937,0,0,0.20829554443359374,0,0,0.6125
2.8843245530006243,0,0,0.7852981445312499,0,0,0.22968750000000002
2.885998108000422,0,0,2.70065947265625,0,0,1.6078125
2.8876685889990767,0,0,2.6886884643554687,0,0,2.5265625000000003
2.889379274000021,0,0,1.9225439331054686,0,0,0.9953125
2.8910272550001537,0,0,0.1388636962890625,0,0,0.0765625
2.8926978839990625,0,0,-0.16519991455078123,0,0,0.0
2.8943692539996846,0,0,1.7693150268554687,0,0,0.9187500000000001
2.896116198000527,0,0,1.47482822265625,0,0,0.9187500000000001
2.8977956599992467,0,0,1.0319009155273438,0,0,2.296875
2.8994622339996567,0,0,0.13168109130859373,0,0,0.6890625
2.9010712529998273,0,0,1.8938135131835936,0,0,0.8421875000000001
2.9026705870001024,0,0,2.6719290527343746,0,0,1.8375000000000001
2.904381715999989,0,0,2.300827795410156,0,0,1.53125
2.9060193820005225,0,0,0.8930372192382812,0,0,0.22968750000000002
2.9076143090005644,0,0,0.02154781494140625,0,0,-0.3828125
2.909229234999657,0,0,0.6248866333007812,0,0,0.30625
2.910945345000073,0,0,2.2266075439453124,0,0,1.6843750000000002
2.912579678999464,0,0,1.8818425048828125,0,0,1.1484375
2.914181752999866,0,0,0.8738836059570312,0,0,1.3015625000000002
2.916108990999419,0,0,0.42377369384765623,0,0,0.9953125
2.918034690999775,0,0,2.2577321655273437,0,0,1.6078125
2.920002205999481,0,0,2.6527754394531247,0,0,0.9953125
2.921758370999669,0,0,2.4564509033203126,0,0,1.225
2.923379705000116,0,0,0.7924807495117187,0,0,0.6125
2.924977687000137,0,0,-0.14604630126953125,0,0,-1.53125
2.9266196499993384,0,0,1.0654197387695312,0,0,0.0
2.9282120579991897,0,0,1.8531120849609375,0,0,2.1437500000000003
2.92974863299969,0,0,1.4437036010742186,0,0,0.3828125
2.931401652000204,0,0,0.7015010864257812,0,0,0.5359375000000001
2.933076670000446,0,0,0.4860229370117187,0,0,0.765625
2.9346368559999974,0,0,1.1109095703125,0,0,0.8421875000000001
2.936284985000384,0,0,2.8467057739257813,0,0,2.3734375
2.93795991099978,0,0,2.1068974609374997,0,0,2.9093750000000003
2.9394947450000473,0,0,1.7764976318359373,0,0,0.6890625
2.9410308949991304,0,0,0.6248866333007812,0,0,-0.153125
2.942801227000018,0,0,0.4740519287109375,0,0,9.4171875
2.944740445000207,0,0,2.252943762207031,0,0,0.153125
2.946412945000702,0,0,1.4437036010742186,0,0,1.3015625000000002
2.9480697409999266,0,0,0.277727392578125,0,0,2.3734375
2.949681464000605,0,0,0.21308394775390624,0,0,0.3828125
2.95127390900052,0,0,1.1420341918945311,0,0,0.0765625
2.952888742000141,0,0,2.212242333984375,0,0,2.45
2.9545137240002077,0,0,2.868253588867187,0,0,2.0671875
2.956093205999423,0,0,1.3766659545898436,0,0,1.8375000000000001
2.9577726869993057,0,0,0.8020575561523438,0,0,0.0
2.9594902980006736,0,0,0.47165772705078124,0,0,-0.765625
2.9611170570005925,0,0,2.2026655273437497,0,0,1.225
2.962774741999965,0,0,2.6001030029296874,0,0,2.5265625000000003
2.964631646998896,0,0,0.9457096557617187,0,0,1.1484375
2.966286814000341,0,0,0.35194764404296874,0,0,0.6890625
2.9678370549991087,0,0,0.38786066894531246,0,0,0.5359375000000001
2.969508517999202,0,0,1.8746598999023436,0,0,0.6890625
2.971119240999542,0,0,2.96881005859375,0,0,2.296875
2.972651407999365,0,0,2.3774422485351563,0,0,1.6078125
2.974794309999197,0,0,0.9576806640625,0,0,9.4171875
2.9770282659992517,0,0,0.5530605834960938,0,0,-0.6890625
2.9786654519994045,0,0,0.9433154541015625,0,0,0.45937500000000003
2.98023787800048,0,0,2.0278888061523435,0,0,1.1484375
2.9819814330003283,0,0,0.928950244140625,0,0,0.9187500000000001
2.983563581999988,0,0,0.27293898925781246,0,0,1.6843750000000002
2.985101174999727,0,0,0.49320554199218747,0,0,0.22968750000000002
2.9868480999994063,0,0,1.2138602416992186,0,0,0.30625
2.9885044149996247,0,0,2.6886884643554687,0,0,2.45
2.990164007000203,0,0,2.1619640991210938,0,0,1.990625
2.991858728999432,0,0,1.24498486328125,0,0,1.3015625000000002
2.993452007000087,0,0,0.36391865234375,0,0,-0.5359375000000001
2.995034563000445,0,0,0.4261678955078125,0,0,-0.5359375000000001
2.9967880620006326,0,0,0.9074024291992187,0,0,0.9953125
2.9986375409989705,0,0,2.04943662109375,0,0,1.8375000000000001
3.0006192780001584,0,0,0.9983820922851562,0,0,0.6125
3.0024771280004643,0,0,0.9792284790039062,0,0,0.8421875000000001
3.0042050150004798,0,0,1.438915197753906,0,0,0.765625
3.005883497000468,0,0,1.7214309936523438,0,0,0.5359375000000001
3.0076468469997053,0,0,2.877830395507812,0,0,1.378125
3.0095290480003314,0,0,1.4508862060546874,0,0,0.9187500000000001
3.0116702459999942,0,0,0.5674257934570313,0,0,-0.30625
3.01363363100063,0,0,0.507570751953125,0,0,0.0765625
3.015244668999003,0,0,0.93852705078125,0,0,0.8421875000000001
3.0169403349991626,0,0,1.5921441040039062,0,0,1.8375000000000001
3.018698222000239,0,0,1.2808978881835937,0,0,2.6031250000000004
3.0203129820001777,0,0,0.6368576416015624,0,0,1.4546875000000001
3.0222920889991656,0,0,1.5107412475585937,0,0,0.6890625
3.0240561430000525,0,0,1.8507178833007811,0,0,0.22968750000000002
3.0257241250001243,0,0,2.212242333984375,0,0,2.2203125000000004
3.0273278469994693,0,0,1.68551796875,0,0,1.4546875000000001
3.0290258469995024,0,0,0.8475473876953125,0,0,-9.8
3.0307231610004237,0,0,0.97683427734375,0,0,-1.3015625000000002
3.032937931999186,0,0,0.8475473876953125,0,0,0.0
3.0346589500004484,0,0,1.1156979736328125,0,0,1.53125
3.036548947000483,0,0,1.7717092285156248,0,0,2.0671875
3.0383337050006958,0,0,0.6344634399414062,0,0,1.378125
3.040415977000521,0,0,1.3168109130859373,0,0,-0.153125
3.04264621099901,0,0,1.8722656982421875,0,0,0.6890625
3.0443314149997605,0,0,2.051830822753906,0,0,1.225
3.046013672999834,0,0,1.7238251953125,0,0,1.3015625000000002
3.0479012449995935,0,0,1.3263877197265623,0,0,0.22968750000000002
3.0495155600001453,0,0,0.7038952880859375,0,0,9.4171875
3.051757811999778,0,0,0.603338818359375,0,0,0.5359375000000001
3.0538603810000495,0,0,0.9888052856445312,0,0,1.225
3.055589677000171,0,0,1.7956512451171873,0,0,0.9953125
3.057268860999102,0,0,1.2808978881835937,0,0,2.45
3.0595082250001724,0,0,1.1276689819335937,0,0,0.30625
3.061621720000403,0,0,1.5203180541992187,0,0,1.3015625000000002
3.063932138000382,0,0,2.2194249389648437,0,0,1.3015625000000002
3.0660490589998517,0,0,1.5825672973632812,0,0,1.6078125
3.0682842370006256,0,0,0.354341845703125,0,0,0.9953125
3.0699346999990667,0,0,0.718260498046875,0,0,8.881250000000001
3.071475811999335,0,0,0.7326257080078125,0,0,0.3828125
3.0730244429996674,0,0,1.1659762084960936,0,0,0.0
3.074763681999684,0,0,1.4245499877929686,0,0,1.378125
3.0763895340005547,0,0,1.5059528442382812,0,0,2.3734375
3.077967424000235,0,0,0.6464344482421874,0,0,0.8421875000000001
3.079572812999686,0,0,0.9193734375,0,0,0.0
3.081140148000486,0,0,1.7525556152343749,0,0,0.765625
3.0829387750000024,0,0,2.020706201171875,0,0,0.5359375000000001
3.0844823320003343,0,0,2.0350714111328125,0,0,1.6843750000000002
3.086004184999183,0,0,1.197100830078125,0,0,0.9953125
3.087810331999208,0,0,0.9121908325195311,0,0,0.0
3.0894089430003078,0,0,0.7350199096679687,0,0,-0.5359375000000001
3.0910519429999113,0,0,0.967257470703125,0,0,-0.30625
3.0926653879996593,0,0,1.209071838378906,0,0,0.153125
3.0943805539991445,0,0,0.8379705810546875,0,0,1.3015625000000002
3.096061145999556,0,0,1.2713210815429687,0,0,1.4546875000000001
3.0977189049990557,0,0,1.4700398193359374,0,0,1.4546875000000001
3.0995451439994213,0,0,1.0821791503906248,0,0,1.0718750000000001
3.1015098440002475,0,0,1.6065093139648436,0,0,0.6890625
3.1031787510000868,0,0,2.0829554443359375,0,0,1.1484375
3.1048266399993736,0,0,1.8076222534179687,0,0,1.0718750000000001
3.106429269999353,0,0,1.8219874633789062,0,0,0.9953125
3.108110676999786,0,0,0.8738836059570312,0,0,-0.30625
3.1098084909990575,0,0,0.3327940307617187,0,0,-0.9187500000000001
3.111351714000193,0,0,0.814028564453125,0,0,9.340625000000001
3.112881159999233,0,0,1.1827356201171875,0,0,0.30625
3.1144943269991927,0,0,0.7757213378906249,0,0,0.5359375000000001
3.116256954999699,0,0,1.2138602416992186,0,0,1.4546875000000001
3.117782844999965,0,0,1.5275006591796874,0,0,1.9140625000000002
3.119404474999101,0,0,1.2521674682617188,0,0,0.45937500000000003
3.121156195998992,0,0,1.426944189453125,0,0,0.9953125
3.1228501400000823,0,0,1.7262193969726563,0,0,0.3828125
3.12456087999999,0,0,1.9297265380859374,0,0,1.225
3.1261663989989756,0,0,1.5586252807617187,0,0,0.9187500000000001
3.127729362999162,0,0,1.707065783691406,0,0,0.9953125
3.1295706380005868,0,0,1.0654197387695312,0,0,0.0765625
3.1311367500002234,0,0,0.6416460449218749,0,0,0.3828125
3.132665826000448,0,0,1.1707646118164061,0,0,-9.8
3.1344170840002334,0,0,1.0678139404296874,0,0,0.6890625
3.136105564999525,0,0,0.7445967163085937,0,0,0.8421875000000001
3.137824303999878,0,0,0.9720458740234375,0,0,1.7609375
3.1394752119995246,0,0,1.2976572998046874,0,0,1.7609375
3.1413691349989676,0,0,1.35990654296875,0,0,1.225
3.1429150799995114,0,0,1.2832920898437499,0,0,1.378125
3.1445083399994473,0,0,1.7932570434570312,0,0,0.8421875000000001
3.146361077999245,0,0,1.6352397338867186,0,0,0.765625
3.148065707000569,0,0,1.7525556152343749,0,0,1.225
3.149661577999723,0,0,1.4508862060546874,0,0,0.22968750000000002
3.151420132999192,0,0,0.7134720947265625,0,0,0.45937500000000003
3.1529576709999674,0,0,0.9696516723632812,0,0,0.0765625
3.154541505000452,0,0,1.0582371337890624,0,0,0.30625
3.156495630999416,0,0,1.0103531005859374,0,0,1.1484375
3.158341202999509,0,0,1.0366893188476562,0,0,0.9187500000000001
3.1601019610006915,0,0,1.5203180541992187,0,0,0.9953125
3.1619277730005706,0,0,1.8004396484374998,0,0,1.225
3.1634620149998227,0,0,1.7932570434570312,0,0,1.3015625000000002
3.1651162189991737,0,0,1.4532804077148436,0,0,1.3015625000000002
3.1669027360003383,0,0,1.5155296508789062,0,0,0.30625
3.168801492000057,0,0,1.8650830932617186,0,0,0.22968750000000002
3.1720433259997662,0,0,1.2306196533203124,0,0,0.765625
3.1736203450000176,0,0,1.189918225097656,0,0,1.378125
3.1751457909995224,0,0,1.1109095703125,0,0,0.6125
3.176670495999133,0,0,0.9600748657226562,0,0,0.9953125
3.1782795149993035,0,0,0.4955997436523437,0,0,0.45937500000000003
3.1800766800006386,0,0,1.5298948608398437,0,0,-0.8421875000000001
3.1817103649991623,0,0,1.448492004394531,0,0,2.75625
3.1833015880001767,0,0,1.695094775390625,0,0,1.9140625000000002
3.1849730129997624,0,0,1.6615759521484375,0,0,1.7609375
3.186588106000272,0,0,1.13006318359375,0,0,1.1484375
3.1881127369997557,0,0,1.0917559570312498,0,0,0.6125
3.1897448300005635,0,0,1.6807295654296874,0,0,0.5359375000000001
3.191415106999557,0,0,2.1595698974609374,0,0,0.8421875000000001
3.19307227399986,0,0,1.9584569580078124,0,0,1.225
3.1946903850002855,0,0,1.2641384765625,0,0,1.53125
3.1963811250006984,0,0,0.70868369140625,0,0,0.6125
3.1980341439993936,0,0,0.5027823486328125,0,0,0.0
3.199980899998991,0,0,1.4915876342773438,0,0,0.153125
3.2015475490006793,0,0,1.9297265380859374,0,0,0.8421875000000001
3.2030715870005224,0,0,1.6711527587890624,0,0,0.9953125
3.2049534550005774,0,0,0.5913678100585937,0,0,1.1484375
3.2064989369991963,0,0,0.35673604736328124,0,0,0.9187500000000001
3.208023826999124,0,0,1.7501614135742187,0,0,1.3015625000000002
3.2100028049990215,0,0,1.7166425903320313,0,0,1.9140625000000002
3.211771062999105,0,0,1.3527239379882812,0,0,0.5359375000000001
3.213399730000674,0,0,1.6304513305664061,0,0,0.3828125
3.2151051919991005,0,0,1.8411410766601561,0,0,1.225
3.2166505080003844,0,0,1.7860744384765623,0,0,1.0718750000000001
3.218235915999685,0,0,1.2808978881835937,0,0,1.1484375
3.2199066930006666,0,0,0.9648632690429687,0,0,1.8375000000000001
3.221519527000055,0,0,1.1707646118164061,0,0,0.6890625
3.2231362679995073,0,0,1.2928688964843749,0,0,0.30625
3.2248858040002233,0,0,1.4101847778320311,0,0,0.8421875000000001
3.2265575069995975,0,0,1.8148048583984373,0,0,0.6890625
3.2281286929992348,0,0,0.9528922607421875,0,0,0.765625
3.2296541390005586,0,0,0.488417138671875,0,0,1.1484375
3.2312631949989736,0,0,1.1013327636718748,0,0,1.378125
3.232873232000202,0,0,1.5705962890624998,0,0,1.4546875000000001
3.2344194739998784,0,0,1.5322890624999999,0,0,1.53125
3.2359748819999368,0,0,0.9026140258789062,0,0,0.8421875000000001
3.2375921419989027,0,0,0.8164227661132812,0,0,0.3828125
3.2393513810002332,0,0,1.7453730102539062,0,0,1.6078125
3.240941345000465,0,0,1.9871873779296874,0,0,0.45937500000000003
3.24255982700015,0,0,1.2378022583007813,0,0,1.1484375
3.244184455999857,0,0,1.0726023437499999,0,0,0.9953125
3.245718809999744,0,0,1.1635820068359375,0,0,0.8421875000000001
3.2475047150001046,0,0,1.4628572143554686,0,0,0.6125
3.2494157119999727,0,0,1.4125789794921875,0,0,0.765625
3.251070248999895,0,0,1.5586252807617187,0,0,0.8421875000000001
3.252759249000519,0,0,1.2880804931640624,0,0,0.45937500000000003
3.2543658049999067,0,0,0.8786720092773437,0,0,0.3828125
3.256167210000058,0,0,0.603338818359375,0,0,0.22968750000000002
3.2581886499992834,0,0,1.649604943847656,0,0,1.378125
3.2597681139995984,0,0,1.7860744384765623,0,0,1.9140625000000002
3.261354004000168,0,0,1.2306196533203124,0,0,1.6078125
3.2631563720005943,0,0,1.419761584472656,0,0,0.6125
3.264921666999726,0,0,1.8267758666992187,0,0,1.1484375
3.266631500000585,0,0,1.687912170410156,0,0,0.6890625
3.2684594969996397,0,0,1.2018892333984375,0,0,1.1484375
3.2700741089993244,0,0,1.0175357055664063,0,0,1.4546875000000001
3.271660090998921,0,0,1.22583125,0,0,1.4546875000000001
3.273320517000684,0,0,1.7788918334960937,0,0,0.765625
3.274858480999683,0,0,1.455674609375,0,0,0.9187500000000001
3.2763856120000128,0,0,1.2282254516601563,0,0,0.9187500000000001
3.2779838709993783,0,0,1.4628572143554686,0,0,-9.1109375
3.279826702999344,0,0,1.4987702392578124,0,0,1.3015625000000002
3.281512424000539,0,0,0.948103857421875,0,0,0.765625
3.283051054999305,0,0,1.0606313354492187,0,0,0.153125
3.284965478000231,0,0,1.39821376953125,0,0,1.4546875000000001
3.2866652920001798,0,0,1.6208745239257811,0,0,1.1484375
3.2883611990000645,0,0,1.0007762939453124,0,0,0.8421875000000001
3.289982513999348,0,0,0.8068459594726562,0,0,1.225
3.2915167560004193,0,0,1.3239935180664062,0,0,1.225
3.2930447939997975,0,0,2.123656872558594,0,0,1.225
3.294663627999398,0,0,1.8746598999023436,0,0,0.9953125
3.296410941000431,0,0,1.005564697265625,0,0,0.6125
3.2980133309993107,0,0,1.0654197387695312,0,0,0.6890625
3.299642108999251,0,0,1.608903515625,0,0,0.3828125
3.3012765160001436,0,0,1.7669208251953124,0,0,0.6125
3.3030257369991887,0,0,1.3000515014648437,0,0,0.6125
3.3048661419998098,0,0,1.6543933471679686,0,0,1.0718750000000001
3.306448901999829,0,0,1.5370774658203123,0,0,0.6890625
3.3079805149991444,0,0,1.2018892333984375,0,0,0.6890625
3.3096281069992983,0,0,0.7900865478515624,0,0,0.153125
3.3114524569991772,0,0,1.0678139404296874,0,0,0.0
3.313094772000113,0,0,2.0159177978515626,0,0,1.4546875000000001
3.3147809189995314,0,0,2.020706201171875,0,0,1.6843750000000002
3.3166766199992708,0,0,1.1420341918945311,0,0,1.6078125
3.318269269000666,0,0,0.8068459594726562,0,0,0.45937500000000003
3.3199719349995576,0,0,1.1827356201171875,0,0,1.1484375
3.3217191000003368,0,0,2.4157494750976563,0,0,1.4546875000000001
3.323495524999089,0,0,1.5873557006835937,0,0,1.3015625000000002
3.3251662279999437,0,0,0.51714755859375,0,0,0.45937500000000003
3.326832671999,0,0,0.9600748657226562,0,0,0.45937500000000003
3.32842848799919,0,0,1.89620771484375,0,0,1.53125
3.3300958950003405,0,0,1.4987702392578124,0,0,1.6843750000000002
3.33176746800018,0,0,1.0869675537109373,0,0,1.225
3.3337600760005444,0,0,0.9816226806640624,0,0,-8.8046875
3.335449668000365,0,0,1.5131354492187499,0,0,0.8421875000000001
3.3369900950001465,0,0,1.5346832641601562,0,0,0.6125
3.3385146889995667,0,0,0.7565677246093749,0,0,0.30625
3.3404634069993335,0,0,0.4429273071289062,0,0,1.9140625000000002
3.342119573999298,0,0,1.7022773803710936,0,0,1.225
3.343641426999966,0,0,1.8531120849609375,0,0,2.0671875
3.3456169050004974,0,0,1.3718775512695311,0,0,1.4546875000000001
3.3479007490004733,0,0,0.6488286499023437,0,0,1.378125
3.3495772120004403,0,0,1.2856862915039062,0,0,0.30625
3.3513186179989134,0,0,2.7365724975585937,0,0,2.0671875
3.35350827900038,0,0,1.6017209106445311,0,0,1.6078125
3.3551310200000444,0,0,0.45010991210937495,0,0,0.6125
3.3569421470001544,0,0,0.5123591552734374,0,0,0.45937500000000003
3.358666349999112,0,0,1.7094599853515624,0,0,1.53125
3.3602118879989575,0,0,1.7381904052734374,0,0,2.0671875
3.3617314450002596,0,0,1.2713210815429687,0,0,0.6125
3.363381556000604,0,0,0.8116343627929687,0,0,0.30625
3.3649837970006047,0,0,1.1252747802734375,0,0,0.45937500000000003
3.3665676870004972,0,0,1.5945383056640625,0,0,0.8421875000000001
3.368225557000187,0,0,1.0414777221679687,0,0,0.3828125
3.369867704999706,0,0,0.718260498046875,0,0,0.0765625
3.371462817000065,0,0,0.4477157104492187,0,0,-0.9953125
3.3729929479995917,0,0,1.0295067138671874,0,0,0.153125
3.3746328550005273,0,0,2.3439234252929686,0,0,1.6843750000000002
3.3762075969989382,0,0,1.4125789794921875,0,0,1.8375000000000001
3.3777797639995697,0,0,0.8164227661132812,0,0,0.9953125
3.3795145410003897,0,0,0.7326257080078125,0,0,0.6890625
3.3811695410004177,0,0,1.917755529785156,0,0,0.45937500000000003
3.382704190000368,0,0,2.602497204589844,0,0,1.378125
3.384314541999629,0,0,2.2457611572265623,0,0,1.9140625000000002
3.3858870990006835,0,0,0.9720458740234375,0,0,0.8421875000000001
3.3874766360004287,0,0,0.2059013427734375,0,0,-0.22968750000000002
3.3890729329996248,0,0,1.3958195678710936,0,0,0.6125
3.3909352640002908,0,0,1.886630908203125,0,0,1.378125
3.392587671000001,0,0,1.9704279663085937,0,0,1.4546875000000001
3.3941553570002725,0,0,1.0366893188476562,0,0,0.8421875000000001
3.3958367830000498,0,0,0.7110778930664062,0,0,0.5359375000000001
3.3973729139997886,0,0,1.3335703247070312,0,0,0.153125
3.3988928590006253,0,0,1.7238251953125,0,0,1.1484375
3.40062282100007,0,0,1.4341267944335936,0,0,1.4546875000000001
3.402303024999128,0,0,0.7924807495117187,0,0,0.9187500000000001
3.4038797659995907,0,0,0.6488286499023437,0,0,0.6125
3.405602913000621,0,0,1.3527239379882812,0,0,1.3015625000000002
3.4073195609998947,0,0,1.5275006591796874,0,0,0.9953125
3.4092854829996213,0,0,1.1611878051757811,0,0,1.4546875000000001
3.4109902780000994,0,0,0.6584054565429687,0,0,0.8421875000000001
3.4126790930004063,0,0,1.0630255371093749,0,0,0.6125
3.414281334000407,0,0,1.714248388671875,0,0,0.5359375000000001
3.4158152979998704,0,0,1.7956512451171873,0,0,1.0718750000000001
3.4174714460004907,0,0,2.0350714111328125,0,0,1.6078125
3.420123546000468,0,0,0.9744400756835937,0,0,0.5359375000000001
3.4217820829999255,0,0,1.1875240234375,0,0,-0.153125
3.4234278599997197,0,0,1.5083470458984374,0,0,1.0718750000000001
3.4250305829991703,0,0,1.618480322265625,0,0,0.30625
3.426673824000318,0,0,1.180341418457031,0,0,0.3828125
3.42837065599997,0,0,0.8044517578125,0,0,0.153125
3.4300276009998925,0,0,1.1707646118164061,0,0,0.0
3.431555490999017,0,0,1.3407529296874998,0,0,0.22968750000000002
3.433112935999816,0,0,1.5969325073242187,0,0,0.5359375000000001
3.4348940090003452,0,0,1.6472107421875,0,0,1.3015625000000002
3.436627581999346,0,0,1.158793603515625,0,0,0.9953125
3.4383501180000167,0,0,0.8283937744140625,0,0,0.9187500000000001
3.440060580000136,0,0,1.0007762939453124,0,0,0.6125
3.441684228999293,0,0,1.3120225097656248,0,0,832.69375
3.443283192000308,0,0,1.9416975463867185,0,0,0.45937500000000003
3.444983321000109,0,0,2.0925322509765625,0,0,1.3015625000000002
3.446624951000558,0,0,1.0582371337890624,0,0,0.22968750000000002
3.4483012090004195,0,0,0.5243301635742187,0,0,0.0
3.44990209900061,0,0,1.1827356201171875,0,0,0.22968750000000002
3.4514513409994834,0,0,1.3239935180664062,0,0,1.6843750000000002
3.4530476370000542,0,0,1.5346832641601562,0,0,0.3828125
3.454736191999473,0,0,1.6519991455078125,0,0,0.9953125
3.4562904899994464,0,0,0.8882488159179687,0,0,0.9187500000000001
3.457892360000187,0,0,0.9744400756835937,0,0,0.30625
3.459579803999077,0,0,1.3215993164062498,0,0,0.6890625
3.4613732660000096,0,0,1.6400281372070311,0,0,0.9953125
3.4629850439996517,0,0,1.8555062866210936,0,0,1.3015625000000002
3.464602432999527,0,0,1.9800047729492187,0,0,0.9953125
3.4663398949996918,0,0,0.9193734375,0,0,0.765625
3.468083800999011,0,0,0.6536170532226562,0,0,0.3828125
3.4697700969991274,0,0,0.9888052856445312,0,0,0.3828125
3.471404800999153,0,0,1.6208745239257811,0,0,1.1484375
3.4729420429994207,0,0,1.6112977172851561,0,0,1.4546875000000001
3.474585190999278,0,0,1.4006079711914061,0,0,1.0718750000000001
3.476434928999879,0,0,0.7493851196289062,0,0,0.765625
3.478105799000332,0,0,0.7709329345703124,0,0,0.45937500000000003
3.479939741000635,0,0,1.0749965454101562,0,0,0.5359375000000001
3.4817844240005797,0,0,1.5442600708007812,0,0,0.9953125
3.4834293320000143,0,0,1.9584569580078124,0,0,1.0718750000000001
3.4851584789994376,0,0,1.4006079711914061,0,0,1.0718750000000001
3.48690532999899,0,0,0.8068459594726562,0,0,0.3828125
3.488689013000112,0,0,0.8212111694335937,0,0,0.22968750000000002
3.4903678089995083,0,0,1.5418658691406248,0,0,0.0765625
3.492252064999775,0,0,1.7334020019531249,0,0,0.9187500000000001
3.4939722130002338,0,0,1.4867992309570313,0,0,0.8421875000000001
3.4960172079991025,0,0,1.235408056640625,0,0,0.8421875000000001
3.497847353999532,0,0,0.7781155395507812,0,0,0.45937500000000003
3.4994581880000624,0,0,1.2018892333984375,0,0,0.5359375000000001
3.501066651000656,0,0,1.6639701538085936,0,0,1.225
3.503240015999836,0,0,1.6041151123046875,0,0,0.9187500000000001
3.5049488299991935,0,0,1.2832920898437499,0,0,0.6890625
3.507062546999805,0,0,1.2114660400390624,0,0,0.9953125
3.508778268000242,0,0,1.0702081420898437,0,0,1.0718750000000001
3.510305788000551,0,0,1.2473790649414063,0,0,-9.4171875
3.511911288000192,0,0,1.3670891479492187,0,0,-9.4171875
3.513532213999497,0,0,1.4939818359375,0,0,0.3828125
3.51505999300025,0,0,1.4437036010742186,0,0,1.0718750000000001
3.5165847539992683,0,0,1.1324573852539062,0,0,0.9953125
3.518405566999718,0,0,0.8116343627929687,0,0,0.45937500000000003
3.520202360999974,0,0,1.2114660400390624,0,0,0.6125
3.5217311960004736,0,0,1.235408056640625,0,0,832.69375
3.5239225049990637,0,0,1.4341267944335936,0,0,0.3828125
3.5255753559995355,0,0,1.707065783691406,0,0,1.1484375
3.5276182220004557,0,0,1.5873557006835937,0,0,1.3015625000000002
3.529447072000039,0,0,1.1133037719726562,0,0,0.8421875000000001
3.5310922200005734,0,0,0.9409212524414062,0,0,0.765625
3.5330897900003038,0,0,1.5801730957031248,0,0,0.6890625
3.534797308000634,0,0,1.5777788940429687,0,0,0.6125
3.536418808000235,0,0,1.3814543579101561,0,0,1.1484375
3.538132751999001,0,0,0.9193734375,0,0,0.9953125
3.540071766999972,0,0,1.0893617553710937,0,0,0.765625
3.5418246909994195,0,0,1.1444283935546875,0,0,0.9953125
3.543500949999725,0,0,1.426944189453125,0,0,0.30625
3.5452084129992727,0,0,2.039859814453125,0,0,0.45937500000000003
3.5468914119992405,0,0,1.6831237670898436,0,0,0.765625
3.548650410999471,0,0,1.3718775512695311,0,0,0.8421875000000001
3.550350317998891,0,0,1.1252747802734375,0,0,0.6890625
3.551964410000437,0,0,1.0366893188476562,0,0,1.1484375
3.553905554999801,0,0,1.4437036010742186,0,0,0.5359375000000001
3.555788626999856,0,0,1.695094775390625,0,0,0.3828125
3.5574381450005603,0,0,1.4245499877929686,0,0,0.6125
3.5593269569999393,0,0,1.218648645019531,0,0,0.6890625
3.5614098589994683,0,0,1.1037269653320312,0,0,0.5359375000000001
3.562966471999971,0,0,1.1372457885742187,0,0,0.765625
3.564576730999761,0,0,1.1875240234375,0,0,0.9187500000000001
3.5663310999989335,0,0,1.16837041015625,0,0,0.9953125
3.567922322999948,0,0,1.2306196533203124,0,0,0.765625
3.5696053039991966,0,0,1.3311761230468748,0,0,0.8421875000000001
3.571421227999963,0,0,1.3670891479492187,0,0,0.8421875000000001
3.5729981730000873,0,0,1.2282254516601563,0,0,0.765625
3.5745275629997195,0,0,1.0749965454101562,0,0,0.8421875000000001
3.5761800079999375,0,0,1.2306196533203124,0,0,0.6890625
3.577826192999055,0,0,1.4987702392578124,0,0,1.1484375
3.5794013049999194,0,0,1.3623007446289062,0,0,0.8421875000000001
3.58101299000009,0,0,1.2617442749023438,0,0,0.6890625
3.582970875000683,0,0,1.4437036010742186,0,0,0.6890625
3.584715540999241,0,0,1.438915197753906,0,0,0.9187500000000001
3.5863714850001998,0,0,1.448492004394531,0,0,0.5359375000000001
3.588039817999743,0,0,1.3431471313476562,0,0,0.5359375000000001
3.5897509659989737,0,0,0.9433154541015625,0,0,0.153125
3.5914234470001247,0,0,1.1276689819335937,0,0,0.30625
3.5930964090002817,0,0,1.599326708984375,0,0,1.1484375
3.5947246129999257,0,0,1.3670891479492187,0,0,1.1484375
3.596392576000653,0,0,1.3168109130859373,0,0,1.0718750000000001
3.5983185730001424,0,0,1.2330138549804688,0,0,0.6890625
3.600500214999556,0,0,1.369483349609375,0,0,0.765625
3.602176029000475,0,0,1.3383587280273437,0,0,1.225
3.6037594369990984,0,0,1.4006079711914061,0,0,0.8421875000000001
3.6053426420003234,0,0,1.4413093994140624,0,0,-9.1875
3.607008548999147,0,0,1.01514150390625,0,0,0.9187500000000001
3.6087170480004716,0,0,1.2952630981445312,0,0,0.5359375000000001
3.6105167499990785,0,0,1.3383587280273437,0,0,1.0718750000000001
3.612105101999987,0,0,1.5298948608398437,0,0,1.6078125
3.6136472700000013,0,0,1.599326708984375,0,0,1.0718750000000001
3.6154481020003004,0,0,1.5825672973632812,0,0,0.765625
3.617044917000385,0,0,1.3431471313476562,0,0,0.45937500000000003
3.6185752149995096,0,0,1.16837041015625,0,0,0.6125
3.620316954000373,0,0,1.158793603515625,0,0,0.6125
3.6219543799998064,0,0,1.0678139404296874,0,0,0.3828125
3.6235731579999992,0,0,1.3311761230468748,0,0,0.9187500000000001
3.6251300669991906,0,0,1.429338391113281,0,0,1.225
3.6267818630003603,0,0,1.446097802734375,0,0,1.1484375
3.6285284730001877,0,0,1.2401964599609374,0,0,0.765625
3.630212398000367,0,0,1.3455413330078123,0,0,0.8421875000000001
3.6318042689999857,0,0,1.2569558715820313,0,0,0.6125
3.6334121029995003,0,0,1.2114660400390624,0,0,0.765625
3.6350639920001413,0,0,1.1444283935546875,0,0,0.765625
3.636668713999825,0,0,1.3814543579101561,0,0,0.5359375000000001
3.638249141000415,0,0,1.2761094848632812,0,0,0.9953125
3.6398742149995087,0,0,1.1061211669921875,0,0,1.1484375
3.6414922889998707,0,0,1.254561669921875,0,0,0.9953125
3.6430199570004334,0,0,1.3407529296874998,0,0,0.30625
3.6447641409995413,0,0,1.5035586425781249,0,0,0.9187500000000001
3.6466012870005216,0,0,1.7836802368164062,0,0,1.1484375
3.648363711999991,0,0,1.5514426757812498,0,0,1.225
3.650053081999431,0,0,1.24498486328125,0,0,0.45937500000000003
3.6516088230000605,0,0,1.0702081420898437,0,0,0.30625
3.6531375470003695,0,0,1.2521674682617188,0,0,0.0
3.6547695659992314,0,0,1.2593500732421874,0,0,0.765625
3.6563689729991893,0,0,1.446097802734375,0,0,0.765625
3.6579025859991816,0,0,1.0941501586914062,0,0,0.9187500000000001
3.659512790000008,0,0,1.149216796875,0,0,1.0718750000000001
3.6611295490001794,0,0,1.3287819213867187,0,0,0.9953125
3.662662050999643,0,0,1.3000515014648437,0,0,0.0
3.664360790999126,0,0,1.5442600708007812,0,0,0.153125
3.6659731429990643,0,0,1.618480322265625,0,0,0.3828125
3.6674969590003457,0,0,1.3479355346679687,0,0,0.3828125
3.6690926999999647,0,0,1.2713210815429687,0,0,0.0765625
3.6708253659999173,0,0,0.9720458740234375,0,0,0.45937500000000003
3.672742417998961,0,0,0.9313444458007812,0,0,0.45937500000000003
3.674376511000446,0,0,1.197100830078125,0,0,0.30625
3.6760418260000733,0,0,1.5298948608398437,0,0,0.9187500000000001
3.677614975000324,0,0,1.3311761230468748,0,0,1.0718750000000001
3.6792037340001116,0,0,1.3934253662109375,0,0,1.0718750000000001
3.6808625489993574,0,0,1.5729904907226562,0,0,1.0718750000000001
3.6829373959990335,0,0,1.6136919189453125,0,0,0.0
3.6846103400002903,0,0,1.5538368774414062,0,0,0.22968750000000002
3.6863367469995865,0,0,1.8052280517578123,0,0,0.3828125
3.6879650609989767,0,0,1.1923124267578125,0,0,0.3828125
3.6898379849990306,0,0,0.814028564453125,0,0,0.30625
3.691772000000128,0,0,0.9457096557617187,0,0,-9.723437500000001
3.693431555000643,0,0,1.0869675537109373,0,0,832.69375
3.694974075000573,0,0,1.1061211669921875,0,0,0.5359375000000001
3.6966053529995406,0,0,1.656787548828125,0,0,0.9187500000000001
3.6983668329994543,0,0,1.3144167114257812,0,0,0.765625
3.700494290998904,0,0,1.3144167114257812,0,0,0.6890625
3.7027306540003337,0,0,1.446097802734375,0,0,0.45937500000000003
3.7045528369999374,0,0,1.4891934326171874,0,0,0.22968750000000002
3.7061018379990855,0,0,1.2641384765625,0,0,0.3828125
3.7077295609997236,0,0,1.216254443359375,0,0,0.45937500000000003
3.709742945000471,0,0,1.0726023437499999,0,0,0.6125
3.7115792949989554,0,0,1.3407529296874998,0,0,0.765625
3.7133032199999434,0,0,1.3096283081054687,0,0,0.0765625
3.714975034999952,0,0,1.3646949462890625,0,0,0.6125
3.716518127999734,0,0,1.6519991455078125,0,0,0.765625
3.7180550369994307,0,0,1.2210428466796874,0,0,0.0
3.719659092999791,0,0,1.16837041015625,0,0,0.6890625
3.7212495189996844,0,0,1.2330138549804688,0,0,0.6125
3.723015221999958,0,0,1.3479355346679687,0,0,0.22968750000000002
3.7251359010006126,0,0,1.2641384765625,0,0,0.6125
3.726718031999553,0,0,1.3934253662109375,0,0,0.8421875000000001
3.7283271430005698,0,0,1.4101847778320311,0,0,0.9187500000000001
3.7301099929991324,0,0,1.1827356201171875,0,0,0.9187500000000001
3.7316471800004365,0,0,1.3431471313476562,0,0,0.6125
3.7332483280006272,0,0,1.369483349609375,0,0,-0.45937500000000003
3.735077863000697,0,0,1.2473790649414063,0,0,0.5359375000000001
3.7366270130005432,0,0,1.5729904907226562,0,0,0.8421875000000001
3.738221457999316,0,0,1.3144167114257812,0,0,0.6890625
3.7400078259997827,0,0,1.0558429321289062,0,0,0.6125
3.741546068000389,0,0,1.2593500732421874,0,0,0.765625
3.7430710139997245,0,0,1.1635820068359375,0,0,0.45937500000000003
3.744692939999368,0,0,1.3168109130859373,0,0,0.765625
3.7462913670005946,0,0,1.5849614990234373,0,0,0.765625
3.7481579199993575,0,0,1.3575123413085937,0,0,0.5359375000000001
3.749792716000229,0,0,1.1516109985351561,0,0,0.765625
3.7513801789991703,0,0,1.149216796875,0,0,0.45937500000000003
3.7529130879993318,0,0,1.180341418457031,0,0,1.53125
3.7544354969995766,0,0,1.3192051147460937,0,0,1.0718750000000001
3.7560249969992583,0,0,1.3670891479492187,0,0,0.6125
3.7577415340001608,0,0,1.3670891479492187,0,0,0.6125
3.759286090000387,0,0,1.1755530151367186,0,0,0.765625
3.7608184250002523,0,0,1.3479355346679687,0,0,0.5359375000000001
3.762477332000344,0,0,1.4030021728515625,0,0,1.0718750000000001
3.7640847399998165,0,0,1.429338391113281,0,0,1.225
3.7656275739991543,0,0,1.4508862060546874,0,0,0.9187500000000001
3.767291426000156,0,0,1.39821376953125,0,0,0.765625
3.768898611999248,0,0,1.3096283081054687,0,0,0.6890625
3.7704468720003206,0,0,1.1180921752929687,0,0,0.30625
3.771970836000037,0,0,1.446097802734375,0,0,0.30625
3.7736203730000852,0,0,1.407790576171875,0,0,832.69375
3.7752112809994287,0,0,1.1468225952148436,0,0,0.45937500000000003
3.776823004000107,0,0,1.484405029296875,0,0,0.8421875000000001
3.7784781890004524,0,0,1.2569558715820313,0,0,0.9187500000000001
3.7800676339993515,0,0,1.3455413330078123,0,0,0.8421875000000001
3.7816240239990293,0,0,1.2952630981445312,0,0,0.8421875000000001
3.7831890609995753,0,0,1.3120225097656248,0,0,0.8421875000000001
3.7847896170005697,0,0,1.2401964599609374,0,0,0.45937500000000003
3.7863806179993844,0,0,1.5490484741210937,0,0,0.6125
3.7879153970006882,0,0,1.2330138549804688,0,0,0.6125
3.789542841999719,0,0,1.2282254516601563,0,0,0.765625
3.791356061999977,0,0,1.3670891479492187,0,0,0.6890625
3.7928949699999066,0,0,1.1276689819335937,0,0,1.378125
3.794503025999802,0,0,1.3838485595703125,0,0,1.6078125
3.7963243760004843,0,0,1.7022773803710936,0,0,0.3828125
3.798031746000561,0,0,1.5011644409179687,0,0,1.0718750000000001
3.799821115000668,0,0,1.2832920898437499,0,0,0.6890625
3.801401671000349,0,0,1.2808978881835937,0,0,0.9187500000000001
3.8029301169990504,0,0,1.2497732666015624,0,0,1.1484375
3.8045555610005977,0,0,1.465251416015625,0,0,0.9953125
3.8064246329995512,0,0,1.5322890624999999,0,0,0.6125
3.8081656689992087,0,0,1.199495031738281,0,0,0.8421875000000001
3.8099404629992932,0,0,1.3263877197265623,0,0,0.8421875000000001
3.811612296000021,0,0,1.2114660400390624,0,0,0.6125
3.8132533520001743,0,0,1.35990654296875,0,0,1.0718750000000001
3.8148712040001556,0,0,1.4030021728515625,0,0,0.9187500000000001
3.8165330560004804,0,0,1.649604943847656,0,0,0.22968750000000002
3.818349424000189,0,0,1.1156979736328125,0,0,0.765625
3.8206671019997884,0,0,1.3215993164062498,0,0,0.6125
3.822585727999467,0,0,1.2234370483398436,0,0,0.765625
3.8243273379994207,0,0,1.3718775512695311,0,0,0.765625
3.825979097000527,0,0,1.369483349609375,0,0,0.9187500000000001
3.827956926999832,0,0,1.5538368774414062,0,0,0.6890625
3.829638982000688,0,0,1.0414777221679687,0,0,0.6890625
3.831256890000077,0,0,1.3527239379882812,0,0,0.9953125
3.8330998130004446,0,0,1.3335703247070312,0,0,1.0718750000000001
3.835314047999418,0,0,1.149216796875,0,0,0.0
3.8370338059994538,0,0,1.189918225097656,0,0,0.5359375000000001
3.8385656219998054,0,0,1.199495031738281,0,0,0.765625
3.840201622000677,0,0,1.43652099609375,0,0,0.8421875000000001
3.8418343260000256,0,0,1.3862427612304686,0,0,0.6890625
3.8434275859999616,0,0,1.2952630981445312,0,0,1.3015625000000002
3.8451684360006766,0,0,1.177947216796875,0,0,0.3828125
3.8467014380003093,0,0,1.2880804931640624,0,0,0.22968750000000002
3.8483485859997018,0,0,1.35990654296875,0,0,0.765625
3.8500611769995885,0,0,1.4820108276367188,0,0,1.3015625000000002
3.851580679000108,0,0,1.2808978881835937,0,0,0.9953125
3.8532098089999636,0,0,1.0726023437499999,0,0,1.4546875000000001
3.855012992000411,0,0,1.3096283081054687,0,0,1.378125
3.856623732999651,0,0,1.7860744384765623,0,0,0.6890625
3.8581512900000234,0,0,1.9752163696289062,0,0,0.9953125
3.8597957709989714,0,0,1.675941162109375,0,0,0.5359375000000001
3.861534252000638,0,0,0.9337386474609375,0,0,0.0
3.863176491999184,0,0,0.9433154541015625,0,0,0.6125
3.8647557519998372,0,0,1.0773907470703123,0,0,1.0718750000000001
3.8664124560000346,0,0,1.3287819213867187,0,0,0.9953125
3.8680213450006704,0,0,1.4030021728515625,0,0,1.225
3.869595660999039,0,0,1.3311761230468748,0,0,1.225
3.8711843469991436,0,0,1.4963760375976562,0,0,1.0718750000000001
3.8728717909998522,0,0,1.5969325073242187,0,0,1.3015625000000002
3.874816175999513,0,0,1.5945383056640625,0,0,1.3015625000000002
3.8765320269994845,0,0,1.5514426757812498,0,0,0.9187500000000001
3.878302118000647,0,0,1.3024457031249999,0,0,0.6890625
3.8800346169991826,0,0,1.3838485595703125,0,0,0.3828125
3.8817501720004657,0,0,1.218648645019531,0,0,0.8421875000000001
3.883428986000581,0,0,1.1468225952148436,0,0,1.6843750000000002
3.8849779499996657,0,0,1.3718775512695311,0,0,1.3015625000000002
3.8866343019999476,0,0,1.5562310791015623,0,0,0.9953125
3.8883399679998547,0,0,1.2952630981445312,0,0,1.1484375
3.89007318899894,0,0,1.4772224243164063,0,0,0.8421875000000001
3.891620967999188,0,0,1.4867992309570313,0,0,0.6125
3.893195005999587,0,0,1.5107412475585937,0,0,0.9187500000000001
3.8948925049990066,0,0,1.6041151123046875,0,0,1.0718750000000001
3.896434914000565,0,0,1.1875240234375,0,0,0.6890625
3.8979575079993083,0,0,1.4939818359375,0,0,0.765625
3.8997139319999405,0,0,1.2832920898437499,0,0,0.8421875000000001
3.901460393999514,0,0,1.2880804931640624,0,0,1.0718750000000001
3.9032515960007004,0,0,1.3383587280273437,0,0,1.9140625000000002
3.905106148999039,0,0,1.3527239379882812,0,0,1.225
3.906784445000085,0,0,1.3144167114257812,0,0,0.3828125
3.908819403999587,0,0,1.3646949462890625,0,0,0.9953125
3.9104434410000977,0,0,1.218648645019531,0,0,0.5359375000000001
3.9120630889992754,0,0,1.2737152832031249,0,0,0.6125
3.9136500709992106,0,0,1.2641384765625,0,0,1.6078125
3.9152369610001188,0,0,1.3383587280273437,0,0,1.3015625000000002
3.916913774999557,0,0,1.2761094848632812,0,0,0.9187500000000001
3.9185988859990175,0,0,1.3407529296874998,0,0,1.0718750000000001
