Time,AccelX1,AccelY1,AccelZ1,AccelX2,AccelY2,AccelZ2
0.5005746309980168,0,0,1.4820108276367188,0,0,0.3828125
0.5127762709998933,0,0,1.22583125,0,0,1.225
0.5162863109981117,0,0,1.0845733520507812,0,0,0.30625
0.5197211839986267,0,0,1.2473790649414063,0,0,1.6078125
0.5237228489968402,0,0,1.6304513305664061,0,0,0.6890625
0.527782531997218,0,0,1.0941501586914062,0,0,0.8421875000000001
0.5320597489990178,0,0,1.4700398193359374,0,0,0.6125
0.5356170479972207,0,0,1.24498486328125,0,0,0.6125
0.5400776709975617,0,0,1.3646949462890625,0,0,1.4546875000000001
0.5436847649980336,0,0,1.6615759521484375,0,0,0.6125
0.5472025089984527,0,0,1.1827356201171875,0,0,0.9187500000000001
0.5507309559980058,0,0,1.5083470458984374,0,0,0.8421875000000001
0.5538179259965545,0,0,1.4987702392578124,0,0,0.6890625
0.557028208997508,0,0,1.3623007446289062,0,0,0.6890625
0.5607179509970592,0,0,1.484405029296875,0,0,0.8421875000000001
0.5638538089988288,0,0,1.5658078857421873,0,0,0.765625
0.5672110909981711,0,0,1.1707646118164061,0,0,0.3828125
0.5704650779989606,0,0,1.4413093994140624,0,0,1.225
0.573694564998732,0,0,1.4101847778320311,0,0,0.9953125
0.5775273979998019,0,0,1.216254443359375,0,0,0.9953125
0.5808434769969608,0,0,1.2904746948242187,0,0,0.45937500000000003
0.5844181639986346,0,0,1.62805712890625,0,0,0.9187500000000001
0.5877051499992376,0,0,1.0797849487304687,0,0,0.6890625
0.5909106749968487,0,0,1.3263877197265623,0,0,0.6890625
0.5942505489983887,0,0,1.5634136840820312,0,0,1.3015625000000002
0.5977467189986783,0,0,1.2042834350585936,0,0,0.5359375000000001
0.6011717409965058,0,0,1.4317325927734375,0,0,0.6890625
0.6042056559999764,0,0,1.5227122558593749,0,0,0.765625
0.607269958996767,0,0,1.13006318359375,0,0,0.8421875000000001
0.6103027629978897,0,0,1.446097802734375,0,0,1.378125
0.6134365469988552,0,0,1.5251064575195312,0,0,0.5359375000000001
0.617278064997663,0,0,1.1037269653320312,0,0,0.765625
0.6205192189991067,0,0,1.235408056640625,0,0,0.9953125
0.6237543909992382,0,0,1.438915197753906,0,0,0.9187500000000001
0.6268220649981231,0,0,1.458068811035156,0,0,0.5359375000000001
0.6302518829979817,0,0,1.4101847778320311,0,0,0.3828125
0.6334464809988276,0,0,1.4867992309570313,0,0,1.1484375
0.636527747999935,0,0,1.3096283081054687,0,0,-8.957812500000001
0.6399395289990935,0,0,1.37906015625,0,0,0.30625
0.6431259799974214,0,0,1.35990654296875,0,0,1.1484375
0.6463175779972516,0,0,1.3168109130859373,0,0,1.1484375
0.6496110639964172,0,0,1.2330138549804688,0,0,1.6078125
0.6523967409993929,0,0,1.429338391113281,0,0,0.5359375000000001
0.6555101179983467,0,0,1.3575123413085937,0,0,0.9187500000000001
0.6580172599969956,0,0,1.1851298217773436,0,0,0.5359375000000001
0.6605191619964899,0,0,1.4915876342773438,0,0,0.30625
0.6630908399965847,0,0,1.3192051147460937,0,0,0.765625
0.6656856109984801,0,0,1.3455413330078123,0,0,0.6125
0.6683585299979313,0,0,1.2808978881835937,0,0,0.765625
0.670853615996748,0,0,1.2593500732421874,0,0,0.3828125
0.6734567199964658,0,0,1.3742717529296875,0,0,0.22968750000000002
0.6759670109968283,0,0,1.2880804931640624,0,0,0.30625
0.6786763729978702,0,0,1.4508862060546874,0,0,0.9953125
0.6813217549970432,0,0,1.3766659545898436,0,0,1.3015625000000002
0.6839739699971688,0,0,1.3742717529296875,0,0,0.8421875000000001
0.6864741119970859,0,0,1.3072341064453123,0,0,0.5359375000000001
0.6890667159968871,0,0,1.3670891479492187,0,0,0.765625
0.6915389699970547,0,0,1.484405029296875,0,0,1.225
0.6942935539991595,0,0,1.6352397338867186,0,0,0.9953125
0.696955175997573,0,0,1.2593500732421874,0,0,1.3015625000000002
0.6994409669969173,0,0,1.438915197753906,0,0,0.9953125
0.7022442359993875,0,0,1.3096283081054687,0,0,0.3828125
0.7047817109996686,0,0,1.6472107421875,0,0,1.0718750000000001
0.7073957219981821,0,0,1.120486376953125,0,0,0.765625
0.7099919559987029,0,0,1.4437036010742186,0,0,1.8375000000000001
0.7126414309968823,0,0,1.4101847778320311,0,0,0.9953125
0.7154925319991889,0,0,1.2761094848632812,0,0,0.45937500000000003
0.718132820999017,0,0,1.3431471313476562,0,0,0.8421875000000001
0.7208825539964892,0,0,1.2665326782226562,0,0,0.22968750000000002
0.7236391189981077,0,0,1.3431471313476562,0,0,0.3828125
0.7261334839968185,0,0,1.3407529296874998,0,0,0.6890625
0.7287323099990317,0,0,1.2473790649414063,0,0,0.5359375000000001
0.7332938959989406,0,0,1.24498486328125,0,0,0.30625
0.7371574689968838,0,0,1.5083470458984374,0,0,0.765625
0.7405964349964052,0,0,1.3239935180664062,0,0,0.30625
0.7437698859976081,0,0,1.2761094848632812,0,0,0.9187500000000001
0.7476618849977967,0,0,1.1468225952148436,0,0,0.22968750000000002
0.7509436309992452,0,0,1.2904746948242187,0,0,0.0
0.754193190998194,0,0,1.3383587280273437,0,0,0.5359375000000001
0.7571221259968297,0,0,1.3479355346679687,0,0,0.9187500000000001
0.7609000519987603,0,0,1.2425906616210938,0,0,0.0
0.7639542809993145,0,0,1.3766659545898436,0,0,2.0671875
0.7685095889974036,0,0,1.2521674682617188,0,0,0.5359375000000001
0.7714986519968079,0,0,1.4030021728515625,0,0,0.9187500000000001
0.7751021539988869,0,0,1.5634136840820312,0,0,0.765625
0.7781615319981938,0,0,1.209071838378906,0,0,0.6890625
0.781632478996471,0,0,1.458068811035156,0,0,1.1484375
0.7841780099988682,0,0,1.3120225097656248,0,0,1.1484375
0.7865485979964433,0,0,1.2713210815429687,0,0,0.22968750000000002
0.788829426997836,0,0,1.2521674682617188,0,0,1.3015625000000002
0.791272365997429,0,0,1.3479355346679687,0,0,0.0
0.7935529369970027,0,0,1.388636962890625,0,0,0.9187500000000001
0.7960056539996003,0,0,1.5035586425781249,0,0,0.9187500000000001
0.7982934649990057,0,0,1.1707646118164061,0,0,0.45937500000000003
0.8006845149975561,0,0,1.4413093994140624,0,0,0.9187500000000001
0.8030941959987103,0,0,1.4149731811523436,0,0,0.5359375000000001
0.805369598998368,0,0,1.5011644409179687,0,0,0.6890625
0.8077781679967302,0,0,1.3072341064453123,0,0,0.45937500000000003
0.8101998109996202,0,0,1.4891934326171874,0,0,1.1484375
0.8125074739982665,0,0,1.3407529296874998,0,0,0.9187500000000001
0.8148926359972393,0,0,1.6160861206054686,0,0,0.9953125
0.8172367429979204,0,0,1.2856862915039062,0,0,0.9187500000000001
0.8195010539966461,0,0,1.438915197753906,0,0,0.6125
0.8218788819976908,0,0,1.407790576171875,0,0,1.0718750000000001
0.8241988409972691,0,0,1.216254443359375,0,0,0.8421875000000001
0.8265814289989066,0,0,1.3024457031249999,0,0,0.22968750000000002
0.8290073869975458,0,0,1.189918225097656,0,0,0.765625
0.8312860499972885,0,0,1.4317325927734375,0,0,0.0
0.833623896996869,0,0,1.2617442749023438,0,0,0.6125
0.8360150039989094,0,0,1.5107412475585937,0,0,0.5359375000000001
0.8382859629964514,0,0,1.1947066284179686,0,0,0.765625
0.8406860509967373,0,0,1.2641384765625,0,0,1.3015625000000002
0.8430007869974361,0,0,1.4532804077148436,0,0,0.30625
0.8452714319973893,0,0,1.4006079711914061,0,0,1.0718750000000001
0.8478078519983683,0,0,1.3335703247070312,0,0,0.8421875000000001
0.8502901419997215,0,0,1.235408056640625,0,0,0.9953125
0.8527710249982192,0,0,1.4149731811523436,0,0,0.45937500000000003
0.855463942996721,0,0,1.4532804077148436,0,0,-9.1109375
0.8583985809964361,0,0,1.0917559570312498,0,0,0.9187500000000001
0.8612104609965172,0,0,1.4341267944335936,0,0,-852.8296875000001
0.8638945279999461,0,0,1.3575123413085937,0,0,0.9953125
0.8664922429998114,0,0,1.1851298217773436,0,0,2.45
0.8691509019990917,0,0,1.1468225952148436,0,0,5.7421875
0.8719127089971153,0,0,5.015852478027344,0,0,-854.9734375
0.8745669789968815,0,0,7.544129431152343,0,0,832.6171875000001
0.8772260089972406,0,0,8.298302954101562,0,0,832.0812500000001
0.8801168319987482,0,0,9.289502441406249,0,0,7.3500000000000005
0.8830088229988178,0,0,10.266336718749999,0,0,829.9375000000001
0.8858335909972084,0,0,10.869675537109375,0,0,828.1
0.8886939889998757,0,0,1.5442600708007812,0,0,1.8375000000000001
0.8917226629964716,0,0,1.0031704956054688,0,0,-855.8921875000001
0.8944248409970896,0,0,0.09337386474609374,0,0,0.0
0.8975722549985221,0,0,-6.766013891601562,0,0,-853.4421875
0.9002656909979123,0,0,-3.7397429931640622,0,0,0.5359375000000001
0.9027334999991581,0,0,3.9528269409179684,0,0,4.5171875
0.9057222299998102,0,0,5.463568188476562,0,0,-856.1984375000001
0.9083521489992563,0,0,2.042254016113281,0,0,0.6890625
0.9109422539986554,0,0,1.1133037719726562,0,0,-4.3640625
0.9135850429993297,0,0,1.6041151123046875,0,0,-0.6125
0.9163610709983914,0,0,0.24899697265624998,0,0,1.9140625000000002
0.9190471739966597,0,0,-2.3726538452148436,0,0,0.3828125
0.9217546299987589,0,0,-0.316034619140625,0,0,1.7609375
0.9246590089969686,0,0,5.049371301269531,0,0,4.134375
0.9273454269969079,0,0,2.0446482177734375,0,0,0.9953125
0.9301601959996333,0,0,-0.258573779296875,0,0,0.0
0.9334471079964715,0,0,2.023100402832031,0,0,-0.3828125
0.9362420069992368,0,0,-0.08858546142578125,0,0,-0.765625
0.9398528419987997,0,0,1.599326708984375,0,0,2.296875
0.9427718129991263,0,0,2.1906945190429687,0,0,1.3015625000000002
0.9456014709976444,0,0,1.177947216796875,0,0,1.7609375
0.9484792199982621,0,0,3.7134067749023436,0,0,1.53125
0.9513037299984717,0,0,0.603338818359375,0,0,-1.225
0.9538611680000031,0,0,-0.8595183959960937,0,0,-0.6125
0.9565600669993728,0,0,1.3048399047851562,0,0,1.4546875000000001
0.9591922079998767,0,0,-0.3711012573242187,0,0,0.765625
0.9617181839967088,0,0,-1.0534487304687499,0,0,1.3015625000000002
0.9642482519993791,0,0,3.526659045410156,0,0,3.521875
0.9683141929999692,0,0,0.737414111328125,0,0,-0.45937500000000003
0.9709631119985715,0,0,1.1563994018554686,0,0,1.8375000000000001
0.9734898279966728,0,0,3.660734338378906,0,0,0.3828125
0.9761277099969448,0,0,0.6775590698242188,0,0,831.0859375000001
0.978828479997901,0,0,-1.0271125122070313,0,0,0.0
0.9814562319988909,0,0,1.5682020874023437,0,0,0.6125
0.9841058169986354,0,0,1.0869675537109373,0,0,1.1484375
0.9865438299966627,0,0,0.7015010864257812,0,0,1.53125
0.9890000099985627,0,0,3.162740393066406,0,0,2.45
0.9915050599993265,0,0,2.0757728393554684,0,0,-9.1109375
0.9940745159983635,0,0,0.07900865478515624,0,0,0.3828125
0.9966233799968904,0,0,3.0334535034179684,0,0,1.8375000000000001
0.9991134669980966,0,0,1.6735469604492186,0,0,0.3828125
1.001655756997934,0,0,-1.5682020874023437,0,0,-0.6890625
1.0043033979964093,0,0,2.9855694702148434,0,0,2.45
1.0069345019983302,0,0,2.3247698120117186,0,0,2.6031250000000004
1.0096109009973588,0,0,-1.3144167114257812,0,0,-1.0718750000000001
1.0123673189991678,0,0,3.1579519897460937,0,0,1.8375000000000001
1.0150391819988727,0,0,2.7724855224609373,0,0,1.7609375
1.0177907469987986,0,0,-1.1611878051757811,0,0,-0.0765625
1.0204212219978217,0,0,2.142810485839844,0,0,1.0718750000000001
1.0231842129978759,0,0,2.2601263671875,0,0,1.4546875000000001
1.02591990899964,0,0,-0.08140285644531249,0,0,0.765625
1.0287790849979501,0,0,2.6695348510742187,0,0,1.6843750000000002
1.0314411699982884,0,0,1.3048399047851562,0,0,-0.3828125
1.0341892909964372,0,0,-0.3854664672851562,0,0,0.45937500000000003
1.0369676339978469,0,0,2.085349645996094,0,0,1.6078125
1.0394960539997555,0,0,0.38307226562499996,0,0,0.6890625
1.0420868249966588,0,0,-0.8164227661132812,0,0,9.4171875
1.0446141889988212,0,0,2.8131869506835936,0,0,2.9093750000000003
1.04724090399759,0,0,3.0454245117187497,0,0,3.2921875000000003
1.0498023979998834,0,0,-0.316034619140625,0,0,-0.5359375000000001
1.0523431879992131,0,0,3.1579519897460937,0,0,0.6890625
1.0540313009987585,0,0,3.7995980346679685,0,0,1.225
1.0557307659983053,0,0,2.1978771240234374,0,0,1.3015625000000002
1.057406785999774,0,0,-1.2569558715820313,0,0,-0.45937500000000003
1.059133787999599,0,0,-0.8547299926757812,0,0,-0.45937500000000003
1.0609102889975475,0,0,0.9720458740234375,0,0,0.0765625
1.0626139389969467,0,0,1.707065783691406,0,0,0.153125
1.0644537919979484,0,0,1.13006318359375,0,0,0.9187500000000001
1.0662636999986717,0,0,0.5626373901367188,0,0,0.765625
1.0679574059977313,0,0,1.599326708984375,0,0,1.53125
1.0697350919981545,0,0,2.059013427734375,0,0,1.4546875000000001
1.0720034769983613,0,0,1.8938135131835936,0,0,2.0671875
1.0737745339974936,0,0,0.4285620971679687,0,0,0.6125
1.0756527939993248,0,0,1.9321207397460936,0,0,0.6890625
1.0774717389977013,0,0,1.675941162109375,0,0,1.4546875000000001
1.0792694989977463,0,0,1.350329736328125,0,0,0.6125
1.0810220739986107,0,0,0.40462008056640625,0,0,-0.45937500000000003
1.082829093997134,0,0,0.6631938598632812,0,0,-0.3828125
1.0845860579975124,0,0,2.6312276245117188,0,0,1.7609375
1.0863600779994158,0,0,2.2768857788085937,0,0,1.9140625000000002
1.0881491899999673,0,0,1.8028338500976562,0,0,1.9140625000000002
1.0900614309975936,0,0,-0.4333505004882812,0,0,832.8468750000001
1.0919385049965058,0,0,1.838746875,0,0,0.5359375000000001
1.093711079996865,0,0,2.281674182128906,0,0,1.8375000000000001
1.095443822996458,0,0,1.4221557861328125,0,0,1.6843750000000002
1.097188619998633,0,0,0.6560112548828124,0,0,0.0
1.099147508997703,0,0,0.4213794921875,0,0,0.765625
1.1016094849983347,0,0,2.051830822753906,0,0,0.6125
1.1037030939987744,0,0,1.407790576171875,0,0,1.990625
1.105554519999714,0,0,0.469263525390625,0,0,1.225
1.1074087979977776,0,0,2.3056161987304686,0,0,1.7609375
1.1095112409966532,0,0,2.250549560546875,0,0,1.6843750000000002
1.1112461499978963,0,0,1.5035586425781249,0,0,-0.3828125
1.1130245399981504,0,0,0.33518823242187495,0,0,831.0093750000001
1.1149420399997325,0,0,1.5179238525390624,0,0,0.0
1.1167150039982516,0,0,2.674323254394531,0,0,1.9140625000000002
1.1185130789999675,0,0,0.38786066894531246,0,0,0.5359375000000001
1.1203019689965004,0,0,-0.36152445068359373,0,0,-9.340625000000001
1.1219499899998482,0,0,-0.5243301635742187,0,0,0.6125
1.1237395829994057,0,0,3.210624426269531,0,0,2.1437500000000003
1.1254416779993335,0,0,3.2609026611328122,0,0,2.6796875
1.127114734998031,0,0,1.9991583862304687,0,0,2.0671875
1.1287616639965563,0,0,0.16519991455078123,0,0,832.69375
1.1309789569968416,0,0,0.6607996582031249,0,0,0.0
1.1327312919966062,0,0,2.93050283203125,0,0,1.1484375
1.1344717379979556,0,0,1.5155296508789062,0,0,0.6890625
1.1361524619969714,0,0,0.9720458740234375,0,0,0.0765625
1.1386147339981108,0,0,0.8667010009765624,0,0,0.9953125
1.1407934169983491,0,0,2.4133552734375,0,0,1.6843750000000002
1.1425249179992534,0,0,1.1659762084960936,0,0,1.8375000000000001
1.1442600869995658,0,0,0.9959878906249999,0,0,1.3015625000000002
1.145949865996954,0,0,0.3806780639648437,0,0,0.9953125
1.1479865499968582,0,0,2.96881005859375,0,0,2.6796875
1.1496128859980672,0,0,1.946485949707031,0,0,1.990625
1.151244795997627,0,0,0.5746083984375,0,0,9.646875000000001
1.1531214449969411,0,0,-1.0175357055664063,0,0,-2.5265625000000003
1.1549212229983823,0,0,1.9536685546875,0,0,832.8468750000001
1.1565987989997666,0,0,3.957615344238281,0,0,2.45
1.158227153999178,0,0,2.8562825805664063,0,0,1.7609375
1.1607990549964597,0,0,-1.0271125122070313,0,0,8.3453125
1.162725498998043,0,0,1.0079588989257813,0,0,0.765625
1.1646696279967728,0,0,4.3813890380859375,0,0,2.2203125000000004
1.1664148329982709,0,0,2.5905261962890624,0,0,1.8375000000000001
1.168281592999847,0,0,-0.5482721801757812,0,0,0.0765625
1.1702912949986057,0,0,0.040701428222656245,0,0,832.69375
1.1719809089991031,0,0,1.695094775390625,0,0,0.9187500000000001
1.1736619109979074,0,0,3.394977954101562,0,0,0.3828125
1.1754953559975547,0,0,1.2856862915039062,0,0,1.0718750000000001
1.1771637279998686,0,0,0.040701428222656245,0,0,-0.45937500000000003
1.1789755439967848,0,0,0.19871873779296872,0,0,0.30625
1.1811154679999163,0,0,2.592920397949219,0,0,1.1484375
1.1827568399967276,0,0,1.8243816650390623,0,0,2.0671875
1.1844704529976298,0,0,0.19632453613281248,0,0,0.6125
1.1861694549988897,0,0,-0.28490999755859375,0,0,1.0718750000000001
1.1878223649982829,0,0,2.147598889160156,0,0,2.2203125000000004
1.189536292997218,0,0,2.5857377929687497,0,0,1.378125
1.191205164999701,0,0,1.599326708984375,0,0,1.1484375
1.1931830899993656,0,0,-0.23223756103515625,0,0,-2.3734375
1.1948636849992909,0,0,0.7829039428710937,0,0,-0.45937500000000003
1.1966795189982804,0,0,3.6679169433593746,0,0,1.8375000000000001
1.1982625409982575,0,0,3.3399113159179685,0,0,1.53125
1.199755710997124,0,0,0.7565677246093749,0,0,1.53125
1.2012116229998355,0,0,-1.0510545288085937,0,0,-1.9140625000000002
1.2030580679966079,0,0,-0.0718260498046875,0,0,0.0
1.2046762559984927,0,0,3.7229835815429686,0,0,2.296875
1.2062074819987174,0,0,3.8570588745117185,0,0,2.5265625000000003
1.2076842819988087,0,0,1.8650830932617186,0,0,2.9859375000000004
1.2095600969987572,0,0,-1.8124106567382812,0,0,0.0
1.2115279669997108,0,0,1.0223241088867188,0,0,-0.3828125
1.213268634997803,0,0,3.0310593017578125,0,0,0.30625
1.2150841169968771,0,0,2.959233251953125,0,0,1.3015625000000002
1.2166044729965506,0,0,1.1659762084960936,0,0,0.6890625
1.218356307999784,0,0,0.06943184814453125,0,0,0.0
1.2200006249986473,0,0,0.7422025146484375,0,0,1.378125
1.2217804409992823,0,0,1.9632453613281249,0,0,1.1484375
1.2237057919992367,0,0,1.5586252807617187,0,0,0.153125
1.2252635919976456,0,0,0.7134720947265625,0,0,-0.765625
1.2267394849986886,0,0,1.1923124267578125,0,0,0.45937500000000003
1.2283721359999618,0,0,2.50912333984375,0,0,2.2203125000000004
1.2299711199993908,0,0,2.003946789550781,0,0,1.1484375
1.231721750998986,0,0,1.2042834350585936,0,0,0.9953125
1.2333288839981833,0,0,-0.18435352783203124,0,0,-0.8421875000000001
1.234874071997183,0,0,1.0079588989257813,0,0,-0.22968750000000002
1.2364702969971404,0,0,3.2034418212890623,0,0,1.990625
1.2380819479985803,0,0,2.50912333984375,0,0,2.1437500000000003
1.2395973409984435,0,0,0.9504980590820312,0,0,1.6078125
1.2410656039974128,0,0,-0.4285620971679687,0,0,-0.30625
1.2425716819998343,0,0,0.15562310791015624,0,0,-0.153125
1.244251035997877,0,0,1.8243816650390623,0,0,1.4546875000000001
1.245994796998275,0,0,3.3494881225585935,0,0,1.9140625000000002
1.2475856519995432,0,0,2.24097275390625,0,0,2.3734375
1.2491729329994996,0,0,0.4381389038085937,0,0,0.22968750000000002
1.2507925089994387,0,0,-0.49799394531249996,0,0,-0.45937500000000003
1.252275364997331,0,0,0.7517793212890624,0,0,0.45937500000000003
1.253737294999155,0,0,2.8802245971679685,0,0,0.6890625
1.2553117249990464,0,0,2.379836450195312,0,0,0.8421875000000001
1.2568661349978356,0,0,1.3742717529296875,0,0,0.153125
1.2585409889979928,0,0,-0.229843359375,0,0,0.153125
1.260184972998104,0,0,0.5698199951171875,0,0,0.9953125
1.2617664389981655,0,0,2.0733786376953125,0,0,0.6125
1.2632439429980877,0,0,1.9752163696289062,0,0,1.1484375
1.2647077809997427,0,0,1.0989385620117187,0,0,0.30625
1.266329912999936,0,0,1.448492004394531,0,0,1.1484375
1.2678749909973703,0,0,2.2553379638671873,0,0,2.1437500000000003
1.2693416249967413,0,0,1.4796166259765624,0,0,1.1484375
1.2708793499987223,0,0,0.9983820922851562,0,0,-9.340625000000001
1.2725757409971266,0,0,0.5578489868164063,0,0,0.0
1.2741955959972984,0,0,0.4213794921875,0,0,832.3109375
1.2757693209969148,0,0,2.2601263671875,0,0,1.225
1.2773165279977547,0,0,2.370259643554687,0,0,1.53125
1.2788815499989141,0,0,1.4101847778320311,0,0,0.9953125
1.2804409419986769,0,0,-0.32082302246093747,0,0,0.765625
1.2819201309976052,0,0,-0.5363011718749999,0,0,-0.5359375000000001
1.2834655419974297,0,0,1.924938134765625,0,0,0.8421875000000001
1.285028637998039,0,0,2.7916391357421872,0,0,1.378125
1.286627214998589,0,0,2.4301146850585935,0,0,1.6078125
1.2881754959998943,0,0,2.013523596191406,0,0,2.2203125000000004
1.2897857949974423,0,0,-0.39983167724609375,0,0,0.0
1.2914664829986577,0,0,1.197100830078125,0,0,0.0
1.2932730209977308,0,0,2.43250888671875,0,0,1.3015625000000002
1.2950065409968374,0,0,2.2026655273437497,0,0,0.6890625
1.2965153959994495,0,0,1.1635820068359375,0,0,1.225
1.2981772319981246,0,0,0.5339069702148437,0,0,0.9187500000000001
1.2998362529979204,0,0,1.3431471313476562,0,0,1.6078125
1.301461532999383,0,0,1.2737152832031249,0,0,0.5359375000000001
1.302983203997428,0,0,1.0127473022460938,0,0,0.3828125
1.3046180579985958,0,0,1.1923124267578125,0,0,1.378125
1.3062422459988738,0,0,0.9576806640625,0,0,1.3015625000000002
1.307715990998986,0,0,2.540247961425781,0,0,1.6078125
1.309398658999271,0,0,1.5610194824218748,0,0,0.8421875000000001
1.311015254999802,0,0,0.86191259765625,0,0,0.0
1.312514128996554,0,0,0.6584054565429687,0,0,0.30625
1.3141750389986555,0,0,0.5386953735351562,0,0,0.0
1.3157923929975368,0,0,2.4756045166015626,0,0,1.3015625000000002
1.31739209999796,0,0,2.1643583007812497,0,0,1.7609375
1.318956047998654,0,0,0.6823474731445313,0,0,0.3828125
1.3205448839980818,0,0,-0.17477672119140625,0,0,0.153125
1.3220962209998106,0,0,-0.229843359375,0,0,0.0
1.3235982239966688,0,0,2.703053674316406,0,0,1.4546875000000001
1.3252460049989168,0,0,3.536235852050781,0,0,1.9140625000000002
1.3268834889968275,0,0,2.262520568847656,0,0,1.8375000000000001
1.3284326219982177,0,0,-0.4525041137695312,0,0,0.8421875000000001
1.329953291999118,0,0,-1.0295067138671874,0,0,-0.5359375000000001
1.3315965539986792,0,0,2.0446482177734375,0,0,0.153125
1.3332274639979005,0,0,3.0310593017578125,0,0,1.6078125
1.3348941329968511,0,0,1.9704279663085937,0,0,0.6890625
1.3365717829983623,0,0,-0.05027823486328125,0,0,0.765625
1.3381389709975338,0,0,-0.7541735229492187,0,0,0.5359375000000001
1.3397795479977503,0,0,1.9488801513671874,0,0,0.9953125
1.3413022919994546,0,0,2.607285607910156,0,0,1.0718750000000001
1.3428175549997832,0,0,1.6927005737304686,0,0,0.9187500000000001
1.3443941329969675,0,0,0.4429273071289062,0,0,-9.264062500000001
1.3460368019987072,0,0,0.055066638183593745,0,0,832.8468750000001
1.3476659709995147,0,0,3.0119056884765625,0,0,0.9187500000000001
1.3492694179985847,0,0,3.0071172851562498,0,0,0.8421875000000001
1.3508287549993838,0,0,0.9648632690429687,0,0,0.30625
1.3523198329967272,0,0,-0.23702596435546874,0,0,0.0
1.353786540999863,0,0,-0.4477157104492187,0,0,-852.8296875000001
1.3553810249977687,0,0,2.7198130859375,0,0,0.5359375000000001
1.357004508998216,0,0,3.423708374023437,0,0,1.8375000000000001
1.3585416429996258,0,0,1.3455413330078123,0,0,2.45
1.3601303309987998,0,0,0.28490999755859375,0,0,1.53125
1.3616764639991743,0,0,-1.1324573852539062,0,0,-1.225
1.36315402299806,0,0,0.8283937744140625,0,0,8.421875
1.3646665639971616,0,0,4.280832568359375,0,0,1.225
1.3662434189973283,0,0,3.7110125732421873,0,0,2.45
1.367814292996627,0,0,1.3718775512695311,0,0,1.990625
1.3693418149996432,0,0,-1.5658078857421873,0,0,-1.378125
1.371080778997566,0,0,-0.39983167724609375,0,0,832.0812500000001
1.3726997449994087,0,0,3.5865140869140624,0,0,1.8375000000000001
1.3741869339974073,0,0,3.8187516479492185,0,0,2.296875
1.375650752997899,0,0,1.2952630981445312,0,0,1.990625
1.37723960799849,0,0,-0.5410895751953124,0,0,832.3109375
1.3788432959991042,0,0,-0.4908113403320312,0,0,832.3875
1.3803231709971442,0,0,2.3319524169921872,0,0,1.378125
1.3818987479971838,0,0,2.760514514160156,0,0,1.6078125
1.3834844729972247,0,0,1.6615759521484375,0,0,1.7609375
1.385068401999888,0,0,0.5578489868164063,0,0,-0.5359375000000001
1.386640886998066,0,0,0.11013327636718749,0,0,0.0
1.3881547049968503,0,0,2.118868469238281,0,0,1.225
1.3897379299996828,0,0,3.1268273681640624,0,0,1.1484375
1.391323673997249,0,0,1.3527239379882812,0,0,0.765625
1.3929011769978388,0,0,0.02633621826171875,0,0,-0.153125
1.3944455699966056,0,0,-0.05746083984375,0,0,-0.6890625
1.3959892029997718,0,0,1.917755529785156,0,0,1.1484375
1.3975686869998754,0,0,3.603273498535156,0,0,1.8375000000000001
1.3991072279968648,0,0,3.057395520019531,0,0,1.4546875000000001
1.4006013059988618,0,0,-0.08140285644531249,0,0,0.8421875000000001
1.4023082339990651,0,0,-1.7525556152343749,0,0,-0.5359375000000001
1.403896439998789,0,0,1.1420341918945311,0,0,1.6078125
1.4054675919978763,0,0,3.6679169433593746,0,0,1.6843750000000002
1.4070723349977925,0,0,3.2154128295898436,0,0,1.7609375
1.4086812459972862,0,0,1.1444283935546875,0,0,1.1484375
1.4102323969964345,0,0,-0.842758984375,0,0,-9.8
1.4117140859998472,0,0,1.197100830078125,0,0,0.153125
1.4133382369982428,0,0,3.411737365722656,0,0,0.5359375000000001
1.4149797949976346,0,0,2.7653029174804686,0,0,0.30625
1.4165098169978592,0,0,0.23223756103515625,0,0,0.5359375000000001
1.4181052089988953,0,0,-1.1037269653320312,0,0,0.0
1.4196708419985953,0,0,0.6153098266601562,0,0,0.153125
1.4211450129987497,0,0,1.7956512451171873,0,0,0.6890625
1.4226599979992898,0,0,2.7054478759765623,0,0,1.6843750000000002
1.4242665189995023,0,0,2.2266075439453124,0,0,3.9046875
1.425821836997784,0,0,0.0143652099609375,0,0,0.0765625
1.4285151819967723,0,0,2.607285607910156,0,0,1.7609375
1.4301201839989517,0,0,2.693476867675781,0,0,1.4546875000000001
1.4317566309982794,0,0,1.350329736328125,0,0,1.990625
1.4332668019997072,0,0,0.852335791015625,0,0,8.498437500000001
1.4347802869997395,0,0,-0.011971008300781249,0,0,-0.3828125
1.4363693459999922,0,0,2.5905261962890624,0,0,0.9187500000000001
1.437892774996726,0,0,3.0789433349609374,0,0,1.6843750000000002
1.4393657419968804,0,0,1.6328455322265625,0,0,1.378125
1.4408978939973167,0,0,0.565031591796875,0,0,0.0
1.442511803998059,0,0,0.05746083984375,0,0,0.0
1.4440372519966331,0,0,1.467645617675781,0,0,0.9187500000000001
1.445531403998757,0,0,3.296815686035156,0,0,1.4546875000000001
1.4471122409995587,0,0,2.655169641113281,0,0,1.53125
1.4486992439997266,0,0,0.8259995727539062,0,0,1.53125
1.4501778769990779,0,0,-0.9648632690429687,0,0,832.69375
1.4516562329990848,0,0,0.8379705810546875,0,0,832.3109375
1.4532372729991039,0,0,2.2936451904296873,0,0,0.765625
1.4547920179975335,0,0,2.123656872558594,0,0,1.6078125
1.4562695769964193,0,0,1.8914193115234375,0,0,1.7609375
1.4577410629972292,0,0,-0.4477157104492187,0,0,832.69375
1.4593221579998499,0,0,0.02154781494140625,0,0,0.0
1.4608798839981318,0,0,2.205059729003906,0,0,1.3015625000000002
1.4623667769992608,0,0,2.3965958618164063,0,0,1.990625
1.4638380029973632,0,0,2.243366955566406,0,0,2.8328125
1.4654001179987972,0,0,0.20350714111328125,0,0,-0.5359375000000001
1.4669873799975903,0,0,0.565031591796875,0,0,832.69375
1.4694458189987927,0,0,1.7405846069335937,0,0,-852.8296875000001
1.471063802997378,0,0,1.6807295654296874,0,0,-852.8296875000001
1.4726972689968534,0,0,1.254561669921875,0,0,-9.264062500000001
1.4742061979995924,0,0,0.0526724365234375,0,0,1.225
1.4756749429980118,0,0,1.4628572143554686,0,0,1.0718750000000001
1.4772274099996139,0,0,1.927332336425781,0,0,1.7609375
1.4787672649981687,0,0,1.446097802734375,0,0,1.1484375
1.4802438799997617,0,0,1.2761094848632812,0,0,1.6843750000000002
1.4817470319976564,0,0,0.3854664672851562,0,0,-852.8296875000001
1.4832908689968463,0,0,1.5394716674804687,0,0,0.6125
1.4848199279986147,0,0,2.8850130004882812,0,0,1.6843750000000002
1.4862892839992128,0,0,2.4971523315429685,0,0,2.1437500000000003
1.487814972999331,0,0,1.0678139404296874,0,0,1.225
1.489364086999558,0,0,-0.74699091796875,0,0,8.421875
1.491003274997638,0,0,0.7445967163085937,0,0,-0.22968750000000002
1.492662221997307,0,0,2.91134921875,0,0,1.9140625000000002
1.4943122059994494,0,0,2.224213342285156,0,0,2.2203125000000004
1.4959489489992848,0,0,0.8858546142578124,0,0,2.296875
1.4974654899997404,0,0,-0.3327940307617187,0,0,-0.5359375000000001
1.4990114929969423,0,0,1.4341267944335936,0,0,0.30625
1.5005976999964332,0,0,3.0621839233398433,0,0,2.3734375
1.5021377219964052,0,0,2.4253262817382812,0,0,1.7609375
1.5036310779978521,0,0,1.3311761230468748,0,0,0.9187500000000001
1.505261005997454,0,0,0.16759411621093748,0,0,-1.53125
1.5069840449978074,0,0,1.1731588134765625,0,0,0.0
1.5086984359986673,0,0,3.323151904296875,0,0,2.0671875
1.510329456999898,0,0,2.0877438476562498,0,0,0.9953125
1.511910163997527,0,0,0.3591302490234375,0,0,1.225
1.5133827599966025,0,0,-0.2537853759765625,0,0,-1.4546875000000001
1.514898967998306,0,0,1.2737152832031249,0,0,1.0718750000000001
1.5164809889975004,0,0,3.0980969482421874,0,0,2.45
1.5181502139967051,0,0,2.597708801269531,0,0,1.6078125
1.5197762899988447,0,0,0.9433154541015625,0,0,2.0671875
1.5214213669969467,0,0,-0.4477157104492187,0,0,-1.6078125
1.5230759249971015,0,0,1.37906015625,0,0,0.0
1.5247587229969213,0,0,3.517082238769531,0,0,3.3687500000000004
1.5264145029977954,0,0,1.5729904907226562,0,0,2.3734375
1.5281071909994353,0,0,0.9983820922851562,0,0,1.225
1.5297518779989332,0,0,-1.2928688964843749,0,0,-0.45937500000000003
1.5314756209991174,0,0,2.1452046874999997,0,0,-0.153125
1.5330762719968334,0,0,3.4332851806640625,0,0,1.9140625000000002
1.534760180999001,0,0,1.7597382202148437,0,0,2.45
1.5364787939979578,0,0,-0.4644751220703125,0,0,1.7609375
1.5381011119970935,0,0,-1.1133037719726562,0,0,0.5359375000000001
1.5396798179972393,0,0,2.2170307373046874,0,0,0.153125
1.5413338759972248,0,0,3.5051112304687497,0,0,1.225
1.5429349159967387,0,0,1.8531120849609375,0,0,1.3015625000000002
1.5446421769993322,0,0,-0.36391865234375,0,0,0.30625
1.5463039389978803,0,0,-0.8954314208984374,0,0,0.6890625
1.5478562009993766,0,0,2.243366955566406,0,0,1.378125
1.5493932609970216,0,0,2.729389892578125,0,0,1.53125
1.5510128369969607,0,0,1.3479355346679687,0,0,1.53125
1.552729894996446,0,0,-1.1755530151367186,0,0,-1.225
1.5543448969983729,0,0,-1.3359645263671873,0,0,832.8468750000001
1.5558955489977961,0,0,3.114856359863281,0,0,0.0
1.557602531996963,0,0,3.787627026367187,0,0,2.296875
1.5592764229986642,0,0,2.5641899780273434,0,0,2.1437500000000003
1.5608407229992736,0,0,-1.3096283081054687,0,0,-0.9953125
1.5629293139973015,0,0,-0.1484405029296875,0,0,-0.6890625
1.5645636309964175,0,0,4.00310517578125,0,0,2.3734375
1.5661651149966929,0,0,3.67749375,0,0,2.8328125
1.5679772829971625,0,0,2.0183119995117185,0,0,3.1390625
1.5694643979986722,0,0,-1.924938134765625,0,0,-0.765625
1.5709856979992765,0,0,-0.622492431640625,0,0,-0.765625
1.5729103639969253,0,0,3.478775012207031,0,0,1.990625
1.5745714219992806,0,0,2.518700146484375,0,0,2.9859375000000004
1.5761179999972228,0,0,1.70467158203125,0,0,1.8375000000000001
1.5776981319977494,0,0,-1.68551796875,0,0,0.0
1.5796929279968026,0,0,1.455674609375,0,0,0.30625
1.5813034859966137,0,0,3.2154128295898436,0,0,0.9953125
1.582893303999299,0,0,2.6144682128906247,0,0,2.45
1.5844229179965623,0,0,0.040701428222656245,0,0,2.0671875
1.585886903998471,0,0,-1.3000515014648437,0,0,-0.765625
1.5876259059987206,0,0,1.8052280517578123,0,0,0.0
1.5892370569999912,0,0,4.106055847167968,0,0,1.378125
1.5907946529987385,0,0,2.592920397949219,0,0,1.53125
1.5925989679999475,0,0,-0.14604630126953125,0,0,0.22968750000000002
1.5943180629983544,0,0,-1.4604630126953124,0,0,-0.30625
1.595909268999094,0,0,1.4700398193359374,0,0,-0.9187500000000001
1.5975703639996937,0,0,3.3686417358398435,0,0,0.6125
1.5997322129987879,0,0,1.5873557006835937,0,0,2.5265625000000003
1.601345715997013,0,0,-0.7302315063476562,0,0,-1.1484375
1.6029614599974593,0,0,-0.9050082275390624,0,0,-1.1484375
1.604530573997181,0,0,3.919308117675781,0,0,2.296875
1.6060264479965554,0,0,4.283226770019531,0,0,1.0718750000000001
1.6076426549989264,0,0,2.300827795410156,0,0,2.8328125
1.609180491999723,0,0,0.11252747802734374,0,0,-0.5359375000000001
1.610655347998545,0,0,-1.149216796875,0,0,-0.30625
1.6122526279978047,0,0,1.4508862060546874,0,0,1.378125
1.61379194699839,0,0,3.5410242553710933,0,0,0.765625
1.6155065039965848,0,0,1.946485949707031,0,0,1.53125
1.6171986729968921,0,0,-0.047884033203124995,0,0,-0.9953125
1.6189012489994639,0,0,-0.565031591796875,0,0,-0.9953125
1.6205349919982837,0,0,3.318363500976562,0,0,2.296875
1.622120994998113,0,0,3.5625720703124997,0,0,2.8328125
1.623786663996725,0,0,2.0087351928710935,0,0,2.75625
1.6253614449997258,0,0,-0.02154781494140625,0,0,-0.22968750000000002
1.6270520759971987,0,0,-0.5315127685546874,0,0,-1.1484375
1.6286911339993821,0,0,3.1220389648437497,0,0,1.3015625000000002
1.630337154998415,0,0,3.6439749267578123,0,0,2.45
1.6320180089969654,0,0,2.1116858642578125,0,0,3.215625
1.6340349529964442,0,0,-1.2761094848632812,0,0,1.9140625000000002
1.6358098609998706,0,0,0.7948749511718749,0,0,-0.45937500000000003
1.6374333449966798,0,0,2.8227637573242186,0,0,0.0
1.638990218998515,0,0,2.9376854370117185,0,0,1.4546875000000001
1.6405314449984871,0,0,0.7350199096679687,0,0,2.75625
1.6421552809988498,0,0,-0.5410895751953124,0,0,0.9953125
1.6438096899983066,0,0,1.2928688964843749,0,0,0.8421875000000001
1.6454574519993912,0,0,2.3870190551757813,0,0,1.378125
1.6470542699971702,0,0,2.4875755249023435,0,0,1.53125
1.648731567998766,0,0,1.1276689819335937,0,0,1.3015625000000002
1.6503075899963733,0,0,-0.07900865478515624,0,0,0.45937500000000003
1.6518663709975954,0,0,1.2210428466796874,0,0,1.225
1.653567891997227,0,0,2.365471240234375,0,0,0.5359375000000001
1.6552488939996692,0,0,2.2864625854492187,0,0,1.4546875000000001
1.65684059999694,0,0,0.7230489013671875,0,0,0.9187500000000001
1.6586052499988,0,0,-0.1771709228515625,0,0,0.45937500000000003
1.6602572519987007,0,0,1.5442600708007812,0,0,2.0671875
1.661805847998039,0,0,3.0166940917968748,0,0,0.9953125
1.6634481099972618,0,0,2.185906115722656,0,0,1.1484375
1.6651515929988818,0,0,0.8475473876953125,0,0,0.9953125
1.6668019099997764,0,0,-0.2346317626953125,0,0,9.49375
1.6683594689966412,0,0,1.2114660400390624,0,0,1.225
1.6699675649979326,0,0,2.703053674316406,0,0,1.1484375
1.6716329189985117,0,0,1.8818425048828125,0,0,1.0718750000000001
1.6732912919978844,0,0,0.5315127685546874,0,0,0.0
1.6748762199968041,0,0,-0.11252747802734374,0,0,0.5359375000000001
1.6765439629998582,0,0,2.6192566162109374,0,0,1.0718750000000001
1.6781353549995401,0,0,2.612074011230469,0,0,1.4546875000000001
1.6797071729997697,0,0,2.166752502441406,0,0,1.4546875000000001
1.6813591939971957,0,0,0.7924807495117187,0,0,-0.5359375000000001
1.6829354199981026,0,0,0.2154781494140625,0,0,0.45937500000000003
1.6845579959990573,0,0,2.492363928222656,0,0,1.6078125
1.686244608998095,0,0,1.9919757812499999,0,0,0.30625
1.6878982969974459,0,0,1.3335703247070312,0,0,1.6843750000000002
1.6893694309983402,0,0,0.33039982910156246,0,0,-1.1484375
1.6908350649973727,0,0,0.5506663818359374,0,0,-0.22968750000000002
1.6925379549975332,0,0,2.7365724975585937,0,0,2.1437500000000003
1.6941841619991465,0,0,2.0566192260742184,0,0,1.6078125
1.695761960996606,0,0,0.8930372192382812,0,0,2.296875
1.697416388997226,0,0,-0.4908113403320312,0,0,-0.6890625
1.6990002439997625,0,0,0.7493851196289062,0,0,0.22968750000000002
1.7005685989970516,0,0,3.086125939941406,0,0,2.296875
1.702271859998291,0,0,2.6623522460937497,0,0,2.2203125000000004
1.7039121219968365,0,0,1.4963760375976562,0,0,2.1437500000000003
1.7054554959977395,0,0,-0.6296750366210937,0,0,-0.30625
1.7070529059965338,0,0,0.2346317626953125,0,0,0.0
1.7087560559994017,0,0,2.6336218261718747,0,0,0.5359375000000001
1.7103961139982857,0,0,1.6160861206054686,0,0,1.6078125
1.711949080996419,0,0,1.5729904907226562,0,0,1.9140625000000002
1.713587212998391,0,0,-0.41898529052734373,0,0,-0.22968750000000002
1.715289492996817,0,0,0.01915361328125,0,0,-0.3828125
1.7170183829985035,0,0,2.3032219970703123,0,0,0.30625
1.7188799019968428,0,0,1.8004396484374998,0,0,0.9187500000000001
1.7207044949973351,0,0,0.7876923461914062,0,0,0.9187500000000001
1.7224344039968855,0,0,0.8738836059570312,0,0,1.53125
1.7240837399986049,0,0,2.4133552734375,0,0,0.9953125
1.7256204839977727,0,0,2.133233679199219,0,0,0.153125
1.7271216549997916,0,0,1.7597382202148437,0,0,0.765625
1.7288846559968079,0,0,0.0430956298828125,0,0,-0.45937500000000003
1.7305141219985671,0,0,0.48123453369140623,0,0,0.6890625
1.7320191629987676,0,0,2.059013427734375,0,0,2.5265625000000003
1.73362679499769,0,0,2.1883003173828124,0,0,0.8421875000000001
1.7352659829994082,0,0,1.5610194824218748,0,0,1.3015625000000002
1.7368148189998465,0,0,-0.26815058593749996,0,0,-1.0718750000000001
1.7384080259980692,0,0,0.3950432739257812,0,0,0.0765625
1.7400449919987295,0,0,2.8658593872070313,0,0,2.0671875
1.7415899019979406,0,0,3.6200329101562496,0,0,0.9187500000000001
1.7430616469973756,0,0,2.901772412109375,0,0,2.0671875
1.7445845949987415,0,0,-0.5099649536132812,0,0,1.6843750000000002
1.7461705979985709,0,0,-1.85790048828125,0,0,0.45937500000000003
1.7477126389967452,0,0,1.7884686401367187,0,0,0.0
1.7491795319983794,0,0,3.3710359375,0,0,0.45937500000000003
1.7507340539996221,0,0,2.6048914062499997,0,0,1.6843750000000002
1.7523993709983188,0,0,-0.39264907226562495,0,0,2.1437500000000003
1.7539768369970261,0,0,-1.7118541870117185,0,0,8.8046875
1.7554569709973293,0,0,1.659181750488281,0,0,-0.8421875000000001
1.756976714998018,0,0,3.380612744140625,0,0,0.0
1.7586309029975382,0,0,2.4301146850585935,0,0,1.6843750000000002
1.760176664996834,0,0,1.5562310791015623,0,0,3.0625
1.7616461139987223,0,0,-0.9504980590820312,0,0,9.264062500000001
1.7633243939999375,0,0,0.11013327636718749,0,0,-0.45937500000000003
1.7649100269991322,0,0,3.854664672851562,0,0,2.1437500000000003
1.7664252159993339,0,0,2.882618798828125,0,0,2.8328125
1.7679321449977579,0,0,1.1372457885742187,0,0,2.5265625000000003
1.7696322029987641,0,0,-1.70467158203125,0,0,-1.53125
1.7713594269989699,0,0,-0.3854664672851562,0,0,-1.6843750000000002
1.7729550959993503,0,0,3.9695863525390624,0,0,1.4546875000000001
1.774561376998463,0,0,2.3439234252929686,0,0,2.6796875
1.7761156579981616,0,0,1.0175357055664063,0,0,4.134375
1.7777389009970648,0,0,-2.152387292480469,0,0,0.0
1.779287478999322,0,0,-1.3455413330078123,0,0,-0.5359375000000001
1.780833889999485,0,0,4.4819455078125,0,0,1.3015625000000002
1.7827056489986717,0,0,3.6918589599609373,0,0,2.8328125
1.7842891339969356,0,0,2.4301146850585935,0,0,4.3640625
1.7857742859996506,0,0,-1.4628572143554686,0,0,0.765625
1.7873872889977065,0,0,-1.1635820068359375,0,0,-0.9953125
1.7889761989972612,0,0,2.616862414550781,0,0,0.30625
1.7905030169968086,0,0,3.706224169921875,0,0,1.4546875000000001
1.7920552059986221,0,0,3.0597897216796874,0,0,3.1390625
1.7935923949989956,0,0,-2.4971523315429685,0,0,832.0812500000001
1.79506839899841,0,0,-1.2665326782226562,0,0,8.421875
1.79653616199721,0,0,2.578555187988281,0,0,1.9140625000000002
1.7980823879988748,0,0,2.8275521606445313,0,0,2.2203125000000004
1.7997741489998589,0,0,2.1356278808593747,0,0,3.0625
1.8015115209964279,0,0,-0.7541735229492187,0,0,-853.1359375000001
1.803141856998991,0,0,-0.4165910888671875,0,0,832.69375
1.8048682659973565,0,0,3.440467785644531,0,0,1.6843750000000002
1.8063809739978751,0,0,3.864241479492187,0,0,1.6843750000000002
1.8078473109999322,0,0,2.39420166015625,0,0,4.134375
1.80986466199829,0,0,-1.149216796875,0,0,0.0
1.8114143499988131,0,0,0.9433154541015625,0,0,832.3109375
1.8129097989985894,0,0,2.817975354003906,0,0,0.9953125
1.8145036159985466,0,0,2.032677209472656,0,0,1.0718750000000001
1.8163584129979427,0,0,1.0773907470703123,0,0,2.3734375
1.8178357139986474,0,0,-2.070984436035156,0,0,0.153125
1.8198643599971547,0,0,1.7405846069335937,0,0,0.6890625
1.8214577519975137,0,0,4.209006518554688,0,0,1.225
1.822947385997395,0,0,3.854664672851562,0,0,2.75625
1.8245269259969064,0,0,0.63206923828125,0,0,4.9
1.8260864849980862,0,0,-1.707065783691406,0,0,0.5359375000000001
1.8277111539973703,0,0,0.46208092041015625,0,0,8.26875
1.8292850089965214,0,0,2.77727392578125,0,0,-0.3828125
1.8307681799997226,0,0,4.235342736816406,0,0,0.6890625
1.8323265909966722,0,0,2.7820623291015623,0,0,3.1390625
1.8339357969998673,0,0,-1.3623007446289062,0,0,9.4171875
1.8355155779972847,0,0,-0.4836287353515625,0,0,830.85625
1.8370300629976555,0,0,1.3934253662109375,0,0,-1.225
1.8386598619981669,0,0,2.4205378784179685,0,0,832.8468750000001
1.8403375309972034,0,0,2.3319524169921872,0,0,2.8328125
1.8419080529965868,0,0,-0.0718260498046875,0,0,1.225
1.8433760569969309,0,0,0.3016694091796875,0,0,-0.3828125
1.8449949849964469,0,0,2.6815058593749996,0,0,0.6890625
1.846667357996921,0,0,2.9496564453125,0,0,2.296875
1.848324322996632,0,0,2.3774422485351563,0,0,3.6750000000000003
1.8499044189993583,0,0,-0.3327940307617187,0,0,0.5359375000000001
1.85170032699898,0,0,0.3184288208007812,0,0,-853.4421875
1.8533511629975692,0,0,1.6328455322265625,0,0,0.0
1.8548247409999021,0,0,2.6503812377929687,0,0,0.30625
1.8562945419980679,0,0,2.461239306640625,0,0,3.0625
1.8578089709990309,0,0,0.5506663818359374,0,0,0.22968750000000002
1.8593829559977166,0,0,0.5458779785156249,0,0,0.0765625
1.860917514997709,0,0,1.905784521484375,0,0,0.8421875000000001
1.862498536997009,0,0,1.149216796875,0,0,0.9187500000000001
1.8641371499979869,0,0,1.8818425048828125,0,0,2.1437500000000003
1.8656876169989118,0,0,0.2442085693359375,0,0,830.7031250000001
1.8671632319965283,0,0,0.11252747802734374,0,0,829.325
1.8688197159972333,0,0,1.1109095703125,0,0,830.5500000000001
1.8704386629979126,0,0,-2.4684219116210935,0,0,-855.5859375000001
1.8719878509982664,0,0,-4.438849877929687,0,0,-8.957812500000001
1.8735426329985785,0,0,-5.2624552490234375,0,0,2.296875
1.875191986997379,0,0,-5.865794067382812,0,0,2.2203125000000004
1.876806600997952,0,0,-4.668693237304687,0,0,-6.125
1.8782846049980435,0,0,-4.675875842285156,0,0,-857.1171875000001
1.8798203859987552,0,0,-6.342240197753906,0,0,6.354687500000001
1.881476684997324,0,0,-6.026205578613281,0,0,5.8187500000000005
1.8830959649967554,0,0,-4.048595007324218,0,0,6.6609375
1.8845776169982855,0,0,-1.1180921752929687,0,0,-2.2203125000000004
1.8861546389998693,0,0,-0.5147533569335937,0,0,832.8468750000001
1.8877660679972905,0,0,-1.3527239379882812,0,0,-0.9953125
1.8893799039979058,0,0,-0.842758984375,0,0,832.0046875
1.890917795997666,0,0,0.7422025146484375,0,0,0.6890625
1.892426243997761,0,0,1.8914193115234375,0,0,2.75625
1.8940863209973031,0,0,1.3407529296874998,0,0,1.3015625000000002
1.8957081199987442,0,0,1.5179238525390624,0,0,2.6031250000000004
1.8971832169991103,0,0,1.4245499877929686,0,0,2.45
1.8986462209977617,0,0,2.8419173706054686,0,0,2.296875
1.9002372609975282,0,0,3.5697546752929687,0,0,1.8375000000000001
1.9019222259994422,0,0,3.258508459472656,0,0,2.0671875
1.9036197649984388,0,0,1.2904746948242187,0,0,0.0765625
1.9052807859989116,0,0,1.139639990234375,0,0,0.0
1.906850769999437,0,0,1.0821791503906248,0,0,0.0
1.9083577929995954,0,0,0.9744400756835937,0,0,0.0
1.9098198339997907,0,0,0.7637503295898437,0,0,0.30625
1.911468446996878,0,0,0.411802685546875,0,0,0.9187500000000001
1.9130340249976143,0,0,0.622492431640625,0,0,0.8421875000000001
1.9145049919970916,0,0,0.9097966308593749,0,0,1.0718750000000001
1.9161230869976862,0,0,1.0845733520507812,0,0,0.9953125
1.917745404996822,0,0,1.5538368774414062,0,0,0.0
1.9192747049964964,0,0,1.8195932617187498,0,0,0.45937500000000003
1.920749208999041,0,0,2.360682836914062,0,0,0.8421875000000001
1.922331192999991,0,0,2.2194249389648437,0,0,0.5359375000000001
1.923966713999107,0,0,1.2761094848632812,0,0,0.30625
1.925463421997847,0,0,1.0726023437499999,0,0,0.30625
1.9269797959968855,0,0,1.0127473022460938,0,0,0.9187500000000001
1.9286597609971068,0,0,1.2689268798828124,0,0,0.8421875000000001
1.930351447997964,0,0,1.3335703247070312,0,0,1.1484375
1.9319190999995044,0,0,1.35990654296875,0,0,1.1484375
1.9335046029991645,0,0,1.2880804931640624,0,0,1.378125
1.935138086999359,0,0,1.2378022583007813,0,0,1.6078125
1.9366713679992245,0,0,1.3311761230468748,0,0,1.3015625000000002
1.9382679449990974,0,0,1.4796166259765624,0,0,1.378125
1.9398545959993498,0,0,1.5203180541992187,0,0,2.3734375
1.9414096919972508,0,0,1.9871873779296874,0,0,0.9187500000000001
1.9429152139964572,0,0,1.5586252807617187,0,0,0.9953125
1.944499105997238,0,0,1.1061211669921875,0,0,1.1484375
1.946088423999754,0,0,1.1563994018554686,0,0,0.6125
1.9476952789991628,0,0,1.0869675537109373,0,0,0.0
1.9492939109986764,0,0,1.2378022583007813,0,0,0.22968750000000002
1.9508769329986535,0,0,1.7525556152343749,0,0,0.9187500000000001
1.9524586209990957,0,0,1.4604630126953124,0,0,1.0718750000000001
1.954008235999936,0,0,1.43652099609375,0,0,0.765625
1.9556231459973787,0,0,1.4030021728515625,0,0,0.9953125
1.9571562789969903,0,0,1.4532804077148436,0,0,1.6078125
1.9586235059978208,0,0,1.6136919189453125,0,0,1.0718750000000001
1.9602102489989193,0,0,1.4053963745117186,0,0,0.6125
1.961785992996738,0,0,1.5011644409179687,0,0,0.6125
1.963266422997549,0,0,1.1420341918945311,0,0,1.1484375
1.9647962969975197,0,0,0.9361328491210937,0,0,0.45937500000000003
1.9663562449968595,0,0,1.0510545288085937,0,0,0.0
1.9678730079976958,0,0,1.1947066284179686,0,0,-852.8296875000001
1.9693649189975986,0,0,1.3766659545898436,0,0,0.765625
1.9720301889974508,0,0,1.4915876342773438,0,0,1.1484375
1.973571822996746,0,0,1.3527239379882812,0,0,1.4546875000000001
1.975048603999312,0,0,1.4221557861328125,0,0,1.3015625000000002
1.9765252379984304,0,0,1.5610194824218748,0,0,0.9953125
1.978099444997497,0,0,1.5562310791015623,0,0,0.0
1.979641151996475,0,0,1.5083470458984374,0,0,0.5359375000000001
1.98122904399861,0,0,1.7022773803710936,0,0,0.6125
1.98276052899746,0,0,1.4437036010742186,0,0,0.765625
1.9843252549981116,0,0,1.5203180541992187,0,0,0.5359375000000001
1.9858104809973156,0,0,1.235408056640625,0,0,0.6890625
1.987276354997448,0,0,1.1109095703125,0,0,1.1484375
1.9887984699998924,0,0,1.209071838378906,0,0,0.6890625
1.990324102996965,0,0,1.1420341918945311,0,0,0.6125
1.9921812519969535,0,0,1.388636962890625,0,0,0.6890625
1.9936588119999215,0,0,1.2473790649414063,0,0,1.1484375
1.9953828689976945,0,0,1.0342951171875,0,0,0.9187500000000001
1.9970122969971271,0,0,1.2904746948242187,0,0,0.8421875000000001
1.9984962269991229,0,0,1.4437036010742186,0,0,0.765625
2.0000712489963917,0,0,1.4772224243164063,0,0,0.765625
2.001595844998519,0,0,1.5921441040039062,0,0,0.8421875000000001
2.0030684229968756,0,0,1.37906015625,0,0,0.6125
2.004526556997007,0,0,1.3670891479492187,0,0,0.6890625
2.006066745998396,0,0,1.668758557128906,0,0,0.9187500000000001
2.007746747996862,0,0,1.4628572143554686,0,0,1.1484375
2.009317028998339,0,0,1.3838485595703125,0,0,0.765625
2.010826902998815,0,0,1.5753846923828123,0,0,0.3828125
2.012805827998818,0,0,1.2904746948242187,0,0,0.6125
2.014390590997209,0,0,1.2737152832031249,0,0,0.45937500000000003
2.0159123719968193,0,0,1.0797849487304687,0,0,0.45937500000000003
2.0174683749974065,0,0,1.1013327636718748,0,0,1.6843750000000002
2.0190728599991417,0,0,1.3742717529296875,0,0,1.0718750000000001
2.020662454997364,0,0,1.448492004394531,0,0,0.8421875000000001
2.0225714369989873,0,0,1.1659762084960936,0,0,0.9187500000000001
2.0245361769993906,0,0,1.1013327636718748,0,0,0.45937500000000003
2.0261715129963704,0,0,1.3551181396484375,0,0,0.9187500000000001
2.0281606409989763,0,0,1.4772224243164063,0,0,-9.264062500000001
2.029932067998743,0,0,1.5634136840820312,0,0,0.8421875000000001
2.0314967569975124,0,0,1.6208745239257811,0,0,0.9187500000000001
2.033049111996661,0,0,1.4053963745117186,0,0,0.30625
2.0348175579965755,0,0,1.3479355346679687,0,0,0.765625
2.036458856997342,0,0,1.5275006591796874,0,0,0.9953125
2.0380101929986267,0,0,1.5466542724609373,0,0,0.153125
2.03971750999699,0,0,1.429338391113281,0,0,0.22968750000000002
2.0412747349982965,0,0,1.3862427612304686,0,0,0.6890625
2.0428167389982264,0,0,1.1611878051757811,0,0,0.5359375000000001
2.0445076479991258,0,0,1.005564697265625,0,0,0.153125
2.0460832259996096,0,0,1.2210428466796874,0,0,0.45937500000000003
2.048034983999969,0,0,1.1228805786132812,0,0,0.30625
2.049693208999088,0,0,1.2928688964843749,0,0,0.30625
2.0513226369985205,0,0,1.2761094848632812,0,0,0.6125
2.053070823996677,0,0,1.180341418457031,0,0,0.6890625
2.054695103997801,0,0,0.9744400756835937,0,0,0.45937500000000003
2.0562515149977116,0,0,1.1061211669921875,0,0,0.8421875000000001
2.057794536998699,0,0,1.3623007446289062,0,0,1.6843750000000002
2.059736517996498,0,0,1.4245499877929686,0,0,0.30625
2.061339705996943,0,0,1.39821376953125,0,0,0.6890625
2.062884357997973,0,0,1.37906015625,0,0,0.9953125
2.0646148589985387,0,0,1.2521674682617188,0,0,0.6890625
2.0662016959977336,0,0,1.3479355346679687,0,0,0.6890625
2.0677502549988276,0,0,1.3407529296874998,0,0,1.1484375
2.0693859799976053,0,0,1.47482822265625,0,0,1.3015625000000002
2.070960759996524,0,0,1.5179238525390624,0,0,0.8421875000000001
2.072502152997913,0,0,1.3910311645507811,0,0,0.9953125
2.0740939149982296,0,0,1.5203180541992187,0,0,0.6890625
2.0762398389997543,0,0,1.1013327636718748,0,0,0.8421875000000001
2.0781240049982443,0,0,1.2952630981445312,0,0,0.6890625
2.079924839999876,0,0,1.429338391113281,0,0,0.5359375000000001
2.081503897999937,0,0,1.6304513305664061,0,0,0.9187500000000001
2.0829823839994788,0,0,1.2425906616210938,0,0,1.1484375
2.0844822579965694,0,0,1.35990654296875,0,0,0.6890625
2.086000076997152,0,0,1.199495031738281,0,0,0.6125
2.087652411999443,0,0,1.3024457031249999,0,0,0.765625
2.0893329699974856,0,0,1.4149731811523436,0,0,1.0718750000000001
2.090913787997124,0,0,1.3168109130859373,0,0,0.9187500000000001
2.092521864997252,0,0,1.199495031738281,0,0,0.9953125
2.09417658899838,0,0,1.2904746948242187,0,0,1.0718750000000001
2.095654315999127,0,0,1.2880804931640624,0,0,0.6125
2.0971602449972124,0,0,1.4341267944335936,0,0,0.0
2.098910579999938,0,0,1.4413093994140624,0,0,0.153125
2.1006822849994933,0,0,1.3215993164062498,0,0,0.9187500000000001
2.1024243049978395,0,0,1.6160861206054686,0,0,1.0718750000000001
2.1040921959975094,0,0,1.4221557861328125,0,0,1.1484375
2.105565588997706,0,0,1.3096283081054687,0,0,1.0718750000000001
2.1070944629973383,0,0,1.4053963745117186,0,0,0.765625
2.1086072819998662,0,0,1.4915876342773438,0,0,-852.8296875000001
2.1104258749983273,0,0,1.3814543579101561,0,0,0.6125
2.111973618997581,0,0,1.6400281372070311,0,0,0.765625
2.113440085999173,0,0,1.3311761230468748,0,0,0.6890625
2.114940071998717,0,0,1.1827356201171875,0,0,0.6125
2.1165725929968175,0,0,1.3814543579101561,0,0,0.6890625
2.1180950779998966,0,0,1.3287819213867187,0,0,1.4546875000000001
2.1195547669994994,0,0,1.350329736328125,0,0,1.378125
2.121218250998936,0,0,1.2737152832031249,0,0,0.6890625
2.1230758069978037,0,0,1.2617442749023438,0,0,1.0718750000000001
2.1247111239972583,0,0,1.1444283935546875,0,0,0.30625
2.1263539229985327,0,0,1.2330138549804688,0,0,0.3828125
2.1280122399984975,0,0,1.3192051147460937,0,0,1.6078125
2.129720760996861,0,0,1.4939818359375,0,0,1.1484375
2.131354781999107,0,0,1.4939818359375,0,0,0.765625
2.1330419879996043,0,0,1.3814543579101561,0,0,0.9187500000000001
2.1348611369976425,0,0,1.2761094848632812,0,0,1.0718750000000001
2.1365122689967393,0,0,1.3407529296874998,0,0,0.9187500000000001
2.1381652889976976,0,0,1.2473790649414063,0,0,1.3015625000000002
2.139989715997217,0,0,1.5131354492187499,0,0,0.6890625
2.1416898109964677,0,0,1.7501614135742187,0,0,0.9187500000000001
2.143401441997412,0,0,1.4724340209960938,0,0,0.9187500000000001
2.1450369259982836,0,0,1.2497732666015624,0,0,0.6890625
2.146507263998501,0,0,1.1276689819335937,0,0,0.765625
2.148005952996755,0,0,1.2282254516601563,0,0,0.8421875000000001
2.1495335299987346,0,0,1.4245499877929686,0,0,1.3015625000000002
2.151335697999457,0,0,1.2832920898437499,0,0,0.8421875000000001
2.1528604609993636,0,0,1.3168109130859373,0,0,1.0718750000000001
2.1543914639987634,0,0,1.180341418457031,0,0,0.8421875000000001
2.1559189679974224,0,0,1.1037269653320312,0,0,0.6890625
2.157589377999102,0,0,1.3335703247070312,0,0,0.153125
2.159160213999712,0,0,1.4508862060546874,0,0,832.69375
2.160824104998028,0,0,1.4173673828125,0,0,0.6890625
2.162571606997517,0,0,1.426944189453125,0,0,0.9953125
2.1641597759989963,0,0,1.2114660400390624,0,0,0.765625
2.1658026309996785,0,0,1.2138602416992186,0,0,0.6890625
2.1676921119978942,0,0,1.3407529296874998,0,0,0.3828125
2.1696609079990594,0,0,1.4939818359375,0,0,0.5359375000000001
2.1713676499966823,0,0,1.4030021728515625,0,0,1.3015625000000002
2.17294746799962,0,0,1.4221557861328125,0,0,0.765625
2.1744778789980046,0,0,1.2617442749023438,0,0,1.0718750000000001
2.1763660089964105,0,0,1.3120225097656248,0,0,0.9953125
2.1780467329990643,0,0,1.2785036865234374,0,0,0.9187500000000001
2.179618328998913,0,0,1.4030021728515625,0,0,0.6890625
2.1811967579997145,0,0,1.2473790649414063,0,0,1.0718750000000001
2.1832446639964473,0,0,1.388636962890625,0,0,0.9187500000000001
2.184916499998508,0,0,1.209071838378906,0,0,0.9953125
2.186534798998764,0,0,1.3000515014648437,0,0,0.9187500000000001
2.188140875998215,0,0,1.3646949462890625,0,0,0.8421875000000001
2.189684563996707,0,0,1.426944189453125,0,0,0.6890625
2.1912832149973838,0,0,1.3623007446289062,0,0,1.225
2.1928977179995854,0,0,1.5107412475585937,0,0,0.8421875000000001
2.1947629029964446,0,0,1.3144167114257812,0,0,0.9187500000000001
2.19640601699939,0,0,1.0773907470703123,0,0,0.8421875000000001
2.1980343339964747,0,0,1.3670891479492187,0,0,0.6890625
2.1998472239974944,0,0,1.5442600708007812,0,0,1.3015625000000002
2.2015806149975106,0,0,1.5753846923828123,0,0,0.5359375000000001
2.2044949199989787,0,0,1.1133037719726562,0,0,0.6125
2.2062532729978557,0,0,1.1013327636718748,0,0,0.45937500000000003
2.2081116429981194,0,0,1.3024457031249999,0,0,0.6890625
2.209834218996548,0,0,1.3910311645507811,0,0,1.0718750000000001
2.2114992029964924,0,0,1.2593500732421874,0,0,0.9953125
2.21321388999786,0,0,1.3934253662109375,0,0,0.9187500000000001
2.214978557996801,0,0,1.218648645019531,0,0,1.0718750000000001
2.2166503009975713,0,0,1.3335703247070312,0,0,0.8421875000000001
2.2183376549983223,0,0,1.2569558715820313,0,0,1.3015625000000002
2.2201223779993597,0,0,1.5873557006835937,0,0,1.1484375
2.221929341998475,0,0,1.5083470458984374,0,0,0.9187500000000001
2.223961858999246,0,0,1.2569558715820313,0,0,0.6890625
2.2260191719979048,0,0,1.2569558715820313,0,0,0.9953125
2.227744599997095,0,0,1.3910311645507811,0,0,0.5359375000000001
2.2294161209974845,0,0,1.4508862060546874,0,0,0.0
2.2311153819973697,0,0,1.5107412475585937,0,0,0.9187500000000001
2.2331025109997427,0,0,1.5227122558593749,0,0,1.0718750000000001
2.2349053449979692,0,0,1.4053963745117186,0,0,1.1484375
2.2366559939982835,0,0,1.3239935180664062,0,0,1.0718750000000001
2.238358773996879,0,0,1.3000515014648437,0,0,1.1484375
2.240103015999921,0,0,1.4963760375976562,0,0,1.3015625000000002
2.241808554997988,0,0,1.4101847778320311,0,0,0.9953125
2.243599389999872,0,0,1.1372457885742187,0,0,0.6890625
2.245376242997736,0,0,1.3144167114257812,0,0,0.3828125
2.2471844289975706,0,0,1.2521674682617188,0,0,0.9187500000000001
2.2489025599970773,0,0,1.2713210815429687,0,0,1.225
2.250598098999035,0,0,1.3742717529296875,0,0,0.3828125
2.25239889599834,0,0,1.3958195678710936,0,0,0.6890625
2.2541583239981264,0,0,1.3766659545898436,0,0,0.8421875000000001
2.2558688439967227,0,0,1.0893617553710937,0,0,0.6890625
2.2575179199993727,0,0,1.2473790649414063,0,0,0.5359375000000001
2.259243014999811,0,0,1.3000515014648437,0,0,0.3828125
2.2609069979989727,0,0,1.4030021728515625,0,0,-9.340625000000001
2.2626216299977386,0,0,1.5131354492187499,0,0,0.6890625
2.264509184999042,0,0,1.3479355346679687,0,0,0.8421875000000001
2.266227408999839,0,0,1.2234370483398436,0,0,0.9187500000000001
2.267934707997483,0,0,1.4030021728515625,0,0,0.6125
2.2697543559988844,0,0,1.4149731811523436,0,0,0.3828125
2.2715487649984425,0,0,1.3934253662109375,0,0,1.1484375
2.2733513029997994,0,0,1.5514426757812498,0,0,0.9187500000000001
2.275140895999357,0,0,1.5203180541992187,0,0,0.765625
2.2769529709985363,0,0,1.3072341064453123,0,0,0.8421875000000001
2.27873649099638,0,0,1.3263877197265623,0,0,0.9953125
2.280495399998472,0,0,1.4963760375976562,0,0,1.1484375
2.282146568999451,0,0,1.3838485595703125,0,0,0.8421875000000001
2.2838030709972372,0,0,1.2737152832031249,0,0,1.0718750000000001
2.28536135199829,0,0,1.4820108276367188,0,0,0.9187500000000001
2.286941095997463,0,0,1.3168109130859373,0,0,1.0718750000000001
2.2884633029971155,0,0,1.2569558715820313,0,0,0.6125
2.2899982879971503,0,0,1.5107412475585937,0,0,0.3828125
2.291691586997331,0,0,1.455674609375,0,0,0.6125
2.2935133279970614,0,0,1.7836802368164062,0,0,0.9953125
2.2952017929965223,0,0,1.5203180541992187,0,0,1.1484375
2.2968458329996793,0,0,1.1635820068359375,0,0,1.3015625000000002
2.2990209219969984,0,0,1.4053963745117186,0,0,1.53125
2.3007987569981196,0,0,1.3862427612304686,0,0,0.5359375000000001
2.3026501089989324,0,0,1.7310078002929687,0,0,0.765625
2.3044389439965016,0,0,1.3239935180664062,0,0,0.45937500000000003
2.3062040009972407,0,0,1.3455413330078123,0,0,0.3828125
2.307924335997086,0,0,1.3287819213867187,0,0,0.5359375000000001
2.3098854279996885,0,0,1.3862427612304686,0,0,0.6125
2.3117459089990007,0,0,1.4317325927734375,0,0,0.6890625
2.313478354997642,0,0,1.6543933471679686,0,0,0.6890625
2.315413724998507,0,0,1.3646949462890625,0,0,0.6125
2.3172034859999258,0,0,1.1276689819335937,0,0,0.3828125
2.3190791529996204,0,0,1.3168109130859373,0,0,1.3015625000000002
2.3207937099978153,0,0,1.4173673828125,0,0,1.225
2.3224905819988635,0,0,1.465251416015625,0,0,0.6125
2.324233175997506,0,0,1.3287819213867187,0,0,0.6125
2.326023676996556,0,0,1.2689268798828124,0,0,1.53125
2.327770789997885,0,0,1.3000515014648437,0,0,0.765625
2.329447550997429,0,0,1.3551181396484375,0,0,0.765625
2.331081145999633,0,0,1.5155296508789062,0,0,0.45937500000000003
2.332710593997035,0,0,1.7405846069335937,0,0,0.6890625
2.334340762998181,0,0,1.5203180541992187,0,0,0.5359375000000001
2.3359427839968703,0,0,1.1923124267578125,0,0,0.5359375000000001
2.337507046999235,0,0,1.1755530151367186,0,0,0.6125
2.3390393649970065,0,0,1.407790576171875,0,0,0.8421875000000001
2.340611664996686,0,0,1.5059528442382812,0,0,1.1484375
2.342214240998146,0,0,1.4724340209960938,0,0,0.9953125
2.343784077998862,0,0,1.3287819213867187,0,0,1.0718750000000001
2.3452553969982546,0,0,1.2856862915039062,0,0,0.6890625
2.3467110119963763,0,0,1.3215993164062498,0,0,0.6890625
2.348332866997225,0,0,1.2569558715820313,0,0,0.5359375000000001
2.3498567039969203,0,0,1.455674609375,0,0,832.6171875000001
2.351316781998321,0,0,1.5418658691406248,0,0,0.6125
2.3529016929969657,0,0,1.656787548828125,0,0,0.6890625
2.354478769997513,0,0,1.4963760375976562,0,0,0.6890625
2.356081401998381,0,0,1.180341418457031,0,0,0.45937500000000003
2.3576427579973824,0,0,1.3383587280273437,0,0,0.6890625
2.359190964998561,0,0,1.3287819213867187,0,0,1.53125
2.36071880199961,0,0,1.458068811035156,0,0,1.3015625000000002
2.3622690829979547,0,0,1.47482822265625,0,0,0.9187500000000001
2.3638536779981223,0,0,1.3646949462890625,0,0,0.9953125
2.365405958997144,0,0,1.218648645019531,0,0,1.1484375
2.3669110929986346,0,0,1.2425906616210938,0,0,0.6890625
2.3684318739979062,0,0,1.2617442749023438,0,0,0.6890625
2.369982877997245,0,0,1.4173673828125,0,0,0.0
2.3715243069964345,0,0,1.4604630126953124,0,0,0.22968750000000002
2.3730982549968758,0,0,1.5179238525390624,0,0,0.8421875000000001
2.374607739999192,0,0,1.2737152832031249,0,0,0.9953125
2.3763054639966867,0,0,1.2593500732421874,0,0,0.45937500000000003
2.377922392999608,0,0,1.3527239379882812,0,0,0.765625
2.3794477299998107,0,0,1.3670891479492187,0,0,1.0718750000000001
2.381066509999073,0,0,1.4317325927734375,0,0,1.3015625000000002
2.3826394579991756,0,0,1.6639701538085936,0,0,0.8421875000000001
2.3841331469993747,0,0,1.4149731811523436,0,0,0.9953125
2.3856175579967385,0,0,1.3431471313476562,0,0,0.9953125
2.387171413996839,0,0,1.3096283081054687,0,0,0.5359375000000001
2.3886923619975278,0,0,1.2785036865234374,0,0,0.6890625
2.390162457999395,0,0,1.388636962890625,0,0,0.0
2.391694683999958,0,0,1.3383587280273437,0,0,0.45937500000000003
2.3933566119994794,0,0,1.5777788940429687,0,0,0.9187500000000001
2.3949042269996426,0,0,1.2114660400390624,0,0,0.8421875000000001
2.396376952998253,0,0,1.3144167114257812,0,0,0.6125
2.3979076239993447,0,0,1.24498486328125,0,0,0.9953125
2.3995389779993275,0,0,1.197100830078125,0,0,1.225
2.4011047779968067,0,0,1.3862427612304686,0,0,1.1484375
2.402607521999016,0,0,1.3168109130859373,0,0,0.8421875000000001
2.404173228998843,0,0,1.4317325927734375,0,0,1.1484375
2.4056841029996576,0,0,1.1851298217773436,0,0,0.9187500000000001
2.4071483479965536,0,0,1.1923124267578125,0,0,0.765625
2.4086598699977912,0,0,1.388636962890625,0,0,0.5359375000000001
2.410214780997194,0,0,1.4030021728515625,0,0,0.0
2.4120045419986127,0,0,1.388636962890625,0,0,0.8421875000000001
2.414030076997733,0,0,1.4915876342773438,0,0,0.8421875000000001
2.415726226998231,0,0,1.3311761230468748,0,0,0.9953125
2.4172636379989854,0,0,1.0941501586914062,0,0,0.8421875000000001
2.4188535859975673,0,0,1.2641384765625,0,0,0.6890625
2.4204108849990007,0,0,1.2856862915039062,0,0,0.0
2.4219441109999025,0,0,1.3192051147460937,0,0,0.30625
2.4234432999983255,0,0,1.5442600708007812,0,0,0.6890625
2.4264089379976213,0,0,1.3000515014648437,0,0,2.2203125000000004
2.42844782499742,0,0,1.254561669921875,0,0,0.5359375000000001
2.430069531998015,0,0,1.350329736328125,0,0,0.22968750000000002
2.431821754998964,0,0,1.3862427612304686,0,0,0.5359375000000001
2.433492831998592,0,0,1.4724340209960938,0,0,0.6890625
2.4350871489987185,0,0,1.209071838378906,0,0,0.5359375000000001
2.4365657279995503,0,0,1.3072341064453123,0,0,0.765625
2.4381362489984895,0,0,1.2928688964843749,0,0,0.6890625
2.4397858809970785,0,0,1.3479355346679687,0,0,1.0718750000000001
2.4413535699968634,0,0,1.455674609375,0,0,1.0718750000000001
2.44286742499753,0,0,1.5011644409179687,0,0,0.765625
2.4444433539974852,0,0,1.4221557861328125,0,0,0.8421875000000001
2.445955116996629,0,0,1.3575123413085937,0,0,1.1484375
2.4474189919965283,0,0,1.1731588134765625,0,0,0.765625
2.4489299399974698,0,0,1.3120225097656248,0,0,0.9953125
2.450828606997675,0,0,1.3958195678710936,0,0,0.9187500000000001
2.4523809989987058,0,0,1.3551181396484375,0,0,0.30625
2.4538480029987113,0,0,1.5849614990234373,0,0,0.9187500000000001
2.4554409139964264,0,0,1.2904746948242187,0,0,0.8421875000000001
2.4569612319974112,0,0,1.1013327636718748,0,0,0.3828125
2.4584289399972477,0,0,1.3215993164062498,0,0,0.22968750000000002
2.4599325739982305,0,0,1.3910311645507811,0,0,1.0718750000000001
2.4614847069969983,0,0,1.4245499877929686,0,0,1.225
2.462959469998168,0,0,1.5059528442382812,0,0,0.6125
2.464582916996733,0,0,1.6807295654296874,0,0,0.6890625
2.46620080899811,0,0,1.3120225097656248,0,0,0.9953125
2.4677454419979767,0,0,1.2952630981445312,0,0,0.8421875000000001
2.469211482999526,0,0,1.3742717529296875,0,0,0.45937500000000003
2.471025112998177,0,0,1.448492004394531,0,0,0.6890625
2.473280664999038,0,0,1.407790576171875,0,0,0.6125
2.4748403719968337,0,0,1.3910311645507811,0,0,1.1484375
2.4764830419990176,0,0,1.426944189453125,0,0,0.3828125
2.478104802998132,0,0,1.1851298217773436,0,0,0.6890625
2.479665565999312,0,0,1.3239935180664062,0,0,1.1484375
2.4811583849987073,0,0,1.4867992309570313,0,0,1.1484375
2.4828125539970642,0,0,1.4508862060546874,0,0,0.9187500000000001
2.4844652229985513,0,0,1.5610194824218748,0,0,0.765625
2.4860272999976587,0,0,1.2904746948242187,0,0,1.225
2.487505526998575,0,0,1.1037269653320312,0,0,0.8421875000000001
2.489165028997377,0,0,1.369483349609375,0,0,0.6890625
2.490788975999749,0,0,1.407790576171875,0,0,-852.8296875000001
2.492302701997687,0,0,1.3766659545898436,0,0,0.6890625
2.493773094996868,0,0,1.5610194824218748,0,0,0.8421875000000001
2.4953626719980093,0,0,1.2593500732421874,0,0,0.6890625
2.4969202859974757,0,0,1.2425906616210938,0,0,0.153125
2.4983968649976305,0,0,1.3718775512695311,0,0,0.9187500000000001
2.499870479998208,0,0,1.35990654296875,0,0,1.4546875000000001
2.5017281279979215,0,0,1.3838485595703125,0,0,0.3828125
2.50368690599862,0,0,1.6112977172851561,0,0,0.8421875000000001
2.5052300939969427,0,0,1.2282254516601563,0,0,1.0718750000000001
2.506692764996842,0,0,1.1516109985351561,0,0,0.6125
2.5082789349980885,0,0,1.3000515014648437,0,0,0.6890625
2.5099116409983253,0,0,1.350329736328125,0,0,1.225
2.511803103996499,0,0,1.39821376953125,0,0,0.0765625
2.51366636399689,0,0,1.6543933471679686,0,0,0.9187500000000001
2.5153209029995196,0,0,1.3407529296874998,0,0,0.765625
2.5167891109995253,0,0,1.1372457885742187,0,0,0.8421875000000001
2.5183232259987562,0,0,1.3623007446289062,0,0,0.9187500000000001
2.5198492479976267,0,0,1.3934253662109375,0,0,1.53125
2.5213327149976976,0,0,1.429338391113281,0,0,0.5359375000000001
2.5227879599988228,0,0,1.4915876342773438,0,0,0.9187500000000001
2.5246477009968658,0,0,1.5370774658203123,0,0,0.9187500000000001
2.5263927209998656,0,0,1.5203180541992187,0,0,0.8421875000000001
2.527927594997891,0,0,1.3311761230468748,0,0,0.9187500000000001
2.5293883949998417,0,0,1.4891934326171874,0,0,0.6125
2.5309073429998534,0,0,1.5083470458984374,0,0,-853.1359375000001
2.5327603249970707,0,0,1.4341267944335936,0,0,1.1484375
2.534330679998675,0,0,1.6328455322265625,0,0,0.6125
2.5358576649996394,0,0,1.3383587280273437,0,0,0.6890625
2.5375086309977632,0,0,1.1276689819335937,0,0,0.6125
2.539125688999775,0,0,1.448492004394531,0,0,0.6125
2.5407194329964113,0,0,1.4915876342773438,0,0,0.45937500000000003
2.542269324996596,0,0,1.388636962890625,0,0,0.6890625
2.5439297719967726,0,0,1.6065093139648436,0,0,0.6125
2.545703383999353,0,0,1.3407529296874998,0,0,0.765625
2.547261127998354,0,0,1.2832920898437499,0,0,0.6890625
2.5488574269984383,0,0,1.3215993164062498,0,0,0.5359375000000001
2.550675112997851,0,0,1.3742717529296875,0,0,0.22968750000000002
2.5523258009998244,0,0,1.2689268798828124,0,0,0.22968750000000002
2.5539471179981774,0,0,1.6927005737304686,0,0,0.6890625
2.5554535669980396,0,0,1.3527239379882812,0,0,0.6125
2.5569194599993352,0,0,1.1827356201171875,0,0,0.45937500000000003
2.5584602969975094,0,0,1.2832920898437499,0,0,0.5359375000000001
2.559988003999024,0,0,1.3311761230468748,0,0,1.378125
2.561440841996955,0,0,1.4867992309570313,0,0,0.9953125
2.5629420859986567,0,0,1.388636962890625,0,0,0.9187500000000001
2.5645550889967126,0,0,1.6519991455078125,0,0,0.765625
2.566080055999919,0,0,1.2617442749023438,0,0,0.6890625
2.56754113399802,0,0,1.1731588134765625,0,0,0.6890625
2.56912046999787,0,0,1.4006079711914061,0,0,0.6125
2.570647917997121,0,0,1.3742717529296875,0,0,0.5359375000000001
2.5721185519978462,0,0,1.3742717529296875,0,0,1.0718750000000001
2.5736291669963975,0,0,1.3311761230468748,0,0,0.6125
2.575193651999143,0,0,1.3742717529296875,0,0,1.0718750000000001
2.576717951997125,0,0,1.2952630981445312,0,0,0.8421875000000001
2.578194788999099,0,0,1.3239935180664062,0,0,0.9187500000000001
2.5797231629985617,0,0,1.3838485595703125,0,0,0.3828125
2.5813138329976937,0,0,1.446097802734375,0,0,1.4546875000000001
2.5832217589995707,0,0,1.3407529296874998,0,0,0.9187500000000001
2.584740521997446,0,0,1.350329736328125,0,0,0.9187500000000001
2.586342764996516,0,0,1.3072341064453123,0,0,0.9187500000000001
2.5878903979973984,0,0,1.3072341064453123,0,0,0.6890625
2.589354438998271,0,0,1.3407529296874998,0,0,0.5359375000000001
2.590873831999488,0,0,1.4149731811523436,0,0,0.3828125
2.5927465169988864,0,0,1.3934253662109375,0,0,0.3828125
2.594350556999416,0,0,1.6065093139648436,0,0,0.6125
2.5958928389991343,0,0,1.2282254516601563,0,0,0.5359375000000001
2.597489489999134,0,0,1.1324573852539062,0,0,0.765625
2.599045696999383,0,0,1.3311761230468748,0,0,0.8421875000000001
2.6005879219992494,0,0,1.4149731811523436,0,0,1.4546875000000001
2.602176961998339,0,0,1.4173673828125,0,0,0.8421875000000001
2.6037607619982737,0,0,1.6903063720703124,0,0,0.765625
2.6055686329964374,0,0,1.484405029296875,0,0,0.6890625
2.6071580249990802,0,0,1.158793603515625,0,0,0.45937500000000003
2.608836656996573,0,0,1.2928688964843749,0,0,0.6125
2.6107917119988997,0,0,1.4437036010742186,0,0,0.45937500000000003
2.6123757519999344,0,0,1.5203180541992187,0,0,0.45937500000000003
2.6139731429975654,0,0,1.675941162109375,0,0,0.765625
2.6157459409987496,0,0,1.2641384765625,0,0,1.225
2.617318943997816,0,0,1.189918225097656,0,0,0.3828125
2.619080185999337,0,0,1.3287819213867187,0,0,0.9187500000000001
2.6206865409985767,0,0,1.5083470458984374,0,0,1.53125
2.622171711998817,0,0,1.388636962890625,0,0,0.8421875000000001
2.6236990299985337,0,0,1.6424223388671875,0,0,0.9187500000000001
2.6252558669984865,0,0,1.4987702392578124,0,0,1.0718750000000001
2.6268826099985745,0,0,1.24498486328125,0,0,0.765625
2.6283629659992584,0,0,1.35990654296875,0,0,0.765625
2.6298748959998193,0,0,1.2593500732421874,0,0,0.8421875000000001
2.6314627319989086,0,0,1.3263877197265623,0,0,0.3828125
2.63312099399991,0,0,1.3311761230468748,0,0,0.765625
2.6346757379978953,0,0,1.6424223388671875,0,0,1.0718750000000001
2.6363114069972653,0,0,1.3215993164062498,0,0,0.6890625
2.637863206997281,0,0,1.0965443603515623,0,0,0.6125
2.6393293399996764,0,0,1.1563994018554686,0,0,0.3828125
2.640795288996742,0,0,1.43652099609375,0,0,1.8375000000000001
2.6424302729974443,0,0,1.4987702392578124,0,0,1.225
2.6439745359966764,0,0,1.6615759521484375,0,0,0.765625
2.645467372996791,0,0,1.4891934326171874,0,0,1.0718750000000001
2.6470931159965403,0,0,1.2952630981445312,0,0,0.6125
2.6487721189987496,0,0,1.4030021728515625,0,0,0.9953125
2.650321843997517,0,0,1.2665326782226562,0,0,1.3015625000000002
2.651788310999109,0,0,1.4604630126953124,0,0,0.6125
2.6534128689963836,0,0,1.429338391113281,0,0,0.8421875000000001
2.6550713529977656,0,0,1.4532804077148436,0,0,0.9953125
2.6566296159980993,0,0,1.3215993164062498,0,0,1.0718750000000001
2.6581964519973553,0,0,1.2210428466796874,0,0,0.8421875000000001
2.659856657999626,0,0,1.3718775512695311,0,0,0.6890625
2.6614062359985837,0,0,1.4173673828125,0,0,0.0765625
2.662979220996931,0,0,1.3862427612304686,0,0,0.5359375000000001
2.66446987299787,0,0,1.6017209106445311,0,0,0.6890625
2.6659871539995947,0,0,1.2569558715820313,0,0,0.8421875000000001
2.6676429159997497,0,0,1.2785036865234374,0,0,0.5359375000000001
2.6692800849996274,0,0,1.2378022583007813,0,0,0.765625
2.67086856899914,0,0,1.4341267944335936,0,0,1.53125
2.6724425539978256,0,0,1.4987702392578124,0,0,1.4546875000000001
2.673963464996632,0,0,1.4772224243164063,0,0,0.8421875000000001
2.6756648929986113,0,0,1.458068811035156,0,0,0.6890625
2.677275080997788,0,0,1.4820108276367188,0,0,0.5359375000000001
2.6788032879994716,0,0,1.2330138549804688,0,0,0.765625
2.6804917529989325,0,0,1.2904746948242187,0,0,1.225
2.682131607998599,0,0,1.3670891479492187,0,0,1.1484375
2.6836846669975785,0,0,1.2665326782226562,0,0,1.1484375
2.68515296699843,0,0,1.4700398193359374,0,0,0.8421875000000001
2.6867729329969734,0,0,1.2737152832031249,0,0,0.9187500000000001
2.6884117869994952,0,0,1.0319009155273438,0,0,0.765625
2.689904957998806,0,0,1.3934253662109375,0,0,0.5359375000000001
2.6913710359986,0,0,1.2330138549804688,0,0,832.5406250000001
2.693044148996705,0,0,1.426944189453125,0,0,0.6890625
2.6946704479996697,0,0,1.5801730957031248,0,0,0.9953125
2.6961920439971436,0,0,1.2713210815429687,0,0,1.0718750000000001
2.697669251996558,0,0,1.2641384765625,0,0,0.6890625
2.6993264029988495,0,0,1.2401964599609374,0,0,0.765625
2.7008805539990135,0,0,1.4341267944335936,0,0,1.3015625000000002
2.7023497249974753,0,0,1.4341267944335936,0,0,1.0718750000000001
2.7038643399973807,0,0,1.5442600708007812,0,0,1.0718750000000001
2.7054417869985627,0,0,1.5921441040039062,0,0,0.765625
2.707067104998714,0,0,1.3263877197265623,0,0,1.0718750000000001
2.7085895339987474,0,0,1.1659762084960936,0,0,0.9187500000000001
2.710134389999439,0,0,1.4125789794921875,0,0,0.45937500000000003
2.7117302069964353,0,0,1.3862427612304686,0,0,0.0765625
2.7132900439974037,0,0,1.3263877197265623,0,0,0.30625
2.7148480099967855,0,0,1.5083470458984374,0,0,0.8421875000000001
2.716406253999594,0,0,1.2018892333984375,0,0,0.5359375000000001
2.7180308679999143,0,0,1.2521674682617188,0,0,0.6125
2.719758943996567,0,0,1.209071838378906,0,0,0.6125
2.7213349099984043,0,0,1.235408056640625,0,0,0.0765625
2.722911671997281,0,0,1.3407529296874998,0,0,0.30625
2.7246501549998356,0,0,1.5897499023437498,0,0,0.6890625
2.726242787997762,0,0,1.1707646118164061,0,0,0.6125
2.72784238299937,0,0,1.1611878051757811,0,0,0.6890625
2.7295365709978796,0,0,1.3263877197265623,0,0,1.0718750000000001
2.7311860179979703,0,0,1.4053963745117186,0,0,0.765625
2.7327782429965737,0,0,1.2928688964843749,0,0,1.0718750000000001
2.7342812279966893,0,0,1.4772224243164063,0,0,0.6125
2.7357782869985385,0,0,1.3862427612304686,0,0,1.0718750000000001
2.737370586997713,0,0,1.4915876342773438,0,0,0.8421875000000001
2.7389640339970356,0,0,1.3311761230468748,0,0,0.9187500000000001
2.740479833999416,0,0,1.3623007446289062,0,0,0.8421875000000001
2.7419923009983904,0,0,1.426944189453125,0,0,0.30625
2.743537785998342,0,0,1.2473790649414063,0,0,0.9187500000000001
2.7451221589981287,0,0,1.5969325073242187,0,0,0.6125
2.746631903999514,0,0,1.3311761230468748,0,0,0.765625
2.748185221997119,0,0,1.0630255371093749,0,0,0.9187500000000001
2.749700947999372,0,0,1.3646949462890625,0,0,0.45937500000000003
2.7515200969974103,0,0,1.2856862915039062,0,0,-9.034375
2.753129747998173,0,0,1.3575123413085937,0,0,0.30625
2.754673361996538,0,0,1.4413093994140624,0,0,0.8421875000000001
2.756146532999992,0,0,1.2952630981445312,0,0,0.9187500000000001
2.75799790399833,0,0,1.1420341918945311,0,0,0.8421875000000001
2.759759145999851,0,0,1.2689268798828124,0,0,0.5359375000000001
2.761312945996906,0,0,1.3407529296874998,0,0,832.69375
2.7634488319999946,0,0,1.3407529296874998,0,0,0.22968750000000002
2.7651597039985063,0,0,1.6017209106445311,0,0,0.6125
2.7667417809971084,0,0,1.3311761230468748,0,0,0.8421875000000001
2.768287580998731,0,0,1.189918225097656,0,0,0.9187500000000001
2.770065637996595,0,0,1.4221557861328125,0,0,0.45937500000000003
2.771775583998533,0,0,1.4820108276367188,0,0,0.0
2.773242235998623,0,0,1.4173673828125,0,0,0.5359375000000001
2.7749269789965183,0,0,1.5298948608398437,0,0,0.6890625
2.776530648996413,0,0,1.1611878051757811,0,0,0.5359375000000001
2.7780789299977187,0,0,1.0917559570312498,0,0,0.45937500000000003
2.7801946499967016,0,0,1.3048399047851562,0,0,0.5359375000000001
2.781834670997341,0,0,1.455674609375,0,0,0.0
2.7834134709992213,0,0,1.235408056640625,0,0,0.6890625
2.78488608599946,0,0,1.5658078857421873,0,0,0.3828125
2.786414996997337,0,0,1.3096283081054687,0,0,0.6125
2.788243867998972,0,0,1.0917559570312498,0,0,0.6125
2.789768815997377,0,0,1.369483349609375,0,0,1.1484375
2.7913073189993156,0,0,1.4700398193359374,0,0,1.3015625000000002
2.7928388779982924,0,0,1.3527239379882812,0,0,0.8421875000000001
2.7944956769970304,0,0,1.4508862060546874,0,0,0.6125
2.7961037719978776,0,0,1.2952630981445312,0,0,1.0718750000000001
2.7976302389979537,0,0,1.4125789794921875,0,0,0.6125
2.799274703997071,0,0,1.3431471313476562,0,0,0.9187500000000001
2.8008860039990395,0,0,1.3311761230468748,0,0,0.9953125
2.802433247998124,0,0,1.3934253662109375,0,0,1.1484375
2.803990509997675,0,0,1.3431471313476562,0,0,0.6890625
2.806192932999693,0,0,1.3311761230468748,0,0,0.6890625
2.8082955239988223,0,0,1.1252747802734375,0,0,0.9187500000000001
2.8099252119973244,0,0,1.35990654296875,0,0,0.8421875000000001
2.8113889009982813,0,0,1.2306196533203124,0,0,832.6171875000001
2.813598786997318,0,0,1.419761584472656,0,0,0.9187500000000001
2.8154939159976493,0,0,1.7884686401367187,0,0,0.9187500000000001
2.8172233259974746,0,0,1.3934253662109375,0,0,0.8421875000000001
2.818707236998307,0,0,1.20667763671875,0,0,0.8421875000000001
2.82025427699773,0,0,1.218648645019531,0,0,0.6125
2.82185333599773,0,0,1.5801730957031248,0,0,832.8468750000001
2.8234113579965197,0,0,1.5059528442382812,0,0,0.30625
2.8249242319980112,0,0,1.6112977172851561,0,0,0.8421875000000001
2.8265478089997487,0,0,1.3623007446289062,0,0,1.0718750000000001
2.828120014997694,0,0,1.0917559570312498,0,0,0.8421875000000001
2.8296926299990446,0,0,1.3575123413085937,0,0,0.9953125
2.831357131999539,0,0,1.3407529296874998,0,0,1.1484375
2.832996541998,0,0,1.5155296508789062,0,0,0.5359375000000001
2.834577322999394,0,0,1.3168109130859373,0,0,0.765625
2.8361652699968545,0,0,1.3120225097656248,0,0,0.8421875000000001
2.8377003479981795,0,0,1.2401964599609374,0,0,0.765625
2.8392829619988333,0,0,1.3958195678710936,0,0,0.5359375000000001
2.8409101869983715,0,0,1.35990654296875,0,0,0.3828125
2.84247005999714,0,0,1.3766659545898436,0,0,0.765625
2.8440055079991,0,0,1.438915197753906,0,0,0.765625
2.8454701979972015,0,0,1.7238251953125,0,0,0.9187500000000001
2.8470132569964335,0,0,1.3958195678710936,0,0,0.6890625
2.848614666996582,0,0,1.139639990234375,0,0,0.8421875000000001
2.850203132999013,0,0,1.2569558715820313,0,0,0.9187500000000001
2.851907227999618,0,0,1.4700398193359374,0,0,-9.49375
2.8536117109979386,0,0,1.3838485595703125,0,0,0.5359375000000001
2.8552005289966473,0,0,1.6831237670898436,0,0,0.5359375000000001
2.8567439029975503,0,0,1.2641384765625,0,0,0.9953125
2.8584537929964426,0,0,1.0797849487304687,0,0,0.6890625
2.8600262959989777,0,0,1.3311761230468748,0,0,0.765625
2.8615588739994564,0,0,1.2713210815429687,0,0,1.6843750000000002
2.8632855609976104,0,0,1.465251416015625,0,0,0.153125
2.864959803999227,0,0,1.618480322265625,0,0,0.9953125
2.8665560849985923,0,0,1.2330138549804688,0,0,1.378125
2.8681823089973477,0,0,1.180341418457031,0,0,0.8421875000000001
2.8699131259963906,0,0,1.3144167114257812,0,0,0.9187500000000001
2.872081456996966,0,0,1.5107412475585937,0,0,0.0
2.8737386259999766,0,0,1.4245499877929686,0,0,0.30625
2.8755125159987074,0,0,1.5346832641601562,0,0,0.8421875000000001
2.87716809199992,0,0,1.3359645263671873,0,0,0.765625
2.8787092069978826,0,0,1.0893617553710937,0,0,0.9953125
2.8804181899977266,0,0,1.2737152832031249,0,0,0.30625
2.8821962279980653,0,0,1.3910311645507811,0,0,832.69375
2.883834341999318,0,0,1.3383587280273437,0,0,0.6890625
2.8854939919983735,0,0,1.6519991455078125,0,0,0.9953125
2.887123475997214,0,0,1.3766659545898436,0,0,0.8421875000000001
2.8886670349966153,0,0,1.2210428466796874,0,0,0.6125
2.8903645369973674,0,0,1.2497732666015624,0,0,0.3828125
2.8923015739965194,0,0,1.446097802734375,0,0,832.8468750000001
2.893971112996951,0,0,1.2904746948242187,0,0,0.6125
2.8956412259976787,0,0,1.5634136840820312,0,0,0.6125
2.8972443959974044,0,0,1.3527239379882812,0,0,0.6890625
2.898793565997039,0,0,1.2234370483398436,0,0,0.765625
2.900510678999126,0,0,1.3766659545898436,0,0,0.5359375000000001
2.902087088998087,0,0,1.4963760375976562,0,0,0.22968750000000002
2.9042818829984753,0,0,1.3168109130859373,0,0,0.8421875000000001
2.9061737159972836,0,0,1.3192051147460937,0,0,0.6890625
2.907723607997468,0,0,1.2856862915039062,0,0,1.1484375
2.909307962996536,0,0,1.2808978881835937,0,0,0.8421875000000001
2.910996835998958,0,0,1.350329736328125,0,0,0.9953125
2.9126583749966812,0,0,1.5131354492187499,0,0,0.9953125
2.91424304499742,0,0,1.3024457031249999,0,0,0.9953125
2.915998916996614,0,0,1.37906015625,0,0,0.9187500000000001
2.9175352719976217,0,0,1.3718775512695311,0,0,0.9953125
2.919065108999348,0,0,1.1755530151367186,0,0,0.6125
2.920616722996783,0,0,1.2904746948242187,0,0,0.5359375000000001
2.9223979099988355,0,0,1.3742717529296875,0,0,832.8468750000001
2.923881190999964,0,0,1.3742717529296875,0,0,0.9187500000000001
2.925428138998541,0,0,1.7286135986328124,0,0,1.0718750000000001
2.9269373469978746,0,0,1.3431471313476562,0,0,0.5359375000000001
2.9284077209995303,0,0,1.2401964599609374,0,0,0.3828125
2.929929224999796,0,0,1.2880804931640624,0,0,0.6890625
2.9314573949995975,0,0,1.3311761230468748,0,0,1.225
2.932924250999349,0,0,1.3575123413085937,0,0,1.4546875000000001
2.934628419996443,0,0,1.2425906616210938,0,0,0.9187500000000001
2.936214570996526,0,0,1.350329736328125,0,0,0.9953125
2.937834906999342,0,0,1.218648645019531,0,0,0.6125
2.9393898919988715,0,0,1.2928688964843749,0,0,0.765625
2.9409348029985267,0,0,1.2521674682617188,0,0,0.3828125
2.942583341999125,0,0,1.3000515014648437,0,0,0.0
2.944156530997134,0,0,1.3910311645507811,0,0,0.8421875000000001
2.9459654389975185,0,0,1.4149731811523436,0,0,1.0718750000000001
2.9477103849967534,0,0,1.3431471313476562,0,0,0.9953125
2.949302072996943,0,0,1.3000515014648437,0,0,0.5359375000000001
2.9508433359987976,0,0,1.3000515014648437,0,0,0.5359375000000001
2.9524757269973634,0,0,1.438915197753906,0,0,0.8421875000000001
2.954395818997,0,0,1.2737152832031249,0,0,1.0718750000000001
2.9560592849993554,0,0,1.4245499877929686,0,0,1.1484375
2.9577363789976516,0,0,1.3335703247070312,0,0,1.1484375
2.95928425299644,0,0,1.1755530151367186,0,0,0.6125
2.9608272749974276,0,0,1.3646949462890625,0,0,0.45937500000000003
2.9626102019974496,0,0,1.4101847778320311,0,0,0.0
2.964245500999823,0,0,1.2737152832031249,0,0,1.3015625000000002
2.9660262429970317,0,0,1.4867992309570313,0,0,0.9953125
2.9677837259987427,0,0,1.2521674682617188,0,0,1.3015625000000002
2.969419116998324,0,0,1.3383587280273437,0,0,0.9187500000000001
2.9708911029993033,0,0,1.426944189453125,0,0,0.8421875000000001
2.972485364996828,0,0,1.4867992309570313,0,0,1.6843750000000002
2.974879081997642,0,0,1.5945383056640625,0,0,0.9953125
2.976415029999771,0,0,1.3646949462890625,0,0,1.225
2.978074717997515,0,0,1.2785036865234374,0,0,0.6890625
2.9796631279969006,0,0,1.2641384765625,0,0,0.9187500000000001
2.9812467789997754,0,0,1.2737152832031249,0,0,0.765625
2.9830069659983565,0,0,1.3742717529296875,0,0,1.378125
2.984674356997857,0,0,1.3359645263671873,0,0,1.0718750000000001
2.9862121939986537,0,0,1.35990654296875,0,0,1.1484375
2.9877245129973744,0,0,1.3168109130859373,0,0,1.225
2.989329829997587,0,0,1.1755530151367186,0,0,0.6890625
2.9909313329990255,0,0,1.235408056640625,0,0,0.45937500000000003
2.9924037079981645,0,0,1.3670891479492187,0,0,0.0
2.9939990249986295,0,0,1.3215993164062498,0,0,0.30625
2.99560569499954,0,0,1.5514426757812498,0,0,0.6890625
2.9973104189994046,0,0,1.2497732666015624,0,0,0.6125
2.9987944229978893,0,0,1.3766659545898436,0,0,0.765625
3.0002567049996287,0,0,1.3096283081054687,0,0,0.6890625
3.001767652996932,0,0,1.3718775512695311,0,0,1.225
3.003624412998761,0,0,1.5059528442382812,0,0,0.765625
3.005379895999795,0,0,1.6256629272460936,0,0,0.765625
3.0068910289992345,0,0,1.2689268798828124,0,0,0.9953125
3.0085316609984147,0,0,1.2497732666015624,0,0,0.5359375000000001
3.010067719998915,0,0,1.369483349609375,0,0,0.765625
3.0115354099980323,0,0,1.2976572998046874,0,0,1.0718750000000001
3.013116171998263,0,0,1.446097802734375,0,0,1.3015625000000002
3.014651989997219,0,0,1.37906015625,0,0,0.9953125
3.016330066999217,0,0,1.407790576171875,0,0,1.0718750000000001
3.0180744379977114,0,0,1.3000515014648437,0,0,1.0718750000000001
3.0196639969981334,0,0,1.149216796875,0,0,0.8421875000000001
3.0212112039989734,0,0,1.3072341064453123,0,0,0.9187500000000001
3.0231549629970687,0,0,1.4508862060546874,0,0,1.0718750000000001
3.024859427998308,0,0,1.5849614990234373,0,0,0.8421875000000001
3.0265432999985933,0,0,1.3934253662109375,0,0,0.9187500000000001
3.0282688199986296,0,0,1.3215993164062498,0,0,0.6890625
3.029814693996741,0,0,1.16837041015625,0,0,0.5359375000000001
3.031384159996378,0,0,1.2593500732421874,0,0,1.1484375
3.0331221249980445,0,0,1.4724340209960938,0,0,1.3015625000000002
3.0347645899964846,0,0,1.3670891479492187,0,0,1.0718750000000001
3.036354648997076,0,0,1.438915197753906,0,0,0.9953125
3.03789461499764,0,0,1.3958195678710936,0,0,0.8421875000000001
3.0393628049969266,0,0,1.2234370483398436,0,0,0.45937500000000003
3.0408840860000055,0,0,1.2425906616210938,0,0,0.6125
3.0428269739968528,0,0,1.4341267944335936,0,0,0.3828125
3.0443924959981814,0,0,1.2641384765625,0,0,1.1484375
3.0460974979978346,0,0,1.4987702392578124,0,0,1.0718750000000001
3.04779564799901,0,0,1.3718775512695311,0,0,0.6125
3.0493324479975854,0,0,1.1611878051757811,0,0,0.765625
3.050799377997464,0,0,1.5059528442382812,0,0,0.765625
3.0522615679983574,0,0,1.3646949462890625,0,0,0.9953125
3.0537642749986844,0,0,1.4149731811523436,0,0,0.3828125
3.0553592779979226,0,0,1.5777788940429687,0,0,0.5359375000000001
3.0571505009975226,0,0,1.2401964599609374,0,0,0.8421875000000001
3.0587981889984803,0,0,1.2617442749023438,0,0,0.5359375000000001
3.060387080997316,0,0,1.3000515014648437,0,0,0.8421875000000001
3.0621694149995164,0,0,1.2976572998046874,0,0,0.6125
3.0637651959987124,0,0,1.4915876342773438,0,0,0.22968750000000002
3.06536677299664,0,0,1.47482822265625,0,0,0.765625
3.0668460359993333,0,0,1.599326708984375,0,0,0.9953125
3.0685528899994097,0,0,1.3551181396484375,0,0,0.22968750000000002
3.0703156129966374,0,0,1.2928688964843749,0,0,0.765625
3.0718995049974183,0,0,1.37906015625,0,0,1.3015625000000002
3.07336645399846,0,0,1.4173673828125,0,0,1.0718750000000001
3.0751974359991436,0,0,1.5514426757812498,0,0,0.9953125
3.0770572329965944,0,0,1.180341418457031,0,0,0.9953125
3.078541699997004,0,0,1.3335703247070312,0,0,0.6890625
3.0800568889972055,0,0,1.3263877197265623,0,0,0.765625
3.081828519996634,0,0,1.3646949462890625,0,0,0.9953125
3.083393614997476,0,0,1.4532804077148436,0,0,1.225
3.085186652999255,0,0,1.4604630126953124,0,0,0.9953125
3.0868810069987376,0,0,1.3072341064453123,0,0,0.9953125
3.08848039899749,0,0,1.3623007446289062,0,0,0.5359375000000001
3.0904286759978277,0,0,1.3910311645507811,0,0,0.765625
3.09201195699643,0,0,1.3215993164062498,0,0,1.1484375
3.093485627996415,0,0,1.4604630126953124,0,0,1.4546875000000001
3.0950232059985865,0,0,1.465251416015625,0,0,0.9187500000000001
3.096660763996624,0,0,1.6160861206054686,0,0,0.9187500000000001
3.098210822998226,0,0,1.3455413330078123,0,0,0.9187500000000001
3.1009001479978906,0,0,1.3168109130859373,0,0,0.765625
3.1028788879993954,0,0,1.467645617675781,0,0,0.0
3.1050067379983375,0,0,1.4245499877929686,0,0,1.3015625000000002
3.1068446269964625,0,0,1.455674609375,0,0,1.1484375
3.108503777999431,0,0,1.448492004394531,0,0,0.765625
3.1101868169971567,0,0,1.2904746948242187,0,0,0.9187500000000001
3.11199865099843,0,0,1.2832920898437499,0,0,1.4546875000000001
3.113614764999511,0,0,1.4987702392578124,0,0,1.1484375
3.115402876999724,0,0,1.484405029296875,0,0,0.6890625
3.117147118999128,0,0,1.1923124267578125,0,0,0.9187500000000001
3.1187801029991533,0,0,1.3144167114257812,0,0,0.6125
3.120295624998107,0,0,1.3670891479492187,0,0,0.9953125
3.1220764409990807,0,0,1.3766659545898436,0,0,1.225
3.123774590996618,0,0,1.4437036010742186,0,0,0.9953125
3.1253443169989623,0,0,1.5035586425781249,0,0,0.765625
3.126934023999638,0,0,1.2234370483398436,0,0,1.3015625000000002
3.128575507998903,0,0,1.2904746948242187,0,0,0.6125
3.130151602999831,0,0,1.2665326782226562,0,0,0.8421875000000001
3.131787753998651,0,0,1.2761094848632812,0,0,1.4546875000000001
3.1333159239984525,0,0,1.4532804077148436,0,0,0.6890625
3.1347845019990928,0,0,1.3766659545898436,0,0,1.0718750000000001
3.1363888569976552,0,0,1.5490484741210937,0,0,0.765625
3.1379332679971412,0,0,1.3455413330078123,0,0,0.8421875000000001
3.139414493998629,0,0,1.1707646118164061,0,0,0.45937500000000003
3.1409288679969904,0,0,1.2904746948242187,0,0,0.5359375000000001
3.14258548199723,0,0,1.2689268798828124,0,0,0.30625
3.144055059998209,0,0,1.4341267944335936,0,0,0.9187500000000001
3.1455114719974517,0,0,1.458068811035156,0,0,0.6125
3.1473128619982162,0,0,1.2569558715820313,0,0,0.6890625
3.1488065689991345,0,0,1.3120225097656248,0,0,0.9187500000000001
3.1502819989982527,0,0,1.2832920898437499,0,0,0.6125
3.1517665769970336,0,0,1.24498486328125,0,0,0.6890625
3.153367431998049,0,0,1.4317325927734375,0,0,1.0718750000000001
3.1549081949997344,0,0,1.5131354492187499,0,0,1.0718750000000001
3.1563783469973714,0,0,1.5634136840820312,0,0,1.225
3.157891202998144,0,0,1.4030021728515625,0,0,-9.034375
3.1594580019991554,0,0,1.0941501586914062,0,0,0.6125
3.1609858389965666,0,0,1.426944189453125,0,0,0.30625
3.162453139997524,0,0,1.2665326782226562,0,0,1.1484375
3.163954568997724,0,0,1.3192051147460937,0,0,0.6890625
3.16557538699999,0,0,1.4149731811523436,0,0,0.765625
3.167056390997459,0,0,1.2904746948242187,0,0,1.378125
3.168579746998148,0,0,1.3168109130859373,0,0,0.9953125
3.1701281199966616,0,0,1.3263877197265623,0,0,1.0718750000000001
3.171702715997526,0,0,1.369483349609375,0,0,0.6890625
3.173194089999015,0,0,1.43652099609375,0,0,-852.8296875000001
3.174754852996557,0,0,1.3407529296874998,0,0,0.765625
3.176342818998819,0,0,1.5418658691406248,0,0,0.9187500000000001
3.1779679139981454,0,0,1.3862427612304686,0,0,0.5359375000000001
3.179452084998047,0,0,1.1180921752929687,0,0,0.6125
3.1811197719980555,0,0,1.3359645263671873,0,0,0.30625
3.18285671799822,0,0,1.3718775512695311,0,0,0.0
3.184544627998548,0,0,1.4030021728515625,0,0,0.8421875000000001
3.186081464999006,0,0,1.4820108276367188,0,0,0.6890625
3.1876851709967013,0,0,1.2042834350585936,0,0,0.765625
3.1892126929997175,0,0,1.1228805786132812,0,0,0.6125
3.1906775119969097,0,0,1.2832920898437499,0,0,0.8421875000000001
3.1923136259974854,0,0,1.3910311645507811,0,0,1.0718750000000001
3.1938444069965044,0,0,1.5466542724609373,0,0,1.4546875000000001
3.195310929997504,0,0,1.3575123413085937,0,0,0.9953125
3.1968308779978543,0,0,1.5873557006835937,0,0,0.9187500000000001
3.198389140998188,0,0,1.4125789794921875,0,0,0.9187500000000001
3.199925680997694,0,0,1.254561669921875,0,0,0.8421875000000001
3.2013904999985243,0,0,1.3000515014648437,0,0,0.6125
3.202894910999021,0,0,1.4987702392578124,0,0,9.4171875
3.2044833399995696,0,0,1.5059528442382812,0,0,0.30625
3.206006306998461,0,0,1.678335363769531,0,0,0.6125
3.2074718669973663,0,0,1.2593500732421874,0,0,0.9187500000000001
3.209010443999432,0,0,1.1635820068359375,0,0,0.5359375000000001
3.2106604099972174,0,0,1.3144167114257812,0,0,0.8421875000000001
3.2123739299968292,0,0,1.3958195678710936,0,0,0.9187500000000001
3.2139811369997915,0,0,1.3575123413085937,0,0,0.6125
3.215607934998843,0,0,1.5275006591796874,0,0,0.9187500000000001
3.217202919997362,0,0,1.2761094848632812,0,0,0.9953125
3.218830755999079,0,0,1.429338391113281,0,0,0.6890625
3.220440258999588,0,0,1.218648645019531,0,0,0.6890625
3.221917336999468,0,0,1.3215993164062498,0,0,1.0718750000000001
3.2233791559992824,0,0,1.43652099609375,0,0,1.1484375
3.2249739739963843,0,0,1.467645617675781,0,0,0.8421875000000001
3.2266233089976595,0,0,1.6017209106445311,0,0,0.9187500000000001
3.228276718997222,0,0,1.369483349609375,0,0,0.8421875000000001
3.2299403509969125,0,0,1.2593500732421874,0,0,0.6890625
3.2315803909987153,0,0,1.3623007446289062,0,0,0.3828125
3.2331440609996207,0,0,1.448492004394531,0,0,0.22968750000000002
3.2347960069964756,0,0,1.235408056640625,0,0,0.8421875000000001
3.23639834399728,0,0,1.5729904907226562,0,0,0.765625
3.237950105998607,0,0,1.419761584472656,0,0,0.6890625
3.2394230359968788,0,0,1.0821791503906248,0,0,0.6125
3.241228462997242,0,0,1.3527239379882812,0,0,0.30625
3.2428693909969297,0,0,1.3120225097656248,0,0,0.153125
3.2443486919983116,0,0,1.3575123413085937,0,0,0.6125
3.246163414998591,0,0,1.6065093139648436,0,0,0.9187500000000001
3.2478059729983215,0,0,1.2904746948242187,0,0,0.9953125
3.2493889949982986,0,0,1.1923124267578125,0,0,0.9187500000000001
3.250860942996951,0,0,1.2785036865234374,0,0,0.9187500000000001
3.2526197219995083,0,0,1.2641384765625,0,0,0.6890625
3.2542156879972026,0,0,1.3575123413085937,0,0,0.30625
3.255744802998379,0,0,1.254561669921875,0,0,0.765625
3.2572140659976867,0,0,1.235408056640625,0,0,0.9187500000000001
3.2589278829982504,0,0,1.1085153686523437,0,0,0.8421875000000001
3.260544125998422,0,0,1.2473790649414063,0,0,0.765625
3.262081203996786,0,0,1.2976572998046874,0,0,1.1484375
3.263712594998651,0,0,1.5107412475585937,0,0,1.3015625000000002
3.265300283997931,0,0,1.37906015625,0,0,1.0718750000000001
3.266869434999535,0,0,1.66636435546875,0,0,0.8421875000000001
3.2684055129975604,0,0,1.4413093994140624,0,0,0.9187500000000001
3.2699718679978105,0,0,1.2761094848632812,0,0,0.6890625
3.271798015997774,0,0,1.3024457031249999,0,0,0.765625
3.2734108149998065,0,0,1.3862427612304686,0,0,0.3828125
3.2749008939972555,0,0,1.3455413330078123,0,0,0.9187500000000001
3.276387193996925,0,0,1.6112977172851561,0,0,0.9953125
3.278247434998775,0,0,1.3646949462890625,0,0,0.6890625
3.2799010669987183,0,0,1.2785036865234374,0,0,0.6125
3.28137168199828,0,0,1.2856862915039062,0,0,0.8421875000000001
3.283127627997601,0,0,1.467645617675781,0,0,0.0
3.2847417229968414,0,0,1.4053963745117186,0,0,0.3828125
3.286339873997349,0,0,1.5777788940429687,0,0,0.765625
3.2878270269975474,0,0,1.3048399047851562,0,0,0.6125
3.289569564996782,0,0,1.1180921752929687,0,0,1.0718750000000001
3.291350491999765,0,0,1.3072341064453123,0,0,0.6890625
3.2929313289969286,0,0,1.3958195678710936,0,0,0.0
3.2945806459974847,0,0,1.4604630126953124,0,0,0.22968750000000002
3.296140574999299,0,0,1.6807295654296874,0,0,0.5359375000000001
3.29767724499834,0,0,1.3670891479492187,0,0,0.6125
3.2991473599977326,0,0,1.209071838378906,0,0,1.0718750000000001
3.300623030998395,0,0,1.2785036865234374,0,0,0.45937500000000003
3.302173515996401,0,0,1.2904746948242187,0,0,1.4546875000000001
3.3037072049992275,0,0,1.3551181396484375,0,0,1.4546875000000001
3.3053132819986786,0,0,1.3862427612304686,0,0,1.1484375
3.306935895998322,0,0,1.3862427612304686,0,0,0.9187500000000001
3.30860006399962,0,0,1.3072341064453123,0,0,1.1484375
3.3100784759990347,0,0,1.3311761230468748,0,0,1.0718750000000001
3.3115410539976438,0,0,1.2521674682617188,0,0,0.765625
3.3130849469998793,0,0,1.467645617675781,0,0,0.0
3.3146120059973327,0,0,1.4317325927734375,0,0,0.45937500000000003
3.316086157999962,0,0,1.5514426757812498,0,0,0.45937500000000003
3.3178492889965128,0,0,1.2952630981445312,0,0,0.45937500000000003
3.319638771998143,0,0,1.0989385620117187,0,0,0.45937500000000003
3.321180237999215,0,0,1.2282254516601563,0,0,0.3828125
3.3226450759975705,0,0,1.4915876342773438,0,0,0.8421875000000001
3.3241356719991018,0,0,1.4053963745117186,0,0,0.6125
3.3259116179979173,0,0,1.5634136840820312,0,0,0.5359375000000001
3.327719321998302,0,0,1.2521674682617188,0,0,0.9187500000000001
3.3296009709993086,0,0,1.1659762084960936,0,0,0.5359375000000001
3.3314075079979375,0,0,1.3431471313476562,0,0,0.8421875000000001
3.3330977509976947,0,0,1.4173673828125,0,0,0.0
3.3347644199966453,0,0,1.5179238525390624,0,0,0.153125
3.336294775999704,0,0,1.5969325073242187,0,0,0.765625
3.338081739999325,0,0,1.2737152832031249,0,0,0.8421875000000001
3.339845851998689,0,0,1.1923124267578125,0,0,0.765625
3.3413556889972824,0,0,1.3527239379882812,0,0,0.30625
3.343066375997296,0,0,1.4437036010742186,0,0,0.0
3.344539787998656,0,0,1.5107412475585937,0,0,0.153125
3.3460801989967877,0,0,1.599326708984375,0,0,0.6890625
3.347947253998427,0,0,1.455674609375,0,0,1.0718750000000001
3.349507923998317,0,0,1.0845733520507812,0,0,0.5359375000000001
3.351079778996791,0,0,1.419761584472656,0,0,0.9953125
3.352726133998658,0,0,1.2785036865234374,0,0,1.0718750000000001
3.354351839996525,0,0,1.455674609375,0,0,0.6125
3.3558465109999815,0,0,1.2952630981445312,0,0,0.765625
3.3574139949996606,0,0,1.2904746948242187,0,0,1.0718750000000001
3.358967998996377,0,0,1.199495031738281,0,0,1.378125
3.360619130999112,0,0,1.3742717529296875,0,0,1.1484375
3.36209335699823,0,0,1.3670891479492187,0,0,0.6125
3.3636292119990685,0,0,1.4245499877929686,0,0,0.9187500000000001
3.365227085996594,0,0,1.3144167114257812,0,0,1.1484375
3.3668291439971654,0,0,1.6448165405273436,0,0,1.0718750000000001
3.3683541849968606,0,0,1.3407529296874998,0,0,0.6890625
3.3698544289982237,0,0,1.189918225097656,0,0,0.45937500000000003
3.3713878959970316,0,0,1.4030021728515625,0,0,0.6125
3.372974546997284,0,0,1.4053963745117186,0,0,0.22968750000000002
3.374510494999413,0,0,1.446097802734375,0,0,0.5359375000000001
3.3760744979990704,0,0,1.5945383056640625,0,0,0.765625
3.3776027979984065,0,0,1.2425906616210938,0,0,1.0718750000000001
3.3790732649977144,0,0,1.218648645019531,0,0,0.9187500000000001
3.380581250999967,0,0,1.3120225097656248,0,0,0.765625
3.3822465859993827,0,0,1.2138602416992186,0,0,0.765625
3.3838545699982205,0,0,1.4437036010742186,0,0,0.8421875000000001
3.38533335199827,0,0,1.3646949462890625,0,0,1.0718750000000001
3.386961391999648,0,0,1.2856862915039062,0,0,0.9953125
3.3885937459999695,0,0,1.2785036865234374,0,0,1.1484375
3.3901668789985706,0,0,1.3838485595703125,0,0,1.0718750000000001
3.3916566609987058,0,0,1.3575123413085937,0,0,-8.957812500000001
3.3932567379997636,0,0,1.4724340209960938,0,0,-852.8296875000001
3.3949547209995217,0,0,1.3862427612304686,0,0,0.8421875000000001
3.396579149997706,0,0,1.5562310791015623,0,0,0.9953125
3.3981734679982765,0,0,1.2928688964843749,0,0,1.0718750000000001
3.3997521739984222,0,0,1.218648645019531,0,0,0.45937500000000003
3.4012564929980726,0,0,1.369483349609375,0,0,0.6125
3.402820958999655,0,0,1.2617442749023438,0,0,0.8421875000000001
3.4044396839999536,0,0,1.4987702392578124,0,0,0.3828125
3.4059722619967943,0,0,1.6807295654296874,0,0,0.9953125
3.4075118209984794,0,0,1.3096283081054687,0,0,0.9187500000000001
3.4091608229973644,0,0,1.180341418457031,0,0,0.9187500000000001
3.4107493629999226,0,0,1.2689268798828124,0,0,0.765625
3.4122601999988547,0,0,1.350329736328125,0,0,0.9187500000000001
3.413773111999035,0,0,1.4700398193359374,0,0,1.3015625000000002
3.4153366519967676,0,0,1.407790576171875,0,0,0.9953125
3.416935413999454,0,0,1.3910311645507811,0,0,0.9953125
3.4184173249996093,0,0,1.4101847778320311,0,0,1.1484375
3.4199215519984136,0,0,1.2689268798828124,0,0,0.765625
3.421481406996463,0,0,1.3479355346679687,0,0,0.9187500000000001
3.4229847069982497,0,0,1.4006079711914061,0,0,0.9953125
3.4245739879988832,0,0,1.5011644409179687,0,0,0.5359375000000001
3.426372691999859,0,0,1.6927005737304686,0,0,0.765625
3.428087397998752,0,0,1.2880804931640624,0,0,0.6125
3.431008720999671,0,0,1.2928688964843749,0,0,0.45937500000000003
3.432613834997028,0,0,1.2737152832031249,0,0,1.6078125
3.434272984999552,0,0,1.455674609375,0,0,1.0718750000000001
3.4358324329987227,0,0,1.3862427612304686,0,0,0.45937500000000003
3.4378036919988517,0,0,1.4820108276367188,0,0,0.765625
3.4394243429997005,0,0,1.0965443603515623,0,0,0.6125
3.4412501769984374,0,0,1.3742717529296875,0,0,0.765625
3.4429204749976634,0,0,1.37906015625,0,0,0.3828125
3.4444439049984794,0,0,1.4053963745117186,0,0,1.1484375
3.445991944998241,0,0,1.6927005737304686,0,0,0.8421875000000001
3.4475107449979987,0,0,1.3958195678710936,0,0,1.0718750000000001
3.449111488997005,0,0,1.2330138549804688,0,0,0.765625
3.4506992699971306,0,0,1.3215993164062498,0,0,0.6125
3.452280012999836,0,0,1.3527239379882812,0,0,0.5359375000000001
3.453796442998282,0,0,1.2856862915039062,0,0,0.45937500000000003
3.4552640579968283,0,0,1.3287819213867187,0,0,1.378125
3.4567863949996536,0,0,1.5849614990234373,0,0,1.225
3.4584208419983042,0,0,1.369483349609375,0,0,0.45937500000000003
3.460225194998202,0,0,1.22583125,0,0,0.9187500000000001
3.4617236429985496,0,0,1.2952630981445312,0,0,0.6125
3.4633072759970673,0,0,1.4053963745117186,0,0,0.0
3.4650692399991385,0,0,1.37906015625,0,0,0.5359375000000001
3.4666592059984396,0,0,1.5825672973632812,0,0,0.8421875000000001
3.4683627639969927,0,0,1.3623007446289062,0,0,0.9953125
3.4701866899995366,0,0,1.22583125,0,0,0.9953125
3.4718883029963763,0,0,1.2904746948242187,0,0,0.6125
3.4734472509990155,0,0,1.3479355346679687,0,0,0.9953125
3.47587987499719,0,0,1.3383587280273437,0,0,0.8421875000000001
3.4775551369966706,0,0,1.4221557861328125,0,0,0.765625
3.479186768996442,0,0,1.2401964599609374,0,0,0.8421875000000001
3.4806725319976977,0,0,1.16837041015625,0,0,0.6890625
3.4821343139992678,0,0,1.3623007446289062,0,0,0.3828125
3.4837314279975544,0,0,1.3934253662109375,0,0,0.45937500000000003
3.4853286349971313,0,0,1.2976572998046874,0,0,0.765625
3.486817508997774,0,0,1.5945383056640625,0,0,0.8421875000000001
3.488284309998562,0,0,1.3479355346679687,0,0,1.1484375
3.489810757997475,0,0,1.2952630981445312,0,0,0.8421875000000001
3.4914125939976657,0,0,1.3575123413085937,0,0,1.1484375
3.4929709679963707,0,0,1.429338391113281,0,0,1.53125
3.4944396389983012,0,0,1.4508862060546874,0,0,0.9187500000000001
3.495946475999517,0,0,1.6304513305664061,0,0,1.0718750000000001
3.4974975529985386,0,0,1.3024457031249999,0,0,0.8421875000000001
3.498976964998292,0,0,1.254561669921875,0,0,0.9187500000000001
3.5004384879975987,0,0,1.2617442749023438,0,0,0.8421875000000001
3.5019419909986027,0,0,1.3479355346679687,0,0,0.3828125
3.503638066998974,0,0,1.458068811035156,0,0,832.6171875000001
3.5051827559982485,0,0,1.3814543579101561,0,0,0.5359375000000001
3.5066521679982543,0,0,1.7357962036132812,0,0,2.3734375
3.5082687999965856,0,0,1.3407529296874998,0,0,0.6890625
3.509853524999926,0,0,1.2521674682617188,0,0,0.6125
3.5113222149993817,0,0,1.3192051147460937,0,0,0.6125
3.5133225649988162,0,0,1.369483349609375,0,0,0.0
3.5150275489977503,0,0,1.3192051147460937,0,0,0.30625
3.516511404999619,0,0,1.6112977172851561,0,0,0.8421875000000001
3.51810127799763,0,0,1.2593500732421874,0,0,0.6125
3.5207109749972005,0,0,1.1563994018554686,0,0,0.9953125
3.5225514939993445,0,0,1.2641384765625,0,0,1.225
3.524943414999143,0,0,1.3120225097656248,0,0,0.0
3.5268266559978656,0,0,1.8171990600585937,0,0,0.6890625
3.5290948929978185,0,0,1.2856862915039062,0,0,1.0718750000000001
3.5312511129995983,0,0,1.3742717529296875,0,0,0.765625
3.5331546679990424,0,0,1.4221557861328125,0,0,0.8421875000000001
3.5349320949972025,0,0,1.2808978881835937,0,0,0.8421875000000001
3.5373109049978666,0,0,1.4149731811523436,0,0,1.0718750000000001
3.538998203999654,0,0,1.2497732666015624,0,0,0.8421875000000001
3.5404854109983717,0,0,1.2282254516601563,0,0,0.9953125
3.541942007999751,0,0,1.3431471313476562,0,0,0.6125
3.5438916189996235,0,0,1.2401964599609374,0,0,0.0
3.5454112889965472,0,0,1.2521674682617188,0,0,0.9187500000000001
3.5468742749981175,0,0,1.637633935546875,0,0,0.9187500000000001
3.5492642699973658,0,0,1.1851298217773436,0,0,0.9187500000000001
3.5507907179999165,0,0,1.1755530151367186,0,0,0.6890625
3.552511071997287,0,0,1.4796166259765624,0,0,0.765625
3.55415429599816,0,0,1.4341267944335936,0,0,1.1484375
3.5556875039983424,0,0,1.3239935180664062,0,0,1.0718750000000001
3.5572060809972754,0,0,1.4221557861328125,0,0,0.9187500000000001
3.5589241389970994,0,0,1.2641384765625,0,0,0.9187500000000001
3.5604100319978897,0,0,1.2114660400390624,0,0,0.5359375000000001
3.561873905997345,0,0,1.350329736328125,0,0,0.765625
3.56342620599753,0,0,1.4030021728515625,0,0,0.0
3.565076467999461,0,0,1.2569558715820313,0,0,0.45937500000000003
3.566614896997635,0,0,1.4413093994140624,0,0,0.6890625
3.5681737889972283,0,0,1.2832920898437499,0,0,0.9953125
3.5697033849974105,0,0,1.3455413330078123,0,0,0.6890625
3.571438645998569,0,0,1.2282254516601563,0,0,0.765625
3.5732417209983396,0,0,1.35990654296875,0,0,0.765625
3.5747654469996633,0,0,1.5322890624999999,0,0,0.5359375000000001
3.5765295039964258,0,0,1.6543933471679686,0,0,0.6125
3.5781953759978933,0,0,1.2473790649414063,0,0,0.8421875000000001
3.5798617679974996,0,0,1.22583125,0,0,0.5359375000000001
3.581333956997696,0,0,1.3024457031249999,0,0,0.45937500000000003
3.582792534998589,0,0,1.2425906616210938,0,0,1.1484375
3.584337760999915,0,0,1.4796166259765624,0,0,1.1484375
3.585886523997033,0,0,1.2306196533203124,0,0,1.6078125
3.587345064999681,0,0,1.407790576171875,0,0,0.9953125
3.5889718079997692,0,0,1.2856862915039062,0,0,0.9953125
3.59062964399709,0,0,1.20667763671875,0,0,0.9953125
3.5921192779969715,0,0,1.3072341064453123,0,0,0.6890625
3.5937874089977413,0,0,1.4867992309570313,0,0,832.69375
3.595263672999863,0,0,1.3383587280273437,0,0,0.3828125
3.596789342998818,0,0,1.5538368774414062,0,0,0.9187500000000001
3.598660416999337,0,0,1.1133037719726562,0,0,0.8421875000000001
3.600263456999528,0,0,1.1707646118164061,0,0,0.765625
3.6018441829983203,0,0,1.5035586425781249,0,0,0.6890625
3.6034037779973005,0,0,1.3168109130859373,0,0,0.3828125
3.6049266709997028,0,0,1.3623007446289062,0,0,0.30625
3.6065342289984983,0,0,1.6065093139648436,0,0,0.6890625
3.608149139996385,0,0,1.2210428466796874,0,0,0.9953125
3.609672901999147,0,0,1.3359645263671873,0,0,0.6125
3.6111310919986863,0,0,1.3096283081054687,0,0,1.0718750000000001
3.6131360349972965,0,0,1.3862427612304686,0,0,0.3828125
3.6150096649980696,0,0,1.3407529296874998,0,0,0.30625
3.616599908997159,0,0,1.5921441040039062,0,0,0.6890625
3.618118523998419,0,0,1.2521674682617188,0,0,0.6125
3.6200951899991196,0,0,1.177947216796875,0,0,0.765625
3.6216403039979923,0,0,1.3766659545898436,0,0,0.765625
3.623218751999957,0,0,1.4245499877929686,0,0,0.6125
3.6248688279993075,0,0,1.4867992309570313,0,0,0.30625
3.6265096079987416,0,0,1.5514426757812498,0,0,0.6890625
3.628108147997409,0,0,1.2880804931640624,0,0,0.8421875000000001
3.6300114449986722,0,0,1.1827356201171875,0,0,0.8421875000000001
3.631616317998123,0,0,1.2761094848632812,0,0,0.6890625
3.6331874139978027,0,0,1.3311761230468748,0,0,1.3015625000000002
3.6347465839971846,0,0,1.4173673828125,0,0,0.9953125
3.636247235997871,0,0,1.7597382202148437,0,0,0.765625
3.637710665996565,0,0,1.4125789794921875,0,0,0.6125
3.639261224998336,0,0,1.3048399047851562,0,0,0.8421875000000001
3.6409185049997177,0,0,1.13006318359375,0,0,0.765625
3.642423693996534,0,0,1.3646949462890625,0,0,0.3828125
3.6439397529975395,0,0,1.419761584472656,0,0,0.8421875000000001
3.645547236999846,0,0,1.2282254516601563,0,0,0.9187500000000001
3.6470321489978232,0,0,1.4628572143554686,0,0,1.0718750000000001
3.648499578997871,0,0,1.2880804931640624,0,0,0.9953125
3.6500080269979662,0,0,1.1851298217773436,0,0,0.45937500000000003
3.651586566997139,0,0,1.216254443359375,0,0,0.9953125
3.6530717379973794,0,0,1.4532804077148436,0,0,1.1484375
3.6547766659969056,0,0,1.6065093139648436,0,0,0.9953125
3.6564762049965793,0,0,1.4891934326171874,0,0,0.6890625
3.6579938379982195,0,0,1.3215993164062498,0,0,0.9187500000000001
3.659933077997266,0,0,1.426944189453125,0,0,0.765625
3.6616596359999676,0,0,1.5227122558593749,0,0,0.765625
3.663228416997299,0,0,1.37906015625,0,0,0.153125
3.6651361389995145,0,0,1.3479355346679687,0,0,0.22968750000000002
3.666699178997078,0,0,1.6519991455078125,0,0,0.9187500000000001
3.668309255997883,0,0,1.2641384765625,0,0,1.0718750000000001
3.669847758999822,0,0,1.3168109130859373,0,0,0.6890625
3.671615852999821,0,0,1.2976572998046874,0,0,0.5359375000000001
3.6734085579992097,0,0,1.3838485595703125,0,0,-852.8296875000001
3.6751446519992896,0,0,1.3048399047851562,0,0,0.30625
3.676847375998477,0,0,1.6615759521484375,0,0,0.6890625
3.678467563997401,0,0,1.2856862915039062,0,0,0.9953125
3.680186009998579,0,0,1.218648645019531,0,0,0.6125
3.681652106999536,0,0,1.4221557861328125,0,0,0.5359375000000001
3.6832989799986535,0,0,1.3359645263671873,0,0,0.0
3.6852102569973795,0,0,1.3287819213867187,0,0,0.45937500000000003
3.6866937059967313,0,0,1.43652099609375,0,0,0.8421875000000001
3.688212653996743,0,0,1.3000515014648437,0,0,0.3828125
3.6904185579987825,0,0,1.2114660400390624,0,0,0.8421875000000001
3.692119115999958,0,0,1.2210428466796874,0,0,0.765625
3.6940145599983225,0,0,1.465251416015625,0,0,0.30625
3.6956928959989455,0,0,1.235408056640625,0,0,1.1484375
3.6972478439965926,0,0,1.458068811035156,0,0,1.0718750000000001
3.698722587996599,0,0,1.3215993164062498,0,0,0.8421875000000001
3.700426626997796,0,0,1.218648645019531,0,0,0.9187500000000001
3.701978537999821,0,0,1.2856862915039062,0,0,0.6125
3.7036126519997197,0,0,1.2425906616210938,0,0,0.0
3.7052792469985434,0,0,1.3527239379882812,0,0,0.30625
3.7068232129968237,0,0,1.6807295654296874,0,0,0.6890625
3.708294346997718,0,0,1.2569558715820313,0,0,0.8421875000000001
3.709819442996377,0,0,1.3623007446289062,0,0,0.6890625
3.7113974829990184,0,0,1.3359645263671873,0,0,0.6125
3.713081466998119,0,0,1.3287819213867187,0,0,1.378125
3.7146467109996593,0,0,1.37906015625,0,0,0.9187500000000001
3.716249824999977,0,0,1.5514426757812498,0,0,0.9187500000000001
3.717848160998983,0,0,1.6807295654296874,0,0,0.6890625
3.719318701998418,0,0,1.3263877197265623,0,0,0.765625
3.720779131999734,0,0,1.0989385620117187,0,0,0.6890625
3.7223313019967463,0,0,1.3239935180664062,0,0,0.765625
3.7240515449993836,0,0,1.5035586425781249,0,0,0.22968750000000002
3.725923285997851,0,0,1.4867992309570313,0,0,0.9953125
3.7276393989995995,0,0,1.6017209106445311,0,0,0.6890625
3.729252309000003,0,0,1.3431471313476562,0,0,1.0718750000000001
3.7308607189988834,0,0,1.199495031738281,0,0,0.6125
3.732497702996625,0,0,1.350329736328125,0,0,0.6890625
3.7339915219999966,0,0,1.4030021728515625,0,0,0.0765625
3.7354524149995996,0,0,1.2880804931640624,0,0,0.22968750000000002
3.7369549559989537,0,0,1.4939818359375,0,0,0.765625
3.738547236996965,0,0,1.3263877197265623,0,0,0.8421875000000001
3.740093924996472,0,0,1.158793603515625,0,0,0.6890625
3.7415613739976834,0,0,1.2521674682617188,0,0,0.765625
3.743115173998376,0,0,1.4341267944335936,0,0,1.3015625000000002
3.744685916997696,0,0,1.4987702392578124,0,0,1.8375000000000001
3.746152291998442,0,0,1.5442600708007812,0,0,1.225
3.747685943999386,0,0,1.6232687255859375,0,0,1.0718750000000001
3.7492882239967003,0,0,1.4125789794921875,0,0,0.9187500000000001
3.7507684139964113,0,0,1.1875240234375,0,0,0.765625
3.752249806999316,0,0,1.3551181396484375,0,0,0.6125
3.753765494999243,0,0,1.2593500732421874,0,0,0.0
3.755341164996935,0,0,1.407790576171875,0,0,0.3828125
3.756824076997873,0,0,1.5466542724609373,0,0,0.45937500000000003
3.758284969997476,0,0,1.2401964599609374,0,0,0.9953125
3.7599081579974154,0,0,1.4772224243164063,0,0,0.6890625
3.761795694998,0,0,1.3551181396484375,0,0,0.6125
3.763360790999286,0,0,1.419761584472656,0,0,1.225
3.7648352579999482,0,0,1.4149731811523436,0,0,0.9187500000000001
3.7663862239969603,0,0,1.5658078857421873,0,0,0.9187500000000001
3.76792774599744,0,0,1.5346832641601562,0,0,1.225
3.7693899539990525,0,0,1.2761094848632812,0,0,1.1484375
3.770906179997837,0,0,0.9816226806640624,0,0,0.765625
3.772613384997385,0,0,1.2401964599609374,0,0,0.8421875000000001
3.7741117969999323,0,0,1.4915876342773438,0,0,0.0
3.775604096997995,0,0,1.4939818359375,0,0,0.5359375000000001
3.7771714519985835,0,0,1.5921441040039062,0,0,0.765625
3.7787331589970563,0,0,1.2378022583007813,0,0,0.6890625
3.7803053289972013,0,0,1.149216796875,0,0,0.6125
3.781907627999317,0,0,1.2713210815429687,0,0,0.8421875000000001
3.7835908709967043,0,0,1.2473790649414063,0,0,0.153125
3.785091226996883,0,0,1.3239935180664062,0,0,0.8421875000000001
3.786553489997459,0,0,1.407790576171875,0,0,0.5359375000000001
3.7881102899991674,0,0,1.2904746948242187,0,0,0.9953125
3.7896453669964103,0,0,1.4341267944335936,0,0,0.765625
3.7911105569983192,0,0,1.3287819213867187,0,0,0.6890625
3.792571523998049,0,0,1.448492004394531,0,0,0.5359375000000001
3.794116563996795,0,0,1.5610194824218748,0,0,0.0
3.7956890859968553,0,0,1.5011644409179687,0,0,0.765625
3.7971628489976865,0,0,1.5203180541992187,0,0,0.5359375000000001
3.7986735380000027,0,0,1.24498486328125,0,0,0.8421875000000001
3.800281151998206,0,0,1.177947216796875,0,0,0.6125
3.801755748998403,0,0,1.3407529296874998,0,0,0.765625
3.8032368639978813,0,0,1.3934253662109375,0,0,1.1484375
3.8047480349996476,0,0,1.388636962890625,0,0,1.53125
3.8063536299996485,0,0,1.484405029296875,0,0,1.0718750000000001
3.8078325599999516,0,0,1.678335363769531,0,0,0.9187500000000001
3.8092955269967206,0,0,1.407790576171875,0,0,0.6125
3.8108697529969504,0,0,1.199495031738281,0,0,0.5359375000000001
3.812471662997268,0,0,1.426944189453125,0,0,0.6890625
3.8139518709976983,0,0,1.3383587280273437,0,0,0.22968750000000002
3.8154132819981896,0,0,1.4053963745117186,0,0,0.30625
3.8169326379975246,0,0,1.39821376953125,0,0,0.765625
3.818568417998904,0,0,1.2952630981445312,0,0,0.765625
3.8200410709978314,0,0,1.1516109985351561,0,0,0.6890625
3.821493648996693,0,0,1.2617442749023438,0,0,0.6125
3.82298811599685,0,0,1.426944189453125,0,0,1.6078125
3.824659284997324,0,0,1.608903515625,0,0,1.225
3.826313156998367,0,0,1.4437036010742186,0,0,0.8421875000000001
3.8277922909983317,0,0,1.37906015625,0,0,1.1484375
3.8293359429990232,0,0,1.419761584472656,0,0,0.765625
3.8308712239995657,0,0,1.1348515869140625,0,0,0.45937500000000003
3.832344912996632,0,0,1.2665326782226562,0,0,0.765625
3.8338651759986533,0,0,1.3431471313476562,0,0,832.69375
3.835500641998806,0,0,1.3838485595703125,0,0,0.22968750000000002
3.8369803309979034,0,0,1.2713210815429687,0,0,0.6890625
3.8384401129987964,0,0,1.2210428466796874,0,0,0.9187500000000001
3.839992652996443,0,0,1.1659762084960936,0,0,0.6890625
3.8416032299974177,0,0,1.3407529296874998,0,0,0.765625
3.843164121997688,0,0,1.3359645263671873,0,0,1.9140625000000002
3.8446360529997037,0,0,1.426944189453125,0,0,1.3015625000000002
3.8461771859983855,0,0,1.3934253662109375,0,0,0.9953125
3.847704410996812,0,0,1.5897499023437498,0,0,0.765625
3.849173267997685,0,0,1.3287819213867187,0,0,0.6125
3.850673974997335,0,0,1.1875240234375,0,0,0.6890625
3.8522984589981206,0,0,1.350329736328125,0,0,0.6125
3.853852554999321,0,0,1.2737152832031249,0,0,832.8468750000001
3.855438279999362,0,0,1.388636962890625,0,0,0.45937500000000003
3.857090634999622,0,0,1.707065783691406,0,0,0.8421875000000001
3.8587536919985723,0,0,1.189918225097656,0,0,1.0718750000000001
3.8602433999985806,0,0,1.1707646118164061,0,0,0.6890625
3.861719181997614,0,0,1.2497732666015624,0,0,0.9187500000000001
3.8632721479989414,0,0,1.2952630981445312,0,0,1.53125
3.864852039998368,0,0,1.388636962890625,0,0,1.1484375
3.8663249889978033,0,0,1.43652099609375,0,0,1.0718750000000001
3.8685511339972436,0,0,1.1875240234375,0,0,0.9953125
3.87018674799765,0,0,1.1563994018554686,0,0,0.6125
3.871853934997489,0,0,1.3551181396484375,0,0,0.8421875000000001
3.8734691409990774,0,0,1.350329736328125,0,0,1.0718750000000001
3.8751117549982155,0,0,1.3934253662109375,0,0,0.6890625
3.876837385996623,0,0,1.4867992309570313,0,0,1.0718750000000001
3.878563183996448,0,0,1.2856862915039062,0,0,1.225
3.8801739829978033,0,0,1.1755530151367186,0,0,0.765625
3.8817523199977586,0,0,1.3311761230468748,0,0,0.8421875000000001
3.883373581997148,0,0,1.3958195678710936,0,0,1.7609375
3.884891362999042,0,0,1.5179238525390624,0,0,1.3015625000000002
3.886480624998512,0,0,1.35990654296875,0,0,1.0718750000000001
3.888031720998697,0,0,1.3215993164062498,0,0,0.9187500000000001
3.889642890997493,0,0,1.407790576171875,0,0,0.765625
3.891283429999021,0,0,1.2330138549804688,0,0,0.6890625
3.892808526998124,0,0,1.3455413330078123,0,0,0.5359375000000001
3.894288974999654,0,0,1.5131354492187499,0,0,0.0765625
3.895908551996399,0,0,1.39821376953125,0,0,0.9187500000000001
3.8975157769964426,0,0,1.608903515625,0,0,0.9187500000000001
3.8990682249968813,0,0,1.39821376953125,0,0,0.9953125
3.900538339999912,0,0,1.2114660400390624,0,0,0.6125
3.9022270269997534,0,0,1.3479355346679687,0,0,0.5359375000000001
3.903897195999889,0,0,1.3168109130859373,0,0,0.3828125
3.905372292996617,0,0,1.3551181396484375,0,0,0.45937500000000003
3.907003109998186,0,0,1.668758557128906,0,0,0.765625
3.9086797979980474,0,0,1.3742717529296875,0,0,0.9187500000000001
3.910239170996647,0,0,1.1635820068359375,0,0,0.765625
3.9117202859997633,0,0,1.3407529296874998,0,0,0.9953125
3.9133537149973563,0,0,1.3359645263671873,0,0,0.9953125
3.9148933659998875,0,0,1.5131354492187499,0,0,1.0718750000000001
3.9163651849994494,0,0,1.35990654296875,0,0,1.225
3.9178781709997565,0,0,1.6160861206054686,0,0,0.6890625
3.9194343219969596,0,0,1.3144167114257812,0,0,0.45937500000000003
3.9210489169963694,0,0,1.3000515014648437,0,0,0.9187500000000001
3.9225645319966134,0,0,1.3311761230468748,0,0,0.6125
3.9241642389970366,0,0,1.3910311645507811,0,0,0.0
3.925763630999427,0,0,1.2330138549804688,0,0,0.6890625
3.9272770969982957,0,0,1.659181750488281,0,0,0.6125
3.928796063999471,0,0,1.3718775512695311,0,0,1.1484375
3.9303317709964176,0,0,1.2018892333984375,0,0,0.9187500000000001
3.931813367998984,0,0,1.0941501586914062,0,0,0.765625
3.9332954279998376,0,0,1.4508862060546874,0,0,1.378125
3.9348291529968265,0,0,1.37906015625,0,0,1.53125
3.9364205449965084,0,0,1.3862427612304686,0,0,0.9187500000000001
3.9383670999995957,0,0,1.2737152832031249,0,0,0.9187500000000001
3.9399996579995786,0,0,1.1061211669921875,0,0,0.9187500000000001
3.94204137899942,0,0,1.254561669921875,0,0,0.8421875000000001
3.9435452529978647,0,0,1.2856862915039062,0,0,1.53125
3.9452229589987837,0,0,1.407790576171875,0,0,0.0765625
3.947292845998163,0,0,1.7310078002929687,0,0,0.765625
3.9488964599986502,0,0,1.3383587280273437,0,0,1.3015625000000002
3.9504085569969902,0,0,1.1013327636718748,0,0,0.6890625
3.95191930099827,0,0,1.2473790649414063,0,0,0.6125
3.9534911749979074,0,0,1.43652099609375,0,0,1.3015625000000002
3.9549981229974946,0,0,1.458068811035156,0,0,1.4546875000000001
3.9564578119970975,0,0,1.3215993164062498,0,0,0.765625
3.95831664599973,0,0,1.2138602416992186,0,0,0.5359375000000001
3.9598878899996635,0,0,1.388636962890625,0,0,0.9187500000000001
3.9613666719997127,0,0,1.3024457031249999,0,0,0.6125
3.9628322689968627,0,0,1.3335703247070312,0,0,0.6125
3.9644122349964164,0,0,1.4772224243164063,0,0,832.5406250000001
3.965959737997764,0,0,1.4030021728515625,0,0,0.6890625
3.9674493159982376,0,0,1.6735469604492186,0,0,0.9953125
3.9689172459984547,0,0,1.2641384765625,0,0,1.0718750000000001
3.970439193999482,0,0,1.1348515869140625,0,0,1.0718750000000001
3.972011900998041,0,0,1.2665326782226562,0,0,0.9187500000000001
3.9736653479994857,0,0,1.350329736328125,0,0,1.4546875000000001
3.9753225539971027,0,0,1.388636962890625,0,0,0.8421875000000001
3.9769645749984193,0,0,1.5107412475585937,0,0,0.5359375000000001
3.978556485999434,0,0,1.2880804931640624,0,0,0.9187500000000001
3.9801214519975474,0,0,1.0726023437499999,0,0,1.1484375
3.981727102996956,0,0,1.3455413330078123,0,0,0.6890625
3.9832982169973548,0,0,1.3766659545898436,0,0,1.225
3.9852230319993396,0,0,1.3263877197265623,0,0,2.3734375
3.98680003499976,0,0,1.2952630981445312,0,0,0.6890625
3.988382185998489,0,0,1.3646949462890625,0,0,0.8421875000000001
3.989892781999515,0,0,1.3934253662109375,0,0,0.6890625
3.9915910989984695,0,0,1.1276689819335937,0,0,0.8421875000000001
3.9933333229964774,0,0,1.3862427612304686,0,0,2.9093750000000003
3.994862881998415,0,0,1.3958195678710936,0,0,0.9953125
3.996318181998504,0,0,1.2737152832031249,0,0,0.765625
3.9980414799974824,0,0,1.3096283081054687,0,0,0.6890625
3.9995937799976673,0,0,1.2856862915039062,0,0,0.6890625
4.001171245996375,0,0,1.218648645019531,0,0,0.765625
4.003108282999165,0,0,1.3096283081054687,0,0,0.6890625
4.004759988998558,0,0,1.446097802734375,0,0,0.8421875000000001
4.006298603999312,0,0,1.3742717529296875,0,0,0.8421875000000001
4.007765662998281,0,0,1.7573440185546874,0,0,0.765625
4.009300370998972,0,0,1.39821376953125,0,0,1.0718750000000001
4.010971168998367,0,0,1.2832920898437499,0,0,0.6125
4.012641763998545,0,0,1.2976572998046874,0,0,0.765625
4.014369505999639,0,0,1.4437036010742186,0,0,0.0
4.01588823199927,0,0,1.455674609375,0,0,0.45937500000000003
4.017493178998848,0,0,1.6041151123046875,0,0,1.0718750000000001
4.019697805997566,0,0,1.3551181396484375,0,0,0.9953125
4.02121969899963,0,0,1.2114660400390624,0,0,0.6125
4.022689276996971,0,0,1.3455413330078123,0,0,0.5359375000000001
4.024515221997717,0,0,1.4700398193359374,0,0,0.0
4.026175057999353,0,0,1.37906015625,0,0,1.0718750000000001
4.027775615999417,0,0,1.675941162109375,0,0,0.8421875000000001
4.02926608299822,0,0,1.3287819213867187,0,0,-8.728125
