Time (s),Accel X,Accel Y,Accel Z,Gyro X,Gyro Y,Gyro Z,Temperature (C)
0.014979671002947725,0.09816226806640624,-9.91438907470703,1.0965443603515623,0,0,0,0
0.0186146030027885,0.033518823242187495,-9.655815295410155,1.1563994018554686,0,0,0,0
0.021557893996941857,0.08379705810546874,-9.880870251464843,1.0582371337890624,0,0,0,0
0.02496849501039833,0.09337386474609374,-9.883264453125,1.1324573852539062,0,0,0,0
0.027954766002949327,0.08858546142578125,-9.832986218261718,1.0582371337890624,0,0,0,0
0.030605633000959642,0.0383072265625,-9.821015209960937,1.1252747802734375,0,0,0,0
0.033766680004191585,0.1292868896484375,-9.713276135253906,1.0773907470703123,0,0,0,0
0.03641756500292104,0.086191259765625,-9.883264453125,1.189918225097656,0,0,0,0
0.03974416700657457,0.1149216796875,-9.8449572265625,1.1109095703125,0,0,0,0
0.04407655700924806,0.076614453125,-9.801861596679688,1.1611878051757811,0,0,0,0
0.04715347501041833,0.05746083984375,-9.873687646484374,1.0845733520507812,0,0,0,0
0.05083536999882199,0.031124621582031248,-9.871293444824218,0.9409212524414062,0,0,0,0
0.054254027010756545,0.06703764648437499,-9.849745629882811,1.0941501586914062,0,0,0,0
0.05795470000884961,0.08379705810546874,-9.821015209960937,1.0678139404296874,0,0,0,0
0.06121713500760961,0.09816226806640624,-9.947907897949218,0.9504980590820312,0,0,0,0
0.06383939100487623,0.028730419921875,-9.94072529296875,1.0271125122070313,0,0,0,0
0.06670532999851275,0.0526724365234375,-9.859322436523437,1.0462661254882812,0,0,0,0
0.0697857860068325,0.16519991455078123,-9.720458740234374,1.1755530151367186,0,0,0,0
0.07276574200659525,0.016759411621093748,-9.809044201660155,1.0654197387695312,0,0,0,0
0.07566373600275256,0.062249243164062495,-9.813832604980469,1.0797849487304687,0,0,0,0
0.0804989000025671,0.10773907470703124,-9.698910925292969,1.0893617553710937,0,0,0,0
0.08544341400556732,0.07422025146484375,-9.909600671386718,1.0941501586914062,0,0,0,0
0.09185595301096328,0.1149216796875,-9.883264453125,1.1061211669921875,0,0,0,0
0.09655167200253345,0.08140285644531249,-9.859322436523437,1.1180921752929687,0,0,0,0
0.10332891200960148,0.10773907470703124,-9.753977563476562,1.1731588134765625,0,0,0,0
0.10600740800146013,0.05746083984375,-9.90241806640625,1.0893617553710937,0,0,0,0
0.10932860200409777,0.12449848632812499,-9.871293444824218,1.0893617553710937,0,0,0,0
0.11157647300569806,0.08140285644531249,-9.82580361328125,1.0342951171875,0,0,0,0
0.11337162400013767,0.08379705810546874,-9.809044201660155,1.0749965454101562,0,0,0,0
0.11535205200198106,0.11252747802734374,-9.801861596679688,1.1755530151367186,0,0,0,0
0.11698103800881654,0.10295067138671875,-9.835380419921874,1.1061211669921875,0,0,0,0
0.11872687599679921,0.105344873046875,-9.813832604980469,1.1516109985351561,0,0,0,0
0.12036389899731148,0.12449848632812499,-9.89523546142578,0.9313444458007812,0,0,0,0
0.12187984900083393,0.08140285644531249,-9.888052856445311,1.1468225952148436,0,0,0,0
0.12354476100881584,0.05746083984375,-9.83777462158203,1.139639990234375,0,0,0,0
0.12514763700892217,0.033518823242187495,-9.830592016601562,1.180341418457031,0,0,0,0
0.1266804199985927,0.031124621582031248,-9.785102185058593,1.0821791503906248,0,0,0,0
0.12836122100998182,0.14604630126953125,-9.804255798339844,1.235408056640625,0,0,0,0
0.12995659600710496,0.07900865478515624,-9.928754284667969,1.158793603515625,0,0,0,0
0.13152354600606486,0.1149216796875,-9.873687646484374,1.1109095703125,0,0,0,0
0.13328823501069564,0.016759411621093748,-9.880870251464843,1.0845733520507812,0,0,0,0
0.13500692399975378,0.13646949462890623,-9.852139831542969,1.0414777221679687,0,0,0,0
0.13671172500471584,0.09816226806640624,-9.854534033203125,1.1324573852539062,0,0,0,0
0.1383847289980622,0.1580173095703125,-9.782707983398437,1.0845733520507812,0,0,0,0
0.1400226969999494,0.11731588134765625,-9.756371765136718,1.0965443603515623,0,0,0,0
0.1417705530038802,0.09576806640624999,-9.828197814941406,1.0893617553710937,0,0,0,0
0.14351700100814924,0.09576806640624999,-9.852139831542969,1.1420341918945311,0,0,0,0
0.14520309799991082,0.06464344482421874,-9.916783276367187,1.1324573852539062,0,0,0,0
0.14674710400868207,0.076614453125,-9.871293444824218,1.1037269653320312,0,0,0,0
0.14850477399886586,0.06703764648437499,-9.859322436523437,1.0726023437499999,0,0,0,0
0.15014563100703526,0.15562310791015624,-9.947907897949218,1.1611878051757811,0,0,0,0
0.1517153029999463,0.0718260498046875,-9.794678991699218,1.1755530151367186,0,0,0,0
0.15403782000066712,0.06943184814453125,-9.911994873046874,1.0510545288085937,0,0,0,0
0.15563123300671577,0.06943184814453125,-9.789890588378906,1.0558429321289062,0,0,0,0
0.15718862701032776,0.06703764648437499,-9.849745629882811,1.0654197387695312,0,0,0,0
0.15906000000541098,0.03591302490234375,-9.85692823486328,1.1324573852539062,0,0,0,0
0.1607317830057582,0.047884033203124995,-9.82580361328125,1.1923124267578125,0,0,0,0
0.16233539899985772,0.06943184814453125,-9.787496386718749,1.2138602416992186,0,0,0,0
0.16393046001030598,0.12689268798828124,-9.76116016845703,1.1731588134765625,0,0,0,0
0.1654809280007612,0.076614453125,-9.828197814941406,1.0965443603515623,0,0,0,0
0.16705895200720988,0.02154781494140625,-9.888052856445311,1.1061211669921875,0,0,0,0
0.16885990000446327,0.07900865478515624,-9.852139831542969,1.1731588134765625,0,0,0,0
0.17043518299760763,0.01915361328125,-9.873687646484374,1.1635820068359375,0,0,0,0
0.17198489200382028,0.08379705810546874,-9.85692823486328,1.0917559570312498,0,0,0,0
0.1735567490104586,0.08379705810546874,-9.816226806640625,1.1348515869140625,0,0,0,0
0.17541753000114113,0.076614453125,-9.830592016601562,1.1851298217773436,0,0,0,0
0.17720781100797467,0.0909796630859375,-9.95987890625,1.0869675537109373,0,0,0,0
0.17895374100771733,0.06943184814453125,-9.866505041503906,1.1013327636718748,0,0,0,0
0.1809117619995959,0.07422025146484375,-9.861716638183593,1.0941501586914062,0,0,0,0
0.18273396900622174,0.040701428222656245,-9.87608184814453,1.1013327636718748,0,0,0,0
0.1844672130100662,0.086191259765625,-9.90241806640625,1.1228805786132812,0,0,0,0
0.18611397700442467,0.07422025146484375,-9.801861596679688,1.1133037719726562,0,0,0,0
0.18799998000031337,0.1149216796875,-9.823409411621093,1.1228805786132812,0,0,0,0
0.18985205701028462,0.08140285644531249,-9.890447058105469,1.0941501586914062,0,0,0,0
0.19156195000687148,0.1005564697265625,-9.871293444824218,1.1324573852539062,0,0,0,0
0.1932565660099499,0.09337386474609374,-9.871293444824218,1.0366893188476562,0,0,0,0
0.1950206059991615,0.09337386474609374,-9.866505041503906,1.0295067138671874,0,0,0,0
0.1968515360058518,0.11013327636718749,-9.763554370117188,1.158793603515625,0,0,0,0
0.19872602001123596,0.08140285644531249,-9.816226806640625,1.0726023437499999,0,0,0,0
0.2005746340000769,0.09337386474609374,-9.821015209960937,1.0534487304687499,0,0,0,0
0.20271748599770945,0.1388636962890625,-9.8449572265625,1.0462661254882812,0,0,0,0
0.20493739400990307,0.09337386474609374,-9.85692823486328,1.0390835205078124,0,0,0,0
0.20688684000924695,0.10773907470703124,-9.847351428222655,1.1013327636718748,0,0,0,0
0.20865421400230844,0.14125789794921875,-9.859322436523437,1.1659762084960936,0,0,0,0
0.21136645101069007,0.0143652099609375,-9.813832604980469,1.1659762084960936,0,0,0,0
0.21351504400081467,0.07900865478515624,-9.904812268066406,1.139639990234375,0,0,0,0
0.21525067801121622,0.06943184814453125,-9.871293444824218,1.1755530151367186,0,0,0,0
0.21712655099690892,0.0909796630859375,-9.873687646484374,1.0678139404296874,0,0,0,0
0.21998841600725427,0.05746083984375,-9.859322436523437,1.189918225097656,0,0,0,0
0.22382192099757958,0.08858546142578125,-9.935936889648437,1.197100830078125,0,0,0,0
0.22566620100405999,0.06943184814453125,-9.842563024902343,1.0941501586914062,0,0,0,0
0.22736237201024778,0.055066638183593745,-9.892841259765625,1.13006318359375,0,0,0,0
0.22923856000124943,0.06464344482421874,-9.861716638183593,1.1061211669921875,0,0,0,0
0.23094767599832267,0.11731588134765625,-9.943119494628906,0.9816226806640624,0,0,0,0
0.2327698270091787,0.06943184814453125,-9.789890588378906,1.139639990234375,0,0,0,0
0.23495866100711282,0.1197100830078125,-9.7683427734375,1.0845733520507812,0,0,0,0
0.23671233101049438,0.05746083984375,-9.832986218261718,1.0558429321289062,0,0,0,0
0.23834404000081122,0.105344873046875,-9.919177478027343,1.1228805786132812,0,0,0,0
0.23997343301016372,0.040701428222656245,-9.907206469726562,1.0893617553710937,0,0,0,0
0.24168264100444503,0.08379705810546874,-9.885658654785155,1.0702081420898437,0,0,0,0
0.2434551820042543,0.08858546142578125,-9.923965881347655,1.1659762084960936,0,0,0,0
0.24513616799958982,0.10773907470703124,-9.823409411621093,1.1109095703125,0,0,0,0
0.2471221330051776,0.12449848632812499,-9.86411083984375,1.180341418457031,0,0,0,0
0.2507503619999625,0.086191259765625,-9.866505041503906,1.0630255371093749,0,0,0,0
0.2529397510079434,0.06943184814453125,-9.892841259765625,1.1037269653320312,0,0,0,0
0.2547270689974539,0.0526724365234375,-9.830592016601562,1.1324573852539062,0,0,0,0
0.256460443008109,0.0718260498046875,-9.871293444824218,1.0773907470703123,0,0,0,0
0.25837361300364137,0.05746083984375,-9.859322436523437,1.1540052001953125,0,0,0,0
0.26009235699893907,0.07422025146484375,-9.957484704589843,1.13006318359375,0,0,0,0
0.2620757670083549,0.12210428466796874,-9.83777462158203,1.1061211669921875,0,0,0,0
0.264523691002978,0.062249243164062495,-9.821015209960937,1.0678139404296874,0,0,0,0
0.2663459530012915,0.00718260498046875,-9.9215716796875,1.2617442749023438,0,0,0,0
0.2680978639982641,0.1149216796875,-9.938331091308592,1.1324573852539062,0,0,0,0
0.26990133100480307,0.07422025146484375,-9.78031378173828,1.1707646118164061,0,0,0,0
0.27246912400005385,0.09337386474609374,-9.811438403320311,1.1324573852539062,0,0,0,0
0.27422627600026317,0.08379705810546874,-9.885658654785155,1.0749965454101562,0,0,0,0
0.2759449840086745,0.02633621826171875,-9.904812268066406,1.1755530151367186,0,0,0,0
0.27812657700269483,0.04548983154296875,-9.832986218261718,1.177947216796875,0,0,0,0
0.2799679130112054,0.10773907470703124,-9.823409411621093,1.1013327636718748,0,0,0,0
0.2817182690050686,0.016759411621093748,-9.744400756835937,1.1444283935546875,0,0,0,0
0.283733326010406,0.1005564697265625,-9.859322436523437,1.120486376953125,0,0,0,0
0.28552816300361883,0.08858546142578125,-9.90241806640625,1.1180921752929687,0,0,0,0
0.28727113000059035,0.08379705810546874,-9.938331091308592,1.0534487304687499,0,0,0,0
0.28900870800134726,0.0718260498046875,-9.94072529296875,0.9911994873046874,0,0,0,0
0.29104115400696173,0.06464344482421874,-9.859322436523437,1.1372457885742187,0,0,0,0
0.2927155280049192,0.0909796630859375,-9.816226806640625,1.0630255371093749,0,0,0,0
0.2944383660069434,0.06703764648437499,-9.83777462158203,1.1947066284179686,0,0,0,0
0.2960530749987811,0.086191259765625,-9.873687646484374,1.0534487304687499,0,0,0,0
0.29815033500199206,0.08140285644531249,-9.861716638183593,1.0630255371093749,0,0,0,0
0.29987609799718484,0.0430956298828125,-9.842563024902343,1.1276689819335937,0,0,0,0
0.3015468800003873,0.10773907470703124,-9.849745629882811,1.0917559570312498,0,0,0,0
0.3034794200066244,0.07900865478515624,-9.888052856445311,1.209071838378906,0,0,0,0
0.30507499900704715,0.05027823486328125,-9.8449572265625,0.9337386474609375,0,0,0,0
0.3066878740064567,0.0430956298828125,-9.852139831542969,1.180341418457031,0,0,0,0
0.30823267600499094,0.07422025146484375,-9.83777462158203,1.199495031738281,0,0,0,0
0.30973168200580403,0.06703764648437499,-9.787496386718749,1.1635820068359375,0,0,0,0
0.31131555800675415,0.06464344482421874,-9.878476049804688,1.0534487304687499,0,0,0,0
0.3132046340033412,0.0718260498046875,-9.878476049804688,1.1180921752929687,0,0,0,0
0.31479658400348853,0.07422025146484375,-9.861716638183593,1.0726023437499999,0,0,0,0
0.3164340700022876,0.105344873046875,-9.787496386718749,1.0845733520507812,0,0,0,0
0.31842159100051504,0.05985504150390625,-9.679757312011718,1.0678139404296874,0,0,0,0
0.319985114998417,0.062249243164062495,-9.900023864746093,1.1947066284179686,0,0,0,0
0.32150297200132627,0.033518823242187495,-9.9215716796875,1.0606313354492187,0,0,0,0
0.32309110699861776,0.08140285644531249,-9.90241806640625,1.005564697265625,0,0,0,0
0.32470209400344174,0.062249243164062495,-9.890447058105469,1.0342951171875,0,0,0,0
0.3262221920012962,0.076614453125,-9.892841259765625,1.1947066284179686,0,0,0,0
0.3281667310075136,0.04548983154296875,-9.792284790039062,1.1851298217773436,0,0,0,0
0.3299854570068419,0.08140285644531249,-9.811438403320311,1.1468225952148436,0,0,0,0
0.33151827700203285,0.047884033203124995,-9.854534033203125,1.1133037719726562,0,0,0,0
0.33305226400261745,0.10773907470703124,-9.842563024902343,1.197100830078125,0,0,0,0
0.3347072690085042,0.06464344482421874,-9.859322436523437,1.1372457885742187,0,0,0,0
0.33691625100618694,0.06703764648437499,-9.897629663085937,1.0749965454101562,0,0,0,0
0.33949835899693426,0.0909796630859375,-9.816226806640625,1.1109095703125,0,0,0,0
0.34127882499888074,0.0718260498046875,-9.821015209960937,1.0510545288085937,0,0,0,0
0.3428636640019249,0.040701428222656245,-9.78031378173828,1.0965443603515623,0,0,0,0
0.34442737299832515,0.05985504150390625,-9.911994873046874,1.1180921752929687,0,0,0,0
0.3460265080066165,0.0047884033203125,-9.868899243164062,1.1540052001953125,0,0,0,0
0.34758734599745367,0.02154781494140625,-9.873687646484374,1.1444283935546875,0,0,0,0
0.349218629009556,0.086191259765625,-9.830592016601562,0.9959878906249999,0,0,0,0
0.3510441690013977,0.06464344482421874,-9.821015209960937,0.9744400756835937,0,0,0,0
0.3526480260043172,0.14604630126953125,-9.801861596679688,1.1061211669921875,0,0,0,0
0.35433693800587207,0.0718260498046875,-9.847351428222655,1.0941501586914062,0,0,0,0
0.3559789980063215,0.11013327636718749,-9.871293444824218,1.0319009155273438,0,0,0,0
0.3576456139999209,0.11252747802734374,-9.81862100830078,1.1252747802734375,0,0,0,0
0.3592462300002808,0.031124621582031248,-9.849745629882811,1.0510545288085937,0,0,0,0
0.3609963449998759,0.0430956298828125,-9.835380419921874,1.0510545288085937,0,0,0,0
0.363021106008091,0.06703764648437499,-9.868899243164062,1.0989385620117187,0,0,0,0
0.3646384629973909,0.05985504150390625,-9.883264453125,0.9959878906249999,0,0,0,0
0.3662364490010077,0.5626373901367188,-10.17056865234375,0.3136404174804687,0,0,0,0
0.36776286200620234,1.898601916503906,-11.089942089843749,-0.30406361083984373,0,0,0,0
0.3695813290105434,2.463633508300781,-11.279084020996093,-3.0119056884765625,0,0,0,0
0.37134172100923024,-0.0909796630859375,-10.273519323730468,-5.633556506347656,0,0,0,0
0.3728944489994319,-1.8722656982421875,-9.904812268066406,-6.653486413574218,0,0,0,0
0.37443967700528447,-1.5873557006835937,-9.60793126220703,-7.189787585449218,0,0,0,0
0.37619575500139035,-2.2170307373046874,-8.889670764160156,-7.649474304199218,0,0,0,0
0.37788255501072854,-0.2442085693359375,-9.885658654785155,-7.453149768066406,0,0,0,0
0.37952893000328913,-0.13168109130859373,-10.168174450683592,-7.371746911621093,0,0,0,0
0.3813530629995512,-0.4955997436523437,-10.599130749511717,-6.794744311523437,0,0,0,0
0.38317388099676464,1.180341418457031,-10.675745202636719,-6.5218053222656245,0,0,0,0
0.3849159780074842,-2.5737667846679684,-7.7787611938476555,-5.413289953613281,0,0,0,0
0.3867816100100754,-4.520252734375,-6.351817004394531,-2.442085693359375,0,0,0,0
0.38854820700362325,-4.467580297851562,-8.63109698486328,2.0063409912109376,0,0,0,0
0.39024947000143584,1.85790048828125,-8.161833459472655,7.639897497558593,0,0,0,0
0.3920359550102148,8.367734802246094,-10.172962854003906,8.731653454589843,0,0,0,0
0.3938525700068567,8.090007409667969,-10.225635290527343,8.008604553222655,0,0,0,0
0.3956051290006144,0.97683427734375,-11.7603185546875,5.315127685546875,0,0,0,0
0.39737692900234833,-0.18914193115234373,-11.348515869140625,4.541800549316406,0,0,0,0
0.3991110440110788,1.4341267944335936,-10.577582934570312,3.6080619018554687,0,0,0,0
0.4008966960100224,0.8092401611328125,-9.471461767578125,1.0965443603515623,0,0,0,0
0.4028888460015878,-1.5538368774414062,-9.41639512939453,-2.262520568847656,0,0,0,0
0.40483620000304654,-4.99909306640625,-12.016498132324218,-4.661510632324219,0,0,0,0
0.40735693799797446,-2.0925322509765625,-14.298172314453124,-2.2170307373046874,0,0,0,0
0.409408847001032,0.584185205078125,-12.504915270996094,0.4477157104492187,0,0,0,0
0.41132170100172516,-0.9552864624023437,-9.141061938476563,1.889025109863281,0,0,0,0
0.41365381100331433,-0.928950244140625,-8.298302954101562,3.835511059570312,0,0,0,0
0.41573823800717946,2.5450363647460934,-10.522516296386717,4.656722229003906,0,0,0,0
0.4180455890018493,2.8036101440429686,-10.194510668945313,4.00310517578125,0,0,0,0
0.4203703100065468,0.0047884033203125,-8.719682446289061,1.68551796875,0,0,0,0
0.4223318310105242,1.1947066284179686,-6.813897924804687,1.1947066284179686,0,0,0,0
0.424642608006252,1.1923124267578125,-7.204152795410156,-0.3327940307617187,0,0,0,0
0.42672218300867826,-1.4532804077148436,-8.98304462890625,-2.020706201171875,0,0,0,0
0.4290483119984856,-2.5857377929687497,-10.467449658203124,-2.059013427734375,0,0,0,0
0.43129205200239085,1.1947066284179686,-10.189722265624999,0.6368576416015624,0,0,0,0
0.43487609599833377,0.1292868896484375,-9.873687646484374,1.5131354492187499,0,0,0,0
0.4370037449989468,-1.0893617553710937,-10.716446630859375,2.5354595581054684,0,0,0,0
0.4389211730012903,1.0199299072265624,-11.501744775390625,4.254496350097656,0,0,0,0
0.44070886200643145,3.21780703125,-10.888829150390624,3.5218706420898434,0,0,0,0
0.44266421601059847,1.4125789794921875,-10.66856259765625,1.4149731811523436,0,0,0,0
0.444639551002183,-2.327164013671875,-11.329362255859374,0.1867477294921875,0,0,0,0
0.4466240900073899,0.6584054565429687,-11.21683477783203,0.7565677246093749,0,0,0,0
0.4485216670000227,1.7238251953125,-10.867281335449219,-0.22266075439453123,0,0,0,0
0.4505275760020595,-2.0087351928710935,-9.425971936035156,-1.8195932617187498,0,0,0,0
0.4523320610023802,-4.917690209960937,-9.605537060546874,-1.2928688964843749,0,0,0,0
0.45416499000566546,0.24660277099609373,-10.259154113769531,0.0718260498046875,0,0,0,0
0.455926383001497,2.501940734863281,-10.026916552734374,1.668758557128906,0,0,0,0
0.45774929301114753,2.8850130004882812,-8.413224633789062,1.9129671264648436,0,0,0,0
0.4597222580050584,-1.448492004394531,-8.365340600585936,1.599326708984375,0,0,0,0
0.46157729800324887,-1.4245499877929686,-8.628702783203124,3.1938650146484373,0,0,0,0
0.4634155980020296,3.1076737548828124,-9.576806640625,3.9504327392578125,0,0,0,0
0.46523087901005056,3.277662072753906,-8.437166650390624,2.185906115722656,0,0,0,0
0.46697645699896384,1.0630255371093749,-8.525752111816406,0.8499415893554687,0,0,0,0
0.468769016006263,-2.674323254394531,-9.823409411621093,-0.031124621582031248,0,0,0,0
0.47068577801110223,0.7254431030273437,-10.374075793457031,0.93852705078125,0,0,0,0
0.4725800580054056,2.789244934082031,-10.46984385986328,0.34715924072265625,0,0,0,0
0.47442291300103534,-0.97683427734375,-9.375693701171874,-1.1037269653320312,0,0,0,0
0.4764598400070099,-5.147533569335937,-10.723629235839843,-0.7805097412109374,0,0,0,0
0.4791441880079219,1.9776105712890624,-12.038045947265624,1.438915197753906,0,0,0,0
0.4809886910079513,3.5098996337890624,-10.809820495605468,2.3678654418945313,0,0,0,0
0.48280115801026113,1.4125789794921875,-9.737218151855469,1.2114660400390624,0,0,0,0
0.4845354760036571,-3.5625720703124997,-9.94072529296875,1.1563994018554686,0,0,0,0
0.4863314060057746,-0.4836287353515625,-10.426748229980468,3.1387983764648437,0,0,0,0
0.4889140879968181,3.308786694335937,-10.558429321289061,3.0166940917968748,0,0,0,0
0.49088059000496287,1.3670891479492187,-8.851363537597656,0.7972691528320313,0,0,0,0
0.4927192040049704,-3.6176387084960937,-9.275137231445312,-0.3447650390625,0,0,0,0
0.4945679290103726,-0.34715924072265625,-9.617508068847656,1.1827356201171875,0,0,0,0
0.4963699330110103,3.0262708984374997,-9.931148486328125,1.39821376953125,0,0,0,0
0.4981876950041624,1.1013327636718748,-8.396465222167969,1.024718310546875,0,0,0,0
0.5000139760086313,-2.0925322509765625,-8.80347950439453,-0.7541735229492187,0,0,0,0
0.5027124350017402,-1.2952630981445312,-10.256759912109374,1.0438719238281249,0,0,0,0
0.5048972689983202,2.8754361938476563,-9.739612353515625,2.133233679199219,0,0,0,0
0.506716439005686,2.2768857788085937,-8.441955053710936,0.8499415893554687,0,0,0,0
0.5107720340020023,-0.689530078125,-10.819397302246093,1.9321207397460936,0,0,0,0
0.5126506300002802,3.1411925781249996,-11.243170996093749,2.090138049316406,0,0,0,0
0.5145396880107,1.2425906616210938,-9.639055883789062,0.2442085693359375,0,0,0,0
0.517930141009856,-3.172317199707031,-10.64222637939453,0.74699091796875,0,0,0,0
0.5202741950051859,1.927332336425781,-11.06360587158203,1.6519991455078125,0,0,0,0
0.5224290659971302,0.6823474731445313,-9.792284790039062,0.8643067993164062,0,0,0,0
0.524418383007287,-2.9089550170898435,-9.583989245605467,0.7445967163085937,0,0,0,0
0.5262540900002932,-1.0127473022460938,-10.426748229980468,1.4987702392578124,0,0,0,0
0.5280526120041031,1.2018892333984375,-10.869675537109375,2.8562825805664063,0,0,0,0
0.5302487599983579,1.9656395629882812,-8.693346228027343,1.3239935180664062,0,0,0,0
0.5322288730094442,-2.221819140625,-8.621520178222656,0.1149216796875,0,0,0,0
0.5342710219993023,-1.2210428466796874,-9.667786303710937,1.0630255371093749,0,0,0,0
0.5361557660071412,1.7166425903320313,-10.137049829101562,1.3838485595703125,0,0,0,0
0.5379895280057099,2.750937707519531,-9.210493786621093,1.1180921752929687,0,0,0,0
0.539864956997917,-0.699106884765625,-8.525752111816406,-0.25139117431640623,0,0,0,0
0.5418342740013031,-2.4061726684570313,-9.45470235595703,0.34715924072265625,0,0,0,0
0.5437371099978918,0.5482721801757812,-10.632649572753905,1.5658078857421873,0,0,0,0
0.5457072230055928,2.5617957763671875,-9.634267480468749,2.04943662109375,0,0,0,0
0.5476905399991665,0.16519991455078123,-9.5001921875,1.0127473022460938,0,0,0,0
0.5496445970056811,-1.9943699829101562,-9.533711010742186,1.197100830078125,0,0,0,0
0.5516074330080301,0.39743747558593745,-10.254365710449218,1.6807295654296874,0,0,0,0
0.5534486210090108,2.212242333984375,-10.462661254882812,1.695094775390625,0,0,0,0
0.5554307530110236,-0.354341845703125,-10.031704956054687,0.6823474731445313,0,0,0,0
0.5573481250030454,-1.7836802368164062,-10.251971508789062,1.0726023437499999,0,0,0,0
0.5591233510058373,0.5985504150390625,-10.769119067382812,1.3072341064453123,0,0,0,0
0.5608749110106146,1.3335703247070312,-10.01015714111328,1.5298948608398437,0,0,0,0
0.562772858000244,0.6679822631835937,-9.701305126953125,0.6584054565429687,0,0,0,0
0.5646215460001258,-2.0063409912109376,-9.550470422363281,0.0909796630859375,0,0,0,0
0.566430307997507,-0.32082302246093747,-9.756371765136718,1.2641384765625,0,0,0,0
0.5682881630054908,1.9752163696289062,-10.235212097167969,1.438915197753906,0,0,0,0
0.5700548520107986,2.3487118286132813,-9.095572106933593,1.2761094848632812,0,0,0,0
0.5718027999973856,-0.4572925170898437,-9.399635717773437,0.05746083984375,0,0,0,0
0.5736972290033009,-1.898601916503906,-10.043675964355469,0.4477157104492187,0,0,0,0
0.5755606760067167,0.49320554199218747,-10.39322940673828,1.3024457031249999,0,0,0,0
0.5773178649978945,2.2673089721679687,-9.270348828125,1.6472107421875,0,0,0,0
0.5791146470000967,1.0390835205078124,-9.18655177001953,0.9624690673828125,0,0,0,0
0.5809390390058979,-1.5059528442382812,-10.024522351074218,0.507570751953125,0,0,0,0
0.5827482830063673,0.11731588134765625,-10.307038146972655,1.3718775512695311,0,0,0,0
0.5852891500107944,1.0510545288085937,-9.78031378173828,2.0877438476562498,0,0,0,0
0.5871552640019218,-0.51714755859375,-9.550470422363281,1.924938134765625,0,0,0,0
0.5888898980047088,-0.8667010009765624,-10.036493359375,1.70467158203125,0,0,0,0
0.5907254379999358,1.0845733520507812,-9.993397729492187,1.656787548828125,0,0,0,0
0.5925599410111317,0.5817910034179687,-10.244788903808594,1.01514150390625,0,0,0,0
0.5943389449967071,-0.8068459594726562,-9.823409411621093,0.6200982299804687,0,0,0,0
0.5961467820015969,-1.6400281372070311,-10.520122094726561,0.5363011718749999,0,0,0,0
0.5980289139988599,-0.3280056274414062,-10.129867224121092,1.2569558715820313,0,0,0,0
0.5999773420044221,0.9864110839843749,-9.804255798339844,0.9409212524414062,0,0,0,0
0.6021149169973796,0.38786066894531246,-9.330203869628905,0.5267243652343749,0,0,0,0
0.6038375130010536,-1.3838485595703125,-9.804255798339844,0.6105214233398437,0,0,0,0
0.605442796004354,0.1292868896484375,-10.27830772705078,1.0295067138671874,0,0,0,0
0.6070439870090922,1.5514426757812498,-9.777919580078125,2.001552587890625,0,0,0,0
0.6085858630103758,1.4700398193359374,-9.411606726074218,1.3551181396484375,0,0,0,0
0.6107266960025299,-0.5985504150390625,-9.550470422363281,0.39743747558593745,0,0,0,0
0.6127648090041475,-1.7764976318359373,-9.950302099609374,0.6536170532226562,0,0,0,0
0.6142798150103772,1.2497732666015624,-9.873687646484374,1.4987702392578124,0,0,0,0
0.6157980980060529,1.9009961181640624,-9.94072529296875,1.4030021728515625,0,0,0,0
0.6174434179993114,1.1324573852539062,-9.368511096191405,0.4860229370117187,0,0,0,0
0.6191514590027509,-0.5817910034179687,-9.689334118652344,0.239420166015625,0,0,0,0
0.6206719460024033,-2.389413256835937,-9.821015209960937,0.622492431640625,0,0,0,0
0.6223364879988367,1.0654197387695312,-10.40041201171875,1.668758557128906,0,0,0,0
0.6239747710060328,1.9393033447265624,-9.976638317871092,2.042254016113281,0,0,0,0
0.6254983320104657,1.2114660400390624,-9.37808790283203,1.2306196533203124,0,0,0,0
0.6271645399974659,-0.5099649536132812,-10.041281762695311,0.7805097412109374,0,0,0,0
0.6288177670066943,-2.039859814453125,-10.029310754394531,1.005564697265625,0,0,0,0
0.6303391060064314,1.6232687255859375,-10.55364091796875,1.7453730102539062,0,0,0,0
0.6319046490098117,2.482787121582031,-10.103531005859374,1.678335363769531,0,0,0,0
0.6335475240048254,0.8714894042968749,-9.528922607421874,0.4165910888671875,0,0,0,0
0.6351453440001933,-1.5442600708007812,-9.686939916992188,-0.181959326171875,0,0,0,0
0.63686623700778,-3.0358477050781247,-10.32379755859375,0.411802685546875,0,0,0,0
0.6388344050064916,1.5705962890624998,-10.359710583496094,1.905784521484375,0,0,0,0
0.6405949650070397,2.2960393920898436,-9.188945971679686,1.4532804077148436,0,0,0,0
0.6422291729977587,-0.5147533569335937,-8.95670841064453,0.8810662109374999,0,0,0,0
0.6439195480052149,-2.4564509033203126,-9.787496386718749,0.4644751220703125,0,0,0,0
0.6455635160091333,-1.2641384765625,-10.503362683105468,1.9393033447265624,0,0,0,0
0.6473002050042851,2.9568390502929685,-10.433930834960936,2.5234885498046875,0,0,0,0
0.6492194660095265,2.272097375488281,-8.559270935058594,2.0278888061523435,0,0,0,0
0.650997766002547,-0.16041151123046873,-8.769960681152343,0.2825157958984375,0,0,0,0
0.6526839370053494,-3.517082238769531,-9.478644372558593,0.354341845703125,0,0,0,0
0.6542640719999326,1.3479355346679687,-11.051634863281249,1.2928688964843749,0,0,0,0
0.6558987070020521,2.712630480957031,-10.330980163574218,1.7956512451171873,0,0,0,0
0.6575001190067269,1.5418658691406248,-9.526528405761718,1.2761094848632812,0,0,0,0
0.6591382540063933,-1.1851298217773436,-9.287108239746093,-0.1292868896484375,0,0,0,0
0.6608535730047151,-3.2824504760742186,-9.524134204101562,0.3327940307617187,0,0,0,0
0.6624345410091337,1.197100830078125,-10.36210478515625,1.5705962890624998,0,0,0,0
0.6639635100000305,2.7054478759765623,-10.36210478515625,2.1691467041015624,0,0,0,0
0.6656375879974803,1.6903063720703124,-9.591171850585937,1.1228805786132812,0,0,0,0
0.6673948880052194,-2.3295582153320313,-9.85692823486328,0.6272808349609375,0,0,0,0
0.6690316710009938,-2.8802245971679685,-10.230423693847655,0.7398083129882812,0,0,0,0
0.6706030470086262,1.1252747802734375,-10.156203442382813,2.1930887207031247,0,0,0,0
0.6727164550102316,2.9664158569335934,-9.507374792480467,1.6735469604492186,0,0,0,0
0.674358108008164,-0.55545478515625,-8.999804040527343,0.8595183959960937,0,0,0,0
0.675884947006125,-2.8227637573242186,-9.794678991699218,-0.5267243652343749,0,0,0,0
0.6774753220088314,-1.9393033447265624,-10.649408984374999,1.1109095703125,0,0,0,0
0.6796818410075502,2.422932080078125,-10.742782849121093,2.061407629394531,0,0,0,0
0.6813846040022327,2.5163059448242184,-9.07163009033203,1.7836802368164062,0,0,0,0
0.6832220150099602,0.0718260498046875,-8.973467822265624,0.39264907226562495,0,0,0,0
0.6847565580101218,-3.450044592285156,-9.4618849609375,0.37828386230468747,0,0,0,0
0.686332155004493,0.39743747558593745,-10.31661495361328,1.5322890624999999,0,0,0,0
0.6879678270051954,2.6503812377929687,-10.153809240722655,2.674323254394531,0,0,0,0
0.6897502560022986,3.5051112304687497,-9.366116894531249,1.5610194824218748,0,0,0,0
0.6914617980073672,-2.059013427734375,-9.294290844726563,0.3806780639648437,0,0,0,0
0.6930851360084489,-3.5697546752929687,-10.366893188476562,-0.29927520751953124,0,0,0,0
0.694672123005148,-0.42377369384765623,-10.66856259765625,1.2856862915039062,0,0,0,0
0.6965178289974574,2.5953145996093747,-9.93354268798828,1.714248388671875,0,0,0,0
0.6981750380073208,2.978386865234375,-8.942343200683593,1.120486376953125,0,0,0,0
0.6998911710106768,-2.0063409912109376,-9.023746057128905,-0.3112462158203125,0,0,0,0
0.7015322320075938,-2.7629087158203123,-10.572794531249999,-0.00239420166015625,0,0,0,0
0.703217347007012,-0.7924807495117187,-11.283872424316405,1.7764976318359373,0,0,0,0
0.7049158330046339,2.925714428710937,-9.861716638183593,2.5641899780273434,0,0,0,0
0.7065784300066298,1.2473790649414063,-8.916006982421875,1.1827356201171875,0,0,0,0
0.7083012490038527,-2.5258827514648434,-8.827421520996094,0.6775590698242188,0,0,0,0
0.7099858650035458,-1.879448303222656,-10.04846436767578,1.2569558715820313,0,0,0,0
0.7120318100060103,1.1156979736328125,-10.551246716308594,1.9895815795898437,0,0,0,0
0.7143404579983326,0.5530605834960938,-9.418789331054686,1.1947066284179686,0,0,0,0
0.7159859620005591,-2.370259643554687,-9.555258825683593,-0.15083470458984374,0,0,0,0
0.7177607440098654,-2.1499930908203124,-10.187328063964843,0.967257470703125,0,0,0,0
0.7198678370041307,1.0749965454101562,-10.386046801757812,1.9895815795898437,0,0,0,0
0.722055336998892,2.9951462768554684,-9.428366137695312,1.5969325073242187,0,0,0,0
0.7241898010106524,-1.388636962890625,-8.94473740234375,0.55545478515625,0,0,0,0
0.7266663360060193,-0.08858546142578125,-10.105925207519531,2.001552587890625,0,0,0,0
0.7284087470034137,2.655169641113281,-10.587159741210938,2.446874096679687,0,0,0,0
0.7302693980018375,3.2058360229492187,-9.641450085449218,1.5179238525390624,0,0,0,0
0.7320172909967368,-1.1276689819335937,-9.485826977539062,-0.10295067138671875,0,0,0,0
0.7337410730106058,-2.272097375488281,-9.624690673828125,0.46686932373046874,0,0,0,0
0.7355124840105418,0.5770026000976562,-10.381258398437499,0.8307879760742187,0,0,0,0
0.7372784690087428,1.6831237670898436,-9.545682019042967,1.4053963745117186,0,0,0,0
0.7390284550056094,1.0127473022460938,-9.756371765136718,0.4525041137695312,0,0,0,0
0.7406433480064152,-2.2290017456054687,-9.7683427734375,0.22026655273437498,0,0,0,0
0.7425539810064947,-0.5458779785156249,-10.084377392578125,1.0223241088867188,0,0,0,0
0.7441867450106656,0.49320554199218747,-10.165780249023436,1.8722656982421875,0,0,0,0
0.745793620008044,2.2002713256835937,-9.591171850585937,2.1021090576171875,0,0,0,0
0.7475666420068592,-0.00718260498046875,-9.117119921875,1.0845733520507812,0,0,0,0
0.7494653670000844,-0.7685387329101562,-9.698910925292969,0.9169792358398436,0,0,0,0
0.7512642960064113,-0.16759411621093748,-10.443507641601562,1.005564697265625,0,0,0,0
0.7531525030062767,0.49799394531249996,-10.251971508789062,1.0821791503906248,0,0,0,0
0.7549315250071231,0.5458779785156249,-9.916783276367187,0.622492431640625,0,0,0,0
0.7567718060017796,-1.3623007446289062,-9.464279162597656,0.5027823486328125,0,0,0,0
0.7584726060013054,-0.1580173095703125,-9.765948571777344,1.0103531005859374,0,0,0,0
0.76010788900021,0.09576806640624999,-10.412383020019531,1.2593500732421874,0,0,0,0
0.7617166160052875,1.5107412475585937,-9.9215716796875,1.2713210815429687,0,0,0,0
0.7641237630014075,-1.3311761230468748,-9.734823950195311,1.005564697265625,0,0,0,0
0.7658902289986145,-0.6967126831054687,-10.105925207519531,1.8914193115234375,0,0,0,0
0.7676527150033507,1.1228805786132812,-9.794678991699218,2.243366955566406,0,0,0,0
0.7694115699996473,2.051830822753906,-9.4618849609375,2.003946789550781,0,0,0,0
0.7712688879983034,0.316034619140625,-9.591171850585937,0.7709329345703124,0,0,0,0
0.7729980959993554,-1.7166425903320313,-10.144232434082031,0.41419688720703124,0,0,0,0
0.7747558960109018,-0.040701428222656245,-10.256759912109374,0.9600748657226562,0,0,0,0
0.7770500620099483,1.3096283081054687,-9.586383447265625,1.1444283935546875,0,0,0,0
0.7787719920015661,-0.08140285644531249,-9.449913952636718,0.4213794921875,0,0,0,0
0.7805752910062438,-1.7238251953125,-9.801861596679688,0.29448680419921874,0,0,0,0
0.7824709420092404,0.3136404174804687,-9.90241806640625,0.9576806640625,0,0,0,0
0.7841031880088849,0.9002198242187499,-10.022128149414062,1.5658078857421873,0,0,0,0
0.7858164880017284,1.2832920898437499,-9.60793126220703,1.5035586425781249,0,0,0,0
0.7879075079981703,-0.7685387329101562,-9.713276135253906,1.1180921752929687,0,0,0,0
0.789709919001325,0.0047884033203125,-10.189722265624999,1.4508862060546874,0,0,0,0
0.7913762009993661,1.0869675537109373,-9.97903251953125,1.4700398193359374,0,0,0,0
0.7930132059991593,1.0414777221679687,-9.648632690429688,0.9097966308593749,0,0,0,0
0.7950077450077515,-0.7733271362304687,-9.97903251953125,0.38307226562499996,0,0,0,0
0.796757730000536,-1.1851298217773436,-10.383652600097655,0.6871358764648438,0,0,0,0
0.7984699380031088,0.814028564453125,-10.43871923828125,1.0845733520507812,0,0,0,0
0.8001887569989776,0.7493851196289062,-9.938331091308592,1.1468225952148436,0,0,0,0
0.8019456680049188,0.5123591552734374,-9.459490759277344,0.9169792358398436,0,0,0,0
0.8036130980035523,-1.8770541015625,-9.689334118652344,0.6703764648437499,0,0,0,0
0.8052939180051908,-1.1540052001953125,-10.40041201171875,1.3958195678710936,0,0,0,0
0.8069294410088332,1.3670891479492187,-10.141838232421874,2.080561242675781,0,0,0,0
0.8085768720047781,1.8148048583984373,-9.995791931152343,1.946485949707031,0,0,0,0
0.8102886720007518,0.9840168823242187,-9.026140258789061,0.948103857421875,0,0,0,0
0.8119994360022247,-2.068590234375,-9.421183532714844,0.59376201171875,0,0,0,0
0.8136266259971308,-0.016759411621093748,-10.24000050048828,0.6512228515624999,0,0,0,0
0.8153410930099199,1.0534487304687499,-9.296685046386719,1.4628572143554686,0,0,0,0
0.8172109099978115,1.5227122558593749,-8.798691101074219,1.22583125,0,0,0,0
0.8188976740057115,-0.8283937744140625,-9.191340173339842,0.2609679809570312,0,0,0,0
0.8206214740057476,-1.6424223388671875,-10.491391674804687,0.35673604736328124,0,0,0,0
0.8223332750058034,-0.09576806640624999,-10.639832177734375,1.429338391113281,0,0,0,0
0.824008445997606,1.3623007446289062,-10.266336718749999,1.678335363769531,0,0,0,0
0.8257170610013418,0.82360537109375,-9.387664709472656,1.1252747802734375,0,0,0,0
0.8276024530059658,-1.8148048583984373,-9.299079248046874,0.8810662109374999,0,0,0,0
0.8292759390024003,-1.1923124267578125,-10.965443603515624,1.0893617553710937,0,0,0,0
0.8312619409989566,1.0223241088867188,-10.697293017578124,1.6208745239257811,0,0,0,0
0.8330939620063873,1.8459294799804686,-10.206481677246094,0.9888052856445312,0,0,0,0
0.8349025210045511,-1.4820108276367188,-10.165780249023436,0.033518823242187495,0,0,0,0
0.8371465210075257,-1.8914193115234375,-10.070012182617187,0.9265560424804687,0,0,0,0
0.838798452008632,1.189918225097656,-9.758765966796874,1.8602946899414061,0,0,0,0
0.8408495830080938,1.927332336425781,-9.967061511230469,1.149216796875,0,0,0,0
0.8426674009970156,-1.1516109985351561,-9.05965908203125,0.3399766357421875,0,0,0,0
0.8444803849997697,-1.927332336425781,-9.854534033203125,0.5746083984375,0,0,0,0
0.8467048480088124,1.5729904907226562,-10.328585961914062,2.281674182128906,0,0,0,0
0.8486515730037354,3.1507693847656246,-9.552864624023437,2.0638018310546875,0,0,0,0
0.8502821330039296,1.7836802368164062,-8.844180932617187,0.6057330200195312,0,0,0,0
0.8519035080098547,-3.114856359863281,-9.830592016601562,0.17956512451171874,0,0,0,0
0.854661985009443,1.4963760375976562,-10.120290417480469,1.2473790649414063,0,0,0,0
0.8563864710013149,2.47081611328125,-9.706093530273437,1.5969325073242187,0,0,0,0
0.8580703640036518,1.4173673828125,-9.184157568359375,0.5195417602539062,0,0,0,0
0.859789776004618,-2.935291235351562,-9.907206469726562,0.0909796630859375,0,0,0,0
0.8614397430064855,-2.4588451049804685,-10.577582934570312,0.8858546142578124,0,0,0,0
0.8631147289997898,1.0989385620117187,-10.455478649902343,2.29843359375,0,0,0,0
0.8648202890035463,2.664746447753906,-10.081983190917969,2.147598889160156,0,0,0,0
0.8664529230009066,2.1978771240234374,-8.975862023925782,1.5801730957031248,0,0,0,0
0.8681007980048889,-2.5570073730468748,-10.66137999267578,0.5386953735351562,0,0,0,0
0.869871321003302,-0.9600748657226562,-11.034875451660156,1.5514426757812498,0,0,0,0
0.8716059730068082,2.020706201171875,-10.383652600097655,1.6998831787109374,0,0,0,0
0.8732630890008295,2.099714855957031,-9.564835632324218,1.2114660400390624,0,0,0,0
0.8749891480110819,-0.9097966308593749,-9.184157568359375,-0.07900865478515624,0,0,0,0
0.8767364480008837,-2.602497204589844,-9.696516723632811,0.3591302490234375,0,0,0,0
0.8784195080079371,-1.1755530151367186,-10.436325036621094,1.0462661254882812,0,0,0,0
0.8800540320080472,1.6424223388671875,-10.43871923828125,1.7118541870117185,0,0,0,0
0.8816716849978548,2.0446482177734375,-9.191340173339842,1.6400281372070311,0,0,0,0
0.8833606890111696,-0.3591302490234375,-9.126696728515624,0.5674257934570313,0,0,0,0
0.8850449160090648,-2.530671154785156,-9.792284790039062,1.120486376953125,0,0,0,0
0.8866739579971181,0.7805097412109374,-10.117896215820313,1.9871873779296874,0,0,0,0
0.8883680360013386,2.157175695800781,-10.036493359375,2.518700146484375,0,0,0,0
0.8900672440067865,2.7916391357421872,-9.315838659667968,1.2641384765625,0,0,0,0
0.891708101000404,-2.693476867675781,-9.193734375,0.32082302246093747,0,0,0,0
0.8934043269982794,-2.877830395507812,-10.070012182617187,0.2753331909179687,0,0,0,0
0.8950855169969145,0.009576806640625,-10.235212097167969,1.4796166259765624,0,0,0,0
0.8966982440033462,2.825157958984375,-10.156203442382813,1.8315642700195311,0,0,0,0
0.8988737629988464,0.21787235107421873,-9.042899670410156,0.1484405029296875,0,0,0,0
0.9005689339974197,-3.1579519897460937,-9.868899243164062,-0.19153613281249998,0,0,0,0
0.9021941789978882,-2.2553379638671873,-11.123460913085937,0.8882488159179687,0,0,0,0
0.9039394240098773,1.0845733520507812,-10.747571252441405,2.0925322509765625,0,0,0,0
0.9058502600091742,3.028665100097656,-9.572018237304688,1.7573440185546874,0,0,0,0
0.9076791520055849,-1.8315642700195311,-8.743624462890624,1.024718310546875,0,0,0,0
0.9094698960107053,-2.059013427734375,-9.911994873046874,0.6440402465820312,0,0,0,0
0.9113069360028021,0.023942016601562498,-10.613495959472656,1.5059528442382812,0,0,0,0
0.913127791005536,2.5474305664062498,-9.955090502929687,1.7860744384765623,0,0,0,0
0.9148819249967346,0.08140285644531249,-9.193734375,0.29448680419921874,0,0,0,0
0.9166824100102531,-2.5258827514648434,-9.368511096191405,-0.06464344482421874,0,0,0,0
0.9185736350045772,-0.1149216796875,-10.103531005859374,0.7876923461914062,0,0,0,0
0.9203387309971731,1.189918225097656,-10.570400329589843,1.6017209106445311,0,0,0,0
0.9221343640092527,2.3774422485351563,-9.045293872070312,1.005564697265625,0,0,0,0
0.9239698860037606,-1.8722656982421875,-9.399635717773437,0.38307226562499996,0,0,0,0
0.9257267600041814,-1.6304513305664061,-10.002974536132811,0.7326257080078125,0,0,0,0
0.9275314300030004,1.438915197753906,-10.27830772705078,1.8435352783203125,0,0,0,0
0.9293535070028156,2.91134921875,-9.78031378173828,2.109291662597656,0,0,0,0
0.9311034740094328,0.229843359375,-9.045293872070312,0.699106884765625,0,0,0,0
0.9328469960018992,-2.0973206542968748,-9.78031378173828,0.28730419921875,0,0,0,0
0.9347586660005618,-0.3280056274414062,-10.0748005859375,1.3623007446289062,0,0,0,0
0.936532410007203,0.6679822631835937,-10.180145458984374,1.687912170410156,0,0,0,0
0.9383323020010721,2.308010400390625,-9.038111267089842,1.2042834350585936,0,0,0,0
0.940166157000931,-1.369483349609375,-9.751583361816406,0.14125789794921875,0,0,0,0
0.9419625680020545,-1.5083470458984374,-10.20887587890625,0.852335791015625,0,0,0,0
0.9440792910027085,0.19871873779296872,-10.455478649902343,1.668758557128906,0,0,0,0
0.9460868669993943,1.7334020019531249,-9.627084875488281,1.944091748046875,0,0,0,0
0.9480076660111081,-0.3902548706054687,-9.239224206542968,1.2808978881835937,0,0,0,0
0.9498915940057486,-0.44532150878906246,-10.172962854003906,1.0726023437499999,0,0,0,0
0.9517427450045943,-0.07422025146484375,-10.601524951171875,1.0295067138671874,0,0,0,0
0.9535017489979509,0.97683427734375,-10.077194787597655,1.16837041015625,0,0,0,0
0.9553448820079211,0.06464344482421874,-9.184157568359375,0.6416460449218749,0,0,0,0
0.9575841589976335,-0.6967126831054687,-9.648632690429688,0.5913678100585937,0,0,0,0
0.9607806139974855,1.3239935180664062,-10.31661495361328,1.3455413330078123,0,0,0,0
0.9634667030040873,-0.2537853759765625,-9.555258825683593,0.967257470703125,0,0,0,0
0.967385447002016,0.6392518432617187,-9.909600671386718,1.8818425048828125,0,0,0,0
0.9699561110028299,1.6615759521484375,-9.658209497070311,1.0342951171875,0,0,0,0
0.9735532110062195,-0.7422025146484375,-10.321403356933594,0.34237083740234375,0,0,0,0
0.9762740029982524,0.28012159423828126,-10.165780249023436,1.0630255371093749,0,0,0,0
0.9793825509987073,-0.5147533569335937,-9.576806640625,0.5386953735351562,0,0,0,0
0.9815671620017383,-1.3192051147460937,-10.572794531249999,0.8882488159179687,0,0,0,0
0.9848739680019207,1.158793603515625,-10.041281762695311,1.7214309936523438,0,0,0,0
0.9879134610091569,-0.70868369140625,-9.574412438964844,1.429338391113281,0,0,0,0
0.9918143170070834,0.3447650390625,-10.216058483886718,1.0510545288085937,0,0,0,0
0.9936694119969616,0.34715924072265625,-9.457096557617186,0.5315127685546874,0,0,0,0
0.995787838997785,-1.8435352783203125,-9.773131176757811,0.5003881469726562,0,0,0,0
0.998159819006105,0.469263525390625,-10.046070166015625,1.3215993164062498,0,0,0,0
0.9999459520040546,0.9193734375,-9.885658654785155,0.9552864624023437,0,0,0,0
1.001694734004559,0.3758896606445312,-9.777919580078125,1.0319009155273438,0,0,0,0
1.0038829190016259,-1.8411410766601561,-9.689334118652344,1.0510545288085937,0,0,0,0
1.0059111430018675,0.469263525390625,-10.022128149414062,2.1619640991210938,0,0,0,0
1.0075476479978533,1.6352397338867186,-9.842563024902343,2.224213342285156,0,0,0,0
1.0096392410050612,0.8906430175781249,-9.45470235595703,1.5298948608398437,0,0,0,0
1.0116483730089385,-2.2744915771484373,-9.90241806640625,0.3184288208007812,0,0,0,0
1.0142793690029066,0.18914193115234373,-9.909600671386718,1.0941501586914062,0,0,0,0
1.0186990729998797,-1.5682020874023437,-9.093177905273437,0.08379705810546874,0,0,0,0
1.0209271280036774,-1.1563994018554686,-10.46984385986328,0.7972691528320313,0,0,0,0
1.0234509770089062,0.6440402465820312,-9.909600671386718,1.7405846069335937,0,0,0,0
1.0253542580030626,1.5729904907226562,-9.600748657226562,1.7812860351562498,0,0,0,0
1.0275599059968954,-0.8810662109374999,-9.65342109375,1.2569558715820313,0,0,0,0
1.029755091003608,0.8212111694335937,-10.299855541992187,1.5490484741210937,0,0,0,0
1.0316559460043209,1.2210428466796874,-9.847351428222655,1.3479355346679687,0,0,0,0
1.0339007419970585,0.34715924072265625,-9.320627062988281,0.1484405029296875,0,0,0,0
1.0358608180104056,-2.834734765625,-9.823409411621093,0.0143652099609375,0,0,0,0
1.037710895005148,0.08140285644531249,-10.666168395996094,0.7637503295898437,0,0,0,0
1.039593674999196,1.4173673828125,-9.78031378173828,1.3934253662109375,0,0,0,0
1.0415362890053075,2.0087351928710935,-8.927977990722656,0.4429273071289062,0,0,0,0
1.043960805007373,-3.342305517578125,-9.050082275390624,0.8020575561523438,0,0,0,0
1.0458433640014846,0.6775590698242188,-10.78348427734375,2.4396914916992185,0,0,0,0
1.0479999570088694,2.6815058593749996,-10.283096130371094,2.4779987182617185,0,0,0,0
1.049906774002011,1.1061211669921875,-9.327809667968749,1.8124106567382812,0,0,0,0
1.0516136299993377,-1.4149731811523436,-9.516951599121093,0.32082302246093747,0,0,0,0
1.0533166340028401,-2.221819140625,-10.242394702148436,0.833182177734375,0,0,0,0
1.055223543997272,1.3646949462890625,-10.326191760253906,1.4604630126953124,0,0,0,0
1.0570159920025617,2.291250988769531,-9.952696301269532,0.9576806640625,0,0,0,0
1.0586977370112436,-2.2361843505859373,-8.820238916015624,0.22744915771484372,0,0,0,0
1.0604404820041964,-3.4261025756835934,-10.66137999267578,-0.07900865478515624,0,0,0,0
1.0620918570057256,-0.11013327636718749,-10.98699141845703,1.7381904052734374,0,0,0,0
1.0637286950077396,2.300827795410156,-10.194510668945313,2.1715409057617188,0,0,0,0
1.0653919960022904,2.2960393920898436,-8.765172277832031,1.7932570434570312,0,0,0,0
1.0671492039982695,-1.407790576171875,-8.626308581542968,0.9696516723632812,0,0,0,0
1.0688491710025119,-1.0534487304687499,-10.101136804199218,1.426944189453125,0,0,0,0
1.0714245200069854,1.3479355346679687,-10.268730920410155,1.8171990600585937,0,0,0,0
1.0732771519978996,2.27927998046875,-10.156203442382813,0.9792284790039062,0,0,0,0
1.075048434009659,-1.7022773803710936,-8.710105639648438,-0.14604630126953125,0,0,0,0
1.0768003999983193,-2.2768857788085937,-9.890447058105469,-0.0909796630859375,0,0,0,0
1.0786213300016243,-0.17238251953125,-10.51533369140625,1.4030021728515625,0,0,0,0
1.0804594619985437,2.0829554443359375,-9.995791931152343,1.5801730957031248,0,0,0,0
1.0821989109972492,1.2952630981445312,-9.452308154296874,0.565031591796875,0,0,0,0
1.0845137430005707,-3.1771056030273437,-10.27830772705078,0.258573779296875,0,0,0,0
1.0863551720103715,-0.7398083129882812,-10.694898815917968,1.8698714965820311,0,0,0,0
1.088080510002328,2.442085693359375,-10.24000050048828,2.375048046875,0,0,0,0
1.0897583659971133,1.9536685546875,-9.038111267089842,1.9608511596679685,0,0,0,0
1.0915225920034572,-0.49799394531249996,-9.244012609863281,0.35194764404296874,0,0,0,0
1.0933820019999985,-2.4971523315429685,-10.582371337890624,0.40462008056640625,0,0,0,0
1.0952723200025503,0.05746083984375,-10.539275708007812,1.4987702392578124,0,0,0,0
1.0971918040013406,2.9664158569335934,-9.943119494628906,1.484405029296875,0,0,0,0
1.0990941019990714,-0.6943184814453125,-8.894459167480468,-0.13168109130859373,0,0,0,0
1.1010104380111443,-2.7461493041992187,-10.218452685546874,0.277727392578125,0,0,0,0
1.1028480149980169,0.2825157958984375,-10.723629235839843,1.0965443603515623,0,0,0,0
1.1046612040081527,1.917755529785156,-10.24718310546875,2.281674182128906,0,0,0,0
1.1062289499968756,2.147598889160156,-9.052476477050782,1.5658078857421873,0,0,0,0
1.1075633650034433,-0.3112462158203125,-8.576030346679687,0.9409212524414062,0,0,0,0
1.1087943730090046,-2.128445275878906,-9.636661682128906,0.6560112548828124,0,0,0,0
1.1099968070047908,-0.5291185668945312,-10.503362683105468,1.1133037719726562,0,0,0,0
1.1113282040023478,0.7733271362304687,-10.819397302246093,1.7597382202148437,0,0,0,0
1.112600841006497,1.6519991455078125,-10.263942517089843,1.7357962036132812,0,0,0,0
1.113878645002842,1.637633935546875,-9.344569079589844,1.5490484741210937,0,0,0,0
1.1150930240110029,-0.6177040283203125,-8.975862023925782,0.8930372192382812,0,0,0,0
1.116301273010322,-2.31758720703125,-8.963891015625,0.05027823486328125,0,0,0,0
1.117586170003051,-2.492363928222656,-10.019733947753906,0.5506663818359374,0,0,0,0
1.1188695290038595,0.5315127685546874,-10.505756884765624,1.2138602416992186,0,0,0,0
1.12019418500131,1.235408056640625,-10.716446630859375,1.5131354492187499,0,0,0,0
1.121401397002046,2.2744915771484373,-10.848127722167968,1.6041151123046875,0,0,0,0
1.1226249980099965,1.675941162109375,-9.244012609863281,1.1635820068359375,0,0,0,0
1.1238357100082794,-2.1308394775390624,-9.251195214843749,0.5339069702148437,0,0,0,0
1.1251422360073775,-2.109291662597656,-9.521740002441407,0.5482721801757812,0,0,0,0
1.1263320779980859,-0.8690952026367187,-9.85692823486328,1.6615759521484375,0,0,0,0
1.127459142007865,0.9361328491210937,-10.012551342773437,2.1021090576171875,0,0,0,0
1.1285374110011617,2.221819140625,-10.254365710449218,2.166752502441406,0,0,0,0
1.1297431600105483,2.023100402832031,-9.809044201660155,1.6424223388671875,0,0,0,0
1.1309720569988713,-0.7278373046875,-9.564835632324218,0.8475473876953125,0,0,0,0
1.1322968800086528,-2.5546131713867184,-9.643844287109374,-0.1771709228515625,0,0,0,0
1.133423870007391,-2.370259643554687,-10.182539660644531,0.24181436767578124,0,0,0,0
1.13459213799797,-1.467645617675781,-10.249577307128906,0.7876923461914062,0,0,0,0
1.1357893500098726,0.8499415893554687,-10.220846887207031,1.2330138549804688,0,0,0,0
1.1368643040041206,2.176329309082031,-10.192116467285155,1.5011644409179687,0,0,0,0
1.1379320730047766,1.936909143066406,-9.299079248046874,1.6041151123046875,0,0,0,0
1.139009934006026,0.10773907470703124,-8.939948999023438,1.1635820068359375,0,0,0,0
1.1400753330090083,-1.5610194824218748,-9.181763366699219,0.5722141967773438,0,0,0,0
1.1412069900106872,-1.7812860351562498,-9.938331091308592,0.16759411621093748,0,0,0,0
1.1425408860086463,-1.189918225097656,-10.87206973876953,1.1085153686523437,0,0,0,0
1.1437138019973645,-0.239420166015625,-10.726023437499999,1.5562310791015623,0,0,0,0
1.1448296260059578,1.9752163696289062,-9.947907897949218,1.9752163696289062,0,0,0,0
1.1459689690091182,1.9847931762695312,-9.074024291992187,2.1978771240234374,0,0,0,0
1.1471257180091925,0.7326257080078125,-8.760383874511719,1.8171990600585937,0,0,0,0
1.1482029870094266,-0.7661445312499999,-8.585607153320312,1.3000515014648437,0,0,0,0
1.149268403998576,-1.0845733520507812,-8.959102612304687,1.0223241088867188,0,0,0,0
1.1504777829977684,-0.5746083984375,-9.476250170898437,1.1468225952148436,0,0,0,0
1.1516486620093929,0.3136404174804687,-10.721235034179687,1.209071838378906,0,0,0,0
1.1527760040044086,0.9457096557617187,-10.714052429199219,1.22583125,0,0,0,0
1.153850347007392,1.1540052001953125,-10.266336718749999,1.1109095703125,0,0,0,0
1.1549441710085375,-0.1388636962890625,-10.01015714111328,0.7254431030273437,0,0,0,0
1.156009662008728,-1.5227122558593749,-9.380482104492186,0.3327940307617187,0,0,0,0
1.1573107069998514,-1.8076222534179687,-9.217676391601563,0.5051765502929687,0,0,0,0
1.1585269190109102,-1.180341418457031,-9.411606726074218,0.8212111694335937,0,0,0,0
1.1596512800024357,-0.48123453369140623,-10.532093103027343,1.189918225097656,0,0,0,0
1.1607310859981226,0.5315127685546874,-10.340556970214843,1.4532804077148436,0,0,0,0
1.1618717800010927,1.3814543579101561,-9.94072529296875,1.6017209106445311,0,0,0,0
1.1630108070094138,-0.031124621582031248,-10.043675964355469,1.35990654296875,0,0,0,0
1.1640858540049521,-1.2689268798828124,-9.91438907470703,0.9983820922851562,0,0,0,0
1.165155770999263,-1.419761584472656,-9.935936889648437,0.8690952026367187,0,0,0,0
1.1663355019991286,-0.7398083129882812,-9.859322436523437,1.659181750488281,0,0,0,0
1.1675329540012171,0.3399766357421875,-10.038887561035155,1.956062756347656,0,0,0,0
1.1687452960031806,1.0462661254882812,-9.950302099609374,2.109291662597656,0,0,0,0
1.1699650450027548,1.4963760375976562,-9.861716638183593,2.059013427734375,0,0,0,0
1.1711492760077817,0.06464344482421874,-9.78031378173828,1.446097802734375,0,0,0,0
1.1723975619970588,-1.2569558715820313,-9.524134204101562,0.49799394531249996,0,0,0,0
1.1736264400096843,-1.3120225097656248,-9.804255798339844,0.59376201171875,0,0,0,0
1.1747903750074329,-0.7398083129882812,-10.060435375976562,0.86191259765625,0,0,0,0
1.1758744590042625,0.6584054565429687,-10.223241088867187,0.9840168823242187,0,0,0,0
1.1769433760055108,1.4724340209960938,-9.81862100830078,1.1348515869140625,0,0,0,0
1.1780931250104913,1.0510545288085937,-9.241618408203124,1.1707646118164061,0,0,0,0
1.1793960590002825,-0.37828386230468747,-9.562441430664062,0.430956298828125,0,0,0,0
1.180678529010038,-1.4963760375976562,-9.935936889648437,0.41419688720703124,0,0,0,0
1.1818071870075073,-1.158793603515625,-9.6917283203125,0.8212111694335937,0,0,0,0
1.1829519360035192,0.47165772705078124,-9.923965881347655,1.0773907470703123,0,0,0,0
1.1840351860009832,0.6368576416015624,-9.911994873046874,1.388636962890625,0,0,0,0
1.1851749360066606,0.9361328491210937,-10.053252770996092,1.43652099609375,0,0,0,0
1.1863721300032921,0.3232172241210937,-10.091559997558592,1.3096283081054687,0,0,0,0
1.1874541580036748,-0.6248866333007812,-9.97903251953125,1.3431471313476562,0,0,0,0
1.1886817400081782,-0.8667010009765624,-9.916783276367187,1.4628572143554686,0,0,0,0
1.1898989339970285,0.7398083129882812,-9.868899243164062,1.7980454467773437,0,0,0,0
1.191245310998056,0.7350199096679687,-9.600748657226562,1.9129671264648436,0,0,0,0
1.1923276169982273,0.5889736083984375,-9.56962403564453,1.6112977172851561,0,0,0,0
1.1933939970040228,1.1444283935546875,-9.598354455566406,1.1468225952148436,0,0,0,0
1.194462432002183,0.4213794921875,-9.042899670410156,0.7852981445312499,0,0,0,0
1.1956189970078412,-0.9145850341796874,-9.64623848876953,0.4477157104492187,0,0,0,0
1.1967715060018236,-1.388636962890625,-10.04846436767578,0.5267243652343749,0,0,0,0
1.1978634219995001,0.5386953735351562,-10.031704956054687,0.8810662109374999,0,0,0,0
1.1989484500081744,0.8188169677734375,-10.072406384277343,1.120486376953125,0,0,0,0
1.200029497005744,0.6368576416015624,-10.24718310546875,0.9624690673828125,0,0,0,0
1.2012047090101987,1.0031704956054688,-10.405200415039062,0.7733271362304687,0,0,0,0
1.2023170330066932,-0.1484405029296875,-9.651026892089844,0.29448680419921874,0,0,0,0
1.204007038002601,-2.1595698974609374,-9.74200655517578,0.3184288208007812,0,0,0,0
1.2052708420087583,-0.737414111328125,-10.103531005859374,0.6488286499023437,0,0,0,0
1.2064459250104846,0.48123453369140623,-9.928754284667969,1.9225439331054686,0,0,0,0
1.2075847110099858,1.216254443359375,-9.65342109375,2.1930887207031247,0,0,0,0
1.208846738009015,2.051830822753906,-9.835380419921874,2.0446482177734375,0,0,0,0
1.2108294799982104,-0.967257470703125,-9.804255798339844,1.1156979736328125,0,0,0,0
1.2121868760004872,-1.8195932617187498,-9.82580361328125,0.718260498046875,0,0,0,0
1.2136945860111155,-1.189918225097656,-10.364498986816406,1.0869675537109373,0,0,0,0
1.2152380920015275,1.0295067138671874,-10.251971508789062,1.419761584472656,0,0,0,0
1.2165794879983878,1.5131354492187499,-9.5384994140625,1.4341267944335936,0,0,0,0
1.2180693460104521,0.15562310791015624,-8.827421520996094,0.9911994873046874,0,0,0,0
1.2193112980021397,-1.6519991455078125,-9.150638745117186,0.5482721801757812,0,0,0,0
1.220510084007401,-2.2481553588867187,-9.950302099609374,0.3758896606445312,0,0,0,0
1.2221897370036459,0.373495458984375,-10.256759912109374,1.0223241088867188,0,0,0,0
1.2235179480048828,1.3766659545898436,-10.228029492187499,1.5921441040039062,0,0,0,0
1.2248635480063967,1.1420341918945311,-10.041281762695311,1.35990654296875,0,0,0,0
1.2260920560074737,-0.22744915771484372,-9.311050256347656,1.0749965454101562,0,0,0,0
1.227354083006503,-1.4317325927734375,-9.07163009033203,0.8283937744140625,0,0,0,0
1.2286071460111998,-1.6448165405273436,-10.12507882080078,0.9241618408203125,0,0,0,0
1.2301481519971276,0.4477157104492187,-10.144232434082031,1.6735469604492186,0,0,0,0
1.2317455640004482,1.1156979736328125,-10.149020837402343,1.5227122558593749,0,0,0,0
1.2330556829983834,1.7453730102539062,-10.050858569335936,1.254561669921875,0,0,0,0
1.2343635050056037,0.07422025146484375,-9.272743029785156,0.4740519287109375,0,0,0,0
1.235671882997849,-1.8267758666992187,-9.868899243164062,0.17238251953125,0,0,0,0
1.2368595029984135,-1.4508862060546874,-10.184933862304687,0.5051765502929687,0,0,0,0
1.2380520300066564,0.16280571289062498,-10.046070166015625,1.2521674682617188,0,0,0,0
1.2392670380068012,1.7980454467773437,-10.352527978515624,1.8076222534179687,0,0,0,0
1.240353770001093,2.2385785522460937,-10.187328063964843,1.5346832641601562,0,0,0,0
1.2415915559977293,1.9416975463867185,-9.746794958496093,1.2234370483398436,0,0,0,0
1.2427797870041104,-0.0383072265625,-8.923189587402343,0.612915625,0,0,0,0
1.243868111007032,-2.0470424194335934,-9.564835632324218,0.4477157104492187,0,0,0,0
1.2452866539970273,-1.3646949462890625,-10.168174450683592,0.8044517578125,0,0,0,0
1.2463882930023829,0.30885201416015623,-10.297461340332031,2.1906945190429687,0,0,0,0
1.2476170050067594,1.8411410766601561,-10.319009155273436,2.214636535644531,0,0,0,0
1.2487907360045938,2.4851813232421875,-10.304643945312499,2.0350714111328125,0,0,0,0
1.2500401700090151,0.6440402465820312,-9.133879333496093,1.5610194824218748,0,0,0,0
1.251223586004926,-1.637633935546875,-9.023746057128905,0.7398083129882812,0,0,0,0
1.2523812250001356,-2.683900061035156,-9.337386474609374,0.2657563842773437,0,0,0,0
1.2535962510009995,-1.7286135986328124,-10.230423693847655,0.7565677246093749,0,0,0,0
1.2549281480023637,1.5011644409179687,-10.378864196777343,1.3048399047851562,0,0,0,0
1.256360487008351,1.898601916503906,-10.134655627441406,1.4437036010742186,0,0,0,0
1.2575327180093154,1.5179238525390624,-9.622296472167967,0.8714894042968749,0,0,0,0
1.2588368560100207,-0.11252747802734374,-9.349357482910156,0.239420166015625,0,0,0,0
1.260065381997265,-2.3319524169921872,-10.103531005859374,-0.05746083984375,0,0,0,0
1.2614453150017653,-1.2713210815429687,-10.206481677246094,1.2138602416992186,0,0,0,0
1.2625744350079913,0.23223756103515625,-10.378864196777343,1.649604943847656,0,0,0,0
1.263875424003345,1.5777788940429687,-10.488997473144531,1.7597382202148437,0,0,0,0
1.2653451160003897,1.7501614135742187,-9.847351428222655,1.3958195678710936,0,0,0,0
1.2666680859983899,0.1197100830078125,-9.066841687011719,0.9050082275390624,0,0,0,0
1.2679059090005467,-2.607285607910156,-9.358934289550781,0.7326257080078125,0,0,0,0
1.2690601400099695,-1.0175357055664063,-9.97184991455078,1.1037269653320312,0,0,0,0
1.2703566109994426,0.9169792358398436,-10.08677159423828,2.1811177124023438,0,0,0,0
1.2718992090085521,2.789244934082031,-10.311826550292968,2.1164742675781247,0,0,0,0
1.2733769559999928,2.1643583007812497,-9.964667309570311,0.842758984375,0,0,0,0
1.2748393880028743,-0.258573779296875,-9.488221179199218,0.031124621582031248,0,0,0,0
1.276588022010401,-3.5218706420898434,-9.739612353515625,-0.031124621582031248,0,0,0,0
1.2780894530005753,-0.0383072265625,-9.883264453125,0.9552864624023437,0,0,0,0
1.2795587370055728,2.01112939453125,-10.412383020019531,1.8602946899414061,0,0,0,0
1.281033577004564,2.6048914062499997,-10.110713610839843,1.649604943847656,0,0,0,0
1.2825236010103254,0.6416460449218749,-9.516951599121093,0.17477672119140625,0,0,0,0
1.283950923010707,-3.689464758300781,-9.677363110351562,-0.11252747802734374,0,0,0,0
1.285402948007686,-2.501940734863281,-10.254365710449218,1.1109095703125,0,0,0,0
1.2868303060095059,-0.38786066894531246,-10.13226142578125,2.1835119140624997,0,0,0,0
1.2882421829999657,2.712630480957031,-9.964667309570311,2.5450363647460934,0,0,0,0
1.289661597009399,3.3351229125976563,-9.069235888671875,2.3511060302734372,0,0,0,0
1.2910230859997682,-0.7900865478515624,-9.41639512939453,1.1947066284179686,0,0,0,0
1.292402111008414,-3.1004911499023438,-9.303867651367186,0.13646949462890623,0,0,0,0
1.29381017301057,-2.916137622070312,-10.369287390136718,0.7709329345703124,0,0,0,0
1.2951939949998632,1.01514150390625,-10.709264025878905,1.4891934326171874,0,0,0,0
1.2966093720024219,2.2936451904296873,-10.548852514648438,1.838746875,0,0,0,0
1.2980076750100125,1.8219874633789062,-9.035717065429687,1.4891934326171874,0,0,0,0
1.2994698850088753,-0.7302315063476562,-9.284714038085937,-0.21787235107421873,0,0,0,0
1.300932169004227,-3.028665100097656,-9.64623848876953,-0.28969840087890625,0,0,0,0
1.302350343001308,-1.6017209106445311,-9.945513696289062,1.1156979736328125,0,0,0,0
1.3038415890041506,0.47165772705078124,-11.020510241699219,1.649604943847656,0,0,0,0
1.3052927990065655,3.0406361083984375,-10.177751257324218,1.85790048828125,0,0,0,0
1.3067427130008582,1.8722656982421875,-9.437942944335937,1.0654197387695312,0,0,0,0
1.3081596270058071,-2.0877438476562498,-9.181763366699219,0.5578489868164063,0,0,0,0
1.3096129670011578,-2.205059729003906,-9.574412438964844,0.7517793212890624,0,0,0,0
1.311079195002094,0.296881005859375,-9.849745629882811,1.3814543579101561,0,0,0,0
1.312977513007354,3.1364041748046874,-9.74200655517578,2.001552587890625,0,0,0,0
1.314389890001621,1.7980454467773437,-9.047688073730468,1.0821791503906248,0,0,0,0
1.3157258050050586,-0.40222587890625,-9.390058911132812,0.3711012573242187,0,0,0,0
1.3171220710064517,-2.3415292236328122,-9.696516723632811,0.26336218261718747,0,0,0,0
1.318595094999182,-1.350329736328125,-9.550470422363281,1.39821376953125,0,0,0,0
1.3199199180089636,0.8355763793945312,-10.182539660644531,1.7812860351562498,0,0,0,0
1.3213233499991475,2.612074011230469,-9.94072529296875,1.70467158203125,0,0,0,0
1.3229503180045867,-0.3950432739257812,-10.120290417480469,0.86191259765625,0,0,0,0
1.3243390290008392,-2.0925322509765625,-10.374075793457031,0.22744915771484372,0,0,0,0
1.3257009990047663,-2.29843359375,-10.472238061523436,0.5674257934570313,0,0,0,0
1.327291152003454,0.016759411621093748,-10.752359655761719,1.0390835205078124,0,0,0,0
1.3286290670075687,0.8499415893554687,-10.579977136230468,1.7429788085937499,0,0,0,0
1.3300300359987887,1.2378022583007813,-9.284714038085937,1.697488977050781,0,0,0,0
1.3316063940001186,-0.13168109130859373,-9.41639512939453,0.7709329345703124,0,0,0,0
1.332951807999052,-1.608903515625,-10.20887587890625,0.5530605834960938,0,0,0,0
1.3342952410021098,-0.6847416748046875,-10.742782849121093,0.8954314208984374,0,0,0,0
1.3356350260000909,0.45010991210937495,-10.673351000976561,1.7549498168945312,0,0,0,0
1.3371603100094944,1.8195932617187498,-10.213664282226562,1.7669208251953124,0,0,0,0
1.3384745400107931,1.0414777221679687,-9.45470235595703,1.3000515014648437,0,0,0,0
1.3398052319971612,-0.5315127685546874,-9.088389501953124,0.9648632690429687,0,0,0,0
1.341139166004723,-0.9888052856445312,-9.397241516113281,0.6727706665039062,0,0,0,0
1.342439562009531,-0.35673604736328124,-9.406818322753905,1.2114660400390624,0,0,0,0
1.3438724200095749,0.4477157104492187,-9.86411083984375,1.3766659545898436,0,0,0,0
1.3465658240020275,1.0007762939453124,-9.373299499511718,0.8451531860351562,0,0,0,0
1.347889534998103,-0.19871873779296872,-9.03332286376953,0.5602431884765625,0,0,0,0
1.3493320780107751,-1.3670891479492187,-9.583989245605467,0.39264907226562495,0,0,0,0
1.350739565998083,-0.6727706665039062,-9.828197814941406,1.22583125,0,0,0,0
1.3522819240024546,0.8834604125976562,-10.237606298828124,1.350329736328125,0,0,0,0
1.3536754680098966,1.93451494140625,-10.01015714111328,1.4508862060546874,0,0,0,0
1.35506840099697,0.08379705810546874,-10.01733974609375,1.0295067138671874,0,0,0,0
1.3564924810052617,-1.4891934326171874,-9.782707983398437,0.22266075439453123,0,0,0,0
1.3580641900043702,-1.0534487304687499,-9.991003527832031,0.7038952880859375,0,0,0,0
1.3595085490087513,-0.01915361328125,-10.359710583496094,1.4700398193359374,0,0,0,0
1.3609372960054316,0.928950244140625,-10.266336718749999,1.7190367919921874,0,0,0,0
1.362568041004124,1.1659762084960936,-9.670180505371093,1.2401964599609374,0,0,0,0
1.363961010996718,-0.24181436767578124,-9.667786303710937,0.9696516723632812,0,0,0,0
1.365388461999828,-2.5570073730468748,-9.923965881347655,0.8499415893554687,0,0,0,0
1.3666965620068368,-2.2266075439453124,-9.629479077148437,2.9089550170898435,0,0,0,0
1.3685521580046043,-1.66636435546875,-9.387664709472656,5.403713146972656,0,0,0,0
1.369963386998279,-0.5363011718749999,-9.014169250488282,6.83783994140625,0,0,0,0
1.3712778760091169,1.1133037719726562,-9.018957653808593,8.322244970703125,0,0,0,0
1.3725742910028202,2.2577321655273437,-9.581595043945311,10.242394702148436,0,0,0,0
1.374221555000986,2.3965958618164063,-10.046070166015625,10.235212097167969,0,0,0,0
1.3757128020079108,2.8467057739257813,-9.861716638183593,10.350133776855468,0,0,0,0
1.3772677890083287,1.2042834350585936,-10.886434948730468,9.344569079589844,0,0,0,0
1.3789144230104284,1.2641384765625,-9.495403784179686,8.348581188964843,0,0,0,0
1.3803942810045555,0.9888052856445312,-10.172962854003906,7.517793212890624,0,0,0,0
1.3817620839981828,0.49320554199218747,-9.502586389160156,5.334281298828125,0,0,0,0
1.3831266470078845,-0.6655880615234374,-9.957484704589843,4.2521021484374995,0,0,0,0
1.3846468190022279,-0.9457096557617187,-10.053252770996092,2.3487118286132813,0,0,0,0
1.386135528999148,-0.06943184814453125,-10.66856259765625,1.39821376953125,0,0,0,0
1.3878661440103315,0.49320554199218747,-10.735600244140624,0.55545478515625,0,0,0,0
1.3901445509982295,-0.9696516723632812,-10.63025537109375,-0.679953271484375,0,0,0,0
1.3916461860062554,-2.0566192260742184,-10.158597644042969,-1.3311761230468748,0,0,0,0
1.3931474150012946,-2.051830822753906,-9.9215716796875,-1.0366893188476562,0,0,0,0
1.394631624003523,-1.24498486328125,-9.516951599121093,-0.055066638183593745,0,0,0,0
1.396060742001282,-0.06943184814453125,-8.872911352539061,0.5339069702148437,0,0,0,0
1.397467378003057,0.28490999755859375,-8.683769421386717,1.1348515869140625,0,0,0,0
1.3989343290013494,0.3806780639648437,-8.88009395751953,1.4245499877929686,0,0,0,0
1.4003308910032501,0.5027823486328125,-9.18655177001953,1.5873557006835937,0,0,0,0
1.4017213240003912,0.6703764648437499,-9.473855969238281,2.2170307373046874,0,0,0,0
1.4030720349983312,1.467645617675781,-9.816226806640625,2.4779987182617185,0,0,0,0
1.404447690001689,1.3048399047851562,-9.593566052246093,2.375048046875,0,0,0,0
1.4058434190083062,1.0558429321289062,-9.088389501953124,1.85790048828125,0,0,0,0
1.407221073997789,0.0909796630859375,-9.083601098632812,1.3623007446289062,0,0,0,0
1.4086103220033692,-0.41898529052734373,-9.107543115234375,0.48123453369140623,0,0,0,0
1.4099764959973982,-0.4955997436523437,-9.665392102050781,0.1484405029296875,0,0,0,0
1.4113087440055097,-0.4070142822265625,-10.108319409179687,-0.12689268798828124,0,0,0,0
1.4127218430076027,-0.2705447875976562,-10.364498986816406,-0.09337386474609374,0,0,0,0
1.4141160910075996,-0.258573779296875,-10.491391674804687,0.0909796630859375,0,0,0,0
1.4154995240096468,-0.3854664672851562,-10.46984385986328,0.2154781494140625,0,0,0,0
1.416837012002361,-0.3280056274414062,-10.505756884765624,1.0749965454101562,0,0,0,0
1.4182065930071985,0.0047884033203125,-10.54645831298828,1.47482822265625,0,0,0,0
1.419613970007049,0.28012159423828126,-10.625466967773438,2.147598889160156,0,0,0,0
1.4209961629967438,0.36631285400390623,-10.520122094726561,2.2864625854492187,0,0,0,0
1.4223366329970304,0.45010991210937495,-10.474632263183594,2.2002713256835937,0,0,0,0
1.4237366580055095,0.5339069702148437,-10.347739575195313,2.195482922363281,0,0,0,0
1.4250910359987756,0.5770026000976562,-10.137049829101562,1.9919757812499999,0,0,0,0
1.4263243400055217,0.5746083984375,-10.01733974609375,1.7238251953125,0,0,0,0
1.4275696819968289,0.34715924072265625,-9.955090502929687,1.120486376953125,0,0,0,0
1.4288430970045738,0.10773907470703124,-9.749189160156249,0.8714894042968749,0,0,0,0
1.430078012010199,-0.3136404174804687,-9.634267480468749,0.5482721801757812,0,0,0,0
1.4312785020010779,-0.6392518432617187,-9.526528405761718,0.296881005859375,0,0,0,0
1.4325182879983913,-0.7398083129882812,-9.34696328125,0.031124621582031248,0,0,0,0
1.4337304820073768,-0.5674257934570313,-9.33978067626953,0.08379705810546874,0,0,0,0
1.4348533239972312,-0.36631285400390623,-9.107543115234375,0.19632453613281248,0,0,0,0
1.4360143700032495,-0.24181436767578124,-9.181763366699219,0.39264907226562495,0,0,0,0
1.437122231000103,-0.05027823486328125,-9.318232861328125,0.7278373046875,0,0,0,0
1.4382807210058672,0.06703764648437499,-9.430760339355468,0.8738836059570312,0,0,0,0
1.4394522299990058,0.19632453613281248,-9.660603698730467,1.0654197387695312,0,0,0,0
1.4405623320053564,0.2920926025390625,-9.801861596679688,1.3000515014648437,0,0,0,0
1.4417324700043537,0.3136404174804687,-9.670180505371093,1.6998831787109374,0,0,0,0
1.443038755998714,0.4429273071289062,-9.586383447265625,1.8100164550781248,0,0,0,0
1.4442358200030867,0.13646949462890623,-9.488221179199218,1.9033903198242186,0,0,0,0
1.4453949950111564,0.16998831787109375,-9.548076220703125,1.7980454467773437,0,0,0,0
1.446508597000502,0.24660277099609373,-9.710881933593749,1.7908628417968748,0,0,0,0
1.4476003470044816,0.316034619140625,-9.823409411621093,1.4987702392578124,0,0,0,0
1.4488936880079564,0.28730419921875,-10.350133776855468,1.2761094848632812,0,0,0,0
1.4501214920019265,-0.028730419921875,-10.491391674804687,1.218648645019531,0,0,0,0
1.4512449460016796,-0.15322890625,-10.568006127929687,0.9552864624023437,0,0,0,0
1.4523327150091063,-0.181959326171875,-10.527304699707031,0.8786720092773437,0,0,0,0
1.4534197800094262,-0.21068974609375,-10.424354028320312,0.8762778076171874,0,0,0,0
1.454652343003545,-0.181959326171875,-10.364498986816406,0.8068459594726562,0,0,0,0
1.4558442220004508,-0.143652099609375,-10.141838232421874,0.8738836059570312,0,0,0,0
1.456938490999164,-0.21787235107421873,-10.122684619140625,0.8499415893554687,0,0,0,0
1.4580242780066328,-0.29448680419921874,-10.089165795898436,0.8499415893554687,0,0,0,0
1.4591118990065297,-0.11731588134765625,-10.062829577636718,0.9241618408203125,0,0,0,0
1.4603123139968375,-0.15562310791015624,-10.149020837402343,1.0127473022460938,0,0,0,0
1.4615663590084296,-0.0909796630859375,-10.04846436767578,1.0414777221679687,0,0,0,0
1.4627486640092684,-0.0143652099609375,-9.950302099609374,1.3431471313476562,0,0,0,0
1.4639163950050715,0.16998831787109375,-9.641450085449218,1.3623007446289062,0,0,0,0
1.4651127370016184,0.23702596435546874,-9.524134204101562,1.4437036010742186,0,0,0,0
1.4662989680073224,0.19871873779296872,-9.560047229003906,1.3766659545898436,0,0,0,0
1.4674218660074985,0.16041151123046873,-9.488221179199218,1.3120225097656248,0,0,0,0
1.468504671996925,0.09576806640624999,-9.433154541015625,1.2880804931640624,0,0,0,0
1.4695872550073545,0.011971008300781249,-9.354145886230468,1.1731588134765625,0,0,0,0
1.4708422260009684,0.0430956298828125,-9.5001921875,1.005564697265625,0,0,0,0
1.472082271007821,0.2346317626953125,-9.382876306152344,0.8978256225585937,0,0,0,0
1.4732646500051487,0.09576806640624999,-9.414000927734374,0.833182177734375,0,0,0,0
1.4744291590031935,0.15562310791015624,-9.425971936035156,0.8499415893554687,0,0,0,0
1.4756958520010812,0.0383072265625,-9.583989245605467,0.8714894042968749,0,0,0,0
1.4768824900093023,0.08379705810546874,-9.765948571777344,0.9193734375,0,0,0,0
1.478022980998503,0.00239420166015625,-9.785102185058593,0.93852705078125,0,0,0,0
1.4791254340088926,0.033518823242187495,-9.835380419921874,1.0342951171875,0,0,0,0
1.480342961003771,0.00239420166015625,-9.849745629882811,1.0749965454101562,0,0,0,0
1.481652265007142,0.086191259765625,-9.91438907470703,1.2593500732421874,0,0,0,0
1.482922180002788,0.12210428466796874,-10.105925207519531,1.3862427612304686,0,0,0,0
1.4840165600035107,0.16041151123046873,-10.211270080566406,1.37906015625,0,0,0,0
1.4851985499990406,0.2920926025390625,-10.35492218017578,1.4006079711914061,0,0,0,0
1.48637172600138,0.2561795776367187,-10.405200415039062,1.4341267944335936,0,0,0,0
1.4875003089982783,0.15322890625,-10.409988818359375,1.4053963745117186,0,0,0,0
1.4887209470034577,0.08140285644531249,-10.426748229980468,1.0917559570312498,0,0,0,0
1.4899137879983755,0.0143652099609375,-10.275913525390624,1.0438719238281249,0,0,0,0
1.4910149089992046,-0.05746083984375,-10.062829577636718,1.0103531005859374,0,0,0,0
1.492098269998678,-0.13407529296874998,-9.9215716796875,0.9552864624023437,0,0,0,0
1.4932826310105156,-0.11252747802734374,-9.878476049804688,0.9002198242187499,0,0,0,0
1.4945074350107461,-0.15083470458984374,-9.868899243164062,0.7948749511718749,0,0,0,0
1.4956858509976882,-0.2154781494140625,-9.890447058105469,0.8714894042968749,0,0,0,0
1.4967779900034657,-0.2920926025390625,-9.957484704589843,0.8068459594726562,0,0,0,0
1.4978611109982012,-0.19871873779296872,-9.86411083984375,0.9792284790039062,0,0,0,0
1.4989694899995811,-0.0909796630859375,-9.785102185058593,0.93852705078125,0,0,0,0
1.500059666010202,-0.13646949462890623,-9.643844287109374,0.9911994873046874,0,0,0,0
1.5012096749997,-0.13646949462890623,-9.370905297851563,1.1563994018554686,0,0,0,0
1.5023752020060783,0.0143652099609375,-9.133879333496093,1.1923124267578125,0,0,0,0
1.5034668230073294,0.316034619140625,-9.129090930175781,1.2617442749023438,0,0,0,0
1.5045539990096586,0.47644613037109373,-9.006986645507812,1.467645617675781,0,0,0,0
1.505775026002084,0.2753331909179687,-9.229647399902344,1.4413093994140624,0,0,0,0
1.507002348997048,0.12449848632812499,-9.792284790039062,1.3575123413085937,0,0,0,0
1.5081305250059813,0.0047884033203125,-9.720458740234374,1.3192051147460937,0,0,0,0
1.5094340509967878,-0.06703764648437499,-9.89523546142578,1.1875240234375,0,0,0,0
1.5106105220038444,-0.06464344482421874,-9.907206469726562,1.0917559570312498,0,0,0,0
1.512099436004064,-0.031124621582031248,-10.022128149414062,1.0702081420898437,0,0,0,0
1.513399258008576,-0.15562310791015624,-9.880870251464843,1.1540052001953125,0,0,0,0
1.5145117670035688,0.0383072265625,-9.765948571777344,1.2737152832031249,0,0,0,0
1.5156043140013935,0.0383072265625,-10.134655627441406,1.2473790649414063,0,0,0,0
1.5175335200037807,0.047884033203124995,-10.307038146972655,1.1659762084960936,0,0,0,0
1.5188479159987764,-0.12689268798828124,-10.369287390136718,1.0414777221679687,0,0,0,0
1.5200218690006295,-0.21787235107421873,-10.383652600097655,1.0582371337890624,0,0,0,0
1.5212136000045575,0.14125789794921875,-10.558429321289061,1.1875240234375,0,0,0,0
1.522441756009357,0.1197100830078125,-10.596736547851561,1.2330138549804688,0,0,0,0
1.5236773939977866,0.07422025146484375,-10.493785876464843,1.3359645263671873,0,0,0,0
1.5249670870107366,0.07900865478515624,-10.036493359375,1.2378022583007813,0,0,0,0
1.5262617240077816,0.11252747802734374,-9.943119494628906,1.177947216796875,0,0,0,0
1.5273618630017154,0.17956512451171874,-9.74200655517578,1.1540052001953125,0,0,0,0
1.5284506129974034,0.2705447875976562,-9.665392102050781,1.199495031738281,0,0,0,0
1.5296548810001696,0.12689268798828124,-9.82580361328125,1.0893617553710937,0,0,0,0
1.5309084820037242,0.06703764648437499,-9.74200655517578,0.7422025146484375,0,0,0,0
1.532132342006662,-0.11252747802734374,-9.79946739501953,0.6847416748046875,0,0,0,0
1.5334899599984055,0.1484405029296875,-9.655815295410155,0.7445967163085937,0,0,0,0
1.5347091349976836,0.19871873779296872,-9.502586389160156,0.737414111328125,0,0,0,0
1.535945736002759,0.21068974609375,-9.260772021484375,0.8116343627929687,0,0,0,0
1.5372366689989576,0.18914193115234373,-9.294290844726563,0.9935936889648437,0,0,0,0
1.538513937004609,0.1580173095703125,-9.342174877929686,1.0295067138671874,0,0,0,0
1.5396342230087612,0.08140285644531249,-9.282319836425781,0.9624690673828125,0,0,0,0
1.5408596390043385,0.15562310791015624,-9.272743029785156,1.0630255371093749,0,0,0,0
1.542061536005349,0.12449848632812499,-9.421183532714844,1.0845733520507812,0,0,0,0
1.5431877680093748,0.0383072265625,-9.552864624023437,1.1707646118164061,0,0,0,0
1.544371702009812,0.23223756103515625,-9.770736975097655,1.2593500732421874,0,0,0,0
1.5456877469987376,0.13646949462890623,-9.83777462158203,1.197100830078125,0,0,0,0
1.5469336250098422,0.016759411621093748,-9.885658654785155,1.2018892333984375,0,0,0,0
1.5480317830079002,-0.04548983154296875,-9.97903251953125,1.2593500732421874,0,0,0,0
1.5491182550031226,-0.00239420166015625,-10.137049829101562,1.2330138549804688,0,0,0,0
1.5502061900042463,-0.1484405029296875,-10.077194787597655,1.1540052001953125,0,0,0,0
1.5513048110005911,-0.016759411621093748,-10.12507882080078,1.2042834350585936,0,0,0,0
1.5527417249977589,-0.20829554443359374,-10.314220751953124,1.1324573852539062,0,0,0,0
1.5539628070109757,-0.24899697265624998,-10.47702646484375,1.1372457885742187,0,0,0,0
1.5551679449999938,-0.028730419921875,-10.441113439941406,1.1228805786132812,0,0,0,0
1.556294046997209,-0.076614453125,-10.333374365234375,1.2138602416992186,0,0,0,0
1.5574229080084478,-0.0430956298828125,-10.287884533691406,1.2761094848632812,0,0,0,0
1.558997134998208,-0.08379705810546874,-10.28549033203125,1.2569558715820313,0,0,0,0
1.5604897340090247,-0.07422025146484375,-10.153809240722655,1.2521674682617188,0,0,0,0
1.5615927990002092,-0.00718260498046875,-10.002974536132811,1.3192051147460937,0,0,0,0
1.5626886969985208,-0.016759411621093748,-9.991003527832031,1.3048399047851562,0,0,0,0
1.564112592008314,0.29927520751953124,-9.744400756835937,1.2689268798828124,0,0,0,0
1.5653547480033012,0.07900865478515624,-9.60793126220703,1.2952630981445312,0,0,0,0
1.566453295003157,0.17238251953125,-9.473855969238281,1.2425906616210938,0,0,0,0
1.5676898590027122,0.16519991455078123,-9.483432775878907,1.0007762939453124,0,0,0,0
1.5691831790027209,0.01915361328125,-9.45470235595703,0.9911994873046874,0,0,0,0
1.5704945570032578,0.1149216796875,-9.421183532714844,0.8834604125976562,0,0,0,0
1.5715957520005759,0.12210428466796874,-9.495403784179686,0.8930372192382812,0,0,0,0
1.5726837060065009,0.02154781494140625,-9.404424121093749,0.9097966308593749,0,0,0,0
1.5761563800042495,0.0143652099609375,-9.3852705078125,1.01514150390625,0,0,0,0
1.5778162920032628,0.05027823486328125,-9.464279162597656,1.1420341918945311,0,0,0,0
1.5789991339988774,0.062249243164062495,-9.775525378417969,1.0271125122070313,0,0,0,0
1.5802909199992428,0.04548983154296875,-9.911994873046874,0.9792284790039062,0,0,0,0
1.5813856330059934,0.028730419921875,-10.05564697265625,1.0510545288085937,0,0,0,0
1.583361209006398,-0.05027823486328125,-10.046070166015625,1.177947216796875,0,0,0,0
1.5844839030032745,0.0143652099609375,-10.079588989257813,1.2234370483398436,0,0,0,0
1.5855761530110613,0.105344873046875,-10.053252770996092,1.1611878051757811,0,0,0,0
1.5866685140063055,0.03591302490234375,-10.0748005859375,1.209071838378906,0,0,0,0
1.5883204819983803,0.06703764648437499,-10.165780249023436,1.1659762084960936,0,0,0,0
1.589769136000541,0.03591302490234375,-10.216058483886718,1.0917559570312498,0,0,0,0
1.5908747570065316,-0.028730419921875,-10.295067138671874,0.9935936889648437,0,0,0,0
1.5919730250025168,-0.0718260498046875,-10.31661495361328,1.0127473022460938,0,0,0,0
1.5935663080017548,-0.1149216796875,-10.357316381835936,0.9241618408203125,0,0,0,0
1.5946793730108766,-0.02633621826171875,-10.168174450683592,0.928950244140625,0,0,0,0
1.5957706230110489,0.06703764648437499,-10.022128149414062,1.0941501586914062,0,0,0,0
1.5968563920032466,0.105344873046875,-9.698910925292969,1.0797849487304687,0,0,0,0
1.5982568610052112,0.12210428466796874,-9.581595043945311,1.209071838378906,0,0,0,0
1.5996334060037043,0.17238251953125,-9.574412438964844,1.20667763671875,0,0,0,0
1.6007791000010911,0.18914193115234373,-9.696516723632811,1.180341418457031,0,0,0,0
1.6018764239997836,0.10295067138671875,-9.751583361816406,1.2018892333984375,0,0,0,0
1.6033257820090512,0.016759411621093748,-9.701305126953125,1.1133037719726562,0,0,0,0
1.6045794380042935,0.07422025146484375,-9.655815295410155,1.0773907470703123,0,0,0,0
1.6056698550091824,0.12689268798828124,-9.56962403564453,1.1324573852539062,0,0,0,0
1.6067640310066054,0.10773907470703124,-9.636661682128906,1.1516109985351561,0,0,0,0
1.6081754820042988,0.12449848632812499,-9.418789331054686,1.199495031738281,0,0,0,0
1.60940774899791,0.08379705810546874,-9.502586389160156,1.1875240234375,0,0,0,0
1.610524351010099,-0.0047884033203125,-9.641450085449218,1.1085153686523437,0,0,0,0
1.6116022680071183,-0.00718260498046875,-9.658209497070311,1.0295067138671874,0,0,0,0
1.6129959789977875,-0.09816226806640624,-9.849745629882811,1.0678139404296874,0,0,0,0
1.6142977270064875,-0.028730419921875,-10.024522351074218,1.1635820068359375,0,0,0,0
1.6155979199975263,-0.02633621826171875,-10.084377392578125,1.0558429321289062,0,0,0,0
1.6167064480105182,-0.08858546142578125,-10.149020837402343,1.2234370483398436,0,0,0,0
1.6183645450073527,-0.01915361328125,-10.084377392578125,1.1180921752929687,0,0,0,0
1.619581831007963,-0.086191259765625,-10.127473022460936,1.2330138549804688,0,0,0,0
1.620670174001134,-0.00718260498046875,-10.065223779296874,1.3120225097656248,0,0,0,0
1.6217553129972657,0.0,-10.029310754394531,1.2569558715820313,0,0,0,0
1.623745147997397,0.04548983154296875,-10.137049829101562,1.199495031738281,0,0,0,0
1.6254985410050722,0.009576806640625,-10.180145458984374,1.2330138549804688,0,0,0,0
1.6267960109980777,0.023942016601562498,-10.08677159423828,1.0582371337890624,0,0,0,0
1.6284110350097762,0.01915361328125,-10.05564697265625,1.0342951171875,0,0,0,0
1.6296129130059853,0.055066638183593745,-10.024522351074218,0.928950244140625,0,0,0,0
1.6307094040093943,0.04548983154296875,-9.909600671386718,0.9935936889648437,0,0,0,0
1.6317937470012112,0.04548983154296875,-9.804255798339844,1.1276689819335937,0,0,0,0
1.6332675489975372,0.1149216796875,-9.730035546875,1.2761094848632812,0,0,0,0
1.634834887998295,0.09337386474609374,-9.634267480468749,1.1875240234375,0,0,0,0
1.6365808179980377,0.10295067138671875,-9.665392102050781,1.0965443603515623,0,0,0,0
1.637759807999828,0.1580173095703125,-9.631873278808593,1.1731588134765625,0,0,0,0
1.6388865949993487,0.10295067138671875,-9.658209497070311,1.0342951171875,0,0,0,0
1.6400558440072928,0.13646949462890623,-9.667786303710937,1.0702081420898437,0,0,0,0
1.641153946009581,0.14604630126953125,-9.725247143554688,0.9935936889648437,0,0,0,0
1.6422431219980353,0.08140285644531249,-9.68454571533203,0.9983820922851562,0,0,0,0
1.6433346130070277,0.06464344482421874,-9.682151513671874,1.0773907470703123,0,0,0,0
1.6444993810000597,0.062249243164062495,-9.694122521972655,1.1109095703125,0,0,0,0
1.6456364460027544,0.1292868896484375,-9.641450085449218,1.1324573852539062,0,0,0,0
1.6468267320015002,0.12449848632812499,-9.643844287109374,1.1444283935546875,0,0,0,0
1.648075888006133,0.04548983154296875,-9.842563024902343,1.0558429321289062,0,0,0,0
1.6492880450095981,-0.09576806640624999,-9.93354268798828,1.0606313354492187,0,0,0,0
1.650463887010119,0.011971008300781249,-10.09395419921875,1.1228805786132812,0,0,0,0
1.6516119700099807,0.009576806640625,-10.13226142578125,1.0821791503906248,0,0,0,0
1.652704331005225,0.028730419921875,-10.175357055664062,1.1085153686523437,0,0,0,0
1.653789563002647,-0.05027823486328125,-10.120290417480469,1.1348515869140625,0,0,0,0
1.6548756460106233,-0.03591302490234375,-10.09395419921875,1.1923124267578125,0,0,0,0
1.655960378004238,0.023942016601562498,-9.969455712890625,1.1085153686523437,0,0,0,0
1.6571172010008013,0.0909796630859375,-10.002974536132811,1.1324573852539062,0,0,0,0
1.6582664690067759,0.08379705810546874,-10.04846436767578,1.2114660400390624,0,0,0,0
1.659363922997727,0.0430956298828125,-10.072406384277343,1.1731588134765625,0,0,0,0
1.6605507280037273,-0.009576806640625,-9.964667309570311,1.1085153686523437,0,0,0,0
1.661906124005327,0.016759411621093748,-9.986215124511718,1.0438719238281249,0,0,0,0
1.6631466320104664,0.011971008300781249,-9.995791931152343,1.0606313354492187,0,0,0,0
1.6642463270109147,0.055066638183593745,-9.969455712890625,1.1085153686523437,0,0,0,0
1.6653300580073847,0.08140285644531249,-9.904812268066406,1.0989385620117187,0,0,0,0
1.6664130490098614,0.047884033203124995,-9.849745629882811,1.2378022583007813,0,0,0,0
1.667563816998154,0.0,-9.782707983398437,1.1827356201171875,0,0,0,0
1.668711197009543,0.033518823242187495,-9.744400756835937,1.1252747802734375,0,0,0,0
1.6698067429970251,0.047884033203124995,-9.629479077148437,1.1037269653320312,0,0,0,0
1.670896363997599,0.0430956298828125,-9.617508068847656,1.1611878051757811,0,0,0,0
1.6719780030107358,0.028730419921875,-9.665392102050781,1.22583125,0,0,0,0
1.673081437998917,0.0430956298828125,-9.651026892089844,1.1827356201171875,0,0,0,0
1.67423098400468,0.11731588134765625,-9.68454571533203,1.0989385620117187,0,0,0,0
1.675736767007038,0.06464344482421874,-9.660603698730467,1.0845733520507812,0,0,0,0
1.6768906100041931,-0.011971008300781249,-9.756371765136718,0.9792284790039062,0,0,0,0
1.677987729999586,-0.03591302490234375,-9.775525378417969,1.1372457885742187,0,0,0,0
1.6791462940018391,0.0526724365234375,-9.758765966796874,1.1731588134765625,0,0,0,0
1.6802925070078345,-0.15322890625,-9.708487731933593,1.216254443359375,0,0,0,0
1.6816266070090933,0.055066638183593745,-9.68454571533203,1.139639990234375,0,0,0,0
1.6828914110083133,0.028730419921875,-9.78031378173828,1.0702081420898437,0,0,0,0
1.6845684709987836,0.033518823242187495,-9.830592016601562,1.0606313354492187,0,0,0,0
1.686259346010047,0.00239420166015625,-10.01015714111328,1.139639990234375,0,0,0,0
1.6880007200088585,-0.04548983154296875,-10.110713610839843,1.1540052001953125,0,0,0,0
1.6894149680010742,-0.0526724365234375,-10.079588989257813,1.2114660400390624,0,0,0,0
1.6906411980016856,0.033518823242187495,-10.024522351074218,1.177947216796875,0,0,0,0
1.6917430960020283,0.10773907470703124,-9.9981861328125,1.1516109985351561,0,0,0,0
1.6928258280095179,0.031124621582031248,-9.947907897949218,1.1755530151367186,0,0,0,0
1.6948676629981492,0.09816226806640624,-9.892841259765625,1.1324573852539062,0,0,0,0
1.6961268559971359,0.047884033203124995,-9.828197814941406,1.0965443603515623,0,0,0,0
1.697269865006092,0.1197100830078125,-9.950302099609374,1.0917559570312498,0,0,0,0
1.698369614998228,0.08379705810546874,-10.002974536132811,1.0749965454101562,0,0,0,0
1.699486939003691,0.10295067138671875,-10.000580334472655,1.0199299072265624,0,0,0,0
1.7009391120082,0.047884033203124995,-9.842563024902343,1.0534487304687499,0,0,0,0
1.7022251190064708,0.040701428222656245,-9.751583361816406,1.1420341918945311,0,0,0,0
1.7033333690051222,0.011971008300781249,-9.631873278808593,1.1013327636718748,0,0,0,0
1.704425044998061,0.10295067138671875,-9.581595043945311,1.0917559570312498,0,0,0,0
1.7058485330053372,0.1292868896484375,-9.562441430664062,1.189918225097656,0,0,0,0
1.7074093910050578,0.033518823242187495,-9.682151513671874,0.9552864624023437,0,0,0,0
1.7085786219977308,0.0143652099609375,-9.725247143554688,1.0342951171875,0,0,0,0
1.7097063710098155,0.055066638183593745,-9.775525378417969,1.0462661254882812,0,0,0,0
1.7107993990066461,0.0047884033203125,-9.78031378173828,1.0678139404296874,0,0,0,0
1.7122554980014684,0.05985504150390625,-9.777919580078125,0.9864110839843749,0,0,0,0
1.7134651920059696,0.086191259765625,-9.655815295410155,1.0103531005859374,0,0,0,0
1.7145817010023165,0.040701428222656245,-9.651026892089844,1.0749965454101562,0,0,0,0
1.7156668030074798,0.033518823242187495,-9.7683427734375,1.1324573852539062,0,0,0,0
1.717262974998448,0.01915361328125,-9.746794958496093,1.1875240234375,0,0,0,0
1.7184122430044226,-0.03591302490234375,-9.90241806640625,1.1947066284179686,0,0,0,0
1.7195088080043206,-0.011971008300781249,-9.871293444824218,1.0390835205078124,0,0,0,0
1.7211693490098696,0.031124621582031248,-10.019733947753906,1.1947066284179686,0,0,0,0
1.722376987003372,-0.0383072265625,-9.957484704589843,1.177947216796875,0,0,0,0
1.7245794880000176,-0.033518823242187495,-10.04846436767578,1.197100830078125,0,0,0,0
1.7260092720098328,-0.02154781494140625,-10.022128149414062,1.1563994018554686,0,0,0,0
1.7277481280034408,-0.076614453125,-9.907206469726562,1.218648645019531,0,0,0,0
1.7303914020012598,0.06464344482421874,-9.91438907470703,1.1372457885742187,0,0,0,0
1.7318217050051317,0.086191259765625,-9.89523546142578,1.149216796875,0,0,0,0
1.7332704150030622,0.105344873046875,-9.909600671386718,1.1731588134765625,0,0,0,0
1.7347157360054553,0.047884033203124995,-9.969455712890625,1.1755530151367186,0,0,0,0
1.7360069100104738,0.016759411621093748,-9.931148486328125,1.180341418457031,0,0,0,0
1.7375673600035952,0.07900865478515624,-9.83777462158203,1.197100830078125,0,0,0,0
1.739153995004017,0.12449848632812499,-9.773131176757811,1.1540052001953125,0,0,0,0
1.7406950190052157,0.040701428222656245,-9.598354455566406,1.1180921752929687,0,0,0,0
1.7418333800014807,0.076614453125,-9.612719665527344,1.177947216796875,0,0,0,0
1.7430244810093427,0.09337386474609374,-9.64623848876953,1.1516109985351561,0,0,0,0
1.7441703420045087,0.02633621826171875,-9.718064538574218,1.139639990234375,0,0,0,0
1.7452586660074303,0.1005564697265625,-9.689334118652344,1.0773907470703123,0,0,0,0
1.7464300819992786,0.055066638183593745,-9.797073193359374,1.0678139404296874,0,0,0,0
1.747633257007692,0.09816226806640624,-9.749189160156249,1.0534487304687499,0,0,0,0
1.7487906919996021,0.09816226806640624,-9.765948571777344,1.0989385620117187,0,0,0,0
1.7498850720003247,0.00239420166015625,-9.751583361816406,1.0199299072265624,0,0,0,0
1.7509820440027397,0.04548983154296875,-9.809044201660155,1.1109095703125,0,0,0,0
1.752062997999019,0.05027823486328125,-9.715670336914062,1.0917559570312498,0,0,0,0
1.7531468219967792,0.00718260498046875,-9.660603698730467,1.0390835205078124,0,0,0,0
1.7545437549997587,0.07422025146484375,-9.801861596679688,1.0989385620117187,0,0,0,0
1.7558538360026432,0.03591302490234375,-9.861716638183593,1.0606313354492187,0,0,0,0
1.7571003260090947,0.0909796630859375,-9.986215124511718,1.0917559570312498,0,0,0,0
1.7584547410078812,0.031124621582031248,-9.991003527832031,1.0462661254882812,0,0,0,0
1.759789970004931,0.016759411621093748,-10.034099157714843,1.0510545288085937,0,0,0,0
1.7610922370076878,0.011971008300781249,-10.01015714111328,1.0726023437499999,0,0,0,0
1.7622771530004684,0.0143652099609375,-9.943119494628906,1.0654197387695312,0,0,0,0
1.763452901999699,0.10295067138671875,-9.828197814941406,1.0630255371093749,0,0,0,0
1.7646273550053593,0.047884033203124995,-9.859322436523437,1.0749965454101562,0,0,0,0
1.7658710490068188,0.062249243164062495,-9.957484704589843,1.1420341918945311,0,0,0,0
1.7671165939973434,0.07422025146484375,-9.86411083984375,1.1420341918945311,0,0,0,0
1.7683000100078061,0.086191259765625,-9.964667309570311,1.1324573852539062,0,0,0,0
1.7694755179982167,0.033518823242187495,-9.974244116210937,1.1659762084960936,0,0,0,0
1.7707198600110132,-0.0383072265625,-9.9215716796875,1.1324573852539062,0,0,0,0
1.7720174600108294,0.031124621582031248,-9.93354268798828,1.189918225097656,0,0,0,0
1.773325931004365,0.1005564697265625,-9.782707983398437,1.2617442749023438,0,0,0,0
1.7745600680063944,0.031124621582031248,-9.725247143554688,1.149216796875,0,0,0,0
1.7757593179994728,0.09576806640624999,-9.670180505371093,1.1611878051757811,0,0,0,0
1.7770140290085692,0.06943184814453125,-9.588777648925781,1.1731588134765625,0,0,0,0
1.7783290920051513,0.07900865478515624,-9.694122521972655,1.0965443603515623,0,0,0,0
1.779611803998705,0.0718260498046875,-9.756371765136718,1.0558429321289062,0,0,0,0
1.7808313120040111,0.076614453125,-9.86411083984375,1.0606313354492187,0,0,0,0
1.7820823570073117,-0.016759411621093748,-9.85692823486328,1.0917559570312498,0,0,0,0
1.7833247730013682,0.03591302490234375,-9.89523546142578,1.1133037719726562,0,0,0,0
1.7845192810054868,0.02633621826171875,-9.813832604980469,1.0941501586914062,0,0,0,0
1.7866795590089168,0.07422025146484375,-9.79946739501953,1.0893617553710937,0,0,0,0
1.7880135300074471,0.0143652099609375,-9.787496386718749,1.158793603515625,0,0,0,0
1.7898432180081727,0.055066638183593745,-9.890447058105469,1.1037269653320312,0,0,0,0
1.7916744429967366,-0.00718260498046875,-9.955090502929687,1.0989385620117187,0,0,0,0
1.7931117090047337,-0.016759411621093748,-9.993397729492187,1.1013327636718748,0,0,0,0
1.7943902910046745,-0.0383072265625,-9.967061511230469,1.1540052001953125,0,0,0,0
1.7956722430099035,-0.023942016601562498,-9.993397729492187,1.0486603271484374,0,0,0,0
1.7969472700060578,0.08858546142578125,-9.897629663085937,0.9696516723632812,0,0,0,0
1.7981942780024838,0.0143652099609375,-9.890447058105469,1.209071838378906,0,0,0,0
1.7994621740072034,-0.13646949462890623,-9.804255798339844,1.0989385620117187,0,0,0,0
1.8007055339985527,0.0143652099609375,-9.76116016845703,1.0773907470703123,0,0,0,0
1.8018924500065623,0.09816226806640624,-9.842563024902343,1.0749965454101562,0,0,0,0
1.8031105330010178,0.1388636962890625,-9.83777462158203,1.1731588134765625,0,0,0,0
1.8043555589974858,0.11252747802734374,-9.892841259765625,1.189918225097656,0,0,0,0
1.8055876050057122,0.009576806640625,-9.923965881347655,1.0295067138671874,0,0,0,0
1.8068887050030753,0.07422025146484375,-9.880870251464843,1.0989385620117187,0,0,0,0
1.8082408600021154,0.011971008300781249,-9.670180505371093,1.1228805786132812,0,0,0,0
1.8095958670019172,0.10773907470703124,-9.787496386718749,1.1659762084960936,0,0,0,0
1.8108414680027636,0.14125789794921875,-9.670180505371093,1.1755530151367186,0,0,0,0
1.812023347010836,0.08858546142578125,-9.674968908691406,1.1947066284179686,0,0,0,0
1.8131941519968677,0.12689268798828124,-9.524134204101562,1.1851298217773436,0,0,0,0
1.8143661610083655,0.10295067138671875,-9.813832604980469,1.1156979736328125,0,0,0,0
1.815538484006538,0.1197100830078125,-9.852139831542969,0.9935936889648437,0,0,0,0
1.8168033990077674,0.1149216796875,-9.87608184814453,1.0630255371093749,0,0,0,0
1.8181012959976215,0.07900865478515624,-9.890447058105469,1.005564697265625,0,0,0,0
1.8193362860038178,0.0,-9.852139831542969,1.0702081420898437,0,0,0,0
1.820554442005232,0.040701428222656245,-9.794678991699218,1.1468225952148436,0,0,0,0
1.8218038949999027,0.031124621582031248,-9.830592016601562,1.1611878051757811,0,0,0,0
1.8230445140070515,0.06464344482421874,-9.861716638183593,1.1013327636718748,0,0,0,0
1.824346688008518,-0.0383072265625,-9.9215716796875,1.1540052001953125,0,0,0,0
1.8257215100020403,0.09576806640624999,-9.911994873046874,1.120486376953125,0,0,0,0
1.8270415360020706,0.03591302490234375,-9.900023864746093,1.2042834350585936,0,0,0,0
1.8282419699971797,0.033518823242187495,-10.026916552734374,1.1252747802734375,0,0,0,0
1.8294149599969387,0.031124621582031248,-9.983820922851562,1.1947066284179686,0,0,0,0
1.8306937270099297,-0.062249243164062495,-10.019733947753906,1.1109095703125,0,0,0,0
1.831996439010254,0.009576806640625,-10.01015714111328,1.13006318359375,0,0,0,0
1.8332604650058784,-0.0047884033203125,-10.043675964355469,1.13006318359375,0,0,0,0
1.8344432700105244,0.07422025146484375,-9.830592016601562,1.2282254516601563,0,0,0,0
1.8356199450063286,0.05746083984375,-9.720458740234374,1.2641384765625,0,0,0,0
1.8368648610048695,0.07422025146484375,-9.737218151855469,1.177947216796875,0,0,0,0
1.8381487200094853,0.086191259765625,-9.739612353515625,1.1827356201171875,0,0,0,0
1.8393669320066692,0.0909796630859375,-9.773131176757811,1.197100830078125,0,0,0,0
1.8405397930036997,0.05746083984375,-9.801861596679688,1.0989385620117187,0,0,0,0
1.8419048369978555,0.03591302490234375,-9.861716638183593,1.0749965454101562,0,0,0,0
1.8431833820068277,0.06464344482421874,-9.854534033203125,1.1755530151367186,0,0,0,0
1.8443719269998837,0.033518823242187495,-9.765948571777344,1.0534487304687499,0,0,0,0
1.845467548002489,0.04548983154296875,-9.744400756835937,1.0797849487304687,0,0,0,0
1.8466305940091843,0.08140285644531249,-9.758765966796874,1.1563994018554686,0,0,0,0
1.847779880001326,0.00718260498046875,-9.758765966796874,1.1085153686523437,0,0,0,0
1.848945759003982,0.06703764648437499,-9.746794958496093,1.1228805786132812,0,0,0,0
1.8500967130094068,0.02633621826171875,-9.804255798339844,1.216254443359375,0,0,0,0
1.8515569040027913,0.07422025146484375,-9.82580361328125,1.1563994018554686,0,0,0,0
1.8527559869980905,0.07422025146484375,-9.904812268066406,1.0582371337890624,0,0,0,0
1.8539178470091429,-0.0047884033203125,-9.907206469726562,1.1324573852539062,0,0,0,0
1.8550183940096758,0.0383072265625,-9.928754284667969,1.1420341918945311,0,0,0,0
1.8561042360088322,0.01915361328125,-9.911994873046874,1.158793603515625,0,0,0,0
1.8571840240038,-0.01915361328125,-9.909600671386718,1.139639990234375,0,0,0,0
1.8582713110081386,0.08140285644531249,-9.823409411621093,1.1827356201171875,0,0,0,0
1.8594577449985081,0.02154781494140625,-9.835380419921874,1.1516109985351561,0,0,0,0
1.8606832910008961,0.040701428222656245,-9.86411083984375,1.0869675537109373,0,0,0,0
1.8618145960062975,0.028730419921875,-9.866505041503906,1.1707646118164061,0,0,0,0
1.8629517160006799,0.06464344482421874,-9.885658654785155,1.13006318359375,0,0,0,0
1.864048299001297,0.09337386474609374,-9.955090502929687,1.1037269653320312,0,0,0,0
1.865204697009176,0.040701428222656245,-9.935936889648437,1.0031704956054688,0,0,0,0
1.8663750950072426,0.031124621582031248,-9.9981861328125,1.0534487304687499,0,0,0,0
1.8674723080039257,0.105344873046875,-9.883264453125,1.0749965454101562,0,0,0,0
1.86855868800194,0.031124621582031248,-9.926360083007811,1.1013327636718748,0,0,0,0
1.8697109000058845,0.12689268798828124,-9.86411083984375,1.1635820068359375,0,0,0,0
1.8708574830088764,0.12689268798828124,-9.753977563476562,1.1324573852539062,0,0,0,0
1.871946104001836,0.08140285644531249,-9.797073193359374,1.149216796875,0,0,0,0
1.873025927998242,0.086191259765625,-9.8449572265625,1.1444283935546875,0,0,0,0
1.8741117520112311,0.047884033203124995,-9.730035546875,1.120486376953125,0,0,0,0
1.8752634460106492,0.105344873046875,-9.880870251464843,1.0749965454101562,0,0,0,0
1.8764091960038058,0.1292868896484375,-9.904812268066406,1.1061211669921875,0,0,0,0
1.8775092980067711,0.02154781494140625,-9.830592016601562,1.0462661254882812,0,0,0,0
1.8791375250002602,0.016759411621093748,-9.890447058105469,1.1133037719726562,0,0,0,0
1.8803329590009525,0.09576806640624999,-9.883264453125,1.1037269653320312,0,0,0,0
1.8814886530017247,0.0909796630859375,-9.81862100830078,1.0175357055664063,0,0,0,0
1.882604070007801,0.06464344482421874,-9.753977563476562,1.0773907470703123,0,0,0,0
1.8838270220003324,0.06464344482421874,-9.725247143554688,1.1013327636718748,0,0,0,0
1.8851514740090352,0.033518823242187495,-9.794678991699218,1.0199299072265624,0,0,0,0
1.886403890006477,0.016759411621093748,-9.885658654785155,1.0749965454101562,0,0,0,0
1.8876966940006241,0.062249243164062495,-9.888052856445311,1.1731588134765625,0,0,0,0
1.8890142570016906,0.07900865478515624,-9.935936889648437,1.1707646118164061,0,0,0,0
1.8902944310102612,0.03591302490234375,-9.945513696289062,1.1372457885742187,0,0,0,0
1.891589457009104,-0.0143652099609375,-9.9215716796875,1.1133037719726562,0,0,0,0
1.8927710770076374,-0.00239420166015625,-9.871293444824218,1.1109095703125,0,0,0,0
1.8939485860028071,-0.02154781494140625,-9.842563024902343,1.1276689819335937,0,0,0,0
1.8951982970029349,0.0047884033203125,-9.849745629882811,1.2018892333984375,0,0,0,0
1.896619767008815,-0.033518823242187495,-9.900023864746093,1.199495031738281,0,0,0,0
1.897883922996698,-0.02633621826171875,-9.916783276367187,1.1516109985351561,0,0,0,0
1.8991202090110164,0.0430956298828125,-9.945513696289062,1.149216796875,0,0,0,0
