Time (s),Accel X1,Accel Y1,Accel Z1,Accel X2,Accel Y2,Accel Z2
0.0001184800003102282,0,0,1.0893617553710937,0,0,0.8421875000000001
0.004187194001133321,0,0,1.2497732666015624,0,0,0.9187500000000001
0.00822868600153015,0,0,1.4221557861328125,0,0,0.9187500000000001
0.012235845000759582,0,0,1.4173673828125,0,0,832.6171875000001
0.016286114001559326,0,0,1.2880804931640624,0,0,1.0718750000000001
0.020758787000886514,0,0,1.1228805786132812,0,0,0.45937500000000003
0.02508336800019606,0,0,1.3742717529296875,0,0,0.765625
0.02925669200158154,0,0,1.446097802734375,0,0,0.8421875000000001
0.03377797400025884,0,0,1.2378022583007813,0,0,0.5359375000000001
0.038058908001403324,0,0,1.3838485595703125,0,0,0.6890625
0.04220545400130504,0,0,1.4724340209960938,0,0,-9.340625000000001
0.04614172500077984,0,0,1.3359645263671873,0,0,1.0718750000000001
0.050219643000673386,0,0,1.2425906616210938,0,0,0.8421875000000001
0.05522086400014814,0,0,1.4149731811523436,0,0,0.3828125
0.05931176300146035,0,0,1.3192051147460937,0,0,0.5359375000000001
0.06352514200079895,0,0,1.2880804931640624,0,0,0.9187500000000001
0.06761107800048194,0,0,1.8100164550781248,0,0,0.9187500000000001
0.07174051299989515,0,0,1.3646949462890625,0,0,1.53125
0.07591694800066762,0,0,1.3072341064453123,0,0,0.8421875000000001
0.07996360600009211,0,0,1.3215993164062498,0,0,0.5359375000000001
0.08402556100008951,0,0,1.448492004394531,0,0,0.45937500000000003
0.08797079500072869,0,0,1.5298948608398437,0,0,0.8421875000000001
0.09275546300159476,0,0,1.4963760375976562,0,0,0.5359375000000001
0.09695400900091045,0,0,1.5873557006835937,0,0,0.5359375000000001
0.10123742399991897,0,0,1.1133037719726562,0,0,0.6125
0.10449457300092035,0,0,1.5059528442382812,0,0,1.6843750000000002
0.10724137600118411,0,0,1.697488977050781,0,0,1.225
0.10992469800112303,0,0,1.2880804931640624,0,0,0.9187500000000001
0.11255737200008298,0,0,1.426944189453125,0,0,1.6078125
0.11566378200041072,0,0,1.3311761230468748,0,0,1.0718750000000001
0.11846902800061798,0,0,1.5107412475585937,0,0,0.5359375000000001
0.12108742500095104,0,0,1.216254443359375,0,0,0.8421875000000001
0.12383976400087704,0,0,1.254561669921875,0,0,-852.8296875000001
0.12646582800152828,0,0,1.2473790649414063,0,0,0.6890625
0.12922190800054523,0,0,1.2401964599609374,0,0,0.6890625
0.13189793300080055,0,0,1.1875240234375,0,0,0.9187500000000001
0.1346213289998559,0,0,1.4867992309570313,0,0,1.6843750000000002
0.1371900780013675,0,0,1.637633935546875,0,0,1.0718750000000001
0.13997660200038808,0,0,1.5251064575195312,0,0,1.225
0.1428380150009616,0,0,1.47482822265625,0,0,1.53125
0.14559468800143804,0,0,1.4532804077148436,0,0,0.3828125
0.14899759400032053,0,0,1.3072341064453123,0,0,0.8421875000000001
0.1521011519998865,0,0,1.3623007446289062,0,0,0.3828125
0.15496576800069306,0,0,1.2569558715820313,0,0,0.30625
0.15801727100006246,0,0,1.4891934326171874,0,0,0.9187500000000001
0.1609133500005555,0,0,1.369483349609375,0,0,0.3828125
0.16384861300139164,0,0,1.3144167114257812,0,0,832.69375
0.16671880400099326,0,0,1.3120225097656248,0,0,1.0718750000000001
0.17034130000138248,0,0,1.2401964599609374,0,0,0.9187500000000001
0.1732622680010536,0,0,1.484405029296875,0,0,1.1484375
0.17710179900132061,0,0,1.6065093139648436,0,0,1.0718750000000001
0.18047679800110927,0,0,1.2808978881835937,0,0,0.5359375000000001
0.1837140770003316,0,0,1.5203180541992187,0,0,1.225
0.18715914899985364,0,0,1.5682020874023437,0,0,1.225
0.19004589500036673,0,0,1.3479355346679687,0,0,1.225
0.19293317700066837,0,0,1.4101847778320311,0,0,1.378125
0.19576849700024468,0,0,1.3958195678710936,0,0,1.1484375
0.1988830180016521,0,0,1.3958195678710936,0,0,0.9187500000000001
0.20187337400057004,0,0,1.1468225952148436,0,0,0.6890625
0.20474843400006648,0,0,1.467645617675781,0,0,1.53125
0.20737394200114068,0,0,1.5131354492187499,0,0,1.1484375
0.20995796900024288,0,0,1.2880804931640624,0,0,0.3828125
0.21268056799999613,0,0,1.4867992309570313,0,0,0.6890625
0.21544894399994519,0,0,1.4245499877929686,0,0,0.153125
0.21807841500049108,0,0,1.5562310791015623,0,0,0.9187500000000001
0.22099173400056316,0,0,1.3431471313476562,0,0,0.9953125
0.22431941900140373,0,0,1.4173673828125,0,0,1.1484375
0.2273355890010862,0,0,1.6304513305664061,0,0,1.1484375
0.22992424500080233,0,0,1.2713210815429687,0,0,0.9187500000000001
0.23254014200028905,0,0,1.438915197753906,0,0,0.6125
0.2353766659998655,0,0,1.5011644409179687,0,0,0.45937500000000003
0.23805793200153857,0,0,1.5251064575195312,0,0,0.30625
0.24094097400120518,0,0,1.2713210815429687,0,0,0.6125
0.24354835200028901,0,0,1.3551181396484375,0,0,1.0718750000000001
0.24633830300081172,0,0,1.3263877197265623,0,0,0.9953125
0.24912242000027618,0,0,1.2473790649414063,0,0,0.6890625
0.25250906700057385,0,0,1.3862427612304686,0,0,0.6890625
0.2556368650002696,0,0,1.37906015625,0,0,0.9187500000000001
0.25907579000158876,0,0,1.2856862915039062,0,0,0.9187500000000001
0.26170316800016735,0,0,1.1324573852539062,0,0,0.6890625
0.2642826020000939,0,0,1.4173673828125,0,0,0.0
0.2668886660012504,0,0,1.5298948608398437,0,0,0.6890625
0.2694020080016344,0,0,1.2689268798828124,0,0,0.45937500000000003
0.27180381400103215,0,0,1.189918225097656,0,0,0.8421875000000001
0.2745498950007459,0,0,1.3814543579101561,0,0,0.9953125
0.27711021800132585,0,0,1.4891934326171874,0,0,0.765625
0.2797616330008168,0,0,1.350329736328125,0,0,0.6125
0.2823684930008312,0,0,1.3144167114257812,0,0,0.6125
0.2848787050006649,0,0,1.4820108276367188,0,0,1.7609375
0.2874699910007621,0,0,1.4221557861328125,0,0,0.45937500000000003
0.28998183400108246,0,0,1.2521674682617188,0,0,0.9187500000000001
0.29273378400102956,0,0,1.2808978881835937,0,0,0.30625
0.2952775150006346,0,0,1.5418658691406248,0,0,0.9187500000000001
0.29788583800109336,0,0,1.4891934326171874,0,0,1.1484375
0.3005637710011797,0,0,1.4700398193359374,0,0,0.8421875000000001
0.30315177900047274,0,0,1.4006079711914061,0,0,0.9187500000000001
0.3056007890008914,0,0,1.5227122558593749,0,0,0.22968750000000002
0.308209982000335,0,0,1.5346832641601562,0,0,0.8421875000000001
0.31082128600064607,0,0,1.2976572998046874,0,0,0.6890625
0.31327779500134056,0,0,1.5011644409179687,0,0,0.6890625
0.31579932300155633,0,0,1.4173673828125,0,0,0.30625
0.31841086800159246,0,0,1.5634136840820312,0,0,0.9187500000000001
0.32097589500153845,0,0,1.3527239379882812,0,0,0.9953125
0.3235134400001698,0,0,1.2976572998046874,0,0,0.9187500000000001
0.3259300980007538,0,0,1.4891934326171874,0,0,0.3828125
0.32830585000010615,0,0,1.5945383056640625,0,0,1.3015625000000002
0.3309197460002906,0,0,1.458068811035156,0,0,0.8421875000000001
0.3333024600015051,0,0,1.3623007446289062,0,0,0.9953125
0.335864043001493,0,0,1.388636962890625,0,0,0.22968750000000002
0.33835525600079563,0,0,1.6448165405273436,0,0,1.0718750000000001
0.341031115000078,0,0,1.4772224243164063,0,0,0.6890625
0.3435439020013291,0,0,1.4796166259765624,0,0,0.9187500000000001
0.3459826710004563,0,0,1.5011644409179687,0,0,0.153125
0.3484114210004918,0,0,1.5825672973632812,0,0,0.6890625
0.3508293570012029,0,0,1.4820108276367188,0,0,0.765625
0.3532096819999424,0,0,1.426944189453125,0,0,0.45937500000000003
0.35574343200096337,0,0,1.3838485595703125,0,0,1.0718750000000001
0.35819994200028304,0,0,1.5658078857421873,0,0,1.1484375
0.3606034519998502,0,0,1.438915197753906,0,0,0.6890625
0.36310946100093133,0,0,1.4508862060546874,0,0,0.5359375000000001
0.3656301730006817,0,0,1.5059528442382812,0,0,0.765625
0.3682850140012306,0,0,1.608903515625,0,0,1.1484375
0.3708050410004944,0,0,1.3383587280273437,0,0,1.0718750000000001
0.37334651300079713,0,0,1.4101847778320311,0,0,0.8421875000000001
0.3759770579999895,0,0,1.3934253662109375,0,0,0.0765625
0.3786167320013192,0,0,1.6136919189453125,0,0,0.9187500000000001
0.3811639440009458,0,0,1.1923124267578125,0,0,0.8421875000000001
0.38384041400058777,0,0,1.458068811035156,0,0,1.8375000000000001
0.38646357000106946,0,0,1.2401964599609374,0,0,0.6125
0.3888985800003866,0,0,1.5658078857421873,0,0,0.9187500000000001
0.3913854970014654,0,0,1.1324573852539062,0,0,0.765625
0.3939073199999257,0,0,1.3048399047851562,0,0,1.7609375
0.39633827500074403,0,0,1.3431471313476562,0,0,0.765625
0.3988235060005536,0,0,1.5610194824218748,0,0,0.765625
0.4013282000014442,0,0,1.1468225952148436,0,0,0.8421875000000001
0.4036946000014723,0,0,1.3000515014648437,0,0,0.6125
0.4053853400000662,0,0,1.4628572143554686,0,0,832.69375
0.4071355800006131,0,0,1.3670891479492187,0,0,0.6125
0.40904076200058626,0,0,1.7477672119140624,0,0,1.3015625000000002
0.4108512420007173,0,0,1.3120225097656248,0,0,0.6125
0.4125565379999898,0,0,1.3551181396484375,0,0,0.6125
0.4142496110016509,0,0,1.2569558715820313,0,0,1.6078125
0.41607490600108576,0,0,1.5227122558593749,0,0,0.765625
0.41769196200039005,0,0,1.3096283081054687,0,0,1.0718750000000001
0.4194750530004967,0,0,1.3383587280273437,0,0,1.0718750000000001
0.42113453400088474,0,0,1.120486376953125,0,0,0.9187500000000001
0.4230578090009658,0,0,1.0869675537109373,0,0,0.9953125
0.42482877100155747,0,0,1.446097802734375,0,0,0.8421875000000001
0.4265034000000014,0,0,1.429338391113281,0,0,0.9187500000000001
0.428164345001278,0,0,1.6041151123046875,0,0,0.5359375000000001
0.4299184920000698,0,0,1.2904746948242187,0,0,0.9953125
0.4314809190000233,0,0,1.1348515869140625,0,0,0.765625
0.4330513270015217,0,0,1.3335703247070312,0,0,0.6125
0.4347508820010262,0,0,1.4820108276367188,0,0,1.53125
0.4362883280009555,0,0,1.3551181396484375,0,0,1.6078125
0.43785594000109995,0,0,1.3168109130859373,0,0,0.6125
0.43977228900075716,0,0,1.2689268798828124,0,0,0.765625
0.4415146030005417,0,0,1.3383587280273437,0,0,0.9953125
0.44318189900150173,0,0,1.4006079711914061,0,0,1.225
0.4448759910010267,0,0,1.446097802734375,0,0,1.0718750000000001
0.44665415700001176,0,0,1.4030021728515625,0,0,0.8421875000000001
0.44831113800137246,0,0,1.659181750488281,0,0,0.6890625
0.4501420070009772,0,0,1.3958195678710936,0,0,0.6890625
0.451825321000797,0,0,1.0941501586914062,0,0,1.0718750000000001
0.453418099999908,0,0,1.4006079711914061,0,0,0.9953125
0.45505932200103416,0,0,1.4604630126953124,0,0,1.4546875000000001
0.45674906200110854,0,0,1.4724340209960938,0,0,0.6890625
0.4583966180016432,0,0,1.7022773803710936,0,0,0.8421875000000001
0.4600174330007576,0,0,1.4173673828125,0,0,0.8421875000000001
0.46161535999999614,0,0,1.209071838378906,0,0,0.9187500000000001
0.46314726900163805,0,0,1.438915197753906,0,0,0.765625
0.46472928799994406,0,0,1.2378022583007813,0,0,1.225
0.46638699200047995,0,0,1.448492004394531,0,0,1.4546875000000001
0.46796160400117515,0,0,1.4820108276367188,0,0,0.8421875000000001
0.4696456590008893,0,0,1.350329736328125,0,0,0.8421875000000001
0.47158378600033757,0,0,1.2473790649414063,0,0,1.0718750000000001
0.47319758200137585,0,0,1.3814543579101561,0,0,0.8421875000000001
0.4747839350002323,0,0,1.5011644409179687,0,0,1.9140625000000002
0.4763916950014391,0,0,1.446097802734375,0,0,1.4546875000000001
0.4779276220015163,0,0,1.3000515014648437,0,0,0.765625
0.4794899750013428,0,0,1.429338391113281,0,0,0.765625
0.4812158820004697,0,0,1.2018892333984375,0,0,0.8421875000000001
0.48283927100055735,0,0,1.254561669921875,0,0,0.6890625
0.48437512400050764,0,0,1.3215993164062498,0,0,0.9953125
0.48592179200022656,0,0,1.2282254516601563,0,0,1.378125
0.48759508800139884,0,0,1.3551181396484375,0,0,0.9953125
0.48927016200104845,0,0,1.3383587280273437,0,0,1.1484375
0.4908674770013022,0,0,1.2330138549804688,0,0,0.765625
0.49253544000021066,0,0,1.24498486328125,0,0,0.45937500000000003
0.4942159590009396,0,0,1.3623007446289062,0,0,0.6890625
0.4958066630006215,0,0,1.43652099609375,0,0,0.0
0.4973425900006987,0,0,1.3000515014648437,0,0,0.6125
0.4990994600011618,0,0,1.6041151123046875,0,0,0.9953125
0.5049594870015426,0,0,1.369483349609375,0,0,1.3015625000000002
0.5067409670009511,0,0,1.458068811035156,0,0,0.765625
0.5084083180008747,0,0,1.668758557128906,0,0,0.6125
0.5100613560007332,0,0,1.2976572998046874,0,0,0.8421875000000001
0.5117798920000496,0,0,1.3551181396484375,0,0,1.225
0.5135174470015045,0,0,1.3263877197265623,0,0,0.9187500000000001
0.5152779449999798,0,0,1.4221557861328125,0,0,-8.8046875
0.5169795930014516,0,0,1.235408056640625,0,0,0.3828125
0.5187581660011347,0,0,1.5921441040039062,0,0,0.6890625
0.5204594800015911,0,0,1.3527239379882812,0,0,0.9187500000000001
0.5221757939998497,0,0,1.20667763671875,0,0,0.9187500000000001
0.5239419780009484,0,0,1.2665326782226562,0,0,0.765625
0.52564281100058,0,0,1.4532804077148436,0,0,832.8468750000001
0.527520622999873,0,0,1.3168109130859373,0,0,1.1484375
0.5293745470007707,0,0,1.429338391113281,0,0,0.9187500000000001
0.5313054329999432,0,0,1.2210428466796874,0,0,0.765625
0.5332151710008475,0,0,1.4939818359375,0,0,0.9187500000000001
0.5349467260002712,0,0,1.4245499877929686,0,0,1.8375000000000001
0.5367849459998979,0,0,1.3623007446289062,0,0,0.9953125
0.538431668001067,0,0,1.6041151123046875,0,0,0.5359375000000001
0.5401506300004257,0,0,1.3670891479492187,0,0,0.9953125
0.5416971690010541,0,0,1.419761584472656,0,0,0.8421875000000001
0.5433464090001507,0,0,1.3742717529296875,0,0,0.9953125
0.545007484000962,0,0,1.3024457031249999,0,0,1.6843750000000002
0.5467537420008739,0,0,1.4724340209960938,0,0,0.6890625
0.5484894450000866,0,0,1.6472107421875,0,0,0.6125
0.550323332001426,0,0,1.2761094848632812,0,0,0.9953125
0.5519914430005883,0,0,1.3335703247070312,0,0,0.9187500000000001
0.5535313330001372,0,0,1.3383587280273437,0,0,1.0718750000000001
0.5551914810002927,0,0,1.4221557861328125,0,0,1.225
0.5568295000011858,0,0,1.24498486328125,0,0,0.6125
0.5586024430012912,0,0,1.5969325073242187,0,0,0.8421875000000001
0.5602942940004141,0,0,1.3072341064453123,0,0,0.9953125
0.5619243500004814,0,0,1.2378022583007813,0,0,0.8421875000000001
0.563466685000094,0,0,1.4341267944335936,0,0,0.9953125
0.5651215369998681,0,0,1.5251064575195312,0,0,1.1484375
0.56696894200104,0,0,1.47482822265625,0,0,0.6890625
0.5687225890014815,0,0,1.5610194824218748,0,0,2.45
0.5705913830006466,0,0,1.2425906616210938,0,0,0.9187500000000001
0.5723312150003039,0,0,1.0917559570312498,0,0,1.225
0.5739259199999651,0,0,1.3623007446289062,0,0,0.6890625
0.5756765109999833,0,0,1.3263877197265623,0,0,832.69375
0.5773189930005174,0,0,1.3000515014648437,0,0,0.0765625
0.5789100120000512,0,0,1.6448165405273436,0,0,0.6125
0.5806696780000493,0,0,1.216254443359375,0,0,0.6125
0.582355047999954,0,0,1.2042834350585936,0,0,0.765625
0.5839507710006728,0,0,1.5059528442382812,0,0,0.8421875000000001
0.585576289000528,0,0,1.3862427612304686,0,0,0.6890625
0.5871238460003951,0,0,1.465251416015625,0,0,0.8421875000000001
0.5888744380008575,0,0,1.6304513305664061,0,0,0.45937500000000003
0.5905791220011452,0,0,1.2832920898437499,0,0,0.5359375000000001
0.5921806970000034,0,0,1.1707646118164061,0,0,0.8421875000000001
0.5938924000001862,0,0,1.2497732666015624,0,0,0.9187500000000001
0.5955823439999222,0,0,1.4221557861328125,0,0,-8.6515625
0.5971309750002547,0,0,1.2497732666015624,0,0,0.6890625
0.5986641800009238,0,0,1.5921441040039062,0,0,0.6890625
0.600404624001385,0,0,1.3407529296874998,0,0,0.6890625
0.6020949940011633,0,0,1.2856862915039062,0,0,1.3015625000000002
0.603682976001437,0,0,1.3670891479492187,0,0,0.9187500000000001
0.606327298000906,0,0,1.448492004394531,0,0,0.765625
0.608039501001258,0,0,1.2521674682617188,0,0,1.0718750000000001
0.6095872800015059,0,0,1.467645617675781,0,0,1.0718750000000001
0.6112617620001402,0,0,1.2641384765625,0,0,0.3828125
0.6130256310007098,0,0,1.1324573852539062,0,0,0.9953125
0.6153344940012175,0,0,1.4413093994140624,0,0,0.765625
0.6171159929999703,0,0,1.3910311645507811,0,0,0.8421875000000001
0.6188241770014429,0,0,1.484405029296875,0,0,0.6125
0.620461881000665,0,0,1.3215993164062498,0,0,0.9187500000000001
0.6219933270003821,0,0,1.1923124267578125,0,0,0.6890625
0.6235925130004034,0,0,1.3814543579101561,0,0,0.9953125
0.6253587520004658,0,0,1.4101847778320311,0,0,1.0718750000000001
0.6271645840006386,0,0,1.5035586425781249,0,0,0.8421875000000001
0.6292926900005114,0,0,1.5203180541992187,0,0,0.765625
0.6310915220001334,0,0,1.218648645019531,0,0,0.8421875000000001
0.6326605970007222,0,0,1.1444283935546875,0,0,0.9187500000000001
0.6342039310002292,0,0,1.369483349609375,0,0,0.5359375000000001
0.6358673390004697,0,0,1.4125789794921875,0,0,832.5406250000001
0.6374856350012124,0,0,1.37906015625,0,0,0.22968750000000002
0.6391916720003792,0,0,1.6304513305664061,0,0,0.6890625
0.6408420790012315,0,0,1.2976572998046874,0,0,1.1484375
0.6426231519999419,0,0,1.1252747802734375,0,0,0.6890625
0.6442035420004686,0,0,1.2306196533203124,0,0,0.45937500000000003
0.6459795589998976,0,0,1.4053963745117186,0,0,-853.1359375000001
0.6476777990010305,0,0,1.3215993164062498,0,0,1.0718750000000001
0.6494422240011772,0,0,1.6017209106445311,0,0,1.4546875000000001
0.6510998350004229,0,0,1.2282254516601563,0,0,0.765625
0.6528784450001694,0,0,1.2234370483398436,0,0,0.6890625
0.6544539830010763,0,0,1.3263877197265623,0,0,0.45937500000000003
0.6561551300001156,0,0,1.3239935180664062,0,0,0.153125
0.6578276860000187,0,0,1.4030021728515625,0,0,0.9187500000000001
0.6594313160003367,0,0,1.448492004394531,0,0,1.0718750000000001
0.6610229460002301,0,0,1.2952630981445312,0,0,0.8421875000000001
0.662716705001003,0,0,1.1875240234375,0,0,0.8421875000000001
0.66426378000142,0,0,1.4006079711914061,0,0,1.0718750000000001
0.6658503740000015,0,0,1.4939818359375,0,0,832.6171875000001
0.6676819460008119,0,0,1.2617442749023438,0,0,0.30625
0.6693120939999062,0,0,1.6543933471679686,0,0,0.765625
0.6709035580006457,0,0,1.35990654296875,0,0,0.9187500000000001
0.6725113920001604,0,0,1.1228805786132812,0,0,1.0718750000000001
0.6740557450011693,0,0,1.2425906616210938,0,0,0.9187500000000001
0.6755849690016476,0,0,1.3910311645507811,0,0,0.8421875000000001
0.6772035800004232,0,0,1.5275006591796874,0,0,0.6125
0.67878022900004,0,0,1.5059528442382812,0,0,1.7609375
0.680392230000507,0,0,1.2689268798828124,0,0,0.9187500000000001
0.6820885630004341,0,0,1.5203180541992187,0,0,0.765625
0.6837136000012833,0,0,1.3407529296874998,0,0,0.9187500000000001
0.6853874150001502,0,0,1.3814543579101561,0,0,1.9140625000000002
0.6870343959999445,0,0,1.4030021728515625,0,0,1.6078125
0.6887037850010529,0,0,1.5538368774414062,0,0,0.9187500000000001
0.6902410270013206,0,0,1.2665326782226562,0,0,0.8421875000000001
0.6918886570001632,0,0,1.2928688964843749,0,0,0.6890625
0.6935735639999621,0,0,1.3814543579101561,0,0,-9.034375
0.6951614540012088,0,0,1.3838485595703125,0,0,1.0718750000000001
0.696690288001264,0,0,1.5179238525390624,0,0,1.225
0.6983500850001292,0,0,1.4939818359375,0,0,1.0718750000000001
0.7004039690000354,0,0,1.2593500732421874,0,0,0.9953125
0.7024169840005925,0,0,1.1563994018554686,0,0,1.0718750000000001
0.7043252030016447,0,0,1.4700398193359374,0,0,0.6125
0.7059845920011867,0,0,1.4341267944335936,0,0,0.0
0.7076259250006842,0,0,1.2952630981445312,0,0,0.3828125
0.7092472960011946,0,0,1.5490484741210937,0,0,0.6125
0.7108580000003712,0,0,1.3742717529296875,0,0,0.6890625
0.7124082610007463,0,0,1.0821791503906248,0,0,1.0718750000000001
0.7140636500007531,0,0,1.3215993164062498,0,0,1.0718750000000001
0.7157354270002543,0,0,1.429338391113281,0,0,-9.1109375
0.7175080000015441,0,0,1.3455413330078123,0,0,0.765625
0.7191216490009538,0,0,1.6208745239257811,0,0,1.0718750000000001
0.720693150000443,0,0,1.2210428466796874,0,0,0.9953125
0.7224158710014308,0,0,1.1875240234375,0,0,1.1484375
0.7240306680014328,0,0,1.2665326782226562,0,0,1.0718750000000001
0.7255672810006217,0,0,1.4317325927734375,0,0,1.9140625000000002
0.7272253549999732,0,0,1.6519991455078125,0,0,1.53125
0.7289089650003007,0,0,1.4987702392578124,0,0,1.1484375
0.7305633730011323,0,0,1.2138602416992186,0,0,1.378125
0.7320987820003211,0,0,1.3646949462890625,0,0,0.6125
0.7337680040000123,0,0,1.4437036010742186,0,0,0.765625
0.7356115940001473,0,0,1.3335703247070312,0,0,1.990625
0.7373646120013291,0,0,1.3287819213867187,0,0,0.5359375000000001
0.7391195740001422,0,0,1.3862427612304686,0,0,0.5359375000000001
0.7408636650015978,0,0,1.2617442749023438,0,0,0.765625
0.7427561810000043,0,0,1.2689268798828124,0,0,0.9953125
0.7445137909999175,0,0,1.465251416015625,0,0,0.8421875000000001
0.7462134570014314,0,0,1.458068811035156,0,0,0.0765625
0.7482298980012274,0,0,1.2521674682617188,0,0,0.6125
0.7499085270010255,0,0,1.5777788940429687,0,0,0.9187500000000001
0.7517037659999914,0,0,1.3934253662109375,0,0,0.45937500000000003
0.7538036320001993,0,0,1.3742717529296875,0,0,0.8421875000000001
0.7555497789999208,0,0,1.4437036010742186,0,0,1.990625
0.7572404450002068,0,0,1.5275006591796874,0,0,1.225
0.758856853000907,0,0,1.438915197753906,0,0,0.6125
0.7604629280012887,0,0,1.2521674682617188,0,0,0.9187500000000001
0.7625165160006873,0,0,1.1276689819335937,0,0,0.9953125
0.7642027380006766,0,0,1.3527239379882812,0,0,0.9187500000000001
0.7661701230008475,0,0,1.465251416015625,0,0,832.8468750000001
0.7679356960015866,0,0,1.3263877197265623,0,0,0.6125
0.7696250660010264,0,0,1.5514426757812498,0,0,0.8421875000000001
0.7712448440015578,0,0,1.1085153686523437,0,0,0.8421875000000001
0.7729488439999841,0,0,0.9935936889648437,0,0,0.5359375000000001
0.7747459720012557,0,0,1.3814543579101561,0,0,0.6890625
0.7764232490007998,0,0,1.3766659545898436,0,0,832.6171875000001
0.7781032490001962,0,0,1.4101847778320311,0,0,0.9953125
0.7798083410016261,0,0,1.5490484741210937,0,0,1.1484375
0.7814190820008662,0,0,1.3287819213867187,0,0,0.6125
0.7830940640014887,0,0,1.0821791503906248,0,0,0.8421875000000001
0.7847785820013087,0,0,1.3934253662109375,0,0,0.45937500000000003
0.7867788930016104,0,0,1.4125789794921875,0,0,0.0
0.7885061699998914,0,0,1.3718775512695311,0,0,0.9187500000000001
0.7904135000007955,0,0,1.2665326782226562,0,0,0.8421875000000001
0.7924359040007403,0,0,1.1540052001953125,0,0,0.8421875000000001
0.7944389000003866,0,0,1.4173673828125,0,0,0.765625
0.7966190420011117,0,0,1.3575123413085937,0,0,0.0765625
0.7983373189999838,0,0,1.2737152832031249,0,0,0.8421875000000001
0.7999295980007446,0,0,1.6519991455078125,0,0,0.9187500000000001
0.8016075790001196,0,0,1.47482822265625,0,0,0.8421875000000001
0.803543243000604,0,0,1.3646949462890625,0,0,0.5359375000000001
0.8051464470008796,0,0,1.465251416015625,0,0,0.5359375000000001
0.8068101320004644,0,0,1.465251416015625,0,0,0.9187500000000001
0.8085355940002046,0,0,1.4532804077148436,0,0,0.9187500000000001
0.810229242000787,0,0,1.6519991455078125,0,0,0.8421875000000001
0.8119119080001838,0,0,1.2952630981445312,0,0,0.5359375000000001
0.8135153900002479,0,0,1.3311761230468748,0,0,0.5359375000000001
0.815381629001422,0,0,1.39821376953125,0,0,1.378125
0.8170723510011157,0,0,1.448492004394531,0,0,0.9953125
0.8186272220009414,0,0,1.3551181396484375,0,0,1.1484375
0.8201550200010388,0,0,1.6041151123046875,0,0,0.9187500000000001
0.8217445950012916,0,0,1.4245499877929686,0,0,0.9187500000000001
0.8234461310003098,0,0,1.2880804931640624,0,0,0.6125
0.8251624450003874,0,0,1.448492004394531,0,0,0.765625
0.8268285930007551,0,0,1.458068811035156,0,0,0.30625
0.8285669070010044,0,0,1.2928688964843749,0,0,1.1484375
0.8301900559999922,0,0,1.5418658691406248,0,0,1.4546875000000001
0.8319764430016221,0,0,1.3239935180664062,0,0,0.9953125
0.8336852760003239,0,0,1.4006079711914061,0,0,0.765625
0.8352684440014855,0,0,1.467645617675781,0,0,0.5359375000000001
0.836844519000806,0,0,1.4963760375976562,0,0,0.5359375000000001
0.838480148000599,0,0,1.1827356201171875,0,0,0.9953125
0.8400140020003164,0,0,1.5849614990234373,0,0,0.9187500000000001
0.8415360960007092,0,0,1.4149731811523436,0,0,0.765625
0.843135170000096,0,0,1.1516109985351561,0,0,0.8421875000000001
0.8447070790007274,0,0,1.429338391113281,0,0,0.6125
0.846222543001204,0,0,1.3263877197265623,0,0,0.5359375000000001
0.8479844869998487,0,0,1.4030021728515625,0,0,0.22968750000000002
0.8497572450014559,0,0,1.6711527587890624,0,0,0.6890625
0.8514136520007014,0,0,1.3215993164062498,0,0,0.3828125
0.8530892440012394,0,0,1.2042834350585936,0,0,0.6125
0.8547829480012297,0,0,1.3934253662109375,0,0,1.8375000000000001
0.8563998370009358,0,0,1.4867992309570313,0,0,-853.1359375000001
0.8581252809999569,0,0,1.5275006591796874,0,0,0.22968750000000002
0.8598123360006866,0,0,1.6208745239257811,0,0,2.5265625000000003
0.8614170590008143,0,0,2.231395947265625,0,0,3.98125
0.863118947001567,0,0,3.890577697753906,0,0,829.5546875000001
0.8652225160003582,0,0,6.342240197753906,0,0,7.9625
0.8669602930003748,0,0,7.587225061035156,0,0,8.192187500000001
0.8686562000002596,0,0,8.59997236328125,0,0,10.106250000000001
0.8703994400002557,0,0,9.33978067626953,0,0,832.6171875000001
0.8720149030013999,0,0,9.507374792480467,0,0,-852.8296875000001
0.8736255700005131,0,0,8.971073620605468,0,0,832.69375
0.8756399550002243,0,0,8.851363537597656,0,0,831.0093750000001
0.877288474001034,0,0,8.949525805664061,0,0,829.63125
0.8789367890003632,0,0,8.734047656249999,0,0,5.665625
0.8805723820005369,0,0,2.578555187988281,0,0,2.2203125000000004
0.8821195870004885,0,0,-1.2018892333984375,0,0,2.296875
0.8836779210014356,0,0,1.695094775390625,0,0,-6.0484375
0.8853088290015876,0,0,2.779668127441406,0,0,829.63125
0.8870038840013876,0,0,-1.1731588134765625,0,0,830.7796875
0.8885804960009409,0,0,-5.68862314453125,0,0,-854.9734375
0.8903036430001521,0,0,-6.234501123046875,0,0,-1.7609375
0.8922164920004434,0,0,-2.73896669921875,0,0,0.22968750000000002
0.8940629349999654,0,0,1.707065783691406,0,0,1.6843750000000002
0.8958212850011478,0,0,4.754884497070313,0,0,828.3296875000001
0.8974767670006258,0,0,4.283226770019531,0,0,-855.8921875000001
0.8991936180009361,0,0,3.9887399658203124,0,0,828.3296875000001
0.9008783960016444,0,0,2.4684219116210935,0,0,2.45
0.9025878950014885,0,0,2.346317626953125,0,0,8.421875
0.9042013580001367,0,0,2.310404602050781,0,0,7.9625
0.906052541000463,0,0,1.3479355346679687,0,0,832.2343750000001
0.907817392000652,0,0,1.158793603515625,0,0,0.45937500000000003
0.9096048720002727,0,0,-0.7852981445312499,0,0,0.8421875000000001
0.9113705190011387,0,0,-1.66636435546875,0,0,0.3828125
0.9132209610015707,0,0,-1.3000515014648437,0,0,832.5406250000001
0.9148985350002476,0,0,1.9847931762695312,0,0,1.9140625000000002
0.9165089800007991,0,0,4.129997863769531,0,0,3.1390625
0.9182947010012867,0,0,3.7229835815429686,0,0,2.9859375000000004
0.9201277920001303,0,0,2.375048046875,0,0,2.3734375
0.9228129470011481,0,0,1.8411410766601561,0,0,-0.45937500000000003
0.9249313119998988,0,0,2.403778466796875,0,0,0.45937500000000003
0.9268659010012925,0,0,0.30406361083984373,0,0,-0.9953125
0.9290124510007445,0,0,-1.2593500732421874,0,0,-1.1484375
0.9309669850008504,0,0,0.48123453369140623,0,0,0.0
0.932761317000768,0,0,2.1978771240234374,0,0,2.0671875
0.9345709080007509,0,0,1.936909143066406,0,0,2.3734375
0.936277130000235,0,0,1.197100830078125,0,0,2.9093750000000003
0.9379069260012329,0,0,1.0079588989257813,0,0,1.53125
0.9397791830015194,0,0,3.9791631591796874,0,0,1.9140625000000002
0.9417580500012264,0,0,3.1483751831054687,0,0,0.9953125
0.9435318260002532,0,0,0.45010991210937495,0,0,-0.3828125
0.9453030660006334,0,0,-0.4213794921875,0,0,-1.6078125
0.9470737870015,0,0,0.46686932373046874,0,0,-0.6125
0.9488252669998474,0,0,1.2210428466796874,0,0,0.765625
0.9506760980002582,0,0,0.033518823242187495,0,0,0.45937500000000003
0.9524318750009115,0,0,-0.9840168823242187,0,0,-9.034375
0.9541500780014758,0,0,-0.3950432739257812,0,0,1.6843750000000002
0.9558578740015946,0,0,3.27526787109375,0,0,3.521875
0.9575887060000241,0,0,3.77326181640625,0,0,3.8281250000000004
0.9593203350013937,0,0,2.923320227050781,0,0,2.45
0.9610704269998678,0,0,1.0342951171875,0,0,0.22968750000000002
0.9629115170009754,0,0,2.0183119995117185,0,0,-8.957812500000001
0.9649066060010227,0,0,3.660734338378906,0,0,1.0718750000000001
0.9665806610009895,0,0,1.4604630126953124,0,0,-1.6078125
0.968642768000791,0,0,-1.235408056640625,0,0,-1.225
0.970618135001132,0,0,0.02633621826171875,0,0,-0.8421875000000001
0.9723043940011848,0,0,0.9217676391601562,0,0,0.153125
0.9743926110004395,0,0,1.2425906616210938,0,0,0.6890625
0.976102296001045,0,0,0.5626373901367188,0,0,1.7609375
0.9777169630015123,0,0,-0.23223756103515625,0,0,1.4546875000000001
0.9794315180006379,0,0,2.77727392578125,0,0,2.296875
0.9814499210006034,0,0,3.2609026611328122,0,0,1.8375000000000001
0.9830981060003978,0,0,2.8754361938476563,0,0,1.3015625000000002
0.9850090660002024,0,0,0.469263525390625,0,0,832.0812500000001
0.9867455290004727,0,0,1.2737152832031249,0,0,-0.6890625
0.988414677000037,0,0,2.829946362304687,0,0,1.378125
0.9901034170015919,0,0,2.8203695556640622,0,0,1.9140625000000002
0.9923837060014193,0,0,-1.1252747802734375,0,0,0.22968750000000002
0.9940827800000989,0,0,-1.7669208251953124,0,0,-0.6125
0.9957992420004302,0,0,1.6256629272460936,0,0,0.5359375000000001
0.9974745010003971,0,0,3.294421484375,0,0,2.6796875
0.9993025550011225,0,0,2.703053674316406,0,0,1.9140625000000002
1.0010447210006532,0,0,0.25139117431640623,0,0,0.30625
1.0028254780008865,0,0,0.6272808349609375,0,0,0.0
1.0048493260001123,0,0,3.1316157714843746,0,0,1.225
1.0067384530011623,0,0,2.7246014892578123,0,0,0.5359375000000001
1.0085037480002939,0,0,-0.17956512451171874,0,0,0.153125
1.010367987000791,0,0,-1.0702081420898437,0,0,-0.0765625
1.0121807440009434,0,0,1.0223241088867188,0,0,0.9953125
1.0140024090014776,0,0,2.5522189697265625,0,0,1.6843750000000002
1.0158345920008287,0,0,1.5298948608398437,0,0,1.8375000000000001
1.0175955360009539,0,0,-0.01915361328125,0,0,0.6890625
1.0193927560012526,0,0,2.5905261962890624,0,0,1.6843750000000002
1.021442344001116,0,0,2.825157958984375,0,0,1.9140625000000002
1.0257432960006554,0,0,-0.5219359619140624,0,0,0.5359375000000001
1.028555746001075,0,0,1.7310078002929687,0,0,1.378125
1.0303927439999825,0,0,1.1923124267578125,0,0,1.1484375
1.03216233600142,0,0,0.44053310546874996,0,0,0.6890625
1.0341032590004033,0,0,-0.7350199096679687,0,0,-0.0765625
1.0361216990004323,0,0,2.0183119995117185,0,0,2.2203125000000004
1.038212713001485,0,0,3.31357509765625,0,0,2.75625
1.0401697090001107,0,0,2.4492682983398435,0,0,4.134375
1.0419468380005128,0,0,0.023942016601562498,0,0,0.6890625
1.043804001999888,0,0,1.7453730102539062,0,0,0.6890625
1.0455470200013224,0,0,3.0597897216796874,0,0,1.1484375
1.0472817220015713,0,0,2.612074011230469,0,0,0.9953125
1.0491484980011592,0,0,0.4644751220703125,0,0,-0.22968750000000002
1.0508825150009216,0,0,0.031124621582031248,0,0,-0.6125
1.0525730150002346,0,0,1.3934253662109375,0,0,0.0
1.0544077909999032,0,0,1.8339584716796873,0,0,0.6125
1.056149568001274,0,0,1.388636962890625,0,0,2.3734375
1.0578424190007354,0,0,0.11013327636718749,0,0,0.6890625
1.059542548000536,0,0,1.7477672119140624,0,0,1.53125
1.0613129170014872,0,0,2.0087351928710935,0,0,1.7609375
1.0630292870009725,0,0,1.8363526733398436,0,0,0.8421875000000001
1.0648117670007196,0,0,0.8858546142578124,0,0,0.0
1.0665298780004377,0,0,1.0390835205078124,0,0,0.6125
1.068249192001531,0,0,2.0278888061523435,0,0,1.378125
1.0700684860003093,0,0,2.528276953125,0,0,1.6843750000000002
1.0718532070004585,0,0,0.9265560424804687,0,0,1.7609375
1.0735031150015857,0,0,-0.5674257934570313,0,0,9.49375
1.0751727260012558,0,0,0.8307879760742187,0,0,0.6890625
1.0768628360001458,0,0,2.6408044311523438,0,0,0.5359375000000001
1.0784819850014173,0,0,2.1547814941406247,0,0,0.9187500000000001
1.0800246160015377,0,0,1.905784521484375,0,0,1.6843750000000002
1.0817238370000268,0,0,-0.35673604736328124,0,0,0.0
1.0833687270005612,0,0,0.814028564453125,0,0,0.6890625
1.084924876000514,0,0,2.2744915771484373,0,0,0.6125
1.0866598749998957,0,0,1.7836802368164062,0,0,1.1484375
1.0883398189998843,0,0,1.3910311645507811,0,0,1.4546875000000001
1.089893098000175,0,0,0.15562310791015624,0,0,0.6125
1.0914289880001888,0,0,1.5634136840820312,0,0,1.225
1.0930457670001488,0,0,1.7693150268554687,0,0,0.9953125
1.0946634890005953,0,0,1.1324573852539062,0,0,0.6890625
1.0961976570015395,0,0,1.0486603271484374,0,0,1.53125
1.0980393030004052,0,0,0.47165772705078124,0,0,1.6843750000000002
1.0996991000010894,0,0,2.710236279296875,0,0,1.990625
1.1012655080012337,0,0,2.6431986328124997,0,0,1.8375000000000001
1.1029826550002326,0,0,1.2713210815429687,0,0,0.0
1.1047482840003795,0,0,0.22505495605468748,0,0,-1.0718750000000001
1.1064034139999421,0,0,0.34237083740234375,0,0,0.9953125
1.107958155000233,0,0,2.6623522460937497,0,0,2.3734375
1.1096946180005034,0,0,1.9800047729492187,0,0,1.990625
1.1114164130012796,0,0,0.7900865478515624,0,0,1.3015625000000002
1.1130310620010277,0,0,-0.5219359619140624,0,0,-1.0718750000000001
1.1148718929998722,0,0,1.3718775512695311,0,0,0.153125
1.1166002810005011,0,0,3.3782185424804685,0,0,2.296875
1.1183241690014256,0,0,3.057395520019531,0,0,1.8375000000000001
1.119937559000391,0,0,1.6232687255859375,0,0,1.990625
1.1218416300016543,0,0,-0.40940848388671874,0,0,0.6125
1.1235447590006515,0,0,1.7094599853515624,0,0,0.9953125
1.1251435930007574,0,0,2.693476867675781,0,0,1.3015625000000002
1.1266812610010675,0,0,1.5083470458984374,0,0,1.1484375
1.1286662020011136,0,0,0.10295067138671875,0,0,-0.6125
1.1304018310001993,0,0,-0.062249243164062495,0,0,0.765625
1.1319563320012094,0,0,1.7764976318359373,0,0,1.9140625000000002
1.1334848520000378,0,0,1.8746598999023436,0,0,1.225
1.1355496249998396,0,0,0.48123453369140623,0,0,0.0765625
1.1371559030012577,0,0,0.12689268798828124,0,0,-1.3015625000000002
1.1387092750010197,0,0,2.1212626708984375,0,0,0.45937500000000003
1.1403372940003464,0,0,3.0597897216796874,0,0,2.1437500000000003
1.1420768480002153,0,0,2.099714855957031,0,0,1.225
1.1436495340003603,0,0,0.06703764648437499,0,0,0.3828125
1.145291590000852,0,0,-0.316034619140625,0,0,-1.4546875000000001
1.1470480150001094,0,0,1.8435352783203125,0,0,1.1484375
1.1487085150001803,0,0,3.2824504760742186,0,0,3.5984375
1.1503787550009292,0,0,2.3223756103515623,0,0,1.3015625000000002
1.152143180001076,0,0,-0.028730419921875,0,0,0.6890625
1.1539281420009502,0,0,-0.833182177734375,0,0,0.6890625
1.15556990100049,0,0,2.7964275390625,0,0,1.225
1.1571068280009058,0,0,3.8187516479492185,0,0,1.6843750000000002
1.158778439001253,0,0,2.023100402832031,0,0,1.53125
1.1604335500014713,0,0,1.1611878051757811,0,0,0.3828125
1.162062847000925,0,0,-0.9121908325195311,0,0,0.0
1.1636057000014262,0,0,1.8171990600585937,0,0,1.1484375
1.165376680000918,0,0,3.2130186279296873,0,0,1.4546875000000001
1.1671208460011258,0,0,1.7190367919921874,0,0,-8.421875
1.1686629590003577,0,0,-0.4429273071289062,0,0,-0.5359375000000001
1.1704465680013527,0,0,1.2521674682617188,0,0,0.22968750000000002
1.172053809999852,0,0,1.9105729248046874,0,0,1.6078125
1.1735889780011348,0,0,2.4061726684570313,0,0,1.53125
1.1752115710005455,0,0,1.5586252807617187,0,0,0.9953125
1.1769357920002221,0,0,-0.33518823242187495,0,0,-0.30625
1.1786050509999768,0,0,1.407790576171875,0,0,0.22968750000000002
1.1802396809998754,0,0,2.3582886352539063,0,0,2.2203125000000004
1.1818158860005497,0,0,2.73896669921875,0,0,1.6843750000000002
1.1835289589998865,0,0,0.8188169677734375,0,0,0.9187500000000001
1.1852510510016145,0,0,-0.18435352783203124,0,0,-0.6125
1.1869069029999082,0,0,1.0223241088867188,0,0,0.6890625
1.1885559400016064,0,0,3.383006945800781,0,0,2.45
1.1901866810003412,0,0,2.906560815429687,0,0,1.378125
1.1918714399998862,0,0,0.5243301635742187,0,0,1.6843750000000002
1.1936387910009216,0,0,-1.4006079711914061,0,0,-1.378125
1.1953046610015008,0,0,0.4908113403320312,0,0,1.225
1.1971556220014463,0,0,3.5314474487304683,0,0,2.5265625000000003
1.1989660460003506,0,0,2.6623522460937497,0,0,1.378125
1.200509399001021,0,0,-0.011971008300781249,0,0,2.1437500000000003
1.2021369920003053,0,0,-1.1468225952148436,0,0,8.8046875
1.2037276410010236,0,0,1.848323681640625,0,0,0.9953125
1.205258957001206,0,0,3.4620156005859375,0,0,1.4546875000000001
1.2068897170011041,0,0,2.6910826660156246,0,0,2.45
1.208468384000298,0,0,-0.15322890625,0,0,0.22968750000000002
1.2101966430000175,0,0,-0.74699091796875,0,0,-9.8
1.2118984200005798,0,0,0.9624690673828125,0,0,1.3015625000000002
1.2135054570007924,0,0,1.9393033447265624,0,0,0.6125
1.2152052159999585,0,0,1.85790048828125,0,0,0.9187500000000001
1.216843198000788,0,0,0.1580173095703125,0,0,8.6515625
1.2193635220010037,0,0,0.7972691528320313,0,0,1.225
1.2210181330010528,0,0,3.0047230834960934,0,0,1.7609375
1.2227608730008797,0,0,2.308010400390625,0,0,1.0718750000000001
1.2243898730012006,0,0,1.5203180541992187,0,0,0.153125
1.226219463000234,0,0,-0.1292868896484375,0,0,0.0
1.2278882230002637,0,0,1.7429788085937499,0,0,1.53125
1.229799886001274,0,0,2.0183119995117185,0,0,2.1437500000000003
1.2314545350000117,0,0,2.085349645996094,0,0,1.378125
1.2330423319999682,0,0,-0.181959326171875,0,0,-0.153125
1.2347405350010376,0,0,0.5530605834960938,0,0,0.3828125
1.236449089999951,0,0,1.7956512451171873,0,0,1.8375000000000001
1.2381107569999585,0,0,2.8107927490234372,0,0,2.1437500000000003
1.2397829790006654,0,0,2.109291662597656,0,0,2.3734375
1.2413736270009395,0,0,0.7565677246093749,0,0,2.5265625000000003
1.2429220360008912,0,0,0.3591302490234375,0,0,9.5703125
1.24453122200066,0,0,2.5713725830078125,0,0,0.45937500000000003
1.2463345910000498,0,0,2.6791116577148437,0,0,1.6078125
1.2479936460003955,0,0,1.7573440185546874,0,0,0.765625
1.2495411470008548,0,0,-0.4165910888671875,0,0,-0.9953125
1.2511872590002895,0,0,0.47644613037109373,0,0,-0.45937500000000003
1.2527962590011157,0,0,1.886630908203125,0,0,0.3828125
1.2543612050012598,0,0,1.8938135131835936,0,0,1.0718750000000001
1.2559801120005432,0,0,1.5514426757812498,0,0,1.53125
1.2576629080012935,0,0,0.44053310546874996,0,0,-0.3828125
1.2593164080008137,0,0,1.3575123413085937,0,0,0.6125
1.260945187001198,0,0,2.4133552734375,0,0,0.8421875000000001
1.2626421680015483,0,0,1.4221557861328125,0,0,0.45937500000000003
1.2643610930008435,0,0,1.1707646118164061,0,0,0.6125
1.2660015190012928,0,0,0.2825157958984375,0,0,0.30625
1.2676417600014247,0,0,2.2170307373046874,0,0,0.0765625
1.2691952240002138,0,0,2.693476867675781,0,0,0.9953125
1.2709419450002315,0,0,1.8339584716796873,0,0,0.8421875000000001
1.2726666110011138,0,0,-0.2561795776367187,0,0,0.3828125
1.2743426480010385,0,0,-0.70868369140625,0,0,0.153125
1.2760133700012375,0,0,1.924938134765625,0,0,1.990625
1.2776683700012654,0,0,2.6982652709960937,0,0,1.7609375
1.2793441110006825,0,0,2.530671154785156,0,0,1.9140625000000002
1.2810049620002246,0,0,0.8858546142578124,0,0,0.3828125
1.2827339060004306,0,0,0.5386953735351562,0,0,0.6125
1.2843257029999222,0,0,1.5394716674804687,0,0,1.6078125
1.2859363150000718,0,0,2.2361843505859373,0,0,1.1484375
1.2876354070012894,0,0,1.2617442749023438,0,0,0.9953125
1.289270203000342,0,0,0.5506663818359374,0,0,0.0
1.2908562230004463,0,0,1.2282254516601563,0,0,0.5359375000000001
1.2924784080005338,0,0,1.6927005737304686,0,0,1.7609375
1.2940372430002753,0,0,1.6304513305664061,0,0,1.4546875000000001
1.295570577000035,0,0,1.3287819213867187,0,0,1.378125
1.2971889480013488,0,0,1.1061211669921875,0,0,0.9187500000000001
1.2988906700011285,0,0,1.4101847778320311,0,0,1.225
1.3005050589999883,0,0,2.2266075439453124,0,0,1.8375000000000001
1.302138189001198,0,0,1.5682020874023437,0,0,1.378125
1.303834504000406,0,0,1.0510545288085937,0,0,0.765625
1.305423466999855,0,0,0.6392518432617187,0,0,9.034375
1.3071236520008824,0,0,1.6352397338867186,0,0,1.378125
1.3087653930015222,0,0,2.4516625,0,0,1.990625
1.3107794810002815,0,0,1.0893617553710937,0,0,0.8421875000000001
1.3124623150015395,0,0,0.38307226562499996,0,0,0.6890625
1.3141315000011673,0,0,0.16041151123046873,0,0,0.153125
1.3157556300011493,0,0,2.8706477905273435,0,0,1.8375000000000001
1.3173006680008257,0,0,3.5242648437499997,0,0,2.6031250000000004
1.3189254270000674,0,0,2.085349645996094,0,0,2.2203125000000004
1.3205072060009115,0,0,0.51714755859375,0,0,0.6890625
1.3221290030014643,0,0,-0.7015010864257812,0,0,-0.6890625
1.3237767440004973,0,0,2.398990063476562,0,0,0.765625
1.3253956510015996,0,0,3.0430303100585934,0,0,1.6843750000000002
1.328368340000452,0,0,0.3064578125,0,0,0.6890625
1.3300731730014377,0,0,-0.8882488159179687,0,0,0.0765625
1.3316697110003588,0,0,2.3439234252929686,0,0,0.30625
1.3332070830001612,0,0,3.0813375366210938,0,0,0.9953125
1.3348033800011763,0,0,2.157175695800781,0,0,1.6078125
1.3366156560005038,0,0,-0.076614453125,0,0,1.225
1.3384431720005523,0,0,-0.25139117431640623,0,0,9.646875000000001
1.3402561520015297,0,0,2.7461493041992187,0,0,2.3734375
1.3419550220005476,0,0,2.6815058593749996,0,0,2.296875
1.3435923739998543,0,0,-0.01915361328125,0,0,0.765625
1.3451307640007144,0,0,-1.0438719238281249,0,0,-1.6843750000000002
1.3468159120002383,0,0,1.4221557861328125,0,0,0.30625
1.3485333370008448,0,0,3.3542765258789062,0,0,2.45
1.3501309120001679,0,0,2.5426421630859375,0,0,2.5265625000000003
1.351669525000034,0,0,0.21308394775390624,0,0,1.225
1.3533180430003995,0,0,-0.6655880615234374,0,0,-1.53125
1.355018561000179,0,0,1.3670891479492187,0,0,-0.0765625
1.3566480610006693,0,0,4.3813890380859375,0,0,2.5265625000000003
1.3583563760003017,0,0,3.5529952636718747,0,0,2.2203125000000004
1.3599969500010047,0,0,0.3016694091796875,0,0,1.9140625000000002
1.361572932000854,0,0,-1.2641384765625,0,0,-1.8375000000000001
1.363220358000035,0,0,0.5123591552734374,0,0,832.2343750000001
1.364805470000647,0,0,3.488351818847656,0,0,1.225
1.3664166380003735,0,0,3.323151904296875,0,0,2.296875
1.368338838001364,0,0,0.4836287353515625,0,0,0.6890625
1.3702154650000011,0,0,-1.2976572998046874,0,0,0.0
1.3719307800001843,0,0,1.8914193115234375,0,0,0.6125
1.3735851680012274,0,0,3.1962592163085937,0,0,1.378125
1.3753758150014619,0,0,2.2170307373046874,0,0,2.2203125000000004
1.3772291650002444,0,0,0.28012159423828126,0,0,-9.723437500000001
1.378972831000283,0,0,0.59376201171875,0,0,-0.22968750000000002
1.3807264220013167,0,0,2.89219560546875,0,0,1.225
1.3824988840005972,0,0,3.1364041748046874,0,0,0.9187500000000001
1.384213068000463,0,0,1.3359645263671873,0,0,2.0671875
1.3859565300008398,0,0,-0.9121908325195311,0,0,0.30625
1.387738381001327,0,0,1.62805712890625,0,0,1.6843750000000002
1.3893739740015008,0,0,3.143586779785156,0,0,1.990625
1.3911407499999768,0,0,2.6527754394531247,0,0,1.225
1.3930316920013865,0,0,-0.16998831787109375,0,0,-0.9953125
1.3947351730002993,0,0,-0.277727392578125,0,0,-0.30625
1.3963795250001567,0,0,1.0654197387695312,0,0,0.8421875000000001
1.398091913000826,0,0,3.1962592163085937,0,0,2.45
1.3998149680010101,0,0,1.889025109863281,0,0,2.8328125
1.4015455230000953,0,0,-0.833182177734375,0,0,-0.153125
1.4032709850016545,0,0,0.41898529052734373,0,0,0.22968750000000002
1.4049338740005624,0,0,2.935291235351562,0,0,0.9187500000000001
1.406542745000479,0,0,2.6575638427734374,0,0,1.7609375
1.4082113190015662,0,0,1.2234370483398436,0,0,1.8375000000000001
1.4099196700008179,0,0,-1.350329736328125,0,0,-0.6125
1.411552115001541,0,0,1.3910311645507811,0,0,-0.5359375000000001
1.4132443550006428,0,0,2.346317626953125,0,0,1.378125
1.4152293330007524,0,0,2.521094348144531,0,0,2.2203125000000004
1.4169816470002843,0,0,0.7709329345703124,0,0,-0.8421875000000001
1.4190999560014461,0,0,0.5219359619140624,0,0,9.1109375
1.4207794740013924,0,0,2.7269956909179687,0,0,1.3015625000000002
1.4224437339998985,0,0,3.1747114013671873,0,0,1.7609375
1.4242702320007083,0,0,1.4939818359375,0,0,2.45
1.4259629719999793,0,0,-1.0390835205078124,0,0,0.153125
1.427588343000025,0,0,1.5586252807617187,0,0,0.6125
1.4291978800010838,0,0,3.0406361083984375,0,0,1.378125
1.4310656190009468,0,0,2.176329309082031,0,0,1.8375000000000001
1.432718174000911,0,0,0.028730419921875,0,0,1.225
1.4343575080001756,0,0,-0.9457096557617187,0,0,0.6890625
1.436062247999871,0,0,1.4341267944335936,0,0,0.8421875000000001
1.4378165430007357,0,0,2.9831752685546875,0,0,1.378125
1.43943104400023,0,0,2.7964275390625,0,0,1.9140625000000002
1.4410218220000388,0,0,0.4333505004882812,0,0,-0.3828125
1.4427306550005596,0,0,0.22266075439453123,0,0,-0.0765625
1.4444951910008967,0,0,1.3072341064453123,0,0,1.378125
1.446147821001432,0,0,2.5761609863281247,0,0,1.6843750000000002
1.4479257270013477,0,0,1.5251064575195312,0,0,3.6750000000000003
1.4496722070016403,0,0,-0.6153098266601562,0,0,0.22968750000000002
1.4513001700015593,0,0,0.5698199951171875,0,0,-0.30625
1.45297907800159,0,0,2.6096798095703124,0,0,0.9187500000000001
1.4546695400003955,0,0,2.319981408691406,0,0,1.378125
1.4562800960011373,0,0,2.0566192260742184,0,0,2.45
1.4579893730006006,0,0,-0.28969840087890625,0,0,1.378125
1.459810872000162,0,0,0.9504980590820312,0,0,1.1484375
1.4618672560009145,0,0,1.889025109863281,0,0,0.6125
1.4643842650002625,0,0,1.8243816650390623,0,0,0.0
1.4665931850013294,0,0,1.1156979736328125,0,0,0.9187500000000001
1.4685157740004797,0,0,1.5203180541992187,0,0,0.6125
1.4704705120002473,0,0,1.407790576171875,0,0,0.22968750000000002
1.4723996200009424,0,0,1.7166425903320313,0,0,0.45937500000000003
1.4742871910002577,0,0,0.718260498046875,0,0,1.6843750000000002
1.4760503380002774,0,0,2.310404602050781,0,0,2.45
1.4778272260009544,0,0,2.01112939453125,0,0,1.7609375
1.479603224001039,0,0,0.6512228515624999,0,0,2.3734375
1.4814551850013231,0,0,-0.3854664672851562,0,0,8.957812500000001
1.4832424800006265,0,0,1.3910311645507811,0,0,0.0765625
1.484893610000654,0,0,2.636016027832031,0,0,1.3015625000000002
1.4867490150008962,0,0,1.2976572998046874,0,0,0.6125
1.4885166800013394,0,0,0.82360537109375,0,0,0.765625
1.4903777340005036,0,0,-0.10295067138671875,0,0,0.5359375000000001
1.492129770000247,0,0,2.319981408691406,0,0,1.9140625000000002
1.4939003240015154,0,0,1.8555062866210936,0,0,1.6843750000000002
1.4961323920015275,0,0,0.7996633544921875,0,0,1.4546875000000001
1.49795303800056,0,0,-0.08140285644531249,0,0,0.153125
1.499794480001583,0,0,2.511517541503906,0,0,1.8375000000000001
1.5015761829999974,0,0,1.9129671264648436,0,0,1.6843750000000002
1.5033992180015048,0,0,0.9241618408203125,0,0,0.9953125
1.505257327000436,0,0,-0.11013327636718749,0,0,-1.225
1.5070408250012406,0,0,1.7693150268554687,0,0,0.0
1.508739251001316,0,0,3.0502129150390624,0,0,2.6796875
1.510312659000192,0,0,1.9225439331054686,0,0,-7.5796875
1.51202908400046,0,0,0.8930372192382812,0,0,1.53125
1.513643400001456,0,0,-0.00239420166015625,0,0,8.575000000000001
1.515188327000942,0,0,1.8555062866210936,0,0,0.0
1.5169845660002466,0,0,3.4715924072265625,0,0,1.8375000000000001
1.5186613250007213,0,0,1.4030021728515625,0,0,2.1437500000000003
1.5202312150013313,0,0,0.35673604736328124,0,0,0.9187500000000001
1.5218255670006329,0,0,-0.6775590698242188,0,0,0.0
1.5234644749998552,0,0,1.7717092285156248,0,0,0.765625
1.5250068470013503,0,0,3.7924154296875,0,0,2.0671875
1.5265538849998848,0,0,2.308010400390625,0,0,1.9140625000000002
1.5281625150000764,0,0,0.19393033447265623,0,0,1.9140625000000002
1.5298537930011662,0,0,-0.6248866333007812,0,0,9.5703125
1.531407720000061,0,0,1.5275006591796874,0,0,9.1875
1.533025146,0,0,3.816357446289062,0,0,2.1437500000000003
1.5347319050015358,0,0,1.8052280517578123,0,0,2.6796875
1.5363626460002706,0,0,0.2657563842773437,0,0,0.0
1.5379932200012263,0,0,-0.7685387329101562,0,0,0.0765625
1.5397013120000338,0,0,2.8012159423828122,0,0,0.9953125
1.541271684000094,0,0,3.9743747558593747,0,0,1.8375000000000001
1.5428968320011336,0,0,1.5490484741210937,0,0,1.225
1.5444755920016178,0,0,-0.19632453613281248,0,0,0.0
1.5463365160012472,0,0,-0.948103857421875,0,0,0.765625
1.548032830000011,0,0,3.2345664428710936,0,0,2.296875
1.5496578490001411,0,0,3.0358477050781247,0,0,2.2203125000000004
1.5513063310008874,0,0,1.8243816650390623,0,0,1.6078125
1.553005589001259,0,0,-1.139639990234375,0,0,-1.225
1.554648848999932,0,0,1.01514150390625,0,0,0.0
1.5561765350012138,0,0,2.3918074584960936,0,0,2.0671875
1.557894090001355,0,0,3.028665100097656,0,0,1.7609375
1.5595897380007955,0,0,2.35589443359375,0,0,0.9953125
1.5611675170002854,0,0,-1.0319009155273438,0,0,-1.3015625000000002
1.562715592001041,0,0,0.7805097412109374,0,0,-0.9953125
1.564339333001044,0,0,2.085349645996094,0,0,2.296875
1.5659194640011265,0,0,2.683900061035156,0,0,2.1437500000000003
1.567445521000991,0,0,2.250549560546875,0,0,1.990625
1.569049243000336,0,0,-1.0486603271484374,0,0,-1.8375000000000001
1.5707406500005163,0,0,0.7589619262695312,0,0,-1.225
1.5723252990010224,0,0,2.0374656127929685,0,0,2.3734375
1.5739502260003064,0,0,2.93050283203125,0,0,2.2203125000000004
1.5756571700003406,0,0,1.189918225097656,0,0,1.9140625000000002
1.577292040001339,0,0,-0.5291185668945312,0,0,-0.9953125
1.5789010780008539,0,0,0.7015010864257812,0,0,0.6125
1.5806780950006214,0,0,4.11802685546875,0,0,2.75625
1.5823547979998693,0,0,2.987963671875,0,0,1.990625
1.5839926690005086,0,0,0.6751648681640625,0,0,1.7609375
1.5856526320003468,0,0,-1.407790576171875,0,0,-1.0718750000000001
1.5873415390014998,0,0,0.6631938598632812,0,0,-0.45937500000000003
1.5894172940006683,0,0,3.526659045410156,0,0,0.5359375000000001
1.5912048110003525,0,0,2.360682836914062,0,0,2.0671875
1.5927433310007473,0,0,-0.6296750366210937,0,0,-9.5703125
1.594303869000214,0,0,-1.7956512451171873,0,0,-0.765625
1.5965068440000323,0,0,2.43250888671875,0,0,2.6796875
1.5981414550005866,0,0,3.5913024902343746,0,0,1.990625
1.5996782720012561,0,0,1.419761584472656,0,0,2.45
1.6019557280014851,0,0,-1.8148048583984373,0,0,-0.5359375000000001
1.6037214860007225,0,0,2.0254946044921875,0,0,2.0671875
1.605800833000103,0,0,2.7844565307617186,0,0,1.53125
1.6075842390000616,0,0,2.300827795410156,0,0,2.0671875
1.6092753120010457,0,0,-0.9002198242187499,0,0,-1.4546875000000001
1.6109518120010762,0,0,0.2920926025390625,0,0,-1.3015625000000002
1.6127623660013342,0,0,4.000710974121094,0,0,2.1437500000000003
1.614352256001439,0,0,3.3494881225585935,0,0,2.6031250000000004
1.6166488779999781,0,0,-0.1388636962890625,0,0,1.0718750000000001
1.6185548570010724,0,0,-1.2042834350585936,0,0,9.646875000000001
1.6201392840011977,0,0,1.7501614135742187,0,0,0.30625
1.621670118000111,0,0,3.294421484375,0,0,1.990625
1.6236118560009345,0,0,1.3670891479492187,0,0,2.0671875
1.6252635600012582,0,0,-0.0526724365234375,0,0,-0.6890625
1.6268617830010044,0,0,-0.20829554443359374,0,0,-0.45937500000000003
1.6287105580013304,0,0,2.3319524169921872,0,0,0.9187500000000001
1.6304254650003713,0,0,2.310404602050781,0,0,2.45
1.6320347800010495,0,0,1.455674609375,0,0,2.75625
1.6335641519999626,0,0,0.6703764648437499,0,0,0.8421875000000001
1.6355379630003881,0,0,0.7613561279296874,0,0,0.30625
1.6372387589999562,0,0,2.7341782958984373,0,0,0.5359375000000001
1.6388428710015432,0,0,2.7150246826171873,0,0,1.7609375
1.6407244239999272,0,0,0.4261678955078125,0,0,0.3828125
1.6424489970013383,0,0,-0.7589619262695312,0,0,0.5359375000000001
1.644048609001402,0,0,1.2976572998046874,0,0,1.53125
1.6457383310007572,0,0,2.070984436035156,0,0,1.4546875000000001
1.6476848649999738,0,0,1.2330138549804688,0,0,1.6078125
1.6492378290004126,0,0,-0.21068974609375,0,0,0.30625
1.6508588289998443,0,0,0.507570751953125,0,0,-0.22968750000000002
1.6532442470015667,0,0,3.612850305175781,0,0,0.8421875000000001
1.6551112080014718,0,0,3.0023288818359375,0,0,1.378125
1.6567556520003563,0,0,0.258573779296875,0,0,-8.957812500000001
1.6589533500009566,0,0,0.2442085693359375,0,0,-0.5359375000000001
1.6605922950002423,0,0,1.388636962890625,0,0,1.1484375
1.662164629000472,0,0,2.1452046874999997,0,0,1.990625
1.6643522340000345,0,0,1.4700398193359374,0,0,1.990625
1.6661227330005204,0,0,-0.9576806640625,0,0,0.6890625
1.6676684009999008,0,0,1.5777788940429687,0,0,0.765625
1.669339863001369,0,0,2.7724855224609373,0,0,1.1484375
1.6709506229999533,0,0,2.779668127441406,0,0,1.8375000000000001
1.6724891060002847,0,0,1.7501614135742187,0,0,2.1437500000000003
1.6741156430016417,0,0,0.2154781494140625,0,0,1.53125
1.6759024940001837,0,0,1.9033903198242186,0,0,1.990625
1.6775792530006584,0,0,2.4444798950195312,0,0,2.45
1.6792070120009157,0,0,1.2665326782226562,0,0,0.5359375000000001
1.680905271001393,0,0,-0.17477672119140625,0,0,-0.6125
1.6826075300014054,0,0,-0.3806780639648437,0,0,1.0718750000000001
1.6843310660005955,0,0,2.461239306640625,0,0,2.6796875
1.6859486590001325,0,0,1.5538368774414062,0,0,2.2203125000000004
1.6877319909999642,0,0,0.3399766357421875,0,0,1.6843750000000002
1.6894403610003792,0,0,-0.3687070556640625,0,0,-0.153125
1.6910755090011662,0,0,1.89620771484375,0,0,-9.4171875
1.6930390990000888,0,0,3.5122938354492184,0,0,1.3015625000000002
1.6948012460015889,0,0,2.0661960327148434,0,0,1.6078125
1.6964823190010065,0,0,0.9504980590820312,0,0,1.3015625000000002
1.6980636719999893,0,0,-0.7158662963867187,0,0,0.0
1.6996771360009006,0,0,2.2744915771484373,0,0,1.3015625000000002
1.7015864290005993,0,0,2.6336218261718747,0,0,0.3828125
1.703282021000632,0,0,1.867477294921875,0,0,0.8421875000000001
1.704878948001351,0,0,-0.009576806640625,0,0,-0.45937500000000003
1.7068697590002557,0,0,1.1133037719726562,0,0,0.6125
1.7085046669999429,0,0,2.142810485839844,0,0,1.6843750000000002
1.7101020750014868,0,0,1.8531120849609375,0,0,0.9187500000000001
1.711882740000874,0,0,1.1923124267578125,0,0,1.378125
1.713476315000662,0,0,0.8355763793945312,0,0,-1.3015625000000002
1.7150796860005357,0,0,1.9129671264648436,0,0,0.153125
1.7167090380007721,0,0,2.7365724975585937,0,0,1.9140625000000002
1.7182808720008325,0,0,1.6400281372070311,0,0,1.0718750000000001
1.7198723170004087,0,0,0.4955997436523437,0,0,1.7609375
1.7214942070004327,0,0,-0.5865794067382812,0,0,-0.6125
1.723270576001596,0,0,1.879448303222656,0,0,0.0
1.7249034650012618,0,0,3.1364041748046874,0,0,1.4546875000000001
1.7265413910008647,0,0,1.7812860351562498,0,0,1.6843750000000002
1.728277316000458,0,0,0.15322890625,0,0,1.9140625000000002
1.7299574270000448,0,0,-0.8355763793945312,0,0,-9.5703125
1.7315936120012339,0,0,1.7166425903320313,0,0,0.45937500000000003
1.7331749650002166,0,0,4.453215087890625,0,0,1.225
1.7348651130014332,0,0,2.157175695800781,0,0,2.5265625000000003
1.7365102420008043,0,0,0.29927520751953124,0,0,2.3734375
1.7381359280007018,0,0,-1.70467158203125,0,0,-1.0718750000000001
1.7399551850012358,0,0,2.9041666137695312,0,0,1.3015625000000002
1.7416395930013095,0,0,2.741360900878906,0,0,1.4546875000000001
1.7435844040010124,0,0,1.9201497314453124,0,0,1.225
1.7451380530001188,0,0,-1.0869675537109373,0,0,-0.9953125
1.7468968670000322,0,0,0.9457096557617187,0,0,0.153125
1.7485739780004224,0,0,2.7533319091796873,0,0,2.2203125000000004
1.7501703120015009,0,0,2.645592834472656,0,0,2.8328125
1.7517077950014937,0,0,0.316034619140625,0,0,1.9140625000000002
1.7533240360007767,0,0,-0.201112939453125,0,0,-1.8375000000000001
1.7551489050001692,0,0,2.4133552734375,0,0,-1.3015625000000002
1.7567440350012475,0,0,2.7748797241210936,0,0,2.0671875
1.7584635900002468,0,0,2.365471240234375,0,0,0.8421875000000001
1.760442642000271,0,0,0.4285620971679687,0,0,-0.45937500000000003
1.7623370090004755,0,0,-2.099714855957031,0,0,-9.8
1.7641638040004182,0,0,3.143586779785156,0,0,2.6031250000000004
1.7660429679999652,0,0,2.147598889160156,0,0,2.6796875
1.767640043000938,0,0,1.177947216796875,0,0,2.0671875
1.7693216540010326,0,0,-0.852335791015625,0,0,0.0
1.7711837440001545,0,0,1.4891934326171874,0,0,0.0
1.7732011660009448,0,0,5.1882349975585935,0,0,1.378125
1.774892962001104,0,0,2.4875755249023435,0,0,2.2203125000000004
1.7764438150006754,0,0,0.6584054565429687,0,0,1.6078125
1.7779679270006454,0,0,-2.2194249389648437,0,0,-1.4546875000000001
1.779575520000435,0,0,0.11013327636718749,0,0,7.885937500000001
1.7811917250000988,0,0,3.8570588745117185,0,0,0.6125
1.782751022001321,0,0,2.480392919921875,0,0,1.378125
1.7845875200000592,0,0,0.9552864624023437,0,0,1.3015625000000002
1.786285019999923,0,0,-2.221819140625,0,0,0.0
1.7878775570006837,0,0,1.6160861206054686,0,0,0.153125
1.7894206880009733,0,0,3.5817256835937497,0,0,0.22968750000000002
1.7910603180007456,0,0,3.210624426269531,0,0,1.378125
1.7926462260002154,0,0,1.9608511596679685,0,0,2.45
1.7941748200009897,0,0,-0.5267243652343749,0,0,1.9140625000000002
1.79611957599991,0,0,1.675941162109375,0,0,1.8375000000000001
1.7977197070013062,0,0,3.3303345092773435,0,0,9.340625000000001
1.7992725970016181,0,0,2.6719290527343746,0,0,0.0765625
1.8009676890014816,0,0,-0.6823474731445313,0,0,-2.0671875
1.802718853999977,0,0,-0.354341845703125,0,0,-0.8421875000000001
1.804341392000424,0,0,1.7549498168945312,0,0,2.45
1.8059305960014171,0,0,2.722207287597656,0,0,2.3734375
1.8076566880008613,0,0,2.231395947265625,0,0,2.45
1.8092841329998919,0,0,-0.74699091796875,0,0,-0.8421875000000001
1.8108942819999356,0,0,0.2059013427734375,0,0,-1.8375000000000001
1.812600059000033,0,0,2.5905261962890624,0,0,1.9140625000000002
1.8141703930014046,0,0,4.929661218261718,0,0,2.8328125
1.8157724490010878,0,0,2.4947581298828125,0,0,3.215625
1.8174387640010536,0,0,0.06464344482421874,0,0,-9.8
1.8191130600007455,0,0,-1.3551181396484375,0,0,-1.7609375
1.820700783000575,0,0,3.0334535034179684,0,0,-0.765625
1.8223678760004987,0,0,2.5570073730468748,0,0,0.30625
1.8239553020011954,0,0,2.3032219970703123,0,0,2.6031250000000004
1.8254905810008495,0,0,0.7445967163085937,0,0,0.0
1.8274025230002735,0,0,0.047884033203124995,0,0,0.0
1.8289805980002711,0,0,2.147598889160156,0,0,0.9187500000000001
1.8306863570014684,0,0,1.5322890624999999,0,0,-8.6515625
1.8323506160013494,0,0,1.659181750488281,0,0,0.765625
1.8340180230006808,0,0,0.5913678100585937,0,0,0.0
1.8355665240014787,0,0,1.2210428466796874,0,0,832.5406250000001
1.8371031920014502,0,0,3.689464758300781,0,0,0.9953125
1.838687582001512,0,0,2.5234885498046875,0,0,1.6078125
1.8403193419999297,0,0,0.5363011718749999,0,0,3.215625
1.8419362680015183,0,0,-0.5147533569335937,0,0,0.765625
1.8434880470013013,0,0,0.6368576416015624,0,0,0.0
1.8452103050003643,0,0,3.0933085449218747,0,0,0.8421875000000001
1.846863269000096,0,0,1.886630908203125,0,0,0.0
1.8484026770001947,0,0,0.9648632690429687,0,0,2.75625
1.8499331790008,0,0,-1.177947216796875,0,0,0.9187500000000001
1.8515256240007147,0,0,0.5315127685546874,0,0,0.765625
1.8531881240014627,0,0,3.191470812988281,0,0,0.9953125
1.8547827360016527,0,0,2.5474305664062498,0,0,1.6843750000000002
1.8563258290014346,0,0,1.4173673828125,0,0,1.7609375
1.8579836630015052,0,0,-1.0295067138671874,0,0,0.0765625
1.8596474030000536,0,0,0.07900865478515624,0,0,-2.2203125000000004
1.8611975710009574,0,0,0.6823474731445313,0,0,-4.9765625
1.8627372390001256,0,0,-2.7581203125,0,0,-4.2875000000000005
1.8643323330015846,0,0,-4.199429711914062,0,0,-7.3500000000000005
1.8660541650006053,0,0,-5.044582897949218,0,0,-5.8953125
1.8690245390007476,0,0,-5.257666845703125,0,0,-5.4359375000000005
1.870720169001288,0,0,-6.3901242309570305,0,0,-4.6703125000000005
1.8724601490011992,0,0,-7.017405065917968,0,0,-5.1296875
1.8745389220002835,0,0,-4.73094248046875,0,0,6.43125
1.876202978000947,0,0,-1.0414777221679687,0,0,-1.6078125
1.8779917170013505,0,0,-0.9121908325195311,0,0,0.45937500000000003
1.8797389380015375,0,0,-1.678335363769531,0,0,0.0
1.8813071610002225,0,0,-1.218648645019531,0,0,832.0812500000001
1.8831048640004155,0,0,1.01514150390625,0,0,3.215625
1.8848157700012962,0,0,1.9225439331054686,0,0,1.9140625000000002
1.886364420000973,0,0,1.5921441040039062,0,0,2.5265625000000003
1.8882778980005241,0,0,1.608903515625,0,0,2.1437500000000003
1.88995849100138,0,0,2.473210314941406,0,0,1.8375000000000001
1.8915376770000876,0,0,3.0047230834960934,0,0,1.7609375
1.8930636780005443,0,0,2.8227637573242186,0,0,1.8375000000000001
1.8946546229999512,0,0,2.5330653564453125,0,0,0.765625
1.8964789360015857,0,0,1.3479355346679687,0,0,1.3015625000000002
1.8980220490011561,0,0,1.350329736328125,0,0,-9.340625000000001
1.8995817720006016,0,0,1.2785036865234374,0,0,0.0765625
1.901368419001301,0,0,1.0175357055664063,0,0,-0.153125
1.903042493000612,0,0,0.6823474731445313,0,0,0.45937500000000003
1.9045889940007328,0,0,1.1731588134765625,0,0,0.6125
1.9065289720001601,0,0,0.9744400756835937,0,0,0.8421875000000001
1.9081930090014794,0,0,1.1133037719726562,0,0,0.6125
1.909779214000082,0,0,1.4341267944335936,0,0,0.6125
1.9116048780015262,0,0,1.4053963745117186,0,0,1.1484375
1.9133054330013692,0,0,1.5155296508789062,0,0,1.3015625000000002
1.9148939900005644,0,0,1.5370774658203123,0,0,0.765625
1.9166850990004605,0,0,1.3910311645507811,0,0,0.6890625
1.918442098000014,0,0,0.9265560424804687,0,0,0.8421875000000001
1.92025161499987,0,0,1.2401964599609374,0,0,0.6125
1.9219585589999042,0,0,1.5466542724609373,0,0,0.5359375000000001
1.923526041000514,0,0,1.3958195678710936,0,0,1.225
1.925289614000576,0,0,1.70467158203125,0,0,1.225
1.9269190590002836,0,0,1.3048399047851562,0,0,0.6890625
1.9285252450008556,0,0,1.0127473022460938,0,0,0.9953125
1.9300612830011232,0,0,1.3168109130859373,0,0,0.3828125
1.9316675059999397,0,0,1.446097802734375,0,0,832.69375
1.9334087460010778,0,0,1.3910311645507811,0,0,0.8421875000000001
1.9350837270012562,0,0,1.467645617675781,0,0,1.0718750000000001
1.9366856350006856,0,0,1.20667763671875,0,0,1.1484375
1.938392449001185,0,0,1.0223241088867188,0,0,0.9953125
1.9402471320008772,0,0,1.2138602416992186,0,0,0.8421875000000001
1.9419075770001655,0,0,1.369483349609375,0,0,0.9187500000000001
1.943558003000362,0,0,1.3215993164062498,0,0,1.0718750000000001
1.9453933340009826,0,0,1.908178723144531,0,0,0.8421875000000001
1.9472516840014578,0,0,1.6807295654296874,0,0,1.3015625000000002
1.9489012210015062,0,0,1.2880804931640624,0,0,0.9953125
1.9504471110012673,0,0,1.180341418457031,0,0,0.22968750000000002
1.9519784090007306,0,0,1.1372457885742187,0,0,0.0
1.9537001860007877,0,0,1.3239935180664062,0,0,0.6890625
1.955476703000386,0,0,1.6639701538085936,0,0,0.765625
1.9570570000014413,0,0,1.2234370483398436,0,0,0.6890625
1.958714445001533,0,0,0.8786720092773437,0,0,0.9187500000000001
1.9605508870008634,0,0,1.2210428466796874,0,0,1.6843750000000002
1.962148906000948,0,0,1.3575123413085937,0,0,1.53125
1.9636912780006242,0,0,1.5083470458984374,0,0,1.225
1.9656898670000373,0,0,1.8028338500976562,0,0,1.3015625000000002
1.9673147560006328,0,0,1.5298948608398437,0,0,0.9953125
1.9689680150004278,0,0,1.458068811035156,0,0,0.8421875000000001
1.9707595510008105,0,0,1.4006079711914061,0,0,1.3015625000000002
1.9723087930015026,0,0,1.5610194824218748,0,0,0.9953125
1.9738921080006548,0,0,1.6424223388671875,0,0,0.8421875000000001
1.9755862000001798,0,0,1.5466542724609373,0,0,0.8421875000000001
1.9773579950015119,0,0,1.35990654296875,0,0,0.8421875000000001
1.9790065880006296,0,0,1.3048399047851562,0,0,0.9187500000000001
1.9809553260001849,0,0,1.1324573852539062,0,0,1.4546875000000001
1.982645918000344,0,0,1.22583125,0,0,0.9187500000000001
1.9843737690007401,0,0,1.37906015625,0,0,0.5359375000000001
1.9859937320015888,0,0,1.3742717529296875,0,0,0.6890625
1.987535085001582,0,0,1.4796166259765624,0,0,1.0718750000000001
1.9891778820001491,0,0,1.1611878051757811,0,0,0.765625
1.9908468260000518,0,0,1.4317325927734375,0,0,1.6843750000000002
1.9924417160000303,0,0,1.6711527587890624,0,0,1.53125
1.9939744390012493,0,0,1.687912170410156,0,0,0.9187500000000001
1.9958634740014531,0,0,1.4221557861328125,0,0,1.225
1.9975443440016534,0,0,1.4413093994140624,0,0,0.9953125
1.9991946030004328,0,0,1.3479355346679687,0,0,0.9187500000000001
2.0009064730002137,0,0,1.3359645263671873,0,0,1.3015625000000002
2.00269247200049,0,0,1.3838485595703125,0,0,1.225
2.0042474170004425,0,0,1.4604630126953124,0,0,0.8421875000000001
2.0059408430006442,0,0,1.2282254516601563,0,0,0.6890625
2.0076433980011643,0,0,1.2928688964843749,0,0,0.6125
2.0092598800001724,0,0,1.1444283935546875,0,0,0.765625
2.0108713990011893,0,0,1.1827356201171875,0,0,1.0718750000000001
2.012528639001175,0,0,1.4963760375976562,0,0,1.3015625000000002
2.0141564550012845,0,0,1.3958195678710936,0,0,1.0718750000000001
2.0157585659999313,0,0,1.4939818359375,0,0,0.9953125
2.01750112100126,0,0,1.24498486328125,0,0,0.9953125
2.019093270000667,0,0,1.39821376953125,0,0,1.0718750000000001
2.0206092710013763,0,0,1.4053963745117186,0,0,0.9187500000000001
2.022373215000698,0,0,1.5466542724609373,0,0,1.4546875000000001
2.024065954999969,0,0,1.6256629272460936,0,0,1.225
2.0256376970010024,0,0,1.7190367919921874,0,0,0.9187500000000001
2.0272556790005183,0,0,1.6041151123046875,0,0,0.9187500000000001
2.02904834400033,0,0,1.3670891479492187,0,0,0.45937500000000003
2.0306601030006277,0,0,1.4939818359375,0,0,0.3828125
2.0322668260014325,0,0,1.5322890624999999,0,0,0.3828125
2.0339449560015055,0,0,1.3359645263671873,0,0,0.9187500000000001
2.0356375290011783,0,0,1.4532804077148436,0,0,0.3828125
2.0373333810002805,0,0,1.149216796875,0,0,0.30625
2.038952529001108,0,0,1.1109095703125,0,0,0.30625
2.040516123000998,0,0,1.3718775512695311,0,0,0.30625
2.0422281780010962,0,0,1.3263877197265623,0,0,0.153125
2.0438662890010164,0,0,1.3192051147460937,0,0,0.9187500000000001
2.0453981980008393,0,0,1.678335363769531,0,0,1.1484375
2.0469225330016343,0,0,1.3718775512695311,0,0,0.8421875000000001
2.0486409580007603,0,0,1.3048399047851562,0,0,0.9187500000000001
2.0503519020003296,0,0,1.3455413330078123,0,0,0.8421875000000001
2.0520374570005515,0,0,1.6136919189453125,0,0,0.45937500000000003
2.053804271001354,0,0,1.5610194824218748,0,0,0.765625
2.0555055479999282,0,0,1.7286135986328124,0,0,1.0718750000000001
2.057171696000296,0,0,1.4700398193359374,0,0,0.8421875000000001
2.0588569000010466,0,0,1.4221557861328125,0,0,1.0718750000000001
2.0605293810003786,0,0,1.4724340209960938,0,0,0.30625
2.062136141001247,0,0,1.4820108276367188,0,0,0.22968750000000002
2.063873640001475,0,0,1.4317325927734375,0,0,0.9187500000000001
2.0655404170011025,0,0,1.5610194824218748,0,0,0.9187500000000001
2.067180381000071,0,0,1.4006079711914061,0,0,0.6890625
2.068880787001035,0,0,1.3215993164062498,0,0,0.765625
2.0707051750014216,0,0,1.3623007446289062,0,0,0.5359375000000001
2.0724240070012456,0,0,1.4508862060546874,0,0,1.1484375
2.0741081920004945,0,0,1.3742717529296875,0,0,1.0718750000000001
2.0758818020003673,0,0,1.158793603515625,0,0,0.6125
2.0776497820006625,0,0,1.2425906616210938,0,0,0.9187500000000001
2.079385707000256,0,0,1.3575123413085937,0,0,0.5359375000000001
2.0811299470005906,0,0,1.3455413330078123,0,0,1.8375000000000001
2.0828930380012025,0,0,1.4149731811523436,0,0,1.378125
2.0846210380004777,0,0,1.254561669921875,0,0,1.0718750000000001
2.0862982600010582,0,0,1.37906015625,0,0,0.6890625
2.0879797960005817,0,0,1.254561669921875,0,0,1.0718750000000001
2.0896225000014965,0,0,1.254561669921875,0,0,0.6890625
2.0911688160013,0,0,1.35990654296875,0,0,0.765625
2.092800354001156,0,0,1.62805712890625,0,0,0.9953125
2.094570704000944,0,0,1.2425906616210938,0,0,0.6125
2.0962948330015934,0,0,1.2689268798828124,0,0,0.9953125
2.0978294830001687,0,0,1.1827356201171875,0,0,0.8421875000000001
2.09954970400031,0,0,1.3120225097656248,0,0,0.6125
2.1011749080007576,0,0,1.3431471313476562,0,0,0.6125
2.102839501001654,0,0,1.4700398193359374,0,0,1.225
2.1044047420000425,0,0,1.3646949462890625,0,0,0.8421875000000001
2.106092168000032,0,0,1.2473790649414063,0,0,0.9953125
2.107749168000737,0,0,1.2713210815429687,0,0,0.9953125
2.1092786509998405,0,0,1.1875240234375,0,0,0.9187500000000001
2.1108599670005788,0,0,1.2928688964843749,0,0,0.765625
2.1124771520007926,0,0,1.3431471313476562,0,0,0.0765625
2.1140051350012072,0,0,1.3527239379882812,0,0,0.765625
2.115663227999903,0,0,1.7717092285156248,0,0,1.1484375
2.117447856000581,0,0,1.3144167114257812,0,0,0.8421875000000001
2.1193719640014024,0,0,1.2569558715820313,0,0,0.9953125
2.121010094000667,0,0,1.2641384765625,0,0,0.9187500000000001
2.1227050190009322,0,0,1.3814543579101561,0,0,1.1484375
2.1245922390007763,0,0,1.350329736328125,0,0,0.9187500000000001
2.1262117580008635,0,0,1.429338391113281,0,0,0.6890625
2.1282158470003196,0,0,1.2856862915039062,0,0,0.8421875000000001
2.12994771600097,0,0,1.35990654296875,0,0,0.8421875000000001
2.1315991420015052,0,0,1.3024457031249999,0,0,1.990625
2.133125533000566,0,0,1.4628572143554686,0,0,1.225
2.1348257170011493,0,0,1.455674609375,0,0,1.225
2.1365244580010767,0,0,1.3383587280273437,0,0,0.9953125
2.1380533480005397,0,0,1.218648645019531,0,0,0.9953125
2.1397432550002122,0,0,1.22583125,0,0,0.6125
2.1414510880003945,0,0,1.5298948608398437,0,0,1.53125
2.143044644000838,0,0,1.407790576171875,0,0,1.1484375
2.1445652010006597,0,0,1.3120225097656248,0,0,0.8421875000000001
2.1464727350012254,0,0,1.3168109130859373,0,0,0.8421875000000001
2.148188586001197,0,0,1.22583125,0,0,0.765625
2.149820919999911,0,0,1.369483349609375,0,0,0.765625
2.1513892540006054,0,0,1.2976572998046874,0,0,1.53125
2.1530796800016105,0,0,1.4437036010742186,0,0,1.225
2.154689403001612,0,0,1.5035586425781249,0,0,0.9953125
2.1562222740012658,0,0,1.3623007446289062,0,0,1.1484375
2.157840664000105,0,0,1.1851298217773436,0,0,0.765625
2.1595241080012784,0,0,1.177947216796875,0,0,0.765625
2.1611073310014035,0,0,1.3239935180664062,0,0,0.6125
2.162657388000298,0,0,1.5035586425781249,0,0,0.22968750000000002
2.1644719230007468,0,0,1.369483349609375,0,0,0.9187500000000001
2.1663393280014134,0,0,1.3431471313476562,0,0,1.1484375
2.1681456780006556,0,0,1.3383587280273437,0,0,0.765625
2.170023268001387,0,0,1.43652099609375,0,0,0.6890625
2.171766340999966,0,0,1.2689268798828124,0,0,1.6078125
2.173448323001139,0,0,1.3263877197265623,0,0,0.765625
2.175602354000148,0,0,1.8171990600585937,0,0,0.9187500000000001
2.1775145179999527,0,0,1.429338391113281,0,0,0.6890625
2.1791972580012953,0,0,1.3551181396484375,0,0,0.8421875000000001
2.181344420001551,0,0,1.5203180541992187,0,0,1.3015625000000002
2.183203084001434,0,0,1.4820108276367188,0,0,0.9953125
2.1848922690005566,0,0,1.707065783691406,0,0,0.6890625
2.1865939170002093,0,0,1.3838485595703125,0,0,0.9953125
2.1884459140001127,0,0,1.2473790649414063,0,0,0.5359375000000001
2.1907995180008584,0,0,1.2593500732421874,0,0,0.3828125
2.1925175540000055,0,0,1.2306196533203124,0,0,0.0
2.1943748670000787,0,0,1.2521674682617188,0,0,0.9953125
2.1961333100007323,0,0,1.4508862060546874,0,0,0.9953125
2.197765884000546,0,0,1.2497732666015624,0,0,1.0718750000000001
2.199363348001498,0,0,0.9840168823242187,0,0,1.0718750000000001
2.2012053090002155,0,0,1.2928688964843749,0,0,0.22968750000000002
2.202858031001597,0,0,1.2641384765625,0,0,0.22968750000000002
2.2043937550006376,0,0,1.20667763671875,0,0,0.9187500000000001
2.2059746440008894,0,0,1.4149731811523436,0,0,1.225
2.207685922001474,0,0,1.2569558715820313,0,0,0.9953125
2.20922286700079,0,0,1.3120225097656248,0,0,0.9187500000000001
2.2113064370005304,0,0,1.47482822265625,0,0,1.378125
2.2132424710016494,0,0,1.4867992309570313,0,0,1.3015625000000002
2.2148133420014346,0,0,1.3431471313476562,0,0,1.1484375
2.2181129900000087,0,0,1.37906015625,0,0,0.9187500000000001
2.2200182100004895,0,0,1.3742717529296875,0,0,0.6125
2.221647173000747,0,0,1.369483349609375,0,0,1.6078125
2.223352524000802,0,0,1.4724340209960938,0,0,1.3015625000000002
2.2250767830009863,0,0,1.6232687255859375,0,0,1.1484375
2.2266747829999076,0,0,1.5035586425781249,0,0,0.9187500000000001
2.2282021549999627,0,0,1.3431471313476562,0,0,0.9953125
2.229919099001563,0,0,1.3718775512695311,0,0,0.6890625
2.2316204870003276,0,0,1.2665326782226562,0,0,0.45937500000000003
2.2331697850004275,0,0,1.4604630126953124,0,0,1.0718750000000001
2.234700546001477,0,0,1.3311761230468748,0,0,1.0718750000000001
2.2363794530010637,0,0,1.3934253662109375,0,0,0.9187500000000001
2.2380046010002843,0,0,1.3383587280273437,0,0,0.9187500000000001
2.2395425100003195,0,0,1.24498486328125,0,0,0.6125
2.2410593630011135,0,0,1.2617442749023438,0,0,0.5359375000000001
2.2426999190010974,0,0,1.3024457031249999,0,0,0.0
2.2444407520015375,0,0,1.3862427612304686,0,0,0.8421875000000001
2.246009956001217,0,0,1.5610194824218748,0,0,1.1484375
2.2475432910014206,0,0,1.1420341918945311,0,0,0.9953125
2.249158458000238,0,0,1.2497732666015624,0,0,0.9953125
2.2507548660014436,0,0,1.5131354492187499,0,0,0.8421875000000001
2.2523273120004887,0,0,1.35990654296875,0,0,0.0
2.2542042910008604,0,0,1.3000515014648437,0,0,0.30625
2.2559189750008954,0,0,1.5275006591796874,0,0,1.1484375
2.2576385110005504,0,0,1.3000515014648437,0,0,0.6890625
2.25941641800091,0,0,1.13006318359375,0,0,0.6890625
2.2612238790006813,0,0,1.446097802734375,0,0,0.5359375000000001
2.2629052860011143,0,0,1.43652099609375,0,0,0.0
2.2646120630015503,0,0,1.2593500732421874,0,0,0.6890625
2.2663918400012335,0,0,1.5107412475585937,0,0,0.6890625
2.26811485700091,0,0,1.2832920898437499,0,0,0.9187500000000001
2.2697560800006613,0,0,1.0726023437499999,0,0,0.9187500000000001
2.2715703370013216,0,0,1.3479355346679687,0,0,1.3015625000000002
2.2736376100001507,0,0,1.4317325927734375,0,0,0.9953125
2.275252518000343,0,0,1.6400281372070311,0,0,0.6125
2.277232978000029,0,0,1.2713210815429687,0,0,0.9953125
2.2788399230012146,0,0,1.5035586425781249,0,0,0.6890625
2.2804139420004503,0,0,1.35990654296875,0,0,0.6890625
2.2820608310012176,0,0,1.4508862060546874,0,0,1.7609375
2.2836046100001113,0,0,1.5131354492187499,0,0,1.378125
2.2852657580006053,0,0,1.5586252807617187,0,0,0.9187500000000001
2.2869443320014398,0,0,1.3144167114257812,0,0,0.765625
2.2886484430000564,0,0,1.3718775512695311,0,0,0.6125
2.2903620720007893,0,0,1.35990654296875,0,0,0.6890625
2.2920025900002656,0,0,1.3670891479492187,0,0,1.6078125
2.293540203001612,0,0,1.3934253662109375,0,0,1.378125
2.2951932579999266,0,0,1.4891934326171874,0,0,1.0718750000000001
2.2969074430002365,0,0,1.6232687255859375,0,0,0.6890625
2.2985309430005145,0,0,1.4532804077148436,0,0,0.9187500000000001
2.300155185001131,0,0,1.2856862915039062,0,0,1.0718750000000001
2.3017902030005644,0,0,1.3527239379882812,0,0,0.5359375000000001
2.3034137960003136,0,0,1.4245499877929686,0,0,0.8421875000000001
2.305020149000484,0,0,1.4820108276367188,0,0,0.8421875000000001
2.306670538000617,0,0,1.4125789794921875,0,0,1.1484375
2.3086229790005746,0,0,1.3431471313476562,0,0,0.6890625
2.3102282020008715,0,0,1.3958195678710936,0,0,0.765625
2.31224725300126,0,0,1.2928688964843749,0,0,1.0718750000000001
2.3139630490004492,0,0,1.3000515014648437,0,0,0.8421875000000001
2.315507938999872,0,0,1.4628572143554686,0,0,0.5359375000000001
2.317035181000392,0,0,1.218648645019531,0,0,0.9187500000000001
2.31862875600018,0,0,1.458068811035156,0,0,0.8421875000000001
2.3203830880011083,0,0,1.2785036865234374,0,0,0.6890625
2.32192023800053,0,0,1.448492004394531,0,0,1.225
2.323581792999903,0,0,1.5227122558593749,0,0,1.378125
2.325257923001118,0,0,1.4820108276367188,0,0,0.9187500000000001
2.3268641450013092,0,0,1.4413093994140624,0,0,0.9953125
2.328613348001454,0,0,1.4532804077148436,0,0,0.9953125
2.330363662000309,0,0,1.448492004394531,0,0,2.45
2.3319354410014057,0,0,1.3766659545898436,0,0,0.9187500000000001
2.3334603310013335,0,0,1.467645617675781,0,0,1.6078125
2.3354245310001716,0,0,1.4891934326171874,0,0,0.765625
2.337041606000639,0,0,1.3335703247070312,0,0,1.1484375
2.3385758479998913,0,0,1.4053963745117186,0,0,0.765625
2.340193200001522,0,0,1.3862427612304686,0,0,0.8421875000000001
2.342114771001434,0,0,1.4149731811523436,0,0,1.6843750000000002
2.3437762160010607,0,0,1.388636962890625,0,0,1.3015625000000002
2.3454237340010877,0,0,1.5251064575195312,0,0,0.8421875000000001
2.3470737710013054,0,0,1.20667763671875,0,0,0.6125
2.348699846001182,0,0,1.3144167114257812,0,0,0.6890625
2.3503615310000896,0,0,1.2569558715820313,0,0,1.0718750000000001
2.352004364000095,0,0,1.3072341064453123,0,0,1.378125
2.3537147530005313,0,0,1.3359645263671873,0,0,1.378125
2.355379216000074,0,0,1.3814543579101561,0,0,0.9953125
2.3569705130012153,0,0,1.2713210815429687,0,0,0.8421875000000001
2.3586326980002923,0,0,1.2689268798828124,0,0,0.6890625
2.3603097530012747,0,0,1.2521674682617188,0,0,0.8421875000000001
2.3619324390001566,0,0,1.3383587280273437,0,0,0.9187500000000001
2.363673067000491,0,0,1.4413093994140624,0,0,1.6078125
2.365429881001546,0,0,1.3934253662109375,0,0,0.8421875000000001
2.3671715280015633,0,0,1.3120225097656248,0,0,0.9953125
2.3689378420003777,0,0,1.4149731811523436,0,0,0.8421875000000001
2.371644015000129,0,0,1.4963760375976562,0,0,0.30625
2.3739322860001266,0,0,1.5275006591796874,0,0,1.1484375
2.3765906270000414,0,0,1.618480322265625,0,0,0.8421875000000001
2.379015322001578,0,0,1.2210428466796874,0,0,0.765625
2.381236038001589,0,0,1.4101847778320311,0,0,0.6890625
2.3839333040014026,0,0,1.4891934326171874,0,0,1.0718750000000001
2.386120335000669,0,0,1.618480322265625,0,0,0.6125
2.3880419060005806,0,0,1.3120225097656248,0,0,0.6890625
2.390206363001198,0,0,1.350329736328125,0,0,1.0718750000000001
2.3922454150015255,0,0,1.3215993164062498,0,0,1.53125
2.3946032769999874,0,0,1.3479355346679687,0,0,0.30625
2.3963363130005746,0,0,1.5658078857421873,0,0,0.765625
2.397892185001183,0,0,1.1252747802734375,0,0,0.8421875000000001
2.3994283530009852,0,0,1.1875240234375,0,0,0.6890625
2.4009574840001733,0,0,1.3646949462890625,0,0,0.5359375000000001
2.402587577000304,0,0,1.2665326782226562,0,0,0.765625
2.4042401510014315,0,0,1.3407529296874998,0,0,0.6890625
2.4058204850007314,0,0,1.5107412475585937,0,0,0.9187500000000001
2.4073587090006185,0,0,1.3742717529296875,0,0,0.9187500000000001
2.4090233750011976,0,0,1.199495031738281,0,0,0.6890625
2.410653431001265,0,0,1.2761094848632812,0,0,0.8421875000000001
2.4121928210006445,0,0,1.3048399047851562,0,0,1.7609375
2.413845877001222,0,0,1.4149731811523436,0,0,1.3015625000000002
2.415480525000021,0,0,1.3862427612304686,0,0,0.765625
2.4170345080001425,0,0,1.2689268798828124,0,0,1.0718750000000001
2.4185684910007694,0,0,1.3072341064453123,0,0,0.9953125
2.4202567680003995,0,0,1.2689268798828124,0,0,0.9953125
2.42186515800131,0,0,1.4628572143554686,0,0,0.3828125
2.4234725660007825,0,0,1.484405029296875,0,0,0.9953125
2.425188898001579,0,0,1.4413093994140624,0,0,0.765625
2.4268657870015886,0,0,1.66636435546875,0,0,0.8421875000000001
2.428422640001372,0,0,1.3048399047851562,0,0,1.0718750000000001
2.429963327000223,0,0,1.2138602416992186,0,0,0.8421875000000001
2.4315754380004364,0,0,1.3192051147460937,0,0,0.8421875000000001
2.4332222350003576,0,0,1.4772224243164063,0,0,0.153125
2.4348497900009534,0,0,1.5131354492187499,0,0,0.6125
2.4366096970006765,0,0,1.678335363769531,0,0,0.6125
2.4383323630008817,0,0,1.3814543579101561,0,0,0.5359375000000001
2.4398884380007075,0,0,1.1755530151367186,0,0,0.6890625
2.4414575500013598,0,0,1.3814543579101561,0,0,0.6125
2.443083291000221,0,0,1.419761584472656,0,0,832.8468750000001
2.4447268470012204,0,0,1.2473790649414063,0,0,0.45937500000000003
2.4464586789999885,0,0,1.6065093139648436,0,0,1.225
2.4482241599998815,0,0,1.4006079711914061,0,0,0.6125
2.4499558070001513,0,0,1.3335703247070312,0,0,0.9187500000000001
2.4516448810009024,0,0,1.2785036865234374,0,0,0.5359375000000001
2.453205252000771,0,0,1.47482822265625,0,0,0.0
2.454797882001003,0,0,1.4006079711914061,0,0,0.9187500000000001
2.4565828620015964,0,0,1.6400281372070311,0,0,0.765625
2.4582415479999327,0,0,1.3383587280273437,0,0,0.765625
2.459919325001465,0,0,1.2234370483398436,0,0,0.6890625
2.461612547000186,0,0,1.3383587280273437,0,0,0.9187500000000001
2.463248158001079,0,0,1.350329736328125,0,0,832.8468750000001
2.464846455000952,0,0,1.3096283081054687,0,0,0.30625
2.466506492000917,0,0,1.66636435546875,0,0,0.8421875000000001
2.4681466040001396,0,0,1.350329736328125,0,0,0.8421875000000001
2.4697766410008626,0,0,1.2976572998046874,0,0,0.9953125
2.471411104001163,0,0,1.388636962890625,0,0,0.9187500000000001
2.472957772000882,0,0,1.3215993164062498,0,0,1.225
2.4745267360012804,0,0,1.350329736328125,0,0,0.765625
2.476201958001184,0,0,1.6448165405273436,0,0,0.8421875000000001
2.477820514000996,0,0,1.3670891479492187,0,0,0.6890625
2.4793548670004384,0,0,1.2569558715820313,0,0,0.6125
2.4809785160014144,0,0,1.2521674682617188,0,0,0.5359375000000001
2.482570793999912,0,0,1.3168109130859373,0,0,1.53125
2.484099036000771,0,0,1.4245499877929686,0,0,1.225
2.4857019260016386,0,0,1.4030021728515625,0,0,0.9187500000000001
2.4873739070008014,0,0,1.3670891479492187,0,0,1.0718750000000001
2.489044814999943,0,0,1.2497732666015624,0,0,1.1484375
2.490590945000804,0,0,1.235408056640625,0,0,0.9953125
2.492256797000664,0,0,1.426944189453125,0,0,1.1484375
2.4939560560014797,0,0,1.4053963745117186,0,0,1.0718750000000001
2.4955364640009066,0,0,1.3718775512695311,0,0,0.6890625
2.4971486130016274,0,0,1.2832920898437499,0,0,0.8421875000000001
2.498732762000145,0,0,1.3766659545898436,0,0,0.6125
2.500355855001544,0,0,1.2569558715820313,0,0,0.6125
2.5020017810002173,0,0,1.3383587280273437,0,0,0.45937500000000003
2.503635855000539,0,0,1.4341267944335936,0,0,0.0
2.5052420219999476,0,0,1.3096283081054687,0,0,0.765625
2.506874782000523,0,0,1.5921441040039062,0,0,0.765625
2.508456004999971,0,0,1.3024457031249999,0,0,0.6890625
2.509995099000662,0,0,1.1827356201171875,0,0,0.765625
2.5115957480011275,0,0,1.4317325927734375,0,0,0.6890625
2.5133217470011004,0,0,1.4508862060546874,0,0,0.0
2.5148961920003785,0,0,1.3192051147460937,0,0,0.3828125
2.5164265270013857,0,0,1.7022773803710936,0,0,0.5359375000000001
2.5181292300003406,0,0,1.4053963745117186,0,0,1.0718750000000001
2.519741601001442,0,0,1.1061211669921875,0,0,0.765625
2.5212738620011805,0,0,1.369483349609375,0,0,0.765625
2.5229374910013576,0,0,1.3455413330078123,0,0,1.0718750000000001
2.524711212001421,0,0,1.6328455322265625,0,0,0.6125
2.526369582999905,0,0,1.659181750488281,0,0,1.1484375
2.528075804000764,0,0,1.2952630981445312,0,0,0.9187500000000001
2.5297317300010036,0,0,1.3024457031249999,0,0,0.6125
2.531274120001399,0,0,1.3575123413085937,0,0,0.8421875000000001
2.532895232001465,0,0,1.2330138549804688,0,0,1.225
2.5344743250007014,0,0,1.419761584472656,0,0,0.8421875000000001
2.5361512880008377,0,0,1.7549498168945312,0,0,0.5359375000000001
2.537947268001517,0,0,1.4125789794921875,0,0,0.765625
2.5395577130002494,0,0,1.3168109130859373,0,0,1.378125
2.5412872310007515,0,0,1.3646949462890625,0,0,0.5359375000000001
2.542937175001498,0,0,1.3192051147460937,0,0,0.8421875000000001
2.5446159900002385,0,0,1.388636962890625,0,0,0.3828125
2.5461566760004644,0,0,1.6208745239257811,0,0,0.8421875000000001
2.547848583000814,0,0,1.3670891479492187,0,0,0.6890625
2.549519528000019,0,0,1.158793603515625,0,0,0.6890625
2.551123176001056,0,0,1.3623007446289062,0,0,0.5359375000000001
2.5529113600005076,0,0,1.3407529296874998,0,0,1.378125
2.5546904880011425,0,0,1.4341267944335936,0,0,0.6125
2.556288174000656,0,0,1.6112977172851561,0,0,0.8421875000000001
2.5578227500009234,0,0,1.5298948608398437,0,0,1.1484375
2.559658785001375,0,0,1.35990654296875,0,0,0.3828125
2.5613924320005026,0,0,1.3934253662109375,0,0,0.6125
2.563005599000462,0,0,1.43652099609375,0,0,1.1484375
2.564808801000254,0,0,1.5131354492187499,0,0,0.153125
2.566526096999951,0,0,1.7214309936523438,0,0,0.45937500000000003
2.5686625730013475,0,0,1.3527239379882812,0,0,0.9953125
2.570243185000436,0,0,1.2689268798828124,0,0,0.9187500000000001
2.5724586050000653,0,0,1.3168109130859373,0,0,0.6890625
2.574058642001546,0,0,1.39821376953125,0,0,1.1484375
2.576013806001356,0,0,1.235408056640625,0,0,1.0718750000000001
2.5776010469999164,0,0,1.4891934326171874,0,0,1.0718750000000001
2.5794815820008807,0,0,1.3479355346679687,0,0,0.30625
2.581187822001084,0,0,1.446097802734375,0,0,0.6890625
2.5827569339999172,0,0,1.407790576171875,0,0,1.7609375
2.584296639000968,0,0,1.3455413330078123,0,0,1.4546875000000001
2.5859568800005945,0,0,1.3168109130859373,0,0,1.1484375
2.587844061999931,0,0,1.43652099609375,0,0,0.5359375000000001
2.589441007001369,0,0,1.3958195678710936,0,0,0.9187500000000001
2.5910571750009694,0,0,1.3958195678710936,0,0,0.9953125
2.5927125260004686,0,0,1.3551181396484375,0,0,0.8421875000000001
2.5942987310008903,0,0,1.4030021728515625,0,0,1.3015625000000002
2.5958971950003615,0,0,1.3168109130859373,0,0,0.8421875000000001
2.597514417000639,0,0,1.4724340209960938,0,0,1.0718750000000001
2.5990866590000223,0,0,1.3383587280273437,0,0,1.0718750000000001
2.6007118260004063,0,0,1.2042834350585936,0,0,1.225
2.6023970109999937,0,0,1.3958195678710936,0,0,0.5359375000000001
2.604001771000185,0,0,1.4317325927734375,0,0,0.9187500000000001
2.6057503250012815,0,0,1.369483349609375,0,0,0.8421875000000001
2.6074192880005285,0,0,1.438915197753906,0,0,0.765625
2.609018659000867,0,0,1.2952630981445312,0,0,0.6890625
2.610557123000035,0,0,1.2689268798828124,0,0,0.765625
2.612280493000071,0,0,1.3479355346679687,0,0,0.3828125
2.613916178001091,0,0,1.5203180541992187,0,0,0.153125
2.6154549940001743,0,0,1.350329736328125,0,0,0.6125
2.617073347000769,0,0,1.4604630126953124,0,0,0.9953125
2.618999010001062,0,0,1.3455413330078123,0,0,0.8421875000000001
2.6213228730011906,0,0,1.2330138549804688,0,0,0.45937500000000003
2.62304689100165,0,0,1.3239935180664062,0,0,1.6843750000000002
2.624724335000792,0,0,1.3383587280273437,0,0,0.6125
2.626733683000566,0,0,1.5777788940429687,0,0,0.6890625
2.6284519790006016,0,0,1.2138602416992186,0,0,-8.8046875
2.630291921001117,0,0,1.209071838378906,0,0,0.6890625
2.6320447540001624,0,0,1.3814543579101561,0,0,0.6890625
2.6337318639998557,0,0,1.37906015625,0,0,0.0
2.635360494001361,0,0,1.3742717529296875,0,0,0.22968750000000002
2.6371255120011483,0,0,1.4125789794921875,0,0,0.765625
2.6388530479998735,0,0,1.3431471313476562,0,0,0.765625
2.640460937000171,0,0,1.2401964599609374,0,0,0.9953125
2.6424631740010227,0,0,1.3646949462890625,0,0,0.9187500000000001
2.6443080980006926,0,0,1.4030021728515625,0,0,1.53125
2.646450537000419,0,0,1.6041151123046875,0,0,0.765625
2.6486949380014266,0,0,1.3479355346679687,0,0,0.6125
2.650768933001018,0,0,1.3766659545898436,0,0,1.225
2.652510877000168,0,0,1.3407529296874998,0,0,1.0718750000000001
2.6542902090004645,0,0,1.4341267944335936,0,0,1.1484375
2.655907524000213,0,0,1.3670891479492187,0,0,1.378125
2.657589098000244,0,0,1.4724340209960938,0,0,0.765625
2.65913280300083,0,0,1.3838485595703125,0,0,0.8421875000000001
2.660712192000574,0,0,1.2234370483398436,0,0,1.1484375
2.6623531190016365,0,0,1.4006079711914061,0,0,0.9187500000000001
2.6640692110013333,0,0,1.4125789794921875,0,0,0.6890625
2.665672174000065,0,0,1.2282254516601563,0,0,0.765625
2.6673067669999,0,0,1.438915197753906,0,0,0.9187500000000001
2.668887675001315,0,0,1.2210428466796874,0,0,0.45937500000000003
2.670548897000117,0,0,1.2856862915039062,0,0,0.8421875000000001
2.6722935070010863,0,0,1.4006079711914061,0,0,0.9187500000000001
2.67393515600088,0,0,1.22583125,0,0,0.45937500000000003
2.675772043001416,0,0,1.3263877197265623,0,0,0.8421875000000001
2.677578041000743,0,0,1.5179238525390624,0,0,0.9187500000000001
2.6792912260007142,0,0,1.3551181396484375,0,0,0.8421875000000001
2.68090002200006,0,0,1.2593500732421874,0,0,0.9187500000000001
2.6827294459999393,0,0,1.3431471313476562,0,0,1.0718750000000001
2.68468251700142,0,0,1.448492004394531,0,0,1.4546875000000001
2.6864941450003244,0,0,1.618480322265625,0,0,0.765625
2.688308736000181,0,0,1.13006318359375,0,0,0.9187500000000001
2.6900840680009424,0,0,1.218648645019531,0,0,0.6125
2.6917213830001856,0,0,1.5083470458984374,0,0,0.3828125
2.693404827001359,0,0,1.3144167114257812,0,0,-9.1875
2.695259399000861,0,0,1.3646949462890625,0,0,0.6125
2.696842696001113,0,0,1.656787548828125,0,0,0.5359375000000001
2.698380511999858,0,0,1.1827356201171875,0,0,0.8421875000000001
2.700039494000521,0,0,1.254561669921875,0,0,0.765625
2.7016419200008386,0,0,1.2593500732421874,0,0,0.6890625
2.7031866070010437,0,0,1.3718775512695311,0,0,1.6078125
2.7048650510005245,0,0,1.455674609375,0,0,1.4546875000000001
2.7065551430005144,0,0,1.5514426757812498,0,0,0.6890625
2.7081670880015736,0,0,1.2114660400390624,0,0,0.9953125
2.709759830000621,0,0,1.2378022583007813,0,0,0.8421875000000001
2.7114104219999717,0,0,1.4006079711914061,0,0,0.5359375000000001
2.712997701000859,0,0,1.5203180541992187,0,0,1.225
2.714540869001212,0,0,1.4724340209960938,0,0,1.225
2.7162000910011557,0,0,1.6065093139648436,0,0,1.225
2.717805166001199,0,0,1.6017209106445311,0,0,0.765625
2.7196431450011005,0,0,1.2330138549804688,0,0,0.9187500000000001
2.7213171260009403,0,0,1.3335703247070312,0,0,0.8421875000000001
2.7229549040002894,0,0,1.3742717529296875,0,0,1.6078125
2.7248305690009147,0,0,1.4245499877929686,0,0,1.3015625000000002
2.7264915310006472,0,0,1.5538368774414062,0,0,-9.034375
2.728333974000634,0,0,1.2880804931640624,0,0,1.225
2.729954030000954,0,0,1.4317325927734375,0,0,0.9187500000000001
2.7314980310002284,0,0,1.3551181396484375,0,0,0.6125
2.733107624000695,0,0,1.37906015625,0,0,1.3015625000000002
2.734684847000608,0,0,1.4125789794921875,0,0,1.378125
2.7363276250016497,0,0,1.5658078857421873,0,0,0.9187500000000001
2.737889219000863,0,0,1.5634136840820312,0,0,0.9187500000000001
2.739521978000994,0,0,1.3479355346679687,0,0,1.225
2.741256533001433,0,0,1.3646949462890625,0,0,0.6890625
2.7430023470005835,0,0,1.3479355346679687,0,0,1.225
2.74453877400083,0,0,1.388636962890625,0,0,1.6078125
2.7460645910014136,0,0,1.3263877197265623,0,0,1.0718750000000001
2.7476693500011606,0,0,1.6424223388671875,0,0,1.0718750000000001
2.749411497999972,0,0,1.4437036010742186,0,0,1.3015625000000002
2.7509457770011068,0,0,1.1731588134765625,0,0,0.9187500000000001
2.7526799800016306,0,0,1.2904746948242187,0,0,0.6125
2.75429873900066,0,0,1.4030021728515625,0,0,0.8421875000000001
2.7559692390004784,0,0,1.3239935180664062,0,0,0.765625
2.757758478001051,0,0,1.6017209106445311,0,0,0.9953125
2.7594085529999575,0,0,1.3311761230468748,0,0,1.1484375
2.761071034001361,0,0,1.1468225952148436,0,0,0.9953125
2.7626775530006853,0,0,1.2689268798828124,0,0,0.6125
2.7642778500012355,0,0,1.4317325927734375,0,0,0.765625
2.7659929230012494,0,0,1.3431471313476562,0,0,0.9187500000000001
2.7677543480003806,0,0,1.5825672973632812,0,0,1.1484375
2.7692893870007538,0,0,1.3814543579101561,0,0,0.9953125
2.771111144000315,0,0,1.3263877197265623,0,0,0.9187500000000001
2.7727657180003007,0,0,1.2521674682617188,0,0,0.9187500000000001
2.77433125600146,0,0,1.4987702392578124,0,0,0.3828125
2.775981386001149,0,0,1.419761584472656,0,0,0.9953125
2.7776574970012007,0,0,1.5107412475585937,0,0,0.9187500000000001
2.779280792999998,0,0,1.3766659545898436,0,0,0.765625
2.7809398680001323,0,0,1.2473790649414063,0,0,0.765625
2.782695755000532,0,0,1.3742717529296875,0,0,0.6890625
2.784323904001212,0,0,1.4724340209960938,0,0,0.9953125
2.7860016810009256,0,0,1.47482822265625,0,0,1.0718750000000001
2.787610441000652,0,0,1.5777788940429687,0,0,1.225
2.7891661829999066,0,0,1.350329736328125,0,0,1.1484375
2.7907568870014074,0,0,1.197100830078125,0,0,0.9953125
2.792415184001584,0,0,1.369483349609375,0,0,0.6890625
2.794194478999998,0,0,1.3670891479492187,0,0,0.0
2.795873996999944,0,0,1.446097802734375,0,0,1.0718750000000001
2.7975906810006563,0,0,1.5442600708007812,0,0,0.9187500000000001
2.799393532000977,0,0,1.3311761230468748,0,0,0.9953125
2.8010863460003748,0,0,1.3455413330078123,0,0,0.8421875000000001
2.8027241060008237,0,0,1.3383587280273437,0,0,0.6125
2.8042759770014527,0,0,1.4724340209960938,0,0,9.4171875
2.805876200000057,0,0,1.4101847778320311,0,0,0.6125
2.8075463109998964,0,0,1.5322890624999999,0,0,0.765625
2.809123423001438,0,0,1.4030021728515625,0,0,0.8421875000000001
2.8107413120014826,0,0,1.1875240234375,0,0,1.0718750000000001
2.812525644001653,0,0,1.3718775512695311,0,0,0.6125
2.81417110700022,0,0,1.3934253662109375,0,0,832.8468750000001
2.8157827190007083,0,0,1.3407529296874998,0,0,0.6125
2.8174708300011844,0,0,1.5322890624999999,0,0,0.9187500000000001
2.8191575150012795,0,0,1.3335703247070312,0,0,0.6125
2.820744052000009,0,0,0.9983820922851562,0,0,0.9187500000000001
2.822387404001347,0,0,1.3431471313476562,0,0,0.8421875000000001
2.8239293870010442,0,0,1.3335703247070312,0,0,0.22968750000000002
2.8254528520010354,0,0,1.429338391113281,0,0,0.22968750000000002
2.827071704001355,0,0,1.4939818359375,0,0,0.6890625
2.8286503340004856,0,0,1.1540052001953125,0,0,0.765625
2.8303327789999457,0,0,1.1755530151367186,0,0,0.6890625
2.832042148000255,0,0,1.3718775512695311,0,0,0.765625
2.8336629450004693,0,0,1.4939818359375,0,0,1.4546875000000001
2.8353595190001215,0,0,1.3838485595703125,0,0,0.765625
2.837019519000023,0,0,1.4939818359375,0,0,0.9953125
2.83860863100017,0,0,1.3934253662109375,0,0,1.0718750000000001
2.8402826490000734,0,0,1.2689268798828124,0,0,0.30625
2.8419494080008008,0,0,1.3910311645507811,0,0,0.6125
2.8435303900005238,0,0,1.4221557861328125,0,0,0.6890625
2.845053633000134,0,0,1.5059528442382812,0,0,0.765625
2.8468910560004588,0,0,1.4891934326171874,0,0,0.765625
2.8485587970008055,0,0,1.369483349609375,0,0,0.9187500000000001
2.8501866679998784,0,0,1.177947216796875,0,0,0.6890625
2.851784928001507,0,0,1.2689268798828124,0,0,0.9187500000000001
2.853394688001572,0,0,1.4030021728515625,0,0,1.3015625000000002
2.854968170000575,0,0,1.5227122558593749,0,0,1.378125
2.856631466000181,0,0,1.39821376953125,0,0,0.765625
2.858379484001489,0,0,1.2473790649414063,0,0,0.9953125
2.8599715210002614,0,0,1.4772224243164063,0,0,1.1484375
2.8615163560007204,0,0,1.3646949462890625,0,0,1.0718750000000001
2.863150893001148,0,0,1.2832920898437499,0,0,0.6890625
2.8647247460012295,0,0,1.4963760375976562,0,0,0.6125
2.866249673001221,0,0,1.3718775512695311,0,0,1.0718750000000001
2.867944487999921,0,0,1.5873557006835937,0,0,0.9187500000000001
2.869609951001621,0,0,1.3814543579101561,0,0,1.1484375
2.871483689001252,0,0,1.3910311645507811,0,0,0.9187500000000001
2.8731588370010286,0,0,1.2617442749023438,0,0,1.3015625000000002
2.874938484001177,0,0,1.4963760375976562,0,0,1.225
2.876476448000176,0,0,1.4317325927734375,0,0,0.9187500000000001
2.878185448000295,0,0,1.2952630981445312,0,0,0.765625
2.880045705000157,0,0,1.35990654296875,0,0,0.9187500000000001
2.881881721001264,0,0,1.3670891479492187,0,0,0.3828125
2.8836801270008436,0,0,1.2976572998046874,0,0,1.225
2.8853967740014923,0,0,1.4101847778320311,0,0,1.0718750000000001
2.8869335720009985,0,0,1.3120225097656248,0,0,0.6125
2.888701182000659,0,0,1.1923124267578125,0,0,0.8421875000000001
2.89068467800098,0,0,1.0989385620117187,0,0,-8.957812500000001
2.8922298090001277,0,0,1.3024457031249999,0,0,0.45937500000000003
2.8938813830009167,0,0,1.2665326782226562,0,0,0.9187500000000001
2.895464069000809,0,0,1.3479355346679687,0,0,0.5359375000000001
2.897530416999871,0,0,1.5442600708007812,0,0,0.9187500000000001
2.899086270001135,0,0,1.197100830078125,0,0,0.45937500000000003
2.9008479910007736,0,0,1.216254443359375,0,0,0.6890625
2.9028890050012706,0,0,1.369483349609375,0,0,0.6890625
2.904544300999987,0,0,1.6519991455078125,0,0,0.9953125
2.9064742800001113,0,0,1.4125789794921875,0,0,0.9187500000000001
2.9081956860009086,0,0,1.2856862915039062,0,0,0.6890625
2.909790317000443,0,0,1.2808978881835937,0,0,1.0718750000000001
2.9115043340007105,0,0,1.3742717529296875,0,0,0.9187500000000001
2.913223093000852,0,0,1.350329736328125,0,0,0.9187500000000001
2.9148668520010688,0,0,1.467645617675781,0,0,0.9187500000000001
2.9164111310001317,0,0,1.3455413330078123,0,0,0.9187500000000001
2.918170167000426,0,0,1.2282254516601563,0,0,0.9187500000000001
2.919831148999947,0,0,1.3335703247070312,0,0,1.225
2.9214188160003687,0,0,1.3072341064453123,0,0,1.225
2.9229532440003823,0,0,1.2928688964843749,0,0,0.6125
2.92447693000031,0,0,1.465251416015625,0,0,0.153125
2.926288206001118,0,0,1.3215993164062498,0,0,1.0718750000000001
2.927871040001264,0,0,1.5490484741210937,0,0,0.765625
2.9295610960016347,0,0,1.3527239379882812,0,0,0.9187500000000001
2.9312467430008837,0,0,1.3814543579101561,0,0,0.6890625
2.9329291690009995,0,0,1.5131354492187499,0,0,0.5359375000000001
2.934588595000605,0,0,1.4987702392578124,0,0,0.153125
2.9362943720007024,0,0,1.3024457031249999,0,0,-8.957812500000001
2.9379353350013844,0,0,1.6615759521484375,0,0,-9.1109375
2.9395352250012365,0,0,1.3383587280273437,0,0,0.6125
2.9413322790005623,0,0,1.2497732666015624,0,0,0.9953125
2.9430087790005928,0,0,1.3646949462890625,0,0,0.6125
2.9446160570005304,0,0,1.47482822265625,0,0,0.45937500000000003
2.9463519450000604,0,0,1.3239935180664062,0,0,0.5359375000000001
2.947999334000997,0,0,1.618480322265625,0,0,0.8421875000000001
2.9496020750011667,0,0,1.3838485595703125,0,0,0.9187500000000001
2.951303445001031,0,0,1.3575123413085937,0,0,0.9953125
2.953066611000395,0,0,1.4149731811523436,0,0,0.6125
2.954726907000804,0,0,1.426944189453125,0,0,0.22968750000000002
2.956648256000335,0,0,1.3431471313476562,0,0,0.8421875000000001
2.9586081040015415,0,0,1.2904746948242187,0,0,0.6890625
2.960418603001017,0,0,1.216254443359375,0,0,0.765625
2.9621597310015204,0,0,1.3335703247070312,0,0,1.0718750000000001
2.9637902320009744,0,0,1.2569558715820313,0,0,2.1437500000000003
2.965399972999876,0,0,1.4101847778320311,0,0,1.53125
2.9671123240004817,0,0,1.6927005737304686,0,0,2.2203125000000004
2.9687466210016282,0,0,1.2952630981445312,0,0,1.0718750000000001
2.970391176000703,0,0,1.1252747802734375,0,0,0.6125
2.9721160090011836,0,0,1.2761094848632812,0,0,0.6125
2.9737445460013987,0,0,1.2641384765625,0,0,1.4546875000000001
2.9753558800002793,0,0,1.4796166259765624,0,0,1.1484375
2.9770622500000172,0,0,1.3551181396484375,0,0,-9.1109375
2.9786994910009525,0,0,1.5011644409179687,0,0,0.765625
2.9802976210012275,0,0,1.199495031738281,0,0,1.0718750000000001
2.982008176000818,0,0,1.2904746948242187,0,0,0.5359375000000001
2.9836438430011185,0,0,1.3527239379882812,0,0,1.7609375
2.985232511000504,0,0,1.3215993164062498,0,0,1.3015625000000002
2.98694049200094,0,0,1.22583125,0,0,0.6890625
2.988585843000692,0,0,1.388636962890625,0,0,0.8421875000000001
2.990191863000291,0,0,1.2425906616210938,0,0,0.6125
2.991791197000566,0,0,1.2689268798828124,0,0,0.45937500000000003
2.993510158999925,0,0,1.3958195678710936,0,0,1.0718750000000001
2.995137326000986,0,0,1.4796166259765624,0,0,1.4546875000000001
2.9967340490002243,0,0,1.2306196533203124,0,0,1.0718750000000001
2.9992352620010934,0,0,1.3575123413085937,0,0,0.765625
3.0012467760006984,0,0,1.2737152832031249,0,0,1.3015625000000002
3.0034392890011077,0,0,1.3144167114257812,0,0,1.378125
3.0054549330016016,0,0,1.484405029296875,0,0,1.225
3.0075869460015383,0,0,1.6711527587890624,0,0,0.6890625
3.010091548001583,0,0,1.254561669921875,0,0,1.225
3.0121053580005537,0,0,1.3407529296874998,0,0,0.765625
3.0152953780016105,0,0,1.3742717529296875,0,0,1.378125
3.01762103800138,0,0,1.6352397338867186,0,0,0.45937500000000003
3.0201622500007943,0,0,1.24498486328125,0,0,0.9187500000000001
3.022384244000932,0,0,1.3934253662109375,0,0,0.6890625
3.0245656269999017,0,0,1.429338391113281,0,0,1.225
3.026859138000873,0,0,1.24498486328125,0,0,1.0718750000000001
3.0285788780001894,0,0,1.3455413330078123,0,0,0.9187500000000001
3.0302524150010868,0,0,1.20667763671875,0,0,0.9953125
3.031980099000066,0,0,1.2737152832031249,0,0,0.765625
3.0335790070002986,0,0,1.3407529296874998,0,0,1.378125
3.035245359000328,0,0,1.458068811035156,0,0,1.0718750000000001
3.0371192090005934,0,0,1.3838485595703125,0,0,0.8421875000000001
3.0387971340005606,0,0,1.3024457031249999,0,0,1.1484375
3.040487801001291,0,0,1.24498486328125,0,0,0.6125
3.0421831520015985,0,0,1.37906015625,0,0,0.45937500000000003
3.043939206001596,0,0,1.35990654296875,0,0,1.6078125
3.0455523550008365,0,0,1.4772224243164063,0,0,0.8421875000000001
3.0474318340002355,0,0,1.5849614990234373,0,0,0.6890625
3.0491787219998514,0,0,1.3192051147460937,0,0,0.9187500000000001
3.05089959200086,0,0,1.2928688964843749,0,0,0.6890625
3.052778589000809,0,0,1.254561669921875,0,0,0.6125
3.0544393670006684,0,0,1.3838485595703125,0,0,0.153125
3.056147291999878,0,0,1.3575123413085937,0,0,0.765625
3.0581741580008384,0,0,1.3575123413085937,0,0,1.225
3.060588371999984,0,0,1.3383587280273437,0,0,0.45937500000000003
3.062877420999939,0,0,1.2378022583007813,0,0,0.765625
3.0647893810000824,0,0,1.4915876342773438,0,0,832.8468750000001
3.0667080260009243,0,0,1.350329736328125,0,0,0.9187500000000001
3.0688965389999794,0,0,1.2282254516601563,0,0,0.8421875000000001
3.0709449969999696,0,0,1.0893617553710937,0,0,0.8421875000000001
3.073029103999943,0,0,1.5251064575195312,0,0,0.765625
3.07531072600068,0,0,1.4341267944335936,0,0,1.4546875000000001
3.0776197930008493,0,0,1.6017209106445311,0,0,0.5359375000000001
3.080197246001262,0,0,1.2928688964843749,0,0,1.378125
3.0828146240000933,0,0,1.2904746948242187,0,0,0.5359375000000001
3.085071802001039,0,0,1.3263877197265623,0,0,1.0718750000000001
3.086802431000251,0,0,1.3718775512695311,0,0,1.225
3.088474987000154,0,0,1.2713210815429687,0,0,0.9953125
3.0902407260000473,0,0,1.3311761230468748,0,0,1.1484375
3.091974910001227,0,0,1.2593500732421874,0,0,1.4546875000000001
3.0935919849998754,0,0,1.4221557861328125,0,0,1.225
3.095426353000221,0,0,1.4006079711914061,0,0,1.225
3.097154204000617,0,0,1.6041151123046875,0,0,0.765625
3.0987746120008524,0,0,1.2880804931640624,0,0,0.9953125
3.1007012390000455,0,0,1.2713210815429687,0,0,0.22968750000000002
3.1026437540003826,0,0,1.4245499877929686,0,0,0.30625
3.1042625509999198,0,0,1.455674609375,0,0,0.6125
3.105926255000668,0,0,1.5155296508789062,0,0,0.45937500000000003
3.1077225860008184,0,0,1.6735469604492186,0,0,0.5359375000000001
3.109270180000749,0,0,1.3431471313476562,0,0,0.6125
3.1108655330008332,0,0,1.0821791503906248,0,0,0.6125
3.112557069000104,0,0,1.4173673828125,0,0,0.765625
3.114130384999953,0,0,1.3192051147460937,0,0,0.6125
3.1156625160001568,0,0,1.4221557861328125,0,0,0.5359375000000001
3.11727764600073,0,0,1.7262193969726563,0,0,0.6125
3.119221661001575,0,0,1.39821376953125,0,0,0.765625
3.1209200310004235,0,0,1.3718775512695311,0,0,0.765625
3.122782881000603,0,0,1.4532804077148436,0,0,0.6890625
3.124526749999859,0,0,1.4221557861328125,0,0,0.0765625
3.126090474001103,0,0,1.465251416015625,0,0,0.30625
3.127625918999911,0,0,1.6735469604492186,0,0,0.8421875000000001
3.129247272001521,0,0,1.3814543579101561,0,0,0.6125
3.1310283440016065,0,0,1.2521674682617188,0,0,0.3828125
3.1326443450016086,0,0,1.3718775512695311,0,0,0.6890625
3.134381399000631,0,0,1.3742717529296875,0,0,832.69375
3.1360840659999667,0,0,1.4939818359375,0,0,0.3828125
3.137708696000118,0,0,1.6400281372070311,0,0,0.45937500000000003
3.139467750001131,0,0,1.3287819213867187,0,0,0.8421875000000001
3.141104398000607,0,0,1.2737152832031249,0,0,0.5359375000000001
3.142711769000016,0,0,1.4006079711914061,0,0,-9.264062500000001
3.1444381199999043,0,0,1.3646949462890625,0,0,0.0
3.1460644910002884,0,0,1.5059528442382812,0,0,0.45937500000000003
3.1476776400013478,0,0,1.66636435546875,0,0,0.6890625
3.149419213001238,0,0,1.3048399047851562,0,0,0.9187500000000001
3.151045806000184,0,0,1.22583125,0,0,0.8421875000000001
3.15264619500158,0,0,1.2641384765625,0,0,0.9187500000000001
3.154499248999855,0,0,1.4413093994140624,0,0,832.6171875000001
3.1561351560012554,0,0,1.448492004394531,0,0,0.153125
3.1577399720008543,0,0,1.618480322265625,0,0,0.6125
3.1596498020007857,0,0,1.369483349609375,0,0,0.5359375000000001
3.1613804870012245,0,0,1.189918225097656,0,0,0.765625
3.163077486000475,0,0,1.2880804931640624,0,0,0.5359375000000001
3.1647685970001476,0,0,1.2761094848632812,0,0,-852.8296875000001
3.166412616001253,0,0,1.2928688964843749,0,0,0.22968750000000002
3.168108060001032,0,0,1.5418658691406248,0,0,1.0718750000000001
3.1698595770012616,0,0,1.3551181396484375,0,0,0.6125
3.171496096001647,0,0,1.2282254516601563,0,0,0.8421875000000001
3.1730993560013303,0,0,1.235408056640625,0,0,0.765625
3.175138037000579,0,0,1.465251416015625,0,0,1.3015625000000002
3.176904646999901,0,0,1.2497732666015624,0,0,0.765625
3.1793103420004627,0,0,1.2665326782226562,0,0,0.8421875000000001
3.1812021540008573,0,0,1.199495031738281,0,0,-9.1109375
3.182905302001018,0,0,1.2306196533203124,0,0,0.9953125
3.1845602650009823,0,0,1.3646949462890625,0,0,832.6171875000001
3.1864254850006546,0,0,1.3168109130859373,0,0,0.153125
3.1881494100016425,0,0,1.5322890624999999,0,0,1.1484375
3.189954334000504,0,0,1.3383587280273437,0,0,0.8421875000000001
3.191842424001152,0,0,1.0893617553710937,0,0,0.8421875000000001
3.1934432580001157,0,0,1.3239935180664062,0,0,1.1484375
3.195395125001596,0,0,1.3623007446289062,0,0,1.0718750000000001
3.197082588001649,0,0,1.2904746948242187,0,0,0.6890625
3.19915647200105,0,0,1.448492004394531,0,0,0.765625
3.200840675001018,0,0,1.3670891479492187,0,0,0.6125
3.2027847090012074,0,0,1.3742717529296875,0,0,0.9953125
3.204345544001626,0,0,1.465251416015625,0,0,832.69375
3.206358317000195,0,0,1.3024457031249999,0,0,0.45937500000000003
3.208225352000227,0,0,1.3670891479492187,0,0,0.9187500000000001
3.2098713890009094,0,0,1.2569558715820313,0,0,0.0765625
3.211561870000878,0,0,1.1635820068359375,0,0,0.9187500000000001
3.2134641820011893,0,0,1.4221557861328125,0,0,0.3828125
3.2151185710008576,0,0,1.4700398193359374,0,0,0.5359375000000001
3.216725665000922,0,0,1.4053963745117186,0,0,1.1484375
3.2187584200000856,0,0,1.5035586425781249,0,0,0.9953125
3.2210390050004207,0,0,1.2785036865234374,0,0,0.9953125
3.223346387001584,0,0,1.3766659545898436,0,0,0.6890625
3.2251872920005553,0,0,1.3910311645507811,0,0,0.6890625
3.226797830000578,0,0,1.22583125,0,0,0.9187500000000001
3.2283991820004303,0,0,1.3934253662109375,0,0,0.9187500000000001
3.230556731999968,0,0,1.2641384765625,0,0,0.8421875000000001
3.2322383990012895,0,0,1.4317325927734375,0,0,0.8421875000000001
3.234305690000838,0,0,1.3623007446289062,0,0,1.53125
3.236010153001189,0,0,1.4604630126953124,0,0,0.3828125
3.237617061000492,0,0,1.47482822265625,0,0,0.9187500000000001
3.239645871000903,0,0,1.388636962890625,0,0,0.6890625
3.2413423890011472,0,0,1.24498486328125,0,0,0.3828125
3.24321825700099,0,0,1.43652099609375,0,0,0.765625
3.2449262750014896,0,0,1.4700398193359374,0,0,0.0
3.2469279570013896,0,0,1.2880804931640624,0,0,1.1484375
3.248744362001162,0,0,1.2785036865234374,0,0,0.765625
3.250435177000327,0,0,1.2306196533203124,0,0,0.9187500000000001
3.252072584000416,0,0,1.1516109985351561,0,0,1.0718750000000001
3.254012118000901,0,0,1.35990654296875,0,0,1.225
3.2555901190007717,0,0,1.3934253662109375,0,0,1.1484375
3.2572068230001605,0,0,1.6232687255859375,0,0,1.0718750000000001
3.258796787000392,0,0,1.484405029296875,0,0,0.765625
3.2603324179999618,0,0,1.2210428466796874,0,0,0.8421875000000001
3.2620486579999124,0,0,1.1923124267578125,0,0,0.9187500000000001
3.2637032880011247,0,0,1.3048399047851562,0,0,0.5359375000000001
3.265313714000513,0,0,1.4628572143554686,0,0,0.45937500000000003
3.267024714001309,0,0,1.2785036865234374,0,0,0.765625
3.2686051770015183,0,0,1.4867992309570313,0,0,1.225
3.2702391410002747,0,0,1.2952630981445312,0,0,0.9187500000000001
3.27183180800057,0,0,1.1563994018554686,0,0,0.9953125
3.273432401001628,0,0,1.3814543579101561,0,0,0.45937500000000003
3.2751259010001377,0,0,1.4532804077148436,0,0,0.6890625
3.2768807700012985,0,0,1.4413093994140624,0,0,1.0718750000000001
3.2785456590008835,0,0,1.4891934326171874,0,0,0.8421875000000001
3.280369194000741,0,0,1.2737152832031249,0,0,1.1484375
3.2821608960002777,0,0,1.3646949462890625,0,0,-8.8046875
3.2842211140014115,0,0,1.3359645263671873,0,0,1.0718750000000001
3.286003001001518,0,0,1.2928688964843749,0,0,0.6890625
3.2877323709999473,0,0,1.637633935546875,0,0,0.6890625
3.28972440400139,0,0,1.3072341064453123,0,0,0.9187500000000001
3.2914650330003496,0,0,1.2593500732421874,0,0,0.9187500000000001
3.2931551810015662,0,0,1.3048399047851562,0,0,0.5359375000000001
3.295169603001341,0,0,1.2617442749023438,0,0,0.0
3.296778974001427,0,0,1.3527239379882812,0,0,0.8421875000000001
3.2984935290005524,0,0,1.448492004394531,0,0,0.765625
3.3001376210013404,0,0,1.3766659545898436,0,0,0.9953125
3.3021158770006878,0,0,1.2234370483398436,0,0,0.6125
3.303867487000389,0,0,1.5227122558593749,0,0,0.6890625
3.305543653001223,0,0,1.4508862060546874,0,0,0.9953125
3.3071636910008237,0,0,1.2641384765625,0,0,1.0718750000000001
3.3091155210004217,0,0,1.5083470458984374,0,0,0.9187500000000001
3.310852316000819,0,0,1.2425906616210938,0,0,0.9187500000000001
3.3124891500010563,0,0,1.2952630981445312,0,0,0.6890625
3.314203316000203,0,0,1.4101847778320311,0,0,1.9140625000000002
3.315839335000419,0,0,1.47482822265625,0,0,1.378125
3.3174412429998483,0,0,1.5059528442382812,0,0,0.5359375000000001
3.3194558499999403,0,0,1.2880804931640624,0,0,0.8421875000000001
3.3211104609999893,0,0,1.2785036865234374,0,0,0.8421875000000001
3.3231367349999346,0,0,1.5227122558593749,0,0,0.8421875000000001
3.325016177001089,0,0,1.5107412475585937,0,0,832.69375
3.326698232000126,0,0,1.4508862060546874,0,0,0.6890625
3.328313751000678,0,0,1.47482822265625,0,0,0.9953125
3.330173749000096,0,0,1.254561669921875,0,0,0.6125
3.331843749001564,0,0,1.0893617553710937,0,0,0.9953125
3.3334528600007616,0,0,1.35990654296875,0,0,0.6890625
3.3352157850004005,0,0,1.3934253662109375,0,0,1.53125
3.3373325020002085,0,0,1.5418658691406248,0,0,0.765625
3.3390599459999066,0,0,1.5921441040039062,0,0,0.6890625
3.340765556000406,0,0,1.3623007446289062,0,0,1.0718750000000001
3.3424096859998826,0,0,1.3383587280273437,0,0,0.6890625
3.344086963999871,0,0,1.3000515014648437,0,0,1.8375000000000001
3.3457614080016356,0,0,1.4772224243164063,0,0,1.3015625000000002
3.347809644001245,0,0,1.5538368774414062,0,0,0.765625
3.3495617540011153,0,0,1.369483349609375,0,0,1.0718750000000001
3.3512471800004278,0,0,1.2473790649414063,0,0,0.3828125
3.3530448630008323,0,0,1.4317325927734375,0,0,0.45937500000000003
3.354789251001421,0,0,1.3383587280273437,0,0,0.22968750000000002
3.3565109170012875,0,0,1.484405029296875,0,0,0.22968750000000002
3.3581422320003185,0,0,1.5777788940429687,0,0,0.3828125
3.3600031189998845,0,0,1.3646949462890625,0,0,0.765625
3.3617669510003907,0,0,1.158793603515625,0,0,0.6125
3.3634352839999337,0,0,1.3479355346679687,0,0,0.5359375000000001
3.3654552799998783,0,0,1.5011644409179687,0,0,1.3015625000000002
3.367208779000066,0,0,1.3120225097656248,0,0,1.1484375
3.3691009060003125,0,0,1.4508862060546874,0,0,0.9187500000000001
3.3707840540009784,0,0,1.3383587280273437,0,0,0.6125
3.3727232180008286,0,0,1.24498486328125,0,0,1.7609375
3.375956681000389,0,0,1.5035586425781249,0,0,1.378125
3.3775516450004943,0,0,1.5179238525390624,0,0,0.6125
3.379353569000159,0,0,1.3024457031249999,0,0,0.6125
3.38099429200156,0,0,1.3383587280273437,0,0,0.5359375000000001
3.382542163000835,0,0,1.3527239379882812,0,0,0.9953125
3.384122590001425,0,0,1.350329736328125,0,0,1.0718750000000001
3.385761535000711,0,0,1.4221557861328125,0,0,1.1484375
3.387320592000833,0,0,1.4963760375976562,0,0,1.1484375
3.3890254800007824,0,0,1.6136919189453125,0,0,0.9187500000000001
3.3907052200011094,0,0,1.3431471313476562,0,0,1.3015625000000002
3.3923000730010244,0,0,1.369483349609375,0,0,0.8421875000000001
3.3939302770013455,0,0,1.5155296508789062,0,0,0.9953125
3.395475074001297,0,0,1.4604630126953124,0,0,1.1484375
3.397096964001321,0,0,1.2976572998046874,0,0,2.5265625000000003
3.398744390000502,0,0,1.5322890624999999,0,0,0.9187500000000001
3.4005139260007127,0,0,1.369483349609375,0,0,0.9187500000000001
3.4021884620015044,0,0,1.0845733520507812,0,0,1.0718750000000001
3.403831240000727,0,0,1.3192051147460937,0,0,0.9953125
3.4058933650012477,0,0,1.5179238525390624,0,0,1.3015625000000002
3.4076107350010716,0,0,1.4820108276367188,0,0,0.9187500000000001
3.4091690510012995,0,0,1.4939818359375,0,0,0.9187500000000001
3.410726626001633,0,0,1.35990654296875,0,0,0.9953125
3.412393089000034,0,0,1.2593500732421874,0,0,-8.957812500000001
3.414165829000922,0,0,1.2832920898437499,0,0,1.225
3.4158306250010355,0,0,1.455674609375,0,0,1.1484375
3.417590253000526,0,0,1.5155296508789062,0,0,0.6125
3.419465343000411,0,0,1.2473790649414063,0,0,0.9187500000000001
3.421107881000353,0,0,1.3838485595703125,0,0,0.5359375000000001
3.4229082860001654,0,0,1.37906015625,0,0,0.5359375000000001
3.4244714169999497,0,0,1.3623007446289062,0,0,1.3015625000000002
3.426129806000972,0,0,1.5011644409179687,0,0,1.225
3.427832750001471,0,0,1.4820108276367188,0,0,0.5359375000000001
3.4294643980010733,0,0,1.2425906616210938,0,0,0.6125
3.4310052520013414,0,0,1.3862427612304686,0,0,0.6125
3.4327854350012785,0,0,1.3024457031249999,0,0,0.765625
3.4344453980011167,0,0,1.37906015625,0,0,1.6843750000000002
3.436066047001077,0,0,1.5179238525390624,0,0,1.225
3.4377629540013004,0,0,1.4173673828125,0,0,0.765625
3.439425509001012,0,0,1.3048399047851562,0,0,1.225
3.4410471950013743,0,0,1.3215993164062498,0,0,0.6125
3.4428726740006823,0,0,1.3215993164062498,0,0,0.6890625
3.4445381189998443,0,0,1.3455413330078123,0,0,1.4546875000000001
3.446174582000822,0,0,1.4532804077148436,0,0,1.1484375
3.4478493410006195,0,0,1.4101847778320311,0,0,0.8421875000000001
3.4493976940011635,0,0,1.3072341064453123,0,0,1.0718750000000001
3.4512065070011886,0,0,1.4700398193359374,0,0,0.45937500000000003
3.452793434000341,0,0,1.3575123413085937,0,0,0.5359375000000001
3.454352787000971,0,0,1.2928688964843749,0,0,1.53125
3.455982324001525,0,0,1.5179238525390624,0,0,1.0718750000000001
3.4577448050004023,0,0,1.5442600708007812,0,0,0.6890625
3.4593973600003665,0,0,1.2593500732421874,0,0,0.8421875000000001
3.4610862670015194,0,0,1.4820108276367188,0,0,0.765625
3.4626974900002097,0,0,1.3551181396484375,0,0,0.8421875000000001
3.4642295470002864,0,0,1.3359645263671873,0,0,1.378125
3.4658116770006018,0,0,1.448492004394531,0,0,1.1484375
3.467515362000995,0,0,1.4987702392578124,0,0,0.9187500000000001
3.46907860400097,0,0,1.448492004394531,0,0,0.9953125
3.471874258000753,0,0,1.3646949462890625,0,0,0.9187500000000001
3.473736589001419,0,0,1.3527239379882812,0,0,0.6890625
3.47528916400006,0,0,1.6160861206054686,0,0,1.3015625000000002
3.4778779309999663,0,0,1.4101847778320311,0,0,1.0718750000000001
3.479444507000153,0,0,1.2330138549804688,0,0,0.8421875000000001
3.4809708780012443,0,0,1.5275006591796874,0,0,0.6890625
3.483303519000401,0,0,1.3192051147460937,0,0,0.45937500000000003
3.4850614620008855,0,0,1.2976572998046874,0,0,0.3828125
3.486620925999887,0,0,1.429338391113281,0,0,0.30625
3.4881449090007663,0,0,1.5083470458984374,0,0,0.6125
3.490290219000599,0,0,1.3934253662109375,0,0,0.9953125
3.4920033480011625,0,0,1.1611878051757811,0,0,0.6890625
3.493539849001536,0,0,1.2378022583007813,0,0,0.6125
3.4951646460012853,0,0,1.3072341064453123,0,0,0.0
3.4968806820015743,0,0,1.3479355346679687,0,0,0.9187500000000001
3.4984997940009634,0,0,1.5155296508789062,0,0,0.8421875000000001
3.5000339620000886,0,0,1.1085153686523437,0,0,0.6890625
3.501587611001014,0,0,1.2521674682617188,0,0,1.0718750000000001
3.5032526110007893,0,0,1.3168109130859373,0,0,0.5359375000000001
3.504854297001657,0,0,1.4341267944335936,0,0,1.53125
3.506418538001526,0,0,1.429338391113281,0,0,0.153125
3.5081468710013723,0,0,1.4030021728515625,0,0,0.5359375000000001
3.5097829080004885,0,0,1.3215993164062498,0,0,0.6125
3.5113295580013073,0,0,1.2425906616210938,0,0,0.45937500000000003
3.5131125380012236,0,0,1.2306196533203124,0,0,0.6890625
3.514795889001107,0,0,1.2952630981445312,0,0,1.3015625000000002
3.5164072970001143,0,0,1.446097802734375,0,0,-8.8046875
3.5180181129999255,0,0,1.4173673828125,0,0,0.8421875000000001
3.5197322970016103,0,0,1.2832920898437499,0,0,0.6890625
3.5213520570014225,0,0,1.2641384765625,0,0,0.5359375000000001
3.5229651680001552,0,0,1.3862427612304686,0,0,0.6125
3.5247056120006164,0,0,1.2761094848632812,0,0,1.225
3.5263317420012754,0,0,1.2761094848632812,0,0,0.9953125
3.5279265200006193,0,0,1.4437036010742186,0,0,0.8421875000000001
3.5297351110002637,0,0,1.2234370483398436,0,0,0.9953125
3.531316742000854,0,0,1.216254443359375,0,0,0.765625
3.5329130760001135,0,0,1.3383587280273437,0,0,0.6890625
3.5347875360002945,0,0,1.3551181396484375,0,0,0.9953125
3.536381315001563,0,0,1.3072341064453123,0,0,0.6890625
3.538085314001364,0,0,1.4915876342773438,0,0,0.6125
3.539844961000199,0,0,1.254561669921875,0,0,0.9953125
3.5413964620001934,0,0,1.1851298217773436,0,0,0.765625
3.5429879820003407,0,0,1.2306196533203124,0,0,0.6890625
3.5447168509999756,0,0,1.3192051147460937,0,0,1.4546875000000001
3.5462769080004364,0,0,1.3072341064453123,0,0,0.8421875000000001
3.5478765200005,0,0,1.2593500732421874,0,0,0.9953125
3.54984016400158,0,0,1.2401964599609374,0,0,0.8421875000000001
3.5514274060005846,0,0,1.235408056640625,0,0,0.6125
3.5531831640000746,0,0,1.3048399047851562,0,0,0.6890625
3.5549590150003496,0,0,1.3144167114257812,0,0,-8.6515625
3.556548719001512,0,0,1.4532804077148436,0,0,0.30625
3.5584933450008975,0,0,1.6065093139648436,0,0,0.8421875000000001
3.5602559369999653,0,0,1.254561669921875,0,0,0.6890625
3.561827549001464,0,0,1.120486376953125,0,0,0.6125
3.5633855870000843,0,0,1.3958195678710936,0,0,0.5359375000000001
3.5651006600000983,0,0,1.3072341064453123,0,0,0.0
3.5667968270008714,0,0,1.35990654296875,0,0,0.45937500000000003
3.568376105000425,0,0,1.5873557006835937,0,0,0.6125
3.5700462160002644,0,0,1.2904746948242187,0,0,1.1484375
3.57175541900142,0,0,1.2401964599609374,0,0,0.9187500000000001
3.5733081980015413,0,0,1.3407529296874998,0,0,0.9187500000000001
3.5749684580005123,0,0,1.24498486328125,0,0,1.225
3.5765315879998525,0,0,1.4245499877929686,0,0,0.30625
3.5780542380016414,0,0,1.4125789794921875,0,0,0.8421875000000001
3.5798785320002935,0,0,1.3359645263671873,0,0,1.1484375
3.581515607000256,0,0,1.0702081420898437,0,0,0.6890625
3.583059829999911,0,0,1.209071838378906,0,0,0.6125
3.584730608001337,0,0,1.4125789794921875,0,0,0.6125
3.5864099220016215,0,0,1.3120225097656248,0,0,0.6125
3.5879899230003502,0,0,1.4724340209960938,0,0,0.9953125
3.5895838500000536,0,0,1.3431471313476562,0,0,0.6125
3.591379052000775,0,0,1.1659762084960936,0,0,0.6125
3.593111033000241,0,0,1.458068811035156,0,0,0.8421875000000001
3.5947520330009866,0,0,1.3718775512695311,0,0,2.45
3.596483032000833,0,0,1.3168109130859373,0,0,0.45937500000000003
3.5982818640004552,0,0,1.22583125,0,0,0.8421875000000001
3.5999638630000845,0,0,1.3479355346679687,0,0,0.765625
3.6015704940000433,0,0,1.1635820068359375,0,0,0.6125
3.6033592889998545,0,0,1.3072341064453123,0,0,0.9187500000000001
3.604976048000026,0,0,1.3072341064453123,0,0,0.8421875000000001
3.6066076229999453,0,0,1.4173673828125,0,0,0.8421875000000001
3.608321474001059,0,0,1.6448165405273436,0,0,0.6890625
3.6099535299999843,0,0,1.438915197753906,0,0,1.1484375
3.6115686040011497,0,0,1.158793603515625,0,0,0.6125
3.613278048000211,0,0,1.3670891479492187,0,0,0.30625
3.6149264740015496,0,0,1.3311761230468748,0,0,0.765625
3.6165301780001755,0,0,1.3407529296874998,0,0,0.5359375000000001
3.6182435110004008,0,0,1.484405029296875,0,0,0.8421875000000001
3.6198974560011266,0,0,1.3551181396484375,0,0,0.8421875000000001
3.621547382001154,0,0,1.1516109985351561,0,0,0.765625
3.624027317000582,0,0,1.484405029296875,0,0,0.5359375000000001
3.6255711330013582,0,0,1.484405029296875,0,0,0.3828125
3.6271570600001724,0,0,1.3910311645507811,0,0,0.6125
3.6290059090006253,0,0,1.6448165405273436,0,0,1.0718750000000001
