Time (s),Accel X1,Accel Y1,Accel Z1,Accel X2,Accel Y2,Accel Z2
0.00010998000016115839,0,0,1.5179238525390624,0,0,30.242187500000004
0.0037759940005344106,0,0,1.2665326782226562,0,0,30.395312500000003
0.0074499520005701925,0,0,1.3479355346679687,0,0,29.859375000000004
0.011147781000545365,0,0,1.4963760375976562,0,0,30.395312500000003
0.014832552999905602,0,0,1.3120225097656248,0,0,30.242187500000004
0.01848447500015027,0,0,1.3479355346679687,0,0,30.012500000000003
0.022118489000604313,0,0,1.6328455322265625,0,0,30.471875
0.025721337000504718,0,0,1.218648645019531,0,0,30.31875
0.029966937000608596,0,0,1.2928688964843749,0,0,30.471875
0.03354848800063337,0,0,1.4628572143554686,0,0,30.471875
0.03810052900007577,0,0,1.2761094848632812,0,0,30.012500000000003
0.041624674000559025,0,0,1.350329736328125,0,0,29.9359375
0.04524059600043984,0,0,1.2641384765625,0,0,30.012500000000003
0.04880236999997578,0,0,1.4891934326171874,0,0,29.782812500000002
0.05255156800012628,0,0,1.3215993164062498,0,0,29.782812500000002
0.05671742800041102,0,0,1.4245499877929686,0,0,30.242187500000004
0.06051060700065136,0,0,1.2904746948242187,0,0,30.165625000000002
0.06427980500029662,0,0,1.4915876342773438,0,0,30.0890625
0.06800098500025342,0,0,1.2761094848632812,0,0,30.778125000000003
0.07184538500041526,0,0,1.3838485595703125,0,0,30.0890625
0.07555521399990539,0,0,1.6735469604492186,0,0,30.0890625
0.07908165500066389,0,0,1.3215993164062498,0,0,29.782812500000002
0.08269381700029044,0,0,1.484405029296875,0,0,30.471875
0.08703167500061681,0,0,1.2497732666015624,0,0,30.012500000000003
0.09059457900002599,0,0,1.0965443603515623,0,0,29.9359375
0.0944547760000205,0,0,1.3311761230468748,0,0,30.31875
0.09835030600061145,0,0,1.2593500732421874,0,0,30.012500000000003
0.10207757800071704,0,0,1.2880804931640624,0,0,30.012500000000003
0.10577044300043781,0,0,1.4963760375976562,0,0,30.242187500000004
0.10971517600046354,0,0,1.455674609375,0,0,30.0890625
0.11273801200059097,0,0,1.3144167114257812,0,0,30.0890625
0.11609038100050384,0,0,1.2785036865234374,0,0,30.8546875
0.11899712600006751,0,0,1.388636962890625,0,0,30.165625000000002
0.12181105699983164,0,0,1.3144167114257812,0,0,30.242187500000004
0.12448030399991694,0,0,1.1420341918945311,0,0,30.471875
0.12734443800036388,0,0,1.3048399047851562,0,0,29.400000000000002
0.13049893900006282,0,0,1.2808978881835937,0,0,30.31875
0.13338075899991964,0,0,1.3024457031249999,0,0,30.165625000000002
0.13601965399993787,0,0,1.2521674682617188,0,0,30.0890625
0.1387654010004553,0,0,1.4604630126953124,0,0,30.31875
0.14149485100006132,0,0,1.2401964599609374,0,0,29.9359375
0.14436796700010746,0,0,1.24498486328125,0,0,30.012500000000003
0.14714675000050192,0,0,1.2617442749023438,0,0,30.0890625
0.1516726240006392,0,0,1.5059528442382812,0,0,30.165625000000002
0.15449114800048847,0,0,1.2593500732421874,0,0,30.165625000000002
0.15713008100010484,0,0,1.3215993164062498,0,0,30.012500000000003
0.15996988200004125,0,0,1.6017209106445311,0,0,30.0890625
0.16269055400061916,0,0,1.1875240234375,0,0,30.165625000000002
0.16555979900022066,0,0,1.1444283935546875,0,0,30.0890625
0.16844567400039523,0,0,1.3383587280273437,0,0,29.9359375
0.1711760130001494,0,0,1.608903515625,0,0,30.31875
0.17409368400058156,0,0,1.6519991455078125,0,0,30.0890625
0.17768949400033307,0,0,1.369483349609375,0,0,30.242187500000004
0.18062409100002697,0,0,1.3311761230468748,0,0,29.9359375
0.18334656000024552,0,0,1.2425906616210938,0,0,30.012500000000003
0.18608995400063577,0,0,1.1180921752929687,0,0,30.31875
0.1893266400002176,0,0,1.3359645263671873,0,0,30.165625000000002
0.1920025170002191,0,0,1.22583125,0,0,30.012500000000003
0.1949325020004835,0,0,1.5011644409179687,0,0,30.0890625
0.19760995300021023,0,0,1.3383587280273437,0,0,30.0890625
0.2005490120000104,0,0,1.5131354492187499,0,0,30.012500000000003
0.2033281280000665,0,0,1.39821376953125,0,0,30.471875
0.20599241299987625,0,0,1.5346832641601562,0,0,30.31875
0.2087774920000811,0,0,1.2785036865234374,0,0,30.012500000000003
0.21143274000041856,0,0,1.2808978881835937,0,0,31.773437500000004
0.21430463300021074,0,0,1.5059528442382812,0,0,30.31875
0.2170262690005984,0,0,1.4006079711914061,0,0,29.9359375
0.21986082900002657,0,0,1.3383587280273437,0,0,30.165625000000002
0.2225099470006171,0,0,1.2952630981445312,0,0,30.395312500000003
0.22534452600029908,0,0,1.637633935546875,0,0,30.242187500000004
0.22810143900005642,0,0,1.4101847778320311,0,0,30.012500000000003
0.23091853599999013,0,0,1.2641384765625,0,0,30.0890625
0.2335939499998858,0,0,1.3335703247070312,0,0,30.395312500000003
0.2364184739999473,0,0,1.5107412475585937,0,0,30.31875
0.23905648100026156,0,0,1.2832920898437499,0,0,30.012500000000003
0.24265014299999166,0,0,1.2497732666015624,0,0,29.9359375
0.24545781500000885,0,0,1.2473790649414063,0,0,30.395312500000003
0.24870151899995108,0,0,1.5059528442382812,0,0,30.165625000000002
0.251551209000354,0,0,1.3814543579101561,0,0,30.31875
0.2543747509998866,0,0,1.4006079711914061,0,0,30.0890625
0.257133664000321,0,0,1.407790576171875,0,0,30.0890625
0.2598033740005121,0,0,1.3910311645507811,0,0,30.012500000000003
0.26259084200046345,0,0,1.3144167114257812,0,0,29.859375000000004
0.2653861250000773,0,0,1.2665326782226562,0,0,30.8546875
0.2682138150003084,0,0,1.5203180541992187,0,0,30.395312500000003
0.27089265500035253,0,0,1.2713210815429687,0,0,30.012500000000003
0.2736768270005996,0,0,1.2282254516601563,0,0,30.242187500000004
0.27630353800032026,0,0,1.2689268798828124,0,0,30.31875
0.2791025060005268,0,0,1.2761094848632812,0,0,30.165625000000002
0.28223522900043463,0,0,1.2473790649414063,0,0,30.165625000000002
0.28508636400056275,0,0,1.35990654296875,0,0,30.165625000000002
0.2877038710003035,0,0,1.4772224243164063,0,0,29.70625
0.29042613599995093,0,0,1.3096283081054687,0,0,30.012500000000003
0.29381196800022735,0,0,1.3144167114257812,0,0,30.0890625
0.29666943500069465,0,0,1.5155296508789062,0,0,29.859375000000004
0.299361090000275,0,0,1.4221557861328125,0,0,29.859375000000004
0.30210929900022165,0,0,1.5658078857421873,0,0,30.165625000000002
0.304733472999942,0,0,1.2665326782226562,0,0,30.165625000000002
0.30769623600008345,0,0,1.3623007446289062,0,0,30.0890625
0.3103698530003385,0,0,1.5466542724609373,0,0,30.242187500000004
0.31331015300020226,0,0,1.4772224243164063,0,0,30.0890625
0.31620221299999685,0,0,1.3335703247070312,0,0,30.0890625
0.31906092100052774,0,0,1.3263877197265623,0,0,30.242187500000004
0.3218688150000162,0,0,1.2665326782226562,0,0,30.395312500000003
0.32478015200013033,0,0,1.254561669921875,0,0,30.395312500000003
0.3275428990000364,0,0,1.2306196533203124,0,0,30.31875
0.33045956900059537,0,0,1.3407529296874998,0,0,30.0890625
0.33336599900030706,0,0,1.1061211669921875,0,0,31.390625000000004
0.3364128350003739,0,0,1.2761094848632812,0,0,30.165625000000002
0.33978294400003506,0,0,1.3215993164062498,0,0,30.625000000000004
0.34300218499993207,0,0,1.467645617675781,0,0,30.548437500000002
0.3458145790000344,0,0,1.2713210815429687,0,0,30.395312500000003
0.348744416000045,0,0,1.2904746948242187,0,0,30.0890625
0.3514126079999187,0,0,1.3646949462890625,0,0,29.629687500000003
0.35435042700009944,0,0,1.2641384765625,0,0,30.242187500000004
0.3572588380002344,0,0,1.35990654296875,0,0,30.165625000000002
0.3599357150005744,0,0,1.3407529296874998,0,0,29.9359375
0.36279334900063986,0,0,1.4341267944335936,0,0,30.31875
0.3659055170001011,0,0,1.5801730957031248,0,0,30.31875
0.3687642810000398,0,0,1.4963760375976562,0,0,30.012500000000003
0.37153943400062417,0,0,1.3862427612304686,0,0,29.859375000000004
0.37431627300065884,0,0,1.6615759521484375,0,0,30.242187500000004
0.37769753100019443,0,0,1.5514426757812498,0,0,30.012500000000003
0.3805557020004926,0,0,1.2378022583007813,0,0,30.165625000000002
0.3836023710000518,0,0,1.3910311645507811,0,0,30.012500000000003
0.3867704650001542,0,0,1.4963760375976562,0,0,30.242187500000004
0.39032651700017595,0,0,1.3263877197265623,0,0,30.31875
0.39335301900064223,0,0,1.5035586425781249,0,0,30.778125000000003
0.3962559310002689,0,0,1.4149731811523436,0,0,30.7015625
0.3991776940001728,0,0,1.3431471313476562,0,0,30.471875
0.4027449310005977,0,0,1.3215993164062498,0,0,30.165625000000002
0.4067039040000964,0,0,1.5562310791015623,0,0,30.0890625
0.409793128000274,0,0,1.2497732666015624,0,0,30.31875
0.41280239000025176,0,0,1.3096283081054687,0,0,30.471875
0.4167294570006561,0,0,1.5298948608398437,0,0,30.395312500000003
0.41956529500021134,0,0,1.4413093994140624,0,0,30.395312500000003
0.42216848699990805,0,0,1.254561669921875,0,0,30.165625000000002
0.4254955050000717,0,0,1.3000515014648437,0,0,30.548437500000002
0.4282161589999305,0,0,1.4149731811523436,0,0,30.31875
0.4310872189998918,0,0,1.2880804931640624,0,0,29.9359375
0.4337951140005316,0,0,1.2497732666015624,0,0,30.0890625
0.43650376799996593,0,0,1.2521674682617188,0,0,30.471875
0.43903892500020447,0,0,1.3024457031249999,0,0,30.395312500000003
0.44183130000055826,0,0,1.2234370483398436,0,0,30.242187500000004
0.4442358840005909,0,0,1.3024457031249999,0,0,30.0890625
0.44675122599983297,0,0,1.3407529296874998,0,0,30.395312500000003
0.4491728279999734,0,0,1.5179238525390624,0,0,30.395312500000003
0.45209946100021625,0,0,1.4796166259765624,0,0,30.165625000000002
0.4546146359998602,0,0,1.3120225097656248,0,0,30.31875
0.45702384900050674,0,0,1.2761094848632812,0,0,30.0890625
0.4595438020005531,0,0,1.5586252807617187,0,0,30.395312500000003
0.46194871900024737,0,0,1.6112977172851561,0,0,30.31875
0.46441571000013937,0,0,1.2330138549804688,0,0,29.9359375
0.46726249200037273,0,0,1.2785036865234374,0,0,30.0890625
0.46982668500004365,0,0,1.4915876342773438,0,0,30.31875
0.47237837800003035,0,0,1.5275006591796874,0,0,30.31875
0.4748081280004044,0,0,1.3551181396484375,0,0,30.012500000000003
0.4773090440003216,0,0,1.2282254516601563,0,0,30.165625000000002
0.4802253070001825,0,0,1.3168109130859373,0,0,29.9359375
0.48266124300062074,0,0,1.0869675537109373,0,0,30.165625000000002
0.48556137600007787,0,0,1.3455413330078123,0,0,30.242187500000004
0.4880364219998228,0,0,1.4149731811523436,0,0,30.012500000000003
0.4914368280005874,0,0,1.4437036010742186,0,0,30.165625000000002
0.49400668700036476,0,0,1.5849614990234373,0,0,30.165625000000002
0.4966337129999374,0,0,1.3192051147460937,0,0,29.9359375
0.4990597780006283,0,0,1.3215993164062498,0,0,30.012500000000003
0.5087270379999609,0,0,1.3311761230468748,0,0,30.165625000000002
0.5115557280005305,0,0,1.2497732666015624,0,0,30.242187500000004
0.5147730429998774,0,0,1.197100830078125,0,0,30.242187500000004
0.5173199400005615,0,0,1.3623007446289062,0,0,30.012500000000003
0.5199186330000884,0,0,1.2856862915039062,0,0,30.242187500000004
0.5223168460006491,0,0,1.5227122558593749,0,0,29.859375000000004
0.524844614000358,0,0,1.4891934326171874,0,0,30.165625000000002
0.5272758450000765,0,0,1.3718775512695311,0,0,30.242187500000004
0.529777576000015,0,0,1.3359645263671873,0,0,30.165625000000002
0.5322003259998382,0,0,1.2808978881835937,0,0,30.471875
0.5347036310004114,0,0,1.6543933471679686,0,0,30.0890625
0.5371066590005285,0,0,1.4245499877929686,0,0,29.9359375
0.53960213100072,0,0,1.2832920898437499,0,0,30.242187500000004
0.5420620100003362,0,0,1.2593500732421874,0,0,29.859375000000004
0.5444657420002841,0,0,1.5011644409179687,0,0,30.0890625
0.5469573810005386,0,0,1.5418658691406248,0,0,30.395312500000003
0.5493616310004654,0,0,1.2761094848632812,0,0,30.31875
0.5518529540004238,0,0,1.4604630126953124,0,0,30.242187500000004
0.5542645570003515,0,0,1.2306196533203124,0,0,29.859375000000004
0.5567745460002698,0,0,1.2665326782226562,0,0,30.31875
0.559321331999854,0,0,1.2713210815429687,0,0,30.242187500000004
0.5618787660005182,0,0,1.3072341064453123,0,0,30.31875
0.5642944609999176,0,0,1.2832920898437499,0,0,30.548437500000002
0.566706248000628,0,0,1.4317325927734375,0,0,30.471875
0.5693182370005161,0,0,1.4700398193359374,0,0,30.165625000000002
0.5719793180005581,0,0,1.180341418457031,0,0,29.9359375
0.5745057889998861,0,0,1.2282254516601563,0,0,30.012500000000003
0.5769625760003692,0,0,1.5059528442382812,0,0,30.012500000000003
0.5795586020003611,0,0,1.5873557006835937,0,0,30.31875
0.5819859070006714,0,0,1.3120225097656248,0,0,30.242187500000004
0.5843919910003024,0,0,1.2665326782226562,0,0,30.012500000000003
0.586905537000348,0,0,1.5705962890624998,0,0,30.31875
0.5894135819999065,0,0,1.369483349609375,0,0,30.31875
0.5919702380006129,0,0,1.4221557861328125,0,0,30.165625000000002
0.5944294509999963,0,0,1.2928688964843749,0,0,30.395312500000003
0.5971536420001939,0,0,1.438915197753906,0,0,29.629687500000003
0.5998253710004064,0,0,1.22583125,0,0,30.242187500000004
0.6024480260002747,0,0,1.1516109985351561,0,0,30.395312500000003
0.6051981800001158,0,0,1.5155296508789062,0,0,30.395312500000003
0.6078900940001404,0,0,1.4987702392578124,0,0,29.859375000000004
0.610743117000311,0,0,1.0749965454101562,0,0,30.165625000000002
0.6134202530001858,0,0,1.35990654296875,0,0,30.242187500000004
0.6162898310003584,0,0,1.446097802734375,0,0,30.0890625
0.6192499270000553,0,0,1.5825672973632812,0,0,29.9359375
0.6222245050003039,0,0,1.5179238525390624,0,0,30.012500000000003
0.6250781389999247,0,0,1.2713210815429687,0,0,30.31875
0.6277782930001194,0,0,1.2713210815429687,0,0,30.471875
0.6305424470001526,0,0,1.419761584472656,0,0,30.395312500000003
0.6334506920002241,0,0,1.5418658691406248,0,0,30.165625000000002
0.6360894389999885,0,0,1.3527239379882812,0,0,30.012500000000003
0.6388112969998474,0,0,1.3120225097656248,0,0,30.8546875
0.6416015989998414,0,0,1.39821376953125,0,0,30.242187500000004
0.64454045399998,0,0,1.3814543579101561,0,0,30.625000000000004
0.6473398110001654,0,0,1.2761094848632812,0,0,30.0890625
0.6501831680006944,0,0,1.426944189453125,0,0,30.8546875
0.6531516519999059,0,0,1.2497732666015624,0,0,30.242187500000004
0.6560370639999746,0,0,1.4149731811523436,0,0,30.012500000000003
0.6586785710005643,0,0,1.2856862915039062,0,0,30.165625000000002
0.6614233540003625,0,0,1.39821376953125,0,0,30.31875
0.6644878940005583,0,0,1.2928688964843749,0,0,30.242187500000004
0.6674064530006945,0,0,1.2593500732421874,0,0,30.548437500000002
0.67004844100029,0,0,1.3048399047851562,0,0,30.012500000000003
0.6727950399999827,0,0,1.4628572143554686,0,0,30.0890625
0.6754389349998746,0,0,1.5322890624999999,0,0,30.012500000000003
0.6782696250002118,0,0,1.2808978881835937,0,0,29.400000000000002
0.6809054290006316,0,0,1.3263877197265623,0,0,30.165625000000002
0.6838175990005766,0,0,1.4341267944335936,0,0,30.242187500000004
0.6864327729999786,0,0,1.599326708984375,0,0,29.859375000000004
0.6891906119999476,0,0,1.3575123413085937,0,0,30.012500000000003
0.691828471000008,0,0,1.3335703247070312,0,0,30.395312500000003
0.6947055489999912,0,0,1.4700398193359374,0,0,30.242187500000004
0.6973448160006228,0,0,1.388636962890625,0,0,30.31875
0.7001653200004512,0,0,1.2521674682617188,0,0,30.012500000000003
0.7028018830005749,0,0,1.2904746948242187,0,0,30.7015625
0.7056047030000627,0,0,1.388636962890625,0,0,30.395312500000003
0.708460689000276,0,0,1.3215993164062498,0,0,30.395312500000003
0.7113483410003028,0,0,1.2497732666015624,0,0,30.31875
0.7142564380001204,0,0,1.4796166259765624,0,0,29.9359375
0.7171373119999771,0,0,1.197100830078125,0,0,29.9359375
0.7200066690002132,0,0,1.2785036865234374,0,0,30.242187500000004
0.7228182480002943,0,0,1.2569558715820313,0,0,29.859375000000004
0.7263624480001454,0,0,1.618480322265625,0,0,29.70625
0.7290455470001689,0,0,1.3431471313476562,0,0,30.012500000000003
0.7320465680004418,0,0,1.2952630981445312,0,0,30.471875
0.7356883970005583,0,0,1.3072341064453123,0,0,29.400000000000002
0.7384658470000431,0,0,1.1324573852539062,0,0,30.012500000000003
0.7411865940002826,0,0,1.2856862915039062,0,0,30.242187500000004
0.7438870080004563,0,0,1.2425906616210938,0,0,30.165625000000002
0.7473576530001083,0,0,1.3934253662109375,0,0,29.9359375
0.7502932309998869,0,0,1.4915876342773438,0,0,30.31875
0.7529948110004625,0,0,1.2521674682617188,0,0,29.9359375
0.7556093370003509,0,0,1.3431471313476562,0,0,30.31875
0.7585946180006431,0,0,1.4628572143554686,0,0,30.395312500000003
0.7612907540005835,0,0,1.4149731811523436,0,0,29.782812500000002
0.7640950550003254,0,0,1.218648645019531,0,0,29.859375000000004
0.7667353209999419,0,0,1.3048399047851562,0,0,30.165625000000002
0.7695724740005971,0,0,1.4101847778320311,0,0,30.0890625
0.7723769980002544,0,0,1.2976572998046874,0,0,30.165625000000002
0.7752731130003667,0,0,1.0773907470703123,0,0,30.31875
0.7781942090005032,0,0,1.3742717529296875,0,0,29.859375000000004
0.7810282880000159,0,0,1.3215993164062498,0,0,30.31875
0.783909737000613,0,0,1.3455413330078123,0,0,30.242187500000004
0.7867423710004005,0,0,1.1133037719726562,0,0,30.165625000000002
0.7896144129999811,0,0,1.5203180541992187,0,0,30.165625000000002
0.7923550479999903,0,0,1.3096283081054687,0,0,30.242187500000004
0.7950954799998726,0,0,1.369483349609375,0,0,29.859375000000004
0.797919207000632,0,0,1.3215993164062498,0,0,30.0890625
0.800697360000413,0,0,1.39821376953125,0,0,29.9359375
0.8035434210005405,0,0,1.6328455322265625,0,0,30.165625000000002
0.8063449999999648,0,0,1.4963760375976562,0,0,30.012500000000003
0.8091409490007209,0,0,1.3048399047851562,0,0,30.625000000000004
0.811940677000166,0,0,1.3623007446289062,0,0,30.548437500000002
0.8147537190006915,0,0,1.6208745239257811,0,0,30.242187500000004
0.8173923000003924,0,0,1.3479355346679687,0,0,30.165625000000002
0.8201776760006396,0,0,1.216254443359375,0,0,30.548437500000002
0.8229141259998869,0,0,1.6472107421875,0,0,30.31875
0.825637724000444,0,0,1.407790576171875,0,0,30.31875
0.828251454000565,0,0,1.3096283081054687,0,0,-8.957812500000001
0.8309661820003384,0,0,1.2808978881835937,0,0,30.31875
0.833688372999859,0,0,1.5753846923828123,0,0,30.165625000000002
0.8364455640003143,0,0,1.3215993164062498,0,0,30.31875
0.8390826640006708,0,0,1.3168109130859373,0,0,30.31875
0.8418725400006224,0,0,1.3239935180664062,0,0,30.471875
0.8445877490003113,0,0,1.5179238525390624,0,0,30.165625000000002
0.8479531740003949,0,0,1.2761094848632812,0,0,29.859375000000004
0.8513723760006542,0,0,1.3096283081054687,0,0,30.012500000000003
0.8541250300004322,0,0,1.5490484741210937,0,0,30.31875
0.8570028120002462,0,0,1.4245499877929686,0,0,29.9359375
0.8598587790002057,0,0,1.5035586425781249,0,0,30.242187500000004
0.86259710000013,0,0,1.3144167114257812,0,0,30.471875
0.8653279760001169,0,0,1.467645617675781,0,0,30.0890625
0.8686966969999048,0,0,1.2761094848632812,0,0,30.165625000000002
0.871513701999902,0,0,1.2569558715820313,0,0,30.165625000000002
0.8750100690003819,0,0,1.4437036010742186,0,0,30.012500000000003
0.8777537790001588,0,0,1.2785036865234374,0,0,30.165625000000002
0.8804107300002215,0,0,1.3215993164062498,0,0,30.31875
0.8831717729999582,0,0,1.438915197753906,0,0,29.9359375
0.8860105740004656,0,0,1.4772224243164063,0,0,30.242187500000004
0.8888480599998729,0,0,1.6448165405273436,0,0,30.931250000000002
0.8921013930003028,0,0,1.426944189453125,0,0,29.476562500000004
0.8958256659998369,0,0,1.4437036010742186,0,0,29.9359375
0.8986118010006976,0,0,1.678335363769531,0,0,30.548437500000002
0.9012770110002748,0,0,0.7852981445312499,0,0,29.9359375
0.9039001850005661,0,0,1.0821791503906248,0,0,30.31875
0.9072783689998687,0,0,1.7645266235351562,0,0,30.242187500000004
0.9100663919998624,0,0,1.3215993164062498,0,0,-9.49375
0.9128627680001955,0,0,1.4341267944335936,0,0,30.165625000000002
0.9157427720001579,0,0,1.426944189453125,0,0,30.7015625
0.9188739400005943,0,0,1.2880804931640624,0,0,30.0890625
0.9218601649999982,0,0,1.6352397338867186,0,0,30.395312500000003
0.9247948540005382,0,0,1.4245499877929686,0,0,30.165625000000002
0.9276965250001012,0,0,1.2425906616210938,0,0,29.9359375
0.9307170460006091,0,0,1.2330138549804688,0,0,30.31875
0.9336849569999686,0,0,1.3670891479492187,0,0,30.165625000000002
0.9366427380000459,0,0,1.3168109130859373,0,0,30.242187500000004
0.9402972329999102,0,0,1.5418658691406248,0,0,30.471875
0.9433318470000813,0,0,1.3431471313476562,0,0,30.165625000000002
0.9465192730003764,0,0,1.3072341064453123,0,0,30.31875
0.949669071000244,0,0,1.4628572143554686,0,0,30.31875
0.9532002160003685,0,0,1.6232687255859375,0,0,29.9359375
0.9561885890007034,0,0,1.3838485595703125,0,0,30.31875
0.9596859200000836,0,0,1.2808978881835937,0,0,30.165625000000002
0.9626886630003355,0,0,1.0821791503906248,0,0,30.0890625
0.9657102030005262,0,0,1.2904746948242187,0,0,30.395312500000003
0.9686728910000966,0,0,1.3646949462890625,0,0,30.471875
0.9718093930005125,0,0,1.7788918334960937,0,0,30.31875
0.9747958030002337,0,0,1.6424223388671875,0,0,30.242187500000004
0.9794501950000267,0,0,1.2473790649414063,0,0,29.9359375
0.9825789000005898,0,0,1.5490484741210937,0,0,30.395312500000003
0.985651254000004,0,0,1.4173673828125,0,0,30.31875
0.9887750140005664,0,0,1.2880804931640624,0,0,30.395312500000003
0.9917794610000783,0,0,1.3072341064453123,0,0,30.242187500000004
0.9948128530004396,0,0,1.3239935180664062,0,0,30.31875
0.9977906519998214,0,0,1.4532804077148436,0,0,30.165625000000002
1.0007314150007005,0,0,1.2617442749023438,0,0,30.165625000000002
1.003959618999943,0,0,1.5969325073242187,0,0,30.395312500000003
1.007053232000544,0,0,1.3215993164062498,0,0,30.548437500000002
1.0102240109999912,0,0,1.5729904907226562,0,0,30.31875
1.013507381000636,0,0,1.7764976318359373,0,0,30.548437500000002
1.0161753130005309,0,0,1.659181750488281,0,0,30.242187500000004
1.018785265000588,0,0,1.24498486328125,0,0,30.31875
1.0213924570007293,0,0,1.3527239379882812,0,0,29.9359375
1.0239922609998757,0,0,1.2880804931640624,0,0,29.9359375
1.0265314540001782,0,0,1.2497732666015624,0,0,30.395312500000003
1.0291845540004942,0,0,1.2880804931640624,0,0,30.625000000000004
1.031835690000662,0,0,1.2856862915039062,0,0,30.165625000000002
1.0345507709998856,0,0,1.5562310791015623,0,0,30.31875
1.037544292000348,0,0,1.6807295654296874,0,0,30.242187500000004
1.040167410000322,0,0,1.4341267944335936,0,0,30.0890625
1.0429003050003303,0,0,1.3120225097656248,0,0,-9.1875
1.0455451269999685,0,0,1.43652099609375,0,0,30.012500000000003
1.048318169000595,0,0,1.4125789794921875,0,0,30.0890625
1.0509128990006502,0,0,1.1109095703125,0,0,30.31875
1.0540989179999087,0,0,1.4413093994140624,0,0,30.31875
1.0567046659998596,0,0,1.6400281372070311,0,0,30.165625000000002
1.0595676520006236,0,0,1.7788918334960937,0,0,30.012500000000003
1.062292343000081,0,0,1.3096283081054687,0,0,30.012500000000003
1.0648680730000706,0,0,1.3144167114257812,0,0,29.629687500000003
1.0675280060004297,0,0,1.5227122558593749,0,0,30.242187500000004
1.0701680130005116,0,0,1.5059528442382812,0,0,30.165625000000002
1.072782594000273,0,0,1.3215993164062498,0,0,31.773437500000004
1.075536674000432,0,0,1.458068811035156,0,0,30.395312500000003
1.0781301440001698,0,0,1.8124106567382812,0,0,29.859375000000004
1.080770448000294,0,0,1.879448303222656,0,0,30.31875
1.0833861959999922,0,0,1.4700398193359374,0,0,29.9359375
1.086141108999982,0,0,1.0773907470703123,0,0,29.629687500000003
1.0887821160004023,0,0,1.1635820068359375,0,0,30.0890625
1.0916184910001903,0,0,1.4891934326171874,0,0,30.548437500000002
1.0942427569998472,0,0,1.5418658691406248,0,0,30.8546875
1.096690748000583,0,0,1.6160861206054686,0,0,30.395312500000003
1.0990711650001685,0,0,1.936909143066406,0,0,31.543750000000003
1.1016451360001156,0,0,1.465251416015625,0,0,29.9359375
1.1043283650005833,0,0,1.2521674682617188,0,0,29.70625
1.1067520220003644,0,0,1.0438719238281249,0,0,30.012500000000003
1.1092893640006878,0,0,1.24498486328125,0,0,30.242187500000004
1.1118223160001435,0,0,1.3958195678710936,0,0,30.931250000000002
1.1143093810005666,0,0,1.5873557006835937,0,0,30.8546875
1.1169776650003769,0,0,1.8195932617187498,0,0,30.242187500000004
1.119187287999921,0,0,1.5083470458984374,0,0,29.629687500000003
1.121743518000585,0,0,1.2689268798828124,0,0,29.859375000000004
1.1240088810000088,0,0,1.1228805786132812,0,0,29.70625
1.1267358690001856,0,0,1.0534487304687499,0,0,30.395312500000003
1.1290604160003568,0,0,1.43652099609375,0,0,30.471875
1.1314704260003055,0,0,1.8435352783203125,0,0,30.778125000000003
1.1339689340002224,0,0,1.8124106567382812,0,0,29.70625
1.1364715350000552,0,0,1.484405029296875,0,0,30.012500000000003
1.1395033530006913,0,0,1.149216796875,0,0,29.70625
1.1420504349998737,0,0,1.455674609375,0,0,30.625000000000004
1.1446005540001352,0,0,1.7310078002929687,0,0,30.7015625
1.1471717470003568,0,0,1.6232687255859375,0,0,30.242187500000004
1.1497340700007044,0,0,1.6136919189453125,0,0,30.012500000000003
1.1521386900003563,0,0,1.2880804931640624,0,0,29.859375000000004
1.1553112649999093,0,0,1.3000515014648437,0,0,30.395312500000003
1.157829237000442,0,0,1.3215993164062498,0,0,30.471875
1.1604365030007102,0,0,1.6831237670898436,0,0,30.165625000000002
1.1630820099999255,0,0,1.7741034301757812,0,0,30.0890625
1.1655260930001532,0,0,1.5490484741210937,0,0,30.471875
1.1679103260003103,0,0,1.2042834350585936,0,0,30.548437500000002
1.1702891690001707,0,0,1.2976572998046874,0,0,30.31875
1.1726527340006214,0,0,1.4867992309570313,0,0,30.8546875
1.1751904650000142,0,0,1.5011644409179687,0,0,30.0890625
1.177677362000395,0,0,1.6017209106445311,0,0,30.012500000000003
1.1801506490000975,0,0,1.2665326782226562,0,0,30.0890625
1.182526788999894,0,0,1.0917559570312498,0,0,30.242187500000004
1.185088834000453,0,0,1.446097802734375,0,0,30.0890625
1.187451140000121,0,0,1.6639701538085936,0,0,30.31875
1.1896901330001128,0,0,1.2785036865234374,0,0,30.165625000000002
1.1920572730005006,0,0,1.2952630981445312,0,0,30.395312500000003
1.19462878000013,0,0,1.5801730957031248,0,0,30.625000000000004
1.1968727180001224,0,0,1.659181750488281,0,0,30.471875
1.1995745940002962,0,0,1.2521674682617188,0,0,29.859375000000004
1.201853587000187,0,0,1.458068811035156,0,0,29.782812500000002
1.2041465980000794,0,0,1.0989385620117187,0,0,30.471875
1.2070107509998707,0,0,1.1228805786132812,0,0,30.242187500000004
1.209286465000332,0,0,1.4437036010742186,0,0,30.31875
1.2118780470000274,0,0,1.8315642700195311,0,0,30.471875
1.214362519000133,0,0,1.4724340209960938,0,0,30.7015625
1.2172870220001641,0,0,1.4221557861328125,0,0,30.471875
1.2204330049999044,0,0,1.5131354492187499,0,0,31.084375
1.223493544000121,0,0,1.0941501586914062,0,0,29.476562500000004
1.2269225979998737,0,0,1.6448165405273436,0,0,30.548437500000002
1.2299873410001965,0,0,1.3215993164062498,0,0,30.165625000000002
1.2334238200000982,0,0,1.369483349609375,0,0,29.782812500000002
1.2365896360006445,0,0,1.5514426757812498,0,0,30.0890625
1.239598157000728,0,0,1.4030021728515625,0,0,31.007812500000004
1.2425309939999352,0,0,1.4125789794921875,0,0,29.782812500000002
1.2455671450006776,0,0,1.388636962890625,0,0,29.859375000000004
1.248522296000374,0,0,1.8124106567382812,0,0,30.548437500000002
1.2517137600007118,0,0,1.2497732666015624,0,0,30.165625000000002
1.2546826890002194,0,0,1.2018892333984375,0,0,30.31875
1.2577423760003512,0,0,1.5155296508789062,0,0,30.0890625
1.2612409660005142,0,0,1.7621324218749999,0,0,29.9359375
1.266518387999895,0,0,1.1444283935546875,0,0,29.629687500000003
1.2695178530002522,0,0,1.5801730957031248,0,0,30.395312500000003
1.272433505000663,0,0,1.2401964599609374,0,0,30.165625000000002
1.275554192000527,0,0,1.0438719238281249,0,0,29.859375000000004
1.2785487689998263,0,0,1.5514426757812498,0,0,30.8546875
1.2817133630005628,0,0,1.7214309936523438,0,0,30.778125000000003
1.2848746409999876,0,0,1.1563994018554686,0,0,29.782812500000002
1.2878131820007184,0,0,1.5801730957031248,0,0,30.0890625
1.2907853699998668,0,0,1.6543933471679686,0,0,30.7015625
1.2936445410005035,0,0,1.1109095703125,0,0,30.012500000000003
1.2968789679998736,0,0,1.5155296508789062,0,0,30.548437500000002
1.2999234140006592,0,0,1.8507178833007811,0,0,30.8546875
1.303048212000249,0,0,1.5275006591796874,0,0,29.9359375
1.3061631950004085,0,0,1.4413093994140624,0,0,29.859375000000004
1.3092801040002087,0,0,1.4772224243164063,0,0,30.165625000000002
1.3122584220000135,0,0,0.7805097412109374,0,0,29.629687500000003
1.3151576670006762,0,0,1.7094599853515624,0,0,29.782812500000002
1.3174211230007131,0,0,1.9919757812499999,0,0,31.160937500000003
1.3198657240000102,0,0,1.6448165405273436,0,0,30.395312500000003
1.322316585000408,0,0,1.426944189453125,0,0,29.400000000000002
1.324814761000198,0,0,1.5634136840820312,0,0,30.165625000000002
1.3270957720005754,0,0,1.924938134765625,0,0,30.395312500000003
1.3294427450000512,0,0,0.7829039428710937,0,0,29.782812500000002
1.3318013850002899,0,0,0.8834604125976562,0,0,29.782812500000002
1.3341146180000578,0,0,1.9800047729492187,0,0,30.7015625
1.3364299800005028,0,0,2.152387292480469,0,0,30.7015625
1.3387501570005043,0,0,1.216254443359375,0,0,30.242187500000004
1.3410438529999738,0,0,1.2018892333984375,0,0,29.9359375
1.343691953000416,0,0,1.85790048828125,0,0,29.629687500000003
1.3473826520003058,0,0,0.7350199096679687,0,0,29.70625
1.349772958000358,0,0,0.6655880615234374,0,0,29.629687500000003
1.3521384310006397,0,0,2.2649147705078123,0,0,31.007812500000004
1.3547339380002086,0,0,1.4245499877929686,0,0,30.625000000000004
1.35728078000011,0,0,1.3766659545898436,0,0,29.9359375
1.359590587000639,0,0,2.138022082519531,0,0,30.31875
1.361814154000058,0,0,1.9033903198242186,0,0,30.395312500000003
1.3646416589999717,0,0,0.5506663818359374,0,0,29.553125
1.3670682420006415,0,0,1.1731588134765625,0,0,30.548437500000002
1.3693172910006979,0,0,2.099714855957031,0,0,30.7015625
1.3718648730000496,0,0,1.35990654296875,0,0,30.31875
1.374116216999937,0,0,1.0654197387695312,0,0,29.629687500000003
1.3765865040004428,0,0,2.2457611572265623,0,0,30.395312500000003
1.3790005880000535,0,0,1.388636962890625,0,0,30.242187500000004
1.3813138020004772,0,0,0.507570751953125,0,0,29.70625
1.3838212740001836,0,0,1.4101847778320311,0,0,30.548437500000002
1.3872487899998305,0,0,1.62805712890625,0,0,30.395312500000003
1.3903009220002787,0,0,1.618480322265625,0,0,30.0890625
1.3928749300002892,0,0,2.094926452636719,0,0,29.9359375
1.396153874000447,0,0,0.842758984375,0,0,30.0890625
1.398641327000405,0,0,1.3934253662109375,0,0,30.471875
1.4011711690000084,0,0,1.6639701538085936,0,0,30.625000000000004
1.4037375839998276,0,0,1.1013327636718748,0,0,29.782812500000002
1.4061556860006021,0,0,1.5011644409179687,0,0,29.782812500000002
1.4085369920003359,0,0,1.8339584716796873,0,0,30.165625000000002
1.4112031650001882,0,0,0.8571241943359375,0,0,29.782812500000002
1.4138874500004022,0,0,1.4963760375976562,0,0,30.7015625
1.4167762130000483,0,0,1.678335363769531,0,0,31.084375
1.419640884000728,0,0,1.5107412475585937,0,0,30.242187500000004
1.4225880170006349,0,0,2.2577321655273437,0,0,30.395312500000003
1.4254486879999604,0,0,0.9624690673828125,0,0,30.395312500000003
1.4284018770003968,0,0,1.3431471313476562,0,0,30.165625000000002
1.4314871750002567,0,0,1.3766659545898436,0,0,30.165625000000002
1.4344457340002918,0,0,1.1611878051757811,0,0,30.31875
1.4372365540002647,0,0,1.2689268798828124,0,0,29.859375000000004
1.4399374860004173,0,0,0.9217676391601562,0,0,30.165625000000002
1.4428409900001498,0,0,1.668758557128906,0,0,30.7015625
1.4457201610002812,0,0,1.24498486328125,0,0,30.31875
1.4483506310007215,0,0,1.7932570434570312,0,0,30.242187500000004
1.4510564520005573,0,0,1.7980454467773437,0,0,30.625000000000004
1.4536664410006779,0,0,1.3575123413085937,0,0,30.548437500000002
1.4568683490006151,0,0,1.8171990600585937,0,0,30.548437500000002
1.4596388730005856,0,0,1.1755530151367186,0,0,29.476562500000004
1.4623288980001234,0,0,1.6424223388671875,0,0,29.553125
1.465129588000309,0,0,1.216254443359375,0,0,29.9359375
1.467926353000621,0,0,0.718260498046875,0,0,30.548437500000002
1.4712933139999222,0,0,1.5705962890624998,0,0,30.31875
1.4740349680005238,0,0,1.5370774658203123,0,0,30.7015625
1.4769655830004922,0,0,1.9823989746093749,0,0,30.242187500000004
1.4799368270005289,0,0,1.5298948608398437,0,0,29.9359375
1.4827719980003167,0,0,1.3934253662109375,0,0,30.0890625
1.4857004460000098,0,0,1.235408056640625,0,0,31.160937500000003
1.488380120000329,0,0,1.608903515625,0,0,29.782812500000002
1.4910277380004118,0,0,1.3718775512695311,0,0,29.70625
1.4938197609999406,0,0,1.1348515869140625,0,0,30.548437500000002
1.4966787290004504,0,0,1.7836802368164062,0,0,30.548437500000002
1.499560066000413,0,0,1.1228805786132812,0,0,30.242187500000004
1.5022507390003739,0,0,1.8267758666992187,0,0,30.012500000000003
1.5050295600003665,0,0,1.7549498168945312,0,0,30.242187500000004
1.508210190000682,0,0,1.3814543579101561,0,0,30.0890625
1.5109610110002905,0,0,1.4173673828125,0,0,30.012500000000003
1.513593944000604,0,0,1.6639701538085936,0,0,30.165625000000002
1.5164906509999128,0,0,0.7996633544921875,0,0,29.629687500000003
1.5197035780001897,0,0,1.3383587280273437,0,0,30.625000000000004
1.5227174510000623,0,0,1.4125789794921875,0,0,29.9359375
1.525636566000685,0,0,1.5801730957031248,0,0,30.012500000000003
1.5292108950006877,0,0,1.6424223388671875,0,0,30.471875
1.532329192999896,0,0,1.2401964599609374,0,0,29.9359375
1.5353338630002327,0,0,1.3575123413085937,0,0,29.553125
1.5382391630000711,0,0,1.6160861206054686,0,0,29.9359375
1.5418464920003316,0,0,0.59376201171875,0,0,30.31875
1.544910216000062,0,0,1.5394716674804687,0,0,30.931250000000002
1.5479070900000806,0,0,1.4939818359375,0,0,30.242187500000004
1.550813890000427,0,0,1.9991583862304687,0,0,30.8546875
1.5539230949998455,0,0,1.8339584716796873,0,0,30.8546875
1.557511462000548,0,0,1.2473790649414063,0,0,29.400000000000002
1.5606697780003742,0,0,1.7645266235351562,0,0,29.782812500000002
1.563689132000036,0,0,1.2569558715820313,0,0,30.012500000000003
1.5666192839998985,0,0,1.024718310546875,0,0,31.007812500000004
1.569530047000626,0,0,1.5897499023437498,0,0,30.778125000000003
1.5724982910005565,0,0,1.5490484741210937,0,0,30.8546875
1.5754535910000413,0,0,1.7310078002929687,0,0,30.31875
1.5784164830001828,0,0,2.1068974609374997,0,0,31.6203125
1.5813304310004241,0,0,1.0438719238281249,0,0,29.629687500000003
1.5845248209998317,0,0,1.6807295654296874,0,0,29.9359375
1.5875518050006576,0,0,0.7541735229492187,0,0,30.242187500000004
1.5906786209998245,0,0,1.484405029296875,0,0,31.160937500000003
1.5936025320006593,0,0,1.350329736328125,0,0,30.471875
1.5968825320005635,0,0,1.7717092285156248,0,0,30.395312500000003
1.5998642940003265,0,0,1.6831237670898436,0,0,30.7015625
1.6034536790002676,0,0,1.2880804931640624,0,0,29.9359375
1.6068180299998858,0,0,1.1563994018554686,0,0,29.70625
1.6101818060005826,0,0,1.0702081420898437,0,0,30.548437500000002
1.6134648800007199,0,0,1.407790576171875,0,0,30.31875
1.6165412890004518,0,0,1.6160861206054686,0,0,29.859375000000004
1.6193485540006805,0,0,2.080561242675781,0,0,31.696875000000002
1.622063597000306,0,0,1.9608511596679685,0,0,30.242187500000004
1.6252936710006907,0,0,0.8355763793945312,0,0,-9.8
1.6282043970004452,0,0,1.13006318359375,0,0,30.0890625
1.63139641700036,0,0,1.2593500732421874,0,0,30.471875
1.6341195710001557,0,0,1.668758557128906,0,0,31.007812500000004
1.6368848729998717,0,0,1.2617442749023438,0,0,29.70625
1.6399165789998733,0,0,1.924938134765625,0,0,30.395312500000003
1.6425372160001643,0,0,2.0925322509765625,0,0,30.165625000000002
1.645384183000715,0,0,0.7589619262695312,0,0,-823.4296875000001
1.6490623630006667,0,0,0.9959878906249999,0,0,-0.45937500000000003
1.6518640350004716,0,0,0.7685387329101562,0,0,31.314062500000002
1.6548832230000698,0,0,1.4341267944335936,0,0,30.778125000000003
1.657633655000609,0,0,1.7812860351562498,0,0,30.548437500000002
1.6606594720005887,0,0,1.8698714965820311,0,0,30.395312500000003
1.6634899210002914,0,0,1.9704279663085937,0,0,30.242187500000004
1.6662930930006041,0,0,0.7996633544921875,0,0,-9.8
1.6691843380003775,0,0,0.6943184814453125,0,0,862.246875
1.6719939909999084,0,0,0.8451531860351562,0,0,30.8546875
1.674740477999876,0,0,1.3766659545898436,0,0,30.548437500000002
1.6774872060004782,0,0,1.5083470458984374,0,0,29.9359375
1.6802838780004095,0,0,2.085349645996094,0,0,30.395312500000003
1.6830730320007206,0,0,2.3247698120117186,0,0,31.007812500000004
1.685909055000593,0,0,1.2521674682617188,0,0,29.859375000000004
1.6886208200003239,0,0,1.1180921752929687,0,0,29.70625
1.6914762690003045,0,0,1.2282254516601563,0,0,30.625000000000004
1.6941068500000256,0,0,1.4341267944335936,0,0,30.931250000000002
1.696707969000272,0,0,0.9648632690429687,0,0,30.012500000000003
1.6994697710006221,0,0,2.138022082519531,0,0,30.548437500000002
1.7022668870004054,0,0,2.4851813232421875,0,0,31.084375
1.7050565959998494,0,0,1.407790576171875,0,0,29.782812500000002
1.7078846750000594,0,0,1.1061211669921875,0,0,29.476562500000004
1.710666754000158,0,0,1.3670891479492187,0,0,30.625000000000004
1.713486407000346,0,0,1.1156979736328125,0,0,30.471875
1.7164104849998694,0,0,1.0223241088867188,0,0,30.165625000000002
1.7193801550001808,0,0,1.9871873779296874,0,0,31.6203125
1.722299269999894,0,0,2.0638018310546875,0,0,30.625000000000004
1.7253952900000513,0,0,0.8044517578125,0,0,-0.3828125
1.7284099600001355,0,0,1.0223241088867188,0,0,30.31875
1.7314281290000508,0,0,1.678335363769531,0,0,30.7015625
1.7346436660000109,0,0,0.6536170532226562,0,0,30.471875
1.7377822970001944,0,0,1.7501614135742187,0,0,31.007812500000004
1.740714042000036,0,0,2.1978771240234374,0,0,30.548437500000002
1.7439250050001647,0,0,0.9648632690429687,0,0,29.400000000000002
1.7476061300003494,0,0,1.3072341064453123,0,0,30.548437500000002
1.7506089100006648,0,0,1.458068811035156,0,0,30.548437500000002
1.7540861670004233,0,0,0.8762778076171874,0,0,30.165625000000002
1.7572426500000802,0,0,2.35589443359375,0,0,31.007812500000004
1.7602429859998665,0,0,1.6927005737304686,0,0,29.9359375
1.7634470980001424,0,0,0.8307879760742187,0,0,-0.5359375000000001
1.767037631000676,0,0,1.936909143066406,0,0,31.4671875
1.7702837790002377,0,0,0.8714894042968749,0,0,29.782812500000002
1.7733174670001972,0,0,1.9393033447265624,0,0,31.314062500000002
1.7766738360005547,0,0,2.4851813232421875,0,0,31.6203125
1.7796545239998522,0,0,0.7709329345703124,0,0,31.390625000000004
1.7827215080005772,0,0,0.82360537109375,0,0,30.012500000000003
1.7864134290002767,0,0,1.0726023437499999,0,0,31.007812500000004
1.789507782000328,0,0,0.34237083740234375,0,0,30.242187500000004
1.7924519340003826,0,0,2.8012159423828122,0,0,31.314062500000002
1.7954131960004815,0,0,2.2457611572265623,0,0,30.012500000000003
1.7987903620005454,0,0,0.3232172241210937,0,0,38.740625
1.8018022900005235,0,0,2.2290017456054687,0,0,31.390625000000004
1.8047574230004102,0,0,1.0175357055664063,0,0,30.0890625
1.8077087970004868,0,0,0.3950432739257812,0,0,29.859375000000004
1.8111685540006874,0,0,2.6695348510742187,0,0,30.8546875
1.8142709820003802,0,0,0.565031591796875,0,0,29.400000000000002
1.8172117069998421,0,0,0.5051765502929687,0,0,30.0890625
1.8199689910006782,0,0,1.9919757812499999,0,0,30.931250000000002
1.8230870289999075,0,0,0.8379705810546875,0,0,30.31875
1.8259053310002855,0,0,1.6352397338867186,0,0,30.625000000000004
1.82852298600028,0,0,2.3343466186523436,0,0,31.160937500000003
1.831268418000036,0,0,1.1923124267578125,0,0,-0.153125
1.8338887030004116,0,0,0.08858546142578125,0,0,29.782812500000002
1.8367349480004123,0,0,2.099714855957031,0,0,30.8546875
1.83948519400019,0,0,0.9696516723632812,0,0,30.471875
1.8423364400005084,0,0,1.8435352783203125,0,0,30.778125000000003
1.8452407400000084,0,0,2.2744915771484373,0,0,30.395312500000003
1.8480770040005154,0,0,0.6775590698242188,0,0,-0.153125
1.8507704180001383,0,0,0.6296750366210937,0,0,29.9359375
1.8540900650004914,0,0,1.7190367919921874,0,0,31.160937500000003
1.856871885000146,0,0,0.9504980590820312,0,0,30.31875
1.8599077400003807,0,0,2.748543505859375,0,0,30.242187500000004
1.8625911350000024,0,0,2.142810485839844,0,0,30.548437500000002
1.8653007339999021,0,0,0.22505495605468748,0,0,29.553125
1.8683619029998226,0,0,1.2282254516601563,0,0,30.548437500000002
1.8716504760004682,0,0,1.218648645019531,0,0,30.548437500000002
1.8752010839998547,0,0,1.5131354492187499,0,0,30.625000000000004
1.8780605700003434,0,0,2.1930887207031247,0,0,29.476562500000004
1.8808573900005285,0,0,1.1133037719726562,0,0,29.400000000000002
1.883919947999857,0,0,1.1133037719726562,0,0,30.778125000000003
1.8868123030006245,0,0,1.3359645263671873,0,0,30.778125000000003
1.8895945130007021,0,0,0.9528922607421875,0,0,30.31875
1.892389407000337,0,0,2.212242333984375,0,0,30.7015625
1.8965016190004462,0,0,0.48123453369140623,0,0,-0.9953125
1.899547418000111,0,0,1.6112977172851561,0,0,31.2375
1.9024144410004737,0,0,1.5227122558593749,0,0,30.625000000000004
1.9050996320002014,0,0,0.59376201171875,0,0,30.0890625
1.907970433000628,0,0,2.5330653564453125,0,0,30.471875
1.910642569000629,0,0,1.7429788085937499,0,0,29.553125
1.9134266300006857,0,0,-0.14604630126953125,0,0,29.553125
1.916066600000704,0,0,1.6041151123046875,0,0,30.931250000000002
1.9189356040005805,0,0,1.4053963745117186,0,0,31.2375
1.9214062239998384,0,0,1.0893617553710937,0,0,30.012500000000003
1.9239245839999057,0,0,2.5953145996093747,0,0,30.012500000000003
1.926312575999873,0,0,1.8507178833007811,0,0,-9.5703125
1.928804696000043,0,0,0.20829554443359374,0,0,38.3578125
1.9316357930001686,0,0,1.4437036010742186,0,0,30.7015625
1.934194153000135,0,0,1.5466542724609373,0,0,31.2375
1.937218914999903,0,0,0.8379705810546875,0,0,30.7015625
1.9404076190003252,0,0,2.2266075439453124,0,0,31.007812500000004
1.9429833860003782,0,0,2.2481553588867187,0,0,29.859375000000004
1.945534041999963,0,0,0.3136404174804687,0,0,29.476562500000004
1.9483921950004515,0,0,1.199495031738281,0,0,30.548437500000002
1.9509367210002893,0,0,0.8978256225585937,0,0,30.8546875
1.953783967000163,0,0,1.3215993164062498,0,0,30.548437500000002
1.9569916340005875,0,0,2.4349030883789062,0,0,31.390625000000004
1.9594257360004121,0,0,1.209071838378906,0,0,29.9359375
1.9618241530006344,0,0,0.28730419921875,0,0,30.471875
1.964323828000488,0,0,1.5346832641601562,0,0,30.471875
1.9667367629999717,0,0,1.2210428466796874,0,0,30.242187500000004
1.969219031000648,0,0,0.49320554199218747,0,0,30.548437500000002
1.9721735160001117,0,0,2.4253262817382812,0,0,31.160937500000003
1.9747000430006665,0,0,2.1116858642578125,0,0,29.629687500000003
1.977116181999918,0,0,0.5123591552734374,0,0,29.400000000000002
1.9796195980006814,0,0,1.8435352783203125,0,0,30.931250000000002
1.982042755999828,0,0,1.4987702392578124,0,0,30.548437500000002
1.9845439119999355,0,0,1.0438719238281249,0,0,30.471875
1.9871821970000383,0,0,1.956062756347656,0,0,31.084375
1.9896361139999499,0,0,1.93451494140625,0,0,30.31875
1.992051086000174,0,0,1.1827356201171875,0,0,29.476562500000004
1.994537446999857,0,0,0.9361328491210937,0,0,29.476562500000004
1.9970217520003644,0,0,1.7357962036132812,0,0,30.7015625
1.9994957050002995,0,0,0.7805097412109374,0,0,30.625000000000004
2.002005306000683,0,0,0.9337386474609375,0,0,30.548437500000002
2.0044204639998497,0,0,2.2481553588867187,0,0,30.625000000000004
2.0069250650003596,0,0,1.9201497314453124,0,0,29.859375000000004
2.009318371000518,0,0,0.5817910034179687,0,0,29.476562500000004
2.012014377000014,0,0,1.6711527587890624,0,0,30.625000000000004
2.0145962550004697,0,0,0.7517793212890624,0,0,30.471875
2.0172256700006983,0,0,0.7254431030273437,0,0,30.471875
2.0198805290001474,0,0,2.906560815429687,0,0,30.7015625
2.0226992369998698,0,0,2.1021090576171875,0,0,29.9359375
2.02543316900028,0,0,0.3016694091796875,0,0,30.012500000000003
2.0282403589999376,0,0,1.8004396484374998,0,0,30.242187500000004
2.0309912540005826,0,0,1.0342951171875,0,0,29.859375000000004
2.0338141290003477,0,0,0.8451531860351562,0,0,29.9359375
2.036541135000334,0,0,2.1811177124023438,0,0,31.6203125
2.039367676999973,0,0,1.5514426757812498,0,0,30.471875
2.042128664000302,0,0,0.38307226562499996,0,0,30.242187500000004
2.0447865780006396,0,0,1.4413093994140624,0,0,31.85
2.0475779349999357,0,0,0.8643067993164062,0,0,29.476562500000004
2.050440994999917,0,0,1.4963760375976562,0,0,31.6203125
2.053277443999832,0,0,2.2553379638671873,0,0,30.931250000000002
2.055933358999937,0,0,1.1468225952148436,0,0,29.476562500000004
2.0587217530001,0,0,1.1707646118164061,0,0,30.471875
2.0614818690000902,0,0,1.8100164550781248,0,0,30.7015625
2.064218135000374,0,0,1.2114660400390624,0,0,30.165625000000002
2.0668824560007124,0,0,1.0797849487304687,0,0,30.778125000000003
2.06959914700019,0,0,2.4133552734375,0,0,30.548437500000002
2.0723415980000937,0,0,0.7781155395507812,0,0,-0.6890625
2.0751096029998735,0,0,0.8283937744140625,0,0,30.548437500000002
2.077728035999826,0,0,1.5298948608398437,0,0,30.778125000000003
2.0804522830003407,0,0,1.2832920898437499,0,0,30.165625000000002
2.0830838460005907,0,0,1.4173673828125,0,0,31.007812500000004
2.086094070999934,0,0,2.059013427734375,0,0,29.782812500000002
2.0887647810004637,0,0,0.5674257934570313,0,0,-0.6125
2.0917026360002637,0,0,1.6807295654296874,0,0,30.471875
2.0944613830006347,0,0,1.4508862060546874,0,0,30.7015625
2.097663217000445,0,0,0.689530078125,0,0,30.395312500000003
2.100462387999869,0,0,2.5330653564453125,0,0,31.543750000000003
2.1036676479998278,0,0,1.350329736328125,0,0,-0.0765625
2.106742390999898,0,0,0.7254431030273437,0,0,29.9359375
2.1097714679999626,0,0,1.7262193969726563,0,0,30.778125000000003
2.1125861390000864,0,0,0.35673604736328124,0,0,30.012500000000003
2.1156840480007304,0,0,2.35589443359375,0,0,30.8546875
2.1185847560000184,0,0,2.403778466796875,0,0,30.931250000000002
2.1213982429999305,0,0,0.12689268798828124,0,0,29.9359375
2.1244612450000204,0,0,1.7956512451171873,0,0,30.012500000000003
2.127420618000542,0,0,1.0079588989257813,0,0,30.242187500000004
2.1302460309998423,0,0,0.5195417602539062,0,0,31.160937500000003
2.1329962220006564,0,0,1.6017209106445311,0,0,31.2375
2.1356002850006917,0,0,1.3742717529296875,0,0,29.629687500000003
2.1388289880005686,0,0,1.3455413330078123,0,0,30.931250000000002
2.1415407720005533,0,0,1.9201497314453124,0,0,30.931250000000002
2.1443005740002263,0,0,0.7948749511718749,0,0,38.8171875
2.146990951000589,0,0,1.0989385620117187,0,0,30.548437500000002
2.1500096019999546,0,0,2.437297290039062,0,0,30.471875
2.1527523109998583,0,0,0.18914193115234373,0,0,-0.30625
2.1555447800001275,0,0,2.020706201171875,0,0,30.931250000000002
2.1582051750001483,0,0,2.221819140625,0,0,31.314062500000002
2.161097883000366,0,0,0.6607996582031249,0,0,30.012500000000003
2.1638145189999705,0,0,1.7310078002929687,0,0,30.0890625
2.1664981730000363,0,0,2.142810485839844,0,0,29.859375000000004
2.1691665870002907,0,0,0.7445967163085937,0,0,29.859375000000004
2.172654288000558,0,0,1.5849614990234373,0,0,30.012500000000003
2.1754026460002933,0,0,1.0678139404296874,0,0,30.625000000000004
2.1780522819999533,0,0,0.9337386474609375,0,0,31.314062500000002
2.180747510999936,0,0,2.3319524169921872,0,0,31.007812500000004
2.1834972579999885,0,0,1.0295067138671874,0,0,31.2375
2.1862298000005467,0,0,-0.1197100830078125,0,0,30.0890625
2.189097860000402,0,0,2.0350714111328125,0,0,30.395312500000003
2.192001531000642,0,0,1.0295067138671874,0,0,29.9359375
2.195008071000302,0,0,1.0917559570312498,0,0,30.625000000000004
2.1978114280000227,0,0,2.3678654418945313,0,0,30.165625000000002
2.2004258240003765,0,0,1.0414777221679687,0,0,29.400000000000002
2.203499844000362,0,0,1.707065783691406,0,0,30.548437500000002
2.2064972180005498,0,0,1.388636962890625,0,0,30.0890625
2.209428832999947,0,0,0.9696516723632812,0,0,30.31875
2.2121353390002696,0,0,2.2026655273437497,0,0,30.625000000000004
2.2153630060001888,0,0,1.4173673828125,0,0,30.395312500000003
2.2180164199999126,0,0,0.040701428222656245,0,0,31.007812500000004
2.220741593000639,0,0,2.0829554443359375,0,0,30.395312500000003
2.223254601000008,0,0,1.6160861206054686,0,0,30.012500000000003
2.2257714060006037,0,0,0.8738836059570312,0,0,30.0890625
2.2281868410000243,0,0,2.0183119995117185,0,0,30.0890625
2.231142178000482,0,0,1.8339584716796873,0,0,30.31875
2.233827666000252,0,0,-0.11731588134765625,0,0,30.165625000000002
2.2368685940000432,0,0,1.697488977050781,0,0,30.165625000000002
2.2393199739999545,0,0,1.608903515625,0,0,31.084375
2.2417222610001772,0,0,1.0630255371093749,0,0,30.012500000000003
2.2443278790005934,0,0,2.3965958618164063,0,0,30.0890625
2.2467852030003996,0,0,1.8842367065429686,0,0,31.4671875
2.2493495819999225,0,0,0.3232172241210937,0,0,38.8171875
2.2518415900003674,0,0,1.484405029296875,0,0,31.4671875
2.2545114670001567,0,0,1.7956512451171873,0,0,31.084375
2.2572054740003296,0,0,0.6440402465820312,0,0,30.395312500000003
2.259660796999924,0,0,2.2864625854492187,0,0,-8.421875
2.2620491960005893,0,0,2.070984436035156,0,0,29.629687500000003
2.2645531680000204,0,0,0.63206923828125,0,0,-1.0718750000000001
2.2672691000007035,0,0,0.6607996582031249,0,0,30.165625000000002
2.269727831000637,0,0,1.4772224243164063,0,0,30.778125000000003
2.272482428999865,0,0,0.6057330200195312,0,0,29.629687500000003
2.2750049000005674,0,0,1.37906015625,0,0,31.314062500000002
2.2775247420004234,0,0,2.3151930053710936,0,0,31.007812500000004
2.2800773240005583,0,0,1.22583125,0,0,29.400000000000002
2.2825137959998756,0,0,0.7493851196289062,0,0,-9.5703125
2.2852987650003342,0,0,1.9728221679687499,0,0,31.2375
2.2882552680002846,0,0,1.0678139404296874,0,0,30.395312500000003
2.290747091999947,0,0,1.2569558715820313,0,0,30.625000000000004
2.2933392660006575,0,0,2.0254946044921875,0,0,31.084375
2.2958833480006433,0,0,1.139639990234375,0,0,-9.5703125
2.298421874000269,0,0,0.9816226806640624,0,0,29.859375000000004
2.3008462730003885,0,0,2.0087351928710935,0,0,30.165625000000002
2.3034084099999745,0,0,1.1468225952148436,0,0,30.625000000000004
2.305949436999981,0,0,0.6392518432617187,0,0,29.629687500000003
2.3083618350001416,0,0,2.205059729003906,0,0,30.548437500000002
2.310901269000169,0,0,1.915361328125,0,0,29.859375000000004
2.313336853000692,0,0,0.06703764648437499,0,0,38.510937500000004
2.3159051570000884,0,0,1.9776105712890624,0,0,31.160937500000003
2.3185297939999145,0,0,2.205059729003906,0,0,31.390625000000004
2.3212546140002814,0,0,0.6967126831054687,0,0,30.012500000000003
2.323924695000642,0,0,1.9776105712890624,0,0,29.859375000000004
2.3268006990001595,0,0,2.365471240234375,0,0,30.242187500000004
2.3295413530004225,0,0,0.15322890625,0,0,29.629687500000003
2.3322647850000067,0,0,0.9744400756835937,0,0,30.395312500000003
2.33490947700011,0,0,1.3239935180664062,0,0,30.0890625
2.3378314070005217,0,0,1.656787548828125,0,0,31.007812500000004
2.3405653390000225,0,0,2.3918074584960936,0,0,30.8546875
2.3435241390006922,0,0,1.0726023437499999,0,0,29.70625
2.346727842999826,0,0,0.8834604125976562,0,0,29.400000000000002
2.3497030130001804,0,0,1.5634136840820312,0,0,30.931250000000002
2.3530340860006618,0,0,0.41898529052734373,0,0,30.0890625
2.3560316070006593,0,0,2.403778466796875,0,0,30.395312500000003
2.359134627000458,0,0,2.3415292236328122,0,0,30.395312500000003
2.362080075000449,0,0,0.22744915771484372,0,0,29.553125
2.364883469000233,0,0,1.7788918334960937,0,0,30.625000000000004
2.36781132500073,0,0,0.7158662963867187,0,0,30.012500000000003
2.3725336790002984,0,0,2.7150246826171873,0,0,31.084375
2.3768165740002587,0,0,0.411802685546875,0,0,-0.153125
2.3808461019998504,0,0,1.8459294799804686,0,0,30.625000000000004
2.3840110480005023,0,0,0.9433154541015625,0,0,30.7015625
2.38686584900006,0,0,1.218648645019531,0,0,31.084375
2.389939647000574,0,0,2.5546131713867184,0,0,30.165625000000002
2.3937438070006465,0,0,0.2657563842773437,0,0,29.400000000000002
2.399093895000078,0,0,1.4341267944335936,0,0,30.242187500000004
2.403405957000359,0,0,2.3582886352539063,0,0,30.548437500000002
2.4062869980007235,0,0,2.2768857788085937,0,0,29.782812500000002
2.4091379649999,0,0,0.02154781494140625,0,0,30.012500000000003
2.4140009100001407,0,0,1.22583125,0,0,31.160937500000003
2.4170630230000825,0,0,0.7230489013671875,0,0,30.471875
2.4195341800004826,0,0,2.7581203125,0,0,31.160937500000003
2.422377165999933,0,0,2.887407202148437,0,0,29.859375000000004
2.42500819199995,0,0,0.5147533569335937,0,0,38.3578125
2.4278260669998417,0,0,1.3096283081054687,0,0,30.625000000000004
2.4306290170006832,0,0,0.9241618408203125,0,0,30.548437500000002
2.4331917839999733,0,0,0.21308394775390624,0,0,30.471875
2.4356458490001387,0,0,2.6288334228515624,0,0,30.931250000000002
2.4383758550002312,0,0,2.5665841796874997,0,0,30.471875
2.440808493000077,0,0,0.36631285400390623,0,0,-0.765625
2.443665405000502,0,0,1.4628572143554686,0,0,30.242187500000004
2.446175191999828,0,0,1.66636435546875,0,0,31.007812500000004
2.4488968639998347,0,0,0.08858546142578125,0,0,30.0890625
2.451664092000101,0,0,2.4516625,0,0,30.7015625
2.4542029340000227,0,0,2.9089550170898435,0,0,30.31875
2.4568563110005925,0,0,0.6392518432617187,0,0,38.740625
2.459463670000332,0,0,1.407790576171875,0,0,30.31875
2.4622170270004062,0,0,1.599326708984375,0,0,30.931250000000002
2.465005791999829,0,0,0.1580173095703125,0,0,-8.881250000000001
2.4678210190004393,0,0,1.8076222534179687,0,0,30.165625000000002
2.470496599999933,0,0,2.1978771240234374,0,0,30.471875
2.472933646000456,0,0,0.8451531860351562,0,0,-0.30625
2.4754620060002708,0,0,1.6807295654296874,0,0,29.629687500000003
2.477872571000262,0,0,1.62805712890625,0,0,31.084375
2.4804085980003947,0,0,1.1180921752929687,0,0,30.395312500000003
2.4828065150004477,0,0,1.0773907470703123,0,0,30.625000000000004
2.485578947000249,0,0,2.6384102294921874,0,0,30.31875
2.4880186410000533,0,0,1.2641384765625,0,0,29.70625
2.4906218890000673,0,0,0.7326257080078125,0,0,29.553125
2.493049712999891,0,0,1.5514426757812498,0,0,30.471875
2.4956642020006257,0,0,0.8786720092773437,0,0,30.625000000000004
2.498161896000056,0,0,0.852335791015625,0,0,30.471875
2.500631644999885,0,0,2.85388837890625,0,0,30.625000000000004
2.5031883199999356,0,0,1.707065783691406,0,0,30.31875
2.505636885000058,0,0,-0.06464344482421874,0,0,29.476562500000004
2.5083623720001924,0,0,1.7645266235351562,0,0,30.242187500000004
2.510878603000492,0,0,1.3335703247070312,0,0,30.7015625
2.5134781100005057,0,0,0.21308394775390624,0,0,30.012500000000003
2.516247690000455,0,0,2.3415292236328122,0,0,31.2375
2.5191742860006343,0,0,2.748543505859375,0,0,30.165625000000002
2.522158234000017,0,0,0.35673604736328124,0,0,-0.22968750000000002
2.5252671799999007,0,0,1.6352397338867186,0,0,30.7015625
2.528737048000039,0,0,0.033518823242187495,0,0,29.629687500000003
2.531727976000184,0,0,2.3487118286132813,0,0,30.8546875
2.535040568000113,0,0,2.3774422485351563,0,0,30.548437500000002
2.5381385520004187,0,0,0.1771709228515625,0,0,29.782812500000002
2.541577734999919,0,0,1.9321207397460936,0,0,31.160937500000003
2.544551330000104,0,0,0.023942016601562498,0,0,29.553125
2.5476863130006677,0,0,1.6927005737304686,0,0,30.242187500000004
2.5515632140004527,0,0,1.209071838378906,0,0,29.859375000000004
2.554751955000029,0,0,1.2282254516601563,0,0,30.165625000000002
2.5577324770001724,0,0,2.0302830078125,0,0,31.85
2.5606862390004608,0,0,0.5482721801757812,0,0,29.9359375
2.5638103520004734,0,0,2.2026655273437497,0,0,30.012500000000003
2.5668050770000264,0,0,1.8698714965820311,0,0,30.31875
2.569727692000015,0,0,-0.0383072265625,0,0,30.31875
2.572769028000039,0,0,2.0063409912109376,0,0,30.778125000000003
2.5758978439998828,0,0,0.9433154541015625,0,0,29.782812500000002
2.5788239220000833,0,0,1.6927005737304686,0,0,31.926562500000003
2.581755240000348,0,0,2.549824768066406,0,0,29.859375000000004
2.5848327610001434,0,0,0.086191259765625,0,0,38.970312500000006
2.5879541140002402,0,0,1.4125789794921875,0,0,31.084375
2.5908985430005487,0,0,1.369483349609375,0,0,30.625000000000004
2.5939253790002113,0,0,0.699106884765625,0,0,30.548437500000002
2.596991899999921,0,0,2.786850732421875,0,0,31.314062500000002
2.599988236000172,0,0,0.7996633544921875,0,0,-0.9953125
2.6029226290002043,0,0,1.0031704956054688,0,0,29.9359375
2.605917798000519,0,0,1.7645266235351562,0,0,30.7015625
2.609404777000236,0,0,0.06464344482421874,0,0,30.0890625
2.6123898539999573,0,0,2.3535002319335936,0,0,31.390625000000004
2.6154244680001284,0,0,1.9967641845703124,0,0,29.70625
2.618345470999884,0,0,0.30406361083984373,0,0,29.9359375
2.621411418000207,0,0,1.85790048828125,0,0,31.084375
2.6241340350006794,0,0,0.8834604125976562,0,0,38.8171875
2.6270928900003128,0,0,1.3431471313476562,0,0,30.625000000000004
2.6300035980002576,0,0,2.250549560546875,0,0,30.395312500000003
2.6329416389999096,0,0,-0.105344873046875,0,0,-0.6890625
2.6355874600003517,0,0,1.944091748046875,0,0,30.778125000000003
2.63839279900003,0,0,2.5067291381835934,0,0,31.314062500000002
2.6410485460000928,0,0,0.16519991455078123,0,0,29.782812500000002
2.6437858300005246,0,0,2.1739351074218747,0,0,29.9359375
2.6464654470000823,0,0,2.2170307373046874,0,0,29.9359375
2.6496147630005,0,0,-0.201112939453125,0,0,29.70625
2.6524949900003776,0,0,1.908178723144531,0,0,30.7015625
2.655165589000717,0,0,1.6424223388671875,0,0,30.625000000000004
2.657967168000141,0,0,0.842758984375,0,0,30.471875
2.6612003170002936,0,0,2.817975354003906,0,0,30.778125000000003
2.6641413940005805,0,0,1.0726023437499999,0,0,-0.765625
2.6668088820006233,0,0,0.603338818359375,0,0,29.859375000000004
2.6696034249998775,0,0,1.8842367065429686,0,0,31.696875000000002
2.6722560240004896,0,0,1.005564697265625,0,0,30.31875
2.675257120000424,0,0,1.4772224243164063,0,0,30.471875
2.6779494780003006,0,0,2.6288334228515624,0,0,29.782812500000002
2.6807313160006743,0,0,0.689530078125,0,0,38.6640625
2.683424988999832,0,0,0.5458779785156249,0,0,30.625000000000004
2.6862664939999377,0,0,1.2306196533203124,0,0,30.7015625
2.6889593710002373,0,0,0.47165772705078124,0,0,29.9359375
2.691936874000021,0,0,2.6527754394531247,0,0,30.7015625
2.6946365100002367,0,0,1.9488801513671874,0,0,30.165625000000002
2.69754579200071,0,0,-0.19632453613281248,0,0,29.400000000000002
2.7002380940002695,0,0,1.5490484741210937,0,0,30.625000000000004
2.702951600000233,0,0,1.4796166259765624,0,0,30.548437500000002
2.705693180000708,0,0,0.7398083129882812,0,0,30.471875
2.708440815999893,0,0,2.061407629394531,0,0,30.471875
2.711300542000572,0,0,2.1811177124023438,0,0,30.471875
2.71401236300062,0,0,0.19632453613281248,0,0,29.9359375
2.716993366000679,0,0,1.5131354492187499,0,0,30.471875
2.7196696139999403,0,0,1.0749965454101562,0,0,31.4671875
2.722334194000723,0,0,1.4341267944335936,0,0,31.084375
2.724768906999998,0,0,2.4396914916992185,0,0,30.548437500000002
2.727463617000467,0,0,0.9600748657226562,0,0,30.012500000000003
2.7299359230000846,0,0,-0.25139117431640623,0,0,29.9359375
2.7324943749999875,0,0,1.6160861206054686,0,0,32.615625
2.7353768980001405,0,0,1.3862427612304686,0,0,30.242187500000004
2.7379930900006,0,0,0.9816226806640624,0,0,31.160937500000003
2.7406217819998346,0,0,2.710236279296875,0,0,31.390625000000004
2.7430185140001413,0,0,2.422932080078125,0,0,29.9359375
2.7455701150001914,0,0,-0.3280056274414062,0,0,-0.153125
2.748240048000298,0,0,1.2521674682617188,0,0,30.931250000000002
2.750828296000691,0,0,1.189918225097656,0,0,30.931250000000002
2.753432359000726,0,0,0.22505495605468748,0,0,29.859375000000004
2.755918200999986,0,0,2.913743420410156,0,0,30.395312500000003
2.758318228999997,0,0,2.6695348510742187,0,0,30.165625000000002
2.761280769000223,0,0,0.22744915771484372,0,0,-0.153125
2.763762704000328,0,0,1.5538368774414062,0,0,30.778125000000003
2.7662876379999943,0,0,1.5346832641601562,0,0,31.543750000000003
2.768701629000134,0,0,0.17477672119140625,0,0,30.395312500000003
2.7712111560003905,0,0,1.8363526733398436,0,0,31.007812500000004
2.7737839790006547,0,0,2.849099975585937,0,0,29.859375000000004
2.7764558369999577,0,0,1.1013327636718748,0,0,-0.9953125
2.7788899020006284,0,0,1.139639990234375,0,0,30.012500000000003
2.781360095999844,0,0,1.5442600708007812,0,0,31.390625000000004
2.7839733810005782,0,0,0.4860229370117187,0,0,29.9359375
2.786423612999897,0,0,0.6847416748046875,0,0,30.395312500000003
2.788946751000367,0,0,2.844311572265625,0,0,31.2375
2.7913941670003624,0,0,2.3726538452148436,0,0,30.165625000000002
2.793897305000428,0,0,-0.38786066894531246,0,0,29.629687500000003
2.7964415910000753,0,0,1.5466542724609373,0,0,30.471875
2.7990751910001563,0,0,1.4125789794921875,0,0,31.007812500000004
2.8014938670003176,0,0,0.6919242797851562,0,0,30.548437500000002
2.804166670000086,0,0,2.6144682128906247,0,0,30.0890625
2.806688382000175,0,0,2.2481553588867187,0,0,30.012500000000003
2.8098659940005746,0,0,0.0526724365234375,0,0,29.476562500000004
2.812537593000343,0,0,1.8052280517578123,0,0,30.7015625
2.8150848599998426,0,0,0.7900865478515624,0,0,30.778125000000003
2.8175294620004934,0,0,1.0271125122070313,0,0,30.395312500000003
2.8202348200002234,0,0,3.1411925781249996,0,0,30.625000000000004
2.823439580000013,0,0,2.243366955566406,0,0,-9.5703125
2.8262180480005554,0,0,-0.3280056274414062,0,0,29.782812500000002
2.829070108000451,0,0,1.6903063720703124,0,0,31.6203125
2.8323832740006765,0,0,0.5315127685546874,0,0,30.012500000000003
2.835169317000691,0,0,1.9847931762695312,0,0,31.084375
2.837862934000441,0,0,2.96881005859375,0,0,29.9359375
2.8407540490006795,0,0,0.239420166015625,0,0,-0.6125
2.843615054000111,0,0,1.5011644409179687,0,0,30.778125000000003
2.846433929000341,0,0,0.9816226806640624,0,0,30.31875
2.8492403600002945,0,0,0.0143652099609375,0,0,30.012500000000003
2.8518890889999966,0,0,3.0597897216796874,0,0,31.160937500000003
2.854716390000249,0,0,2.2960393920898436,0,0,30.8546875
2.857518951000202,0,0,0.1197100830078125,0,0,29.629687500000003
2.8603199010003664,0,0,2.099714855957031,0,0,30.471875
2.8629864630001975,0,0,1.2234370483398436,0,0,30.0890625
2.8657290060000378,0,0,0.2059013427734375,0,0,30.471875
2.8685021960000086,0,0,2.5761609863281247,0,0,31.543750000000003
2.871332200999859,0,0,2.461239306640625,0,0,30.395312500000003
2.8739771890004704,0,0,0.2609679809570312,0,0,29.70625
2.8769292300003144,0,0,1.7310078002929687,0,0,30.242187500000004
2.879715402000329,0,0,0.6847416748046875,0,0,-9.8
2.882939513000565,0,0,1.0797849487304687,0,0,30.8546875
2.8858235920006337,0,0,2.5474305664062498,0,0,31.007812500000004
2.8886518369999976,0,0,0.2059013427734375,0,0,-0.9953125
2.8914872860004834,0,0,0.70868369140625,0,0,31.2375
2.8944932150006935,0,0,1.4173673828125,0,0,31.2375
2.8971977580004022,0,0,0.076614453125,0,0,29.400000000000002
2.9003749809999135,0,0,2.2074539306640624,0,0,31.160937500000003
2.9033269110004767,0,0,2.3295582153320313,0,0,29.859375000000004
2.9060666020004646,0,0,-0.00718260498046875,0,0,29.400000000000002
2.908683442000438,0,0,1.8698714965820311,0,0,31.084375
2.9114287810007227,0,0,1.3192051147460937,0,0,30.7015625
2.9144584140003644,0,0,0.24181436767578124,0,0,29.629687500000003
2.9172852700003205,0,0,2.6384102294921874,0,0,31.2375
2.9198251120005807,0,0,2.090138049316406,0,0,29.782812500000002
2.9223482679999506,0,0,0.3399766357421875,0,0,-1.53125
2.9253966040005253,0,0,1.7166425903320313,0,0,31.390625000000004
2.9281827200002226,0,0,1.024718310546875,0,0,31.084375
2.9306030080006167,0,0,0.10295067138671875,0,0,30.165625000000002
2.9332205890004843,0,0,1.7381904052734374,0,0,31.2375
2.935711949000506,0,0,2.3965958618164063,0,0,31.773437500000004
2.9383941040005084,0,0,1.1109095703125,0,0,29.629687500000003
2.9409707600007096,0,0,0.47884033203125,0,0,29.553125
2.943618932999925,0,0,2.2098481323242187,0,0,31.160937500000003
2.9460324800002127,0,0,0.45489831542968745,0,0,29.629687500000003
2.948540803000469,0,0,0.34237083740234375,0,0,29.859375000000004
2.9516952670001046,0,0,2.980781066894531,0,0,31.007812500000004
2.9541142770003717,0,0,1.5801730957031248,0,0,30.242187500000004
2.956735636000303,0,0,0.46208092041015625,0,0,-0.8421875000000001
2.959592103000432,0,0,2.427720483398437,0,0,30.931250000000002
2.9623693120001917,0,0,1.4245499877929686,0,0,30.548437500000002
2.9648585800005094,0,0,0.33039982910156246,0,0,30.165625000000002
2.9677131770004053,0,0,2.3343466186523436,0,0,31.773437500000004
2.970407573000557,0,0,2.597708801269531,0,0,31.007812500000004
2.972947154999929,0,0,0.6009446166992187,0,0,-0.30625
2.975465811000504,0,0,0.33039982910156246,0,0,29.782812500000002
2.977995670999917,0,0,2.281674182128906,0,0,31.543750000000003
2.98056755000016,0,0,0.3495534423828125,0,0,30.548437500000002
2.983060094999928,0,0,0.5458779785156249,0,0,30.012500000000003
2.9858395820001533,0,0,2.2361843505859373,0,0,32.079687500000006
2.988319517000491,0,0,2.5234885498046875,0,0,30.7015625
2.9909884680000687,0,0,0.74699091796875,0,0,29.400000000000002
2.9934330510004656,0,0,0.5913678100585937,0,0,-0.30625
2.9958648199999516,0,0,1.9704279663085937,0,0,30.931250000000002
2.9984601050000492,0,0,1.6112977172851561,0,0,30.778125000000003
3.000926114000322,0,0,1.3479355346679687,0,0,29.859375000000004
3.0035516210000424,0,0,1.8315642700195311,0,0,30.548437500000002
3.006040758999916,0,0,2.5546131713867184,0,0,30.548437500000002
3.0084273430002213,0,0,1.1659762084960936,0,0,29.476562500000004
3.010947073999887,0,0,0.6919242797851562,0,0,30.012500000000003
3.01340762000018,0,0,0.6919242797851562,0,0,30.931250000000002
3.015956998000547,0,0,1.4101847778320311,0,0,31.390625000000004
3.018493729000511,0,0,0.3495534423828125,0,0,29.400000000000002
3.0211797720003233,0,0,1.3575123413085937,0,0,30.31875
3.0239237410005444,0,0,2.5378537597656248,0,0,30.548437500000002
3.0267995789999986,0,0,0.9409212524414062,0,0,29.400000000000002
3.0298746920007034,0,0,0.6871358764648438,0,0,29.9359375
3.0327623620005397,0,0,1.8148048583984373,0,0,30.7015625
3.035849753000548,0,0,1.1731588134765625,0,0,31.926562500000003
3.0388920700006565,0,0,1.0366893188476562,0,0,30.7015625
3.04202429399993,0,0,1.8938135131835936,0,0,30.778125000000003
3.0448744470004385,0,0,1.6639701538085936,0,0,29.9359375
3.047841931000221,0,0,0.6967126831054687,0,0,38.740625
3.0507111770002666,0,0,0.8475473876953125,0,0,29.859375000000004
3.053773308000018,0,0,1.8698714965820311,0,0,32.079687500000006
3.0567119050001565,0,0,0.8738836059570312,0,0,30.395312500000003
3.0598752570003853,0,0,1.6807295654296874,0,0,29.70625
3.0628474270006336,0,0,2.5665841796874997,0,0,30.395312500000003
3.065957429000264,0,0,0.5410895751953124,0,0,29.782812500000002
3.068828878000204,0,0,0.6823474731445313,0,0,29.70625
3.071836677000647,0,0,1.2473790649414063,0,0,30.242187500000004
3.0748228090005796,0,0,1.5298948608398437,0,0,30.778125000000003
3.077570889000526,0,0,1.2880804931640624,0,0,29.782812500000002
3.0802139150000585,0,0,2.138022082519531,0,0,30.012500000000003
3.0830821970002944,0,0,2.094926452636719,0,0,30.242187500000004
3.086108718000105,0,0,0.7948749511718749,0,0,29.400000000000002
3.0888747230001172,0,0,0.8714894042968749,0,0,30.242187500000004
3.0915080450004098,0,0,0.9983820922851562,0,0,30.471875
3.094237773000714,0,0,1.2713210815429687,0,0,31.084375
3.0972624800006088,0,0,1.3646949462890625,0,0,30.778125000000003
3.100055244000032,0,0,1.6711527587890624,0,0,30.7015625
3.1026796960004503,0,0,1.9991583862304687,0,0,31.084375
3.105575718000182,0,0,1.0007762939453124,0,0,30.012500000000003
3.1084997590005514,0,0,0.9552864624023437,0,0,29.400000000000002
3.111315912000464,0,0,0.833182177734375,0,0,29.629687500000003
3.1140090850003617,0,0,1.0127473022460938,0,0,30.31875
3.1168170350001674,0,0,1.5442600708007812,0,0,30.931250000000002
3.1206585099998847,0,0,1.5107412475585937,0,0,31.084375
3.12347277400022,0,0,1.5610194824218748,0,0,30.165625000000002
3.1261352990004525,0,0,2.0661960327148434,0,0,30.31875
3.128924415000256,0,0,0.63206923828125,0,0,29.70625
3.132342747000621,0,0,0.7900865478515624,0,0,29.70625
3.135164363000513,0,0,1.209071838378906,0,0,30.931250000000002
3.139120243999969,0,0,1.4891934326171874,0,0,31.007812500000004
3.1421808940003757,0,0,1.9776105712890624,0,0,30.395312500000003
3.144971233000433,0,0,1.5562310791015623,0,0,29.70625
3.1476981089999754,0,0,1.4724340209960938,0,0,30.0890625
3.1506386500004737,0,0,0.28730419921875,0,0,29.553125
3.154163850000259,0,0,1.139639990234375,0,0,30.471875
3.157078002000162,0,0,1.20667763671875,0,0,31.314062500000002
3.1597582869999314,0,0,1.7621324218749999,0,0,31.314062500000002
3.1625636799999484,0,0,1.3838485595703125,0,0,30.625000000000004
3.1652502800006914,0,0,1.8914193115234375,0,0,30.012500000000003
3.168569834000664,0,0,1.5634136840820312,0,0,31.007812500000004
3.1712524519998624,0,0,1.4604630126953124,0,0,30.7015625
3.173873200000344,0,0,0.47644613037109373,0,0,29.859375000000004
3.1768017590002273,0,0,1.465251416015625,0,0,30.395312500000003
3.17969230000017,0,0,1.197100830078125,0,0,31.007812500000004
3.182438806000391,0,0,1.7764976318359373,0,0,30.931250000000002
3.1850806460006424,0,0,0.9313444458007812,0,0,29.629687500000003
3.187814892999995,0,0,1.6639701538085936,0,0,30.31875
3.190639972000099,0,0,1.6831237670898436,0,0,30.778125000000003
3.193474143000458,0,0,1.4532804077148436,0,0,30.31875
3.196451331999924,0,0,0.7398083129882812,0,0,29.400000000000002
3.1991536900004576,0,0,1.5442600708007812,0,0,29.70625
3.202032582999891,0,0,1.0007762939453124,0,0,29.9359375
3.204802514000221,0,0,0.9337386474609375,0,0,31.007812500000004
3.2074442800003453,0,0,1.6304513305664061,0,0,30.471875
3.2102325450005083,0,0,1.1611878051757811,0,0,30.31875
3.212868515000082,0,0,1.9656395629882812,0,0,30.7015625
3.215688594000312,0,0,1.1875240234375,0,0,30.0890625
3.218340600999909,0,0,1.1731588134765625,0,0,29.9359375
3.2210688290006146,0,0,1.0486603271484374,0,0,29.476562500000004
3.223912074000509,0,0,1.7932570434570312,0,0,30.165625000000002
3.2267783200004487,0,0,0.9169792358398436,0,0,30.0890625
3.2293954380002106,0,0,0.8930372192382812,0,0,30.395312500000003
3.232215869000356,0,0,1.5753846923828123,0,0,30.625000000000004
3.234949764000703,0,0,1.350329736328125,0,0,30.165625000000002
3.237601363000067,0,0,1.8100164550781248,0,0,30.31875
3.241310598000382,0,0,1.2114660400390624,0,0,30.395312500000003
3.2446466900000814,0,0,1.455674609375,0,0,30.31875
3.2475554720003856,0,0,1.1947066284179686,0,0,30.242187500000004
3.250401236000471,0,0,1.3838485595703125,0,0,29.629687500000003
3.253510088999974,0,0,0.6177040283203125,0,0,29.400000000000002
3.256934550000551,0,0,1.697488977050781,0,0,30.548437500000002
3.2597994060006386,0,0,0.9050082275390624,0,0,29.553125
3.262854112000241,0,0,1.7501614135742187,0,0,30.165625000000002
3.265964336000252,0,0,1.3215993164062498,0,0,30.395312500000003
3.2688606370002162,0,0,1.1611878051757811,0,0,30.31875
3.271644309000294,0,0,1.3192051147460937,0,0,30.0890625
3.2743040750001455,0,0,1.1444283935546875,0,0,29.9359375
3.2770823210003073,0,0,1.47482822265625,0,0,30.242187500000004
3.279862993000279,0,0,0.7015010864257812,0,0,29.859375000000004
3.2826695530002326,0,0,1.4604630126953124,0,0,30.395312500000003
3.285344097000234,0,0,1.618480322265625,0,0,30.31875
3.288115416999972,0,0,1.3575123413085937,0,0,30.165625000000002
3.2909641630003534,0,0,2.142810485839844,0,0,30.395312500000003
3.293865944000572,0,0,0.9840168823242187,0,0,30.471875
3.2964818220007146,0,0,0.833182177734375,0,0,30.165625000000002
3.2992966600004365,0,0,2.0446482177734375,0,0,30.548437500000002
3.3023415520001436,0,0,1.0749965454101562,0,0,30.242187500000004
3.3051934820005044,0,0,1.4413093994140624,0,0,30.31875
3.307898044000467,0,0,0.6368576416015624,0,0,29.70625
3.310666475000289,0,0,1.5777788940429687,0,0,31.084375
3.313298890000624,0,0,1.5131354492187499,0,0,30.7015625
3.3162466520007,0,0,0.8786720092773437,0,0,38.740625
3.3192120080002496,0,0,2.3151930053710936,0,0,30.8546875
3.3221915660005834,0,0,1.5346832641601562,0,0,30.471875
3.3248235730006854,0,0,0.45489831542968745,0,0,30.31875
3.327795502000299,0,0,1.0079588989257813,0,0,30.31875
3.330591619000188,0,0,2.0781670410156248,0,0,30.471875
3.3334176240005036,0,0,1.9512743530273435,0,0,31.007812500000004
3.336206592000053,0,0,0.5243301635742187,0,0,29.400000000000002
3.338976153000658,0,0,0.6871358764648438,0,0,29.70625
3.341719732999991,0,0,2.7054478759765623,0,0,30.778125000000003
3.3443716470001164,0,0,1.1707646118164061,0,0,30.471875
3.347294077000697,0,0,0.8714894042968749,0,0,30.7015625
3.3501390999999785,0,0,3.1411925781249996,0,0,31.007812500000004
3.3529067910003505,0,0,0.622492431640625,0,0,29.629687500000003
3.3556624440007,0,0,1.16837041015625,0,0,30.31875
3.3585303560003013,0,0,1.8818425048828125,0,0,29.400000000000002
3.3614820080001664,0,0,0.5027823486328125,0,0,-0.153125
3.3642092170002798,0,0,1.4867992309570313,0,0,30.242187500000004
3.3668772800001534,0,0,1.5298948608398437,0,0,30.778125000000003
3.369777802000499,0,0,1.0175357055664063,0,0,29.400000000000002
3.3725254370001494,0,0,2.042254016113281,0,0,31.007812500000004
3.375279331999991,0,0,1.3407529296874998,0,0,31.314062500000002
3.3779165800006012,0,0,1.465251416015625,0,0,30.8546875
3.380710215000363,0,0,2.4947581298828125,0,0,31.390625000000004
3.3834287760000734,0,0,1.1348515869140625,0,0,30.31875
3.386166393000167,0,0,0.5363011718749999,0,0,29.400000000000002
3.388809492999826,0,0,2.2864625854492187,0,0,30.7015625
3.393230350000522,0,0,0.6200982299804687,0,0,29.400000000000002
3.3965505340001982,0,0,1.70467158203125,0,0,30.31875
3.3993440760004887,0,0,1.235408056640625,0,0,29.782812500000002
3.4021204520004176,0,0,0.5506663818359374,0,0,29.70625
3.4051171589999285,0,0,1.8842367065429686,0,0,31.084375
3.4078796270005114,0,0,1.1563994018554686,0,0,31.2375
3.4110156100005042,0,0,1.197100830078125,0,0,30.0890625
3.4140421680003783,0,0,2.042254016113281,0,0,30.012500000000003
3.41690267300055,0,0,1.0390835205078124,0,0,30.625000000000004
3.4201190070007215,0,0,0.7876923461914062,0,0,39.046875
3.422947863000445,0,0,1.9752163696289062,0,0,30.625000000000004
3.425681739000538,0,0,1.3646949462890625,0,0,30.0890625
3.4283216540006833,0,0,0.6727706665039062,0,0,29.859375000000004
3.431047549000141,0,0,1.5873557006835937,0,0,30.242187500000004
3.4337983140003416,0,0,1.7860744384765623,0,0,30.0890625
3.4366987990006237,0,0,0.9337386474609375,0,0,29.859375000000004
3.43936680600018,0,0,0.9026140258789062,0,0,30.012500000000003
3.442011091000495,0,0,1.8171990600585937,0,0,30.31875
3.4449809460002143,0,0,1.4867992309570313,0,0,-9.4171875
3.4478315800006385,0,0,1.37906015625,0,0,29.859375000000004
3.4505014010001105,0,0,1.6903063720703124,0,0,30.395312500000003
3.4531699260005553,0,0,1.4915876342773438,0,0,30.31875
3.4560581160003494,0,0,0.7924807495117187,0,0,29.629687500000003
3.4589715640004215,0,0,1.6256629272460936,0,0,30.31875
3.461634199999935,0,0,1.7645266235351562,0,0,30.395312500000003
3.464315818000614,0,0,1.1085153686523437,0,0,31.160937500000003
3.4672965059999115,0,0,1.3311761230468748,0,0,29.70625
3.470011512000383,0,0,1.7381904052734374,0,0,30.395312500000003
3.4727524630006883,0,0,0.9792284790039062,0,0,30.242187500000004
3.475410729000032,0,0,0.3495534423828125,0,0,-9.8
3.47846032400048,0,0,1.177947216796875,0,0,30.548437500000002
3.4812832170000547,0,0,1.8267758666992187,0,0,30.8546875
3.485128488000555,0,0,0.5291185668945312,0,0,29.629687500000003
3.4878987350002717,0,0,1.8195932617187498,0,0,29.859375000000004
3.490657907000241,0,0,1.6615759521484375,0,0,30.395312500000003
3.4934248380004647,0,0,1.0103531005859374,0,0,29.782812500000002
3.4961647890004315,0,0,0.6416460449218749,0,0,29.782812500000002
3.4990553670004374,0,0,1.8411410766601561,0,0,30.471875
3.5018820200002665,0,0,1.5298948608398437,0,0,30.625000000000004
3.5046408030002567,0,0,1.0414777221679687,0,0,30.0890625
3.507304940000722,0,0,1.0869675537109373,0,0,29.400000000000002
3.510010501000579,0,0,1.407790576171875,0,0,29.859375000000004
3.5126183230004244,0,0,1.4341267944335936,0,0,30.31875
3.515371569999843,0,0,1.0271125122070313,0,0,30.471875
3.518008762000136,0,0,1.254561669921875,0,0,29.70625
3.520805008000025,0,0,1.1875240234375,0,0,30.8546875
3.523729827000352,0,0,1.4820108276367188,0,0,30.395312500000003
3.526627682000253,0,0,1.6615759521484375,0,0,30.31875
3.5295317230002183,0,0,0.9648632690429687,0,0,29.629687500000003
3.532450116000291,0,0,1.3934253662109375,0,0,29.9359375
3.5353888420004296,0,0,1.2880804931640624,0,0,30.165625000000002
3.5385072879998916,0,0,0.9648632690429687,0,0,30.931250000000002
3.541527328000484,0,0,1.4053963745117186,0,0,30.012500000000003
3.544483646000117,0,0,1.7717092285156248,0,0,30.242187500000004
3.5474181680001493,0,0,1.3192051147460937,0,0,30.165625000000002
3.550992442000279,0,0,1.3359645263671873,0,0,30.165625000000002
3.554177349999918,0,0,1.7884686401367187,0,0,30.0890625
3.557101280000097,0,0,1.5059528442382812,0,0,30.165625000000002
3.5601893740004016,0,0,1.2114660400390624,0,0,29.629687500000003
3.5633723380005904,0,0,1.2976572998046874,0,0,30.471875
3.5663265640005193,0,0,1.2856862915039062,0,0,30.0890625
3.5692354560005697,0,0,1.2617442749023438,0,0,29.9359375
3.57213403500009,0,0,0.9433154541015625,0,0,30.012500000000003
3.575192944000264,0,0,1.6065093139648436,0,0,30.471875
3.578159873000004,0,0,1.2689268798828124,0,0,30.0890625
3.5810988950006504,0,0,1.2473790649414063,0,0,30.242187500000004
3.5840187880003214,0,0,1.6711527587890624,0,0,30.012500000000003
3.5871762340002533,0,0,0.8020575561523438,0,0,29.859375000000004
3.5904046040004687,0,0,1.2928688964843749,0,0,30.31875
3.5937176960005672,0,0,1.5179238525390624,0,0,30.012500000000003
3.5972894699998506,0,0,1.66636435546875,0,0,29.70625
3.600556396000684,0,0,1.1348515869140625,0,0,29.9359375
3.6045509800005675,0,0,1.2018892333984375,0,0,30.242187500000004
3.6077278510001634,0,0,1.4820108276367188,0,0,30.31875
3.6109792400002334,0,0,1.458068811035156,0,0,30.31875
3.6142038329999195,0,0,1.4101847778320311,0,0,29.782812500000002
3.6172657610004535,0,0,0.9361328491210937,0,0,29.859375000000004
3.620257135000429,0,0,0.9696516723632812,0,0,30.395312500000003
3.623447560999921,0,0,1.3048399047851562,0,0,30.395312500000003
3.626720023999951,0,0,1.446097802734375,0,0,30.242187500000004
3.6298032479999165,0,0,1.0869675537109373,0,0,29.782812500000002
3.6326615670004685,0,0,1.0869675537109373,0,0,-9.340625000000001
3.635791347000122,0,0,1.4125789794921875,0,0,30.395312500000003
3.6387813500004995,0,0,1.668758557128906,0,0,30.625000000000004
3.641890888000489,0,0,1.2641384765625,0,0,30.0890625
3.6449078720006582,0,0,1.4987702392578124,0,0,30.31875
3.6478497460002473,0,0,1.2713210815429687,0,0,29.859375000000004
3.6508685640001204,0,0,0.9050082275390624,0,0,30.8546875
3.6539095660000385,0,0,1.1540052001953125,0,0,30.31875
3.657015845999922,0,0,1.659181750488281,0,0,30.8546875
3.659899609000604,0,0,1.618480322265625,0,0,30.012500000000003
3.663181515999895,0,0,1.656787548828125,0,0,29.859375000000004
3.6664608310002222,0,0,1.3527239379882812,0,0,29.70625
3.6694551850005155,0,0,1.0606313354492187,0,0,30.242187500000004
3.6723749299999326,0,0,0.9864110839843749,0,0,30.31875
3.6754555620000247,0,0,1.4820108276367188,0,0,30.471875
3.6784267500006536,0,0,1.5370774658203123,0,0,30.31875
3.681418752999889,0,0,1.599326708984375,0,0,30.0890625
3.6843240719999812,0,0,1.3048399047851562,0,0,-9.5703125
3.6873914260004312,0,0,1.0366893188476562,0,0,30.548437500000002
3.690656518000651,0,0,1.1444283935546875,0,0,30.471875
3.6937084280007184,0,0,1.22583125,0,0,30.471875
3.6967968369999653,0,0,1.2808978881835937,0,0,30.012500000000003
3.7001839100003053,0,0,1.5873557006835937,0,0,-9.264062500000001
3.703520149000724,0,0,1.637633935546875,0,0,30.0890625
3.706555263000155,0,0,0.9983820922851562,0,0,30.242187500000004
3.709706485999959,0,0,1.2928688964843749,0,0,29.9359375
3.7127128970005288,0,0,1.3359645263671873,0,0,30.165625000000002
3.715757214000405,0,0,1.2282254516601563,0,0,30.012500000000003
3.7187280690004627,0,0,1.3431471313476562,0,0,29.9359375
3.7230947040006868,0,0,1.1109095703125,0,0,30.548437500000002
3.7270928249999997,0,0,1.438915197753906,0,0,29.9359375
3.730030996000096,0,0,1.2976572998046874,0,0,30.395312500000003
3.7328966850000143,0,0,1.2593500732421874,0,0,-9.264062500000001
3.735903335999865,0,0,1.1875240234375,0,0,30.012500000000003
3.738846358000046,0,0,1.1923124267578125,0,0,30.242187500000004
3.741732159000094,0,0,1.4508862060546874,0,0,30.012500000000003
3.744402498999989,0,0,1.2425906616210938,0,0,30.242187500000004
3.7470875240005626,0,0,1.2138602416992186,0,0,30.31875
3.7497020680002606,0,0,1.180341418457031,0,0,30.0890625
3.7524070740000752,0,0,1.2761094848632812,0,0,30.31875
3.755299152000589,0,0,1.2569558715820313,0,0,30.471875
3.75810491700031,0,0,1.3623007446289062,0,0,30.0890625
3.760748145999969,0,0,1.2713210815429687,0,0,29.859375000000004
3.7640485160000026,0,0,1.5562310791015623,0,0,30.31875
3.7668902800005526,0,0,1.4700398193359374,0,0,29.70625
3.769575211999836,0,0,1.0989385620117187,0,0,30.242187500000004
3.7722389589998784,0,0,1.1133037719726562,0,0,30.471875
3.775048594000509,0,0,1.4053963745117186,0,0,30.242187500000004
3.7777596930000072,0,0,1.3958195678710936,0,0,30.0890625
3.7806859930005885,0,0,1.2785036865234374,0,0,30.012500000000003
3.783551145000274,0,0,1.1420341918945311,0,0,29.70625
3.786360058000355,0,0,1.369483349609375,0,0,30.31875
3.7894745960002183,0,0,1.235408056640625,0,0,30.242187500000004
3.792221602000609,0,0,1.2808978881835937,0,0,29.70625
3.7949979220002206,0,0,1.5658078857421873,0,0,30.0890625
3.7978387230004955,0,0,1.5059528442382812,0,0,-9.034375
3.8006210250005097,0,0,1.2785036865234374,0,0,30.471875
3.8036356390002766,0,0,1.3072341064453123,0,0,29.70625
3.8064023480001197,0,0,1.448492004394531,0,0,29.9359375
3.809247889999824,0,0,1.5729904907226562,0,0,29.859375000000004
3.8119676920005077,0,0,1.1061211669921875,0,0,30.165625000000002
3.8151071380007124,0,0,1.2042834350585936,0,0,30.31875
3.8179548090001845,0,0,1.3527239379882812,0,0,30.31875
3.8206934260006165,0,0,1.4437036010742186,0,0,30.31875
3.8233584509998764,0,0,1.3192051147460937,0,0,30.395312500000003
3.8263754170002358,0,0,1.218648645019531,0,0,29.629687500000003
3.829124497000521,0,0,1.13006318359375,0,0,30.31875
3.831877595000151,0,0,1.4173673828125,0,0,30.471875
3.8344880280001234,0,0,1.1563994018554686,0,0,29.9359375
3.8372290710003654,0,0,1.656787548828125,0,0,30.165625000000002
3.8401327970004786,0,0,1.5298948608398437,0,0,30.0890625
3.8428552290006337,0,0,1.0773907470703123,0,0,29.782812500000002
3.845515513999999,0,0,1.0342951171875,0,0,30.165625000000002
3.848231890000534,0,0,1.5825672973632812,0,0,30.778125000000003
3.851277280999966,0,0,1.3479355346679687,0,0,30.0890625
3.8542281000000003,0,0,1.4221557861328125,0,0,30.471875
3.856937773000027,0,0,1.68551796875,0,0,30.31875
3.8597364070001277,0,0,1.0127473022460938,0,0,29.400000000000002
3.8623984510004448,0,0,1.2689268798828124,0,0,30.012500000000003
3.8655405449999307,0,0,1.0941501586914062,0,0,30.31875
3.8682175510002708,0,0,1.1013327636718748,0,0,30.931250000000002
3.870991335000326,0,0,1.5179238525390624,0,0,30.548437500000002
3.8736206200001106,0,0,1.68551796875,0,0,30.471875
3.8765372340003523,0,0,1.2497732666015624,0,0,30.012500000000003
3.8792657770000005,0,0,1.3623007446289062,0,0,29.629687500000003
3.8820693010002287,0,0,1.197100830078125,0,0,30.31875
3.8848376209998605,0,0,1.2425906616210938,0,0,30.625000000000004
3.8882360830002654,0,0,1.3000515014648437,0,0,30.0890625
3.8908969230005823,0,0,1.6328455322265625,0,0,30.012500000000003
3.8936962240004505,0,0,1.426944189453125,0,0,29.70625
3.8964435630005028,0,0,0.9552864624023437,0,0,29.9359375
3.899060348000603,0,0,1.3718775512695311,0,0,29.9359375
3.902683863000675,0,0,1.4245499877929686,0,0,30.31875
3.905929102999835,0,0,1.3168109130859373,0,0,30.165625000000002
3.9086584240003504,0,0,1.3120225097656248,0,0,30.242187500000004
3.911376153000674,0,0,1.5035586425781249,0,0,29.476562500000004
3.915027777999967,0,0,1.6232687255859375,0,0,30.395312500000003
3.9177668580005047,0,0,1.189918225097656,0,0,30.165625000000002
3.920402161000311,0,0,1.4532804077148436,0,0,30.165625000000002
3.9233135350004886,0,0,1.4963760375976562,0,0,30.165625000000002
3.9261807060001956,0,0,1.388636962890625,0,0,30.31875
3.9292292830004953,0,0,1.369483349609375,0,0,30.0890625
3.9323394140001255,0,0,1.2473790649414063,0,0,29.859375000000004
3.9356065990004936,0,0,1.22583125,0,0,30.395312500000003
3.9389836340005786,0,0,1.3407529296874998,0,0,30.242187500000004
3.9422779670003365,0,0,1.2785036865234374,0,0,30.625000000000004
3.945306248000634,0,0,1.3646949462890625,0,0,30.012500000000003
3.948171937000552,0,0,1.37906015625,0,0,30.242187500000004
3.9513828819999617,0,0,1.1851298217773436,0,0,30.778125000000003
3.9546768630007136,0,0,1.4700398193359374,0,0,29.9359375
3.957785124000111,0,0,1.4963760375976562,0,0,30.0890625
3.9609451989999798,0,0,1.1875240234375,0,0,30.0890625
3.9641656250005326,0,0,1.2473790649414063,0,0,29.629687500000003
3.9671637580004244,0,0,1.4173673828125,0,0,30.31875
3.97035298100036,0,0,1.0869675537109373,0,0,30.242187500000004
3.9733682980004232,0,0,1.2808978881835937,0,0,30.242187500000004
3.9762852470003054,0,0,1.5945383056640625,0,0,30.165625000000002
3.979205732000082,0,0,1.5969325073242187,0,0,30.165625000000002
3.98436680299983,0,0,1.149216796875,0,0,30.165625000000002
3.987383841999872,0,0,1.5849614990234373,0,0,29.400000000000002
3.9904131600005712,0,0,1.637633935546875,0,0,30.395312500000003
3.99348964300043,0,0,1.2282254516601563,0,0,30.242187500000004
3.9966598660003,0,0,1.4915876342773438,0,0,30.165625000000002
3.9997996460006107,0,0,1.5801730957031248,0,0,30.242187500000004
4.003299771999991,0,0,1.2330138549804688,0,0,30.165625000000002
4.007282079000106,0,0,1.4053963745117186,0,0,30.165625000000002
4.01040108000052,0,0,1.4341267944335936,0,0,30.242187500000004
4.014156666999952,0,0,1.3215993164062498,0,0,30.0890625
4.017243280000002,0,0,1.467645617675781,0,0,29.553125
4.022417610000048,0,0,1.4053963745117186,0,0,30.548437500000002
4.0256557769998835,0,0,1.16837041015625,0,0,29.859375000000004
4.0286971310006265,0,0,1.3048399047851562,0,0,29.9359375
4.031447080999897,0,0,1.235408056640625,0,0,30.0890625
4.034521769000094,0,0,1.1348515869140625,0,0,30.242187500000004
4.037368625000454,0,0,1.2856862915039062,0,0,29.476562500000004
4.040210500000285,0,0,1.5275006591796874,0,0,30.242187500000004
4.042954210000062,0,0,1.5610194824218748,0,0,30.31875
4.045797880999999,0,0,1.2880804931640624,0,0,29.859375000000004
4.048538979000114,0,0,1.3646949462890625,0,0,30.548437500000002
4.051174134000576,0,0,1.5490484741210937,0,0,30.395312500000003
4.053903214999991,0,0,1.3934253662109375,0,0,30.242187500000004
4.056946309000523,0,0,1.2425906616210938,0,0,30.012500000000003
4.059964497000692,0,0,1.4101847778320311,0,0,29.782812500000002
4.062865779000276,0,0,1.3311761230468748,0,0,30.165625000000002
4.065843301000314,0,0,1.3096283081054687,0,0,30.31875
4.068812100000287,0,0,1.2593500732421874,0,0,29.859375000000004
4.071857306000311,0,0,1.484405029296875,0,0,30.31875
4.074557831000675,0,0,1.4245499877929686,0,0,30.0890625
4.077426224000192,0,0,1.4604630126953124,0,0,29.9359375
4.080375635000564,0,0,1.3742717529296875,0,0,30.625000000000004
4.083360694000476,0,0,1.2378022583007813,0,0,30.548437500000002
4.086923913000646,0,0,1.2497732666015624,0,0,30.31875
4.08985378700072,0,0,1.2282254516601563,0,0,30.165625000000002
4.092672606000633,0,0,1.4006079711914061,0,0,30.012500000000003
4.095678071999828,0,0,1.4796166259765624,0,0,30.012500000000003
4.099051830000462,0,0,1.2808978881835937,0,0,30.0890625
4.102039684999909,0,0,1.388636962890625,0,0,30.31875
4.105891621999945,0,0,1.5059528442382812,0,0,30.242187500000004
4.10891412500041,0,0,1.2306196533203124,0,0,30.242187500000004
4.112626768000155,0,0,1.3000515014648437,0,0,-8.881250000000001
4.115719250999973,0,0,1.43652099609375,0,0,30.31875
4.119785057000627,0,0,1.2856862915039062,0,0,30.31875
4.122847151999849,0,0,1.4053963745117186,0,0,30.395312500000003
4.125478732999909,0,0,1.6041151123046875,0,0,30.0890625
4.128193331000148,0,0,1.429338391113281,0,0,30.31875
4.130791506000605,0,0,1.2856862915039062,0,0,30.242187500000004
4.133543789000214,0,0,1.2928688964843749,0,0,30.471875
4.136094316000708,0,0,1.4796166259765624,0,0,30.31875
4.138726619000408,0,0,1.675941162109375,0,0,30.242187500000004
4.141140851000273,0,0,1.3407529296874998,0,0,30.012500000000003
4.143829579000339,0,0,1.3335703247070312,0,0,30.165625000000002
4.146370236000621,0,0,1.4796166259765624,0,0,30.0890625
4.148792727,0,0,1.4867992309570313,0,0,30.0890625
4.151451751999957,0,0,1.2904746948242187,0,0,30.165625000000002
4.153931427000316,0,0,1.2521674682617188,0,0,29.859375000000004
4.156585452999934,0,0,1.4053963745117186,0,0,30.165625000000002
4.159164720000263,0,0,1.608903515625,0,0,30.31875
4.161721041999954,0,0,1.1180921752929687,0,0,29.9359375
4.164427141000488,0,0,1.254561669921875,0,0,30.012500000000003
4.167010982000647,0,0,1.3623007446289062,0,0,30.165625000000002
4.16971809900042,0,0,1.455674609375,0,0,30.0890625
4.172271311000259,0,0,1.2785036865234374,0,0,30.242187500000004
4.17481633800071,0,0,1.2425906616210938,0,0,30.012500000000003
4.177376919999915,0,0,1.5251064575195312,0,0,29.9359375
4.179939761000242,0,0,1.369483349609375,0,0,30.471875
4.182336122000379,0,0,1.3670891479492187,0,0,30.395312500000003
4.1847447990003275,0,0,1.3287819213867187,0,0,30.31875
4.187399750000623,0,0,1.3934253662109375,0,0,30.0890625
4.189959573000124,0,0,1.3431471313476562,0,0,30.242187500000004
4.192479618000107,0,0,1.37906015625,0,0,30.165625000000002
4.1949019610001415,0,0,1.2617442749023438,0,0,29.859375000000004
4.197507450000558,0,0,1.2617442749023438,0,0,31.160937500000003
4.200046994999866,0,0,1.4437036010742186,0,0,30.165625000000002
4.202583873000549,0,0,1.5777788940429687,0,0,30.0890625
4.204995605000477,0,0,1.2880804931640624,0,0,29.70625
4.207459336000284,0,0,1.3072341064453123,0,0,29.859375000000004
4.21007910300068,0,0,1.5394716674804687,0,0,30.395312500000003
4.212596352000219,0,0,1.4125789794921875,0,0,29.9359375
4.215107822999926,0,0,1.2832920898437499,0,0,30.165625000000002
4.21751659200072,0,0,1.3168109130859373,0,0,30.165625000000002
4.220094359000541,0,0,1.5562310791015623,0,0,29.859375000000004
4.2227413290002005,0,0,1.3215993164062498,0,0,30.395312500000003
4.225460315999953,0,0,1.3000515014648437,0,0,29.9359375
4.22813206400042,0,0,1.2306196533203124,0,0,29.9359375
4.230850440000722,0,0,1.4891934326171874,0,0,30.012500000000003
4.23385157300072,0,0,1.6304513305664061,0,0,30.242187500000004
4.236786576000668,0,0,1.3192051147460937,0,0,30.012500000000003
4.2397471909998785,0,0,1.1516109985351561,0,0,30.7015625
4.2426432870006465,0,0,1.5586252807617187,0,0,30.31875
4.24550399600048,0,0,1.455674609375,0,0,30.165625000000002
4.248386296000717,0,0,1.35990654296875,0,0,30.0890625
4.2519859399999405,0,0,1.4245499877929686,0,0,30.31875
4.25495335100004,0,0,1.6232687255859375,0,0,29.9359375
4.257851428999857,0,0,1.2401964599609374,0,0,30.242187500000004
4.260582509000415,0,0,1.2665326782226562,0,0,29.782812500000002
4.263284201000715,0,0,1.5179238525390624,0,0,30.31875
4.266624996000246,0,0,1.5203180541992187,0,0,30.0890625
4.2693159469999955,0,0,1.3766659545898436,0,0,30.0890625
4.272091841000474,0,0,1.3455413330078123,0,0,30.548437500000002
4.274715663000279,0,0,1.4437036010742186,0,0,30.242187500000004
4.277533538000171,0,0,1.465251416015625,0,0,30.31875
4.280210433999855,0,0,1.2737152832031249,0,0,30.931250000000002
4.282938958000159,0,0,1.4317325927734375,0,0,29.9359375
4.285559095000281,0,0,1.4030021728515625,0,0,30.165625000000002
4.288402692000091,0,0,1.2713210815429687,0,0,30.31875
4.291091439000411,0,0,1.2713210815429687,0,0,30.0890625
4.293806038000184,0,0,1.4939818359375,0,0,30.165625000000002
4.296440175000498,0,0,1.4820108276367188,0,0,30.548437500000002
4.2993420310003785,0,0,1.2401964599609374,0,0,30.242187500000004
4.301986315000249,0,0,1.2737152832031249,0,0,30.242187500000004
4.30469976600034,0,0,1.3168109130859373,0,0,31.084375
4.307526252000571,0,0,1.2856862915039062,0,0,30.395312500000003
4.310433014999944,0,0,1.1563994018554686,0,0,29.9359375
4.313088393000726,0,0,1.35990654296875,0,0,30.012500000000003
4.315757455000494,0,0,1.388636962890625,0,0,29.782812500000002
4.3185507750004035,0,0,1.2378022583007813,0,0,30.012500000000003
4.321451260000686,0,0,1.2521674682617188,0,0,30.242187500000004
4.324314430999948,0,0,1.2378022583007813,0,0,29.859375000000004
4.327261546000045,0,0,1.5346832641601562,0,0,30.31875
4.330067644000337,0,0,1.5586252807617187,0,0,30.242187500000004
4.332688966000205,0,0,1.3072341064453123,0,0,30.012500000000003
4.335596728999917,0,0,1.3718775512695311,0,0,30.548437500000002
4.338755155999934,0,0,1.4796166259765624,0,0,30.548437500000002
4.341656141000385,0,0,1.2569558715820313,0,0,30.31875
4.344471054000678,0,0,1.3263877197265623,0,0,30.242187500000004
4.347115876000316,0,0,1.4030021728515625,0,0,29.476562500000004
4.349864789000094,0,0,1.3527239379882812,0,0,30.471875
4.352748922000501,0,0,1.2928688964843749,0,0,30.471875
4.35549416899994,0,0,1.1468225952148436,0,0,30.012500000000003
4.3581817310005135,0,0,1.4149731811523436,0,0,30.242187500000004
4.36104830900058,0,0,1.5610194824218748,0,0,30.242187500000004
4.3638588330004495,0,0,1.199495031738281,0,0,29.859375000000004
4.366583413000626,0,0,1.2904746948242187,0,0,30.0890625
4.3692139760005375,0,0,1.4724340209960938,0,0,30.165625000000002
4.371927482000501,0,0,1.5801730957031248,0,0,29.9359375
4.374863763000576,0,0,1.2904746948242187,0,0,-9.1875
4.3776503240005695,0,0,1.35990654296875,0,0,30.165625000000002
4.38030853500004,0,0,1.5155296508789062,0,0,30.31875
4.3830119670001295,0,0,1.4341267944335936,0,0,29.9359375
4.385811916000421,0,0,1.2497732666015624,0,0,-8.8046875
4.388662643000316,0,0,1.1252747802734375,0,0,30.7015625
4.391431852000096,0,0,1.5634136840820312,0,0,30.395312500000003
4.394903553999939,0,0,1.2330138549804688,0,0,30.471875
4.397684911000397,0,0,1.3359645263671873,0,0,30.0890625
4.400620469999922,0,0,1.350329736328125,0,0,30.012500000000003
4.404117078000127,0,0,1.5658078857421873,0,0,30.0890625
4.406913509000333,0,0,1.3910311645507811,0,0,30.165625000000002
4.409753773000375,0,0,1.35990654296875,0,0,30.242187500000004
4.412605444999826,0,0,1.5490484741210937,0,0,30.31875
4.415441301000101,0,0,1.4820108276367188,0,0,30.242187500000004
4.4183109909999985,0,0,1.2976572998046874,0,0,29.859375000000004
4.420956072000081,0,0,1.4030021728515625,0,0,30.165625000000002
4.423946964000606,0,0,1.20667763671875,0,0,30.395312500000003
4.426601619000394,0,0,1.2880804931640624,0,0,30.395312500000003
4.429389494000134,0,0,1.3000515014648437,0,0,30.471875
4.432135443999869,0,0,1.35990654296875,0,0,29.400000000000002
4.43492532000073,0,0,1.2880804931640624,0,0,30.242187500000004
4.4377045660003205,0,0,1.3766659545898436,0,0,30.242187500000004
4.440491146000568,0,0,1.2952630981445312,0,0,30.0890625
4.443376760999854,0,0,1.5059528442382812,0,0,30.165625000000002
4.446165970000038,0,0,1.5945383056640625,0,0,29.400000000000002
4.448977290000585,0,0,1.2473790649414063,0,0,30.0890625
4.4518201460005,0,0,1.2641384765625,0,0,29.859375000000004
4.4545421150005495,0,0,1.4820108276367188,0,0,30.0890625
4.4571782700004405,0,0,1.5849614990234373,0,0,29.859375000000004
4.4600217380002505,0,0,1.369483349609375,0,0,30.0890625
4.462647690000267,0,0,1.2713210815429687,0,0,29.859375000000004
4.465463602000455,0,0,1.5969325073242187,0,0,30.012500000000003
4.468329995000204,0,0,1.6232687255859375,0,0,30.165625000000002
4.471108018999985,0,0,1.3000515014648437,0,0,29.9359375
4.473924339000405,0,0,1.3215993164062498,0,0,30.8546875
4.4767626399998335,0,0,1.4772224243164063,0,0,30.0890625
4.479501535000054,0,0,1.4915876342773438,0,0,30.242187500000004
4.482376446000671,0,0,1.0893617553710937,0,0,31.084375
4.48520613600067,0,0,1.4820108276367188,0,0,-9.723437500000001
4.487982382000155,0,0,1.2928688964843749,0,0,30.242187500000004
4.490614815000299,0,0,1.3718775512695311,0,0,30.548437500000002
4.493226563999997,0,0,1.3479355346679687,0,0,30.0890625
4.495993421000094,0,0,1.5059528442382812,0,0,29.859375000000004
4.498658335000073,0,0,1.3527239379882812,0,0,30.31875
