Time (s),Accel X1,Accel Y1,Accel Z1,Accel X2,Accel Y2,Accel Z2
9.712800056149717e-05,0,0,1.4820108276367188,0,0,0.9953125
0.003676106000057189,0,0,1.3239935180664062,0,0,1.225
0.007317047000469756,0,0,1.388636962890625,0,0,1.3015625000000002
0.010954265000691521,0,0,1.2330138549804688,0,0,0.6890625
0.014552650000041467,0,0,1.6328455322265625,0,0,1.3015625000000002
0.018389366001429153,0,0,1.3742717529296875,0,0,0.153125
0.022081824001361383,0,0,1.467645617675781,0,0,0.9953125
0.02576267200129223,0,0,0.9983820922851562,0,0,0.6890625
0.029679535000468604,0,0,1.8339584716796873,0,0,0.3828125
0.03328108700043231,0,0,1.2641384765625,0,0,1.0718750000000001
0.03687832400100888,0,0,1.3263877197265623,0,0,0.6125
0.04095248100020399,0,0,1.235408056640625,0,0,0.22968750000000002
0.04648980800084246,0,0,1.4700398193359374,0,0,0.9953125
0.05146625100132951,0,0,1.2713210815429687,0,0,0.3828125
0.055045062999852234,0,0,1.5777788940429687,0,0,0.9187500000000001
0.058659891999923275,0,0,1.1444283935546875,0,0,0.5359375000000001
0.06265438400077983,0,0,1.426944189453125,0,0,0.9953125
0.06630334300098184,0,0,0.8499415893554687,0,0,1.225
0.06994145000135177,0,0,1.7310078002929687,0,0,0.5359375000000001
0.07418562400016526,0,0,1.4317325927734375,0,0,0.6125
0.07787228600136586,0,0,1.2856862915039062,0,0,0.9953125
0.0816224290010723,0,0,1.2785036865234374,0,0,1.0718750000000001
0.08530327600055898,0,0,1.5969325073242187,0,0,0.9953125
0.08964306000052602,0,0,1.1420341918945311,0,0,1.4546875000000001
0.09419484200043371,0,0,1.7860744384765623,0,0,1.0718750000000001
0.0981300570001622,0,0,0.9648632690429687,0,0,1.1484375
0.10181344100055867,0,0,1.9656395629882812,0,0,0.22968750000000002
0.10555584299982002,0,0,1.1109095703125,0,0,0.6125
0.10874851100015803,0,0,1.1707646118164061,0,0,1.0718750000000001
0.11162210800102912,0,0,1.5490484741210937,0,0,0.45937500000000003
0.11435424400042393,0,0,1.4604630126953124,0,0,0.6890625
0.1169697700006509,0,0,1.465251416015625,0,0,1.1484375
0.11994508800125914,0,0,1.5873557006835937,0,0,0.30625
0.12337536400082172,0,0,1.1635820068359375,0,0,0.6890625
0.1261219260013604,0,0,1.455674609375,0,0,1.1484375
0.12873682200006442,0,0,1.3407529296874998,0,0,0.5359375000000001
0.13144062500032305,0,0,1.4245499877929686,0,0,1.7609375
0.13402294700063067,0,0,1.8219874633789062,0,0,1.225
0.1369341740009986,0,0,1.2832920898437499,0,0,0.6890625
0.13969051300045976,0,0,1.0869675537109373,0,0,1.53125
0.14302088300064497,0,0,1.5562310791015623,0,0,1.0718750000000001
0.14570077800090075,0,0,1.3311761230468748,0,0,0.765625
0.14844708100099524,0,0,1.2832920898437499,0,0,0.22968750000000002
0.15124362300048233,0,0,1.6232687255859375,0,0,0.3828125
0.15409642400118173,0,0,1.0773907470703123,0,0,0.6125
0.15671096900041448,0,0,1.3455413330078123,0,0,0.6125
0.15940865999982634,0,0,1.4245499877929686,0,0,1.0718750000000001
0.1620037240008969,0,0,1.3431471313476562,0,0,0.8421875000000001
0.1647884880003403,0,0,1.8315642700195311,0,0,1.53125
0.1674137370009703,0,0,1.2976572998046874,0,0,0.5359375000000001
0.17034931400121422,0,0,1.13006318359375,0,0,0.30625
0.17461363700022048,0,0,1.6998831787109374,0,0,1.378125
0.1784399640000629,0,0,0.9792284790039062,0,0,0.765625
0.18240564100051415,0,0,1.707065783691406,0,0,1.3015625000000002
0.18524757200066233,0,0,1.2737152832031249,0,0,0.45937500000000003
0.18838251800116268,0,0,1.3048399047851562,0,0,1.4546875000000001
0.19158468500063464,0,0,1.1827356201171875,0,0,0.45937500000000003
0.19448250500136055,0,0,1.4532804077148436,0,0,1.378125
0.197348398000031,0,0,1.9847931762695312,0,0,1.225
0.20013786600065941,0,0,1.1563994018554686,0,0,0.45937500000000003
0.20295937199989567,0,0,1.0869675537109373,0,0,0.0
0.20601402200009034,0,0,1.9800047729492187,0,0,0.9953125
0.20885578600064036,0,0,0.8930372192382812,0,0,0.8421875000000001
0.21147375700093107,0,0,1.3838485595703125,0,0,0.3828125
0.2141623930001515,0,0,1.8171990600585937,0,0,1.1484375
0.21686823300115066,0,0,1.1133037719726562,0,0,0.765625
0.2196308130005491,0,0,1.189918225097656,0,0,0.9953125
0.22221074700064491,0,0,1.6160861206054686,0,0,0.45937500000000003
0.2249157340011152,0,0,1.3239935180664062,0,0,0.6125
0.22784055300144246,0,0,1.2473790649414063,0,0,1.225
0.23087051900074584,0,0,1.5682020874023437,0,0,0.9953125
0.2336699130009947,0,0,1.1563994018554686,0,0,0.6890625
0.2364803260006738,0,0,1.3814543579101561,0,0,1.4546875000000001
0.2394827730004181,0,0,1.209071838378906,0,0,0.6890625
0.24232338900037576,0,0,1.1851298217773436,0,0,0.153125
0.2451350610008376,0,0,1.426944189453125,0,0,0.9187500000000001
0.24801278800077853,0,0,1.4221557861328125,0,0,0.5359375000000001
0.25074297900027886,0,0,1.0869675537109373,0,0,0.45937500000000003
0.25442208599997684,0,0,1.6304513305664061,0,0,1.1484375
0.2573520340010873,0,0,1.139639990234375,0,0,0.6890625
0.26043735100029153,0,0,1.4987702392578124,0,0,1.1484375
0.2630607660012174,0,0,1.599326708984375,0,0,1.378125
0.2658306610010186,0,0,1.0917559570312498,0,0,0.6890625
0.26846379800008435,0,0,1.3479355346679687,0,0,1.225
0.27144878200124367,0,0,1.4700398193359374,0,0,0.9953125
0.27416140000059386,0,0,1.3024457031249999,0,0,0.0
0.27696223900056793,0,0,1.5418658691406248,0,0,1.378125
0.27959733799980313,0,0,1.3479355346679687,0,0,0.6890625
0.28232475200093177,0,0,1.0582371337890624,0,0,1.4546875000000001
0.2852348300002632,0,0,1.4867992309570313,0,0,1.1484375
0.2881147240004793,0,0,1.235408056640625,0,0,0.8421875000000001
0.29103826500067953,0,0,0.9792284790039062,0,0,1.225
0.29401928600054816,0,0,1.7573440185546874,0,0,1.225
0.2967781630013633,0,0,1.43652099609375,0,0,1.53125
0.2995839640007034,0,0,1.1516109985351561,0,0,0.3828125
0.30229558199971507,0,0,1.5203180541992187,0,0,1.7609375
0.3052011230010976,0,0,1.3551181396484375,0,0,1.1484375
0.3079848690013023,0,0,1.4245499877929686,0,0,0.8421875000000001
0.31155388400111406,0,0,1.4030021728515625,0,0,0.6890625
0.3149654010012455,0,0,1.2042834350585936,0,0,0.9953125
0.3178055360003782,0,0,1.8004396484374998,0,0,0.765625
0.3208970010000485,0,0,1.1156979736328125,0,0,0.6125
0.3238445050010341,0,0,1.3192051147460937,0,0,1.225
0.32659678799973335,0,0,1.5825672973632812,0,0,1.0718750000000001
0.32948705200033146,0,0,1.1444283935546875,0,0,0.8421875000000001
0.3326867380001204,0,0,1.3144167114257812,0,0,1.378125
0.33608494000145583,0,0,1.4700398193359374,0,0,-8.728125
0.33914403500057233,0,0,1.0007762939453124,0,0,0.9187500000000001
0.34201679900070303,0,0,1.6304513305664061,0,0,0.9187500000000001
0.34486869300053513,0,0,1.4341267944335936,0,0,0.9187500000000001
0.3477044200008095,0,0,1.2856862915039062,0,0,1.225
0.3502944460014987,0,0,1.388636962890625,0,0,0.9953125
0.35308023000106914,0,0,1.3527239379882812,0,0,1.225
0.35567999700106157,0,0,1.5035586425781249,0,0,0.9953125
0.35835578099977283,0,0,1.608903515625,0,0,1.0718750000000001
0.360990622000827,0,0,1.197100830078125,0,0,0.765625
0.3639480880010524,0,0,0.967257470703125,0,0,0.0
0.36661855800048215,0,0,1.5418658691406248,0,0,0.9187500000000001
0.3695081920013763,0,0,1.0031704956054688,0,0,0.9953125
0.37212864400135004,0,0,1.1109095703125,0,0,0.9187500000000001
0.3749418710012833,0,0,1.8124106567382812,0,0,1.1484375
0.3776572850001685,0,0,1.2808978881835937,0,0,0.8421875000000001
0.3806184740005847,0,0,1.3359645263671873,0,0,0.8421875000000001
0.3834186090007279,0,0,1.419761584472656,0,0,0.9953125
0.3862609469997551,0,0,1.3575123413085937,0,0,1.0718750000000001
0.3891188779998629,0,0,1.8195932617187498,0,0,1.1484375
0.39190560600036406,0,0,1.158793603515625,0,0,0.8421875000000001
0.3947587399998156,0,0,1.0917559570312498,0,0,0.0
0.3975253380012873,0,0,1.4508862060546874,0,0,0.9953125
0.4001589380004589,0,0,1.4221557861328125,0,0,1.225
0.4029270360006194,0,0,1.158793603515625,0,0,1.1484375
0.40567793100126437,0,0,1.8124106567382812,0,0,1.225
0.4083487710013287,0,0,1.608903515625,0,0,1.1484375
0.4110751670013997,0,0,0.9337386474609375,0,0,0.6125
0.41374574700057565,0,0,1.5945383056640625,0,0,1.6843750000000002
0.41655603100116423,0,0,1.3479355346679687,0,0,0.0
0.41938933200071915,0,0,1.4508862060546874,0,0,1.4546875000000001
0.422213374000421,0,0,1.465251416015625,0,0,0.9187500000000001
0.4249006950012699,0,0,1.2737152832031249,0,0,0.0
0.4277641999997286,0,0,1.2234370483398436,0,0,0.5359375000000001
0.4305158360002679,0,0,1.5777788940429687,0,0,0.9187500000000001
0.4333125450011721,0,0,1.3168109130859373,0,0,0.5359375000000001
0.4359999030002655,0,0,1.254561669921875,0,0,1.378125
0.43860815200059733,0,0,1.7788918334960937,0,0,0.8421875000000001
0.4414143789999798,0,0,1.1133037719726562,0,0,0.6125
0.4440491639998072,0,0,1.0941501586914062,0,0,1.53125
0.44701305700073135,0,0,1.6519991455078125,0,0,1.3015625000000002
0.4497802660007437,0,0,1.4221557861328125,0,0,0.765625
0.45268901100098446,0,0,1.2641384765625,0,0,0.9187500000000001
0.4552889070000674,0,0,1.5969325073242187,0,0,832.7703125
0.45809974599978887,0,0,1.2114660400390624,0,0,0.153125
0.46088804800092475,0,0,1.2210428466796874,0,0,0.9953125
0.4638695510002435,0,0,1.5179238525390624,0,0,0.6890625
0.4667383520009025,0,0,1.2976572998046874,0,0,832.6171875000001
0.4695145430014236,0,0,1.7429788085937499,0,0,0.6890625
0.47224682700107223,0,0,1.5825672973632812,0,0,0.6890625
0.4752351630013436,0,0,1.0606313354492187,0,0,1.6843750000000002
0.47783176400116645,0,0,1.6543933471679686,0,0,1.1484375
0.48043086400139146,0,0,1.218648645019531,0,0,0.30625
0.48316611100017326,0,0,1.1947066284179686,0,0,0.5359375000000001
0.48578797000118357,0,0,1.66636435546875,0,0,0.0765625
0.4886232340013521,0,0,1.2330138549804688,0,0,0.153125
0.4912017050010036,0,0,1.1755530151367186,0,0,0.9187500000000001
0.4939117300000362,0,0,1.4053963745117186,0,0,0.22968750000000002
0.49652373699973396,0,0,1.465251416015625,0,0,1.225
0.49952518500140286,0,0,1.3072341064453123,0,0,1.1484375
0.5100814540001011,0,0,1.659181750488281,0,0,0.765625
0.5132769370011374,0,0,1.3814543579101561,0,0,-9.1109375
0.5162802920003742,0,0,1.3192051147460937,0,0,0.6125
0.5192864239998016,0,0,1.5442600708007812,0,0,0.6125
0.5222135580006579,0,0,1.1348515869140625,0,0,0.5359375000000001
0.5250655630006804,0,0,1.2785036865234374,0,0,0.9187500000000001
0.5282211379999353,0,0,1.5562310791015623,0,0,1.0718750000000001
0.5311365870002192,0,0,1.4437036010742186,0,0,1.1484375
0.5342482920004841,0,0,1.5059528442382812,0,0,1.0718750000000001
0.5371328340006585,0,0,1.35990654296875,0,0,0.9953125
0.5402204290003283,0,0,1.177947216796875,0,0,0.8421875000000001
0.5431382839997241,0,0,1.5705962890624998,0,0,0.9187500000000001
0.5460853990007308,0,0,1.1468225952148436,0,0,832.69375
0.549165604999871,0,0,1.5849614990234373,0,0,1.0718750000000001
0.5523651800012885,0,0,1.216254443359375,0,0,0.30625
0.5552804060007475,0,0,1.0223241088867188,0,0,0.45937500000000003
0.5583145199998398,0,0,1.5682020874023437,0,0,0.8421875000000001
0.5611988390010083,0,0,1.6328455322265625,0,0,0.6890625
0.5642346570002701,0,0,1.1061211669921875,0,0,1.0718750000000001
0.5673040849997051,0,0,1.5658078857421873,0,0,1.1484375
0.5702325340007519,0,0,1.1707646118164061,0,0,0.9187500000000001
0.5731323529998917,0,0,1.3335703247070312,0,0,0.8421875000000001
0.5762386880014674,0,0,1.5705962890624998,0,0,1.6078125
0.5797299260011641,0,0,1.1324573852539062,0,0,0.9953125
0.5829074459998083,0,0,1.6400281372070311,0,0,0.8421875000000001
0.5868135130003793,0,0,1.0414777221679687,0,0,-852.8296875000001
0.5900306620005722,0,0,1.3814543579101561,0,0,0.9187500000000001
0.593136534000223,0,0,1.2330138549804688,0,0,0.765625
0.5963709970001219,0,0,1.419761584472656,0,0,1.3015625000000002
0.5993829260005441,0,0,1.6352397338867186,0,0,1.0718750000000001
0.6025162980004097,0,0,0.928950244140625,0,0,0.9953125
0.6054890420000447,0,0,1.43652099609375,0,0,0.765625
0.6084541380005248,0,0,1.3407529296874998,0,0,0.6125
0.6112664210013463,0,0,1.1731588134765625,0,0,1.3015625000000002
0.6138852069998393,0,0,1.5634136840820312,0,0,0.765625
0.6167084530006832,0,0,1.4724340209960938,0,0,0.9953125
0.619377015000282,0,0,1.1540052001953125,0,0,0.6125
0.6219701150002948,0,0,1.678335363769531,0,0,0.8421875000000001
0.6247242320005171,0,0,1.1731588134765625,0,0,0.765625
0.6274479420007992,0,0,1.3335703247070312,0,0,0.8421875000000001
0.6301104490012222,0,0,1.5801730957031248,0,0,1.0718750000000001
0.6328688989997318,0,0,1.388636962890625,0,0,1.1484375
0.6354685370006337,0,0,1.0414777221679687,0,0,0.765625
0.6380841179998242,0,0,1.678335363769531,0,0,0.5359375000000001
0.6409027350000542,0,0,1.4915876342773438,0,0,0.6125
0.6435931120013265,0,0,1.3527239379882812,0,0,1.1484375
0.6461918410004728,0,0,1.37906015625,0,0,0.6890625
0.6488847370001167,0,0,1.5897499023437498,0,0,0.153125
0.651741760000732,0,0,1.2569558715820313,0,0,1.225
0.654512840001189,0,0,1.5897499023437498,0,0,1.0718750000000001
0.657123662000231,0,0,1.350329736328125,0,0,1.1484375
0.6599025750001601,0,0,1.3263877197265623,0,0,0.30625
0.6626717480012303,0,0,1.8171990600585937,0,0,0.9953125
0.6654364390014962,0,0,0.8499415893554687,0,0,0.5359375000000001
0.6681318530008866,0,0,1.218648645019531,0,0,0.22968750000000002
0.6713034280001011,0,0,1.4413093994140624,0,0,0.3828125
0.6760616330011544,0,0,1.197100830078125,0,0,1.1484375
0.6788795090014901,0,0,1.8052280517578123,0,0,0.5359375000000001
0.6818005500008439,0,0,1.1611878051757811,0,0,1.8375000000000001
0.6846887760002573,0,0,1.3383587280273437,0,0,0.6125
0.6873212840000633,0,0,1.3934253662109375,0,0,0.9187500000000001
0.6900179010008287,0,0,1.22583125,0,0,1.0718750000000001
0.6931586990012875,0,0,1.5490484741210937,0,0,0.6890625
0.6959869820002496,0,0,1.4413093994140624,0,0,0.6890625
0.6985895079997135,0,0,1.0654197387695312,0,0,0.0
0.7012899960009236,0,0,1.4173673828125,0,0,0.6890625
0.7041300199998659,0,0,1.3024457031249999,0,0,0.6890625
0.7070233200010989,0,0,1.0390835205078124,0,0,0.765625
0.709693808999873,0,0,1.7262193969726563,0,0,1.0718750000000001
0.7125784800009569,0,0,1.484405029296875,0,0,0.9187500000000001
0.7152035609997256,0,0,1.20667763671875,0,0,0.6890625
0.7180558440013556,0,0,1.5275006591796874,0,0,1.225
0.720708906001164,0,0,1.4867992309570313,0,0,0.153125
0.7234124679998786,0,0,1.3575123413085937,0,0,0.45937500000000003
0.7260150680012885,0,0,1.5107412475585937,0,0,0.5359375000000001
0.7288364070009266,0,0,1.3168109130859373,0,0,0.9187500000000001
0.7315738200013584,0,0,1.139639990234375,0,0,0.9187500000000001
0.7343510669998068,0,0,1.62805712890625,0,0,0.8421875000000001
0.7370886469998368,0,0,1.1731588134765625,0,0,0.5359375000000001
0.7398985410000023,0,0,1.3239935180664062,0,0,1.4546875000000001
0.7426361400011956,0,0,1.707065783691406,0,0,0.9187500000000001
0.7453703130013309,0,0,1.1109095703125,0,0,0.6890625
0.7480257460010762,0,0,1.0223241088867188,0,0,0.45937500000000003
0.7507575290001114,0,0,1.8004396484374998,0,0,0.9187500000000001
0.7534521289999248,0,0,1.4820108276367188,0,0,0.8421875000000001
0.7561633200002689,0,0,1.3646949462890625,0,0,0.765625
0.7588086790001398,0,0,1.5873557006835937,0,0,1.53125
0.7614999270008411,0,0,1.0079588989257813,0,0,0.9953125
0.7643571160006104,0,0,1.6256629272460936,0,0,1.1484375
0.7670519380008045,0,0,1.2521674682617188,0,0,0.6890625
0.7696340200000122,0,0,1.216254443359375,0,0,0.0765625
0.7722854160001589,0,0,1.47482822265625,0,0,0.8421875000000001
0.7749965330003761,0,0,1.5155296508789062,0,0,0.8421875000000001
0.7776515030000155,0,0,1.0534487304687499,0,0,0.6125
0.7805313970002317,0,0,1.388636962890625,0,0,1.53125
0.7833521240008849,0,0,1.6400281372070311,0,0,1.1484375
0.7861482959997375,0,0,1.1372457885742187,0,0,0.6125
0.7888529320007365,0,0,1.4245499877929686,0,0,0.765625
0.7919651379997958,0,0,1.5275006591796874,0,0,1.0718750000000001
0.796724454001378,0,0,1.0917559570312498,0,0,0.6890625
0.8002566360009951,0,0,1.5538368774414062,0,0,0.0
0.8040359460010222,0,0,1.6256629272460936,0,0,1.1484375
0.8073447599999781,0,0,1.5298948608398437,0,0,1.0718750000000001
0.8102848750004341,0,0,1.2641384765625,0,0,0.0765625
0.8131828240002505,0,0,1.2928688964843749,0,0,1.0718750000000001
0.8160629020003398,0,0,1.37906015625,0,0,0.5359375000000001
0.8190092210006696,0,0,1.1085153686523437,0,0,1.0718750000000001
0.8221902590012178,0,0,1.7190367919921874,0,0,1.1484375
0.8252850760000001,0,0,1.6208745239257811,0,0,0.6125
0.8282451900013257,0,0,0.948103857421875,0,0,0.6125
0.8314399320006487,0,0,1.5346832641601562,0,0,0.0
0.83456928600026,0,0,1.4101847778320311,0,0,0.8421875000000001
0.8382579480003187,0,0,1.4628572143554686,0,0,0.6890625
0.8412858390001929,0,0,1.3359645263671873,0,0,0.6890625
0.8444799879998754,0,0,1.5586252807617187,0,0,0.8421875000000001
0.8481418360006501,0,0,1.2832920898437499,0,0,0.6890625
0.8515830560008908,0,0,1.4221557861328125,0,0,-9.1109375
0.8551141090010788,0,0,1.7717092285156248,0,0,0.8421875000000001
0.858256944000459,0,0,1.0103531005859374,0,0,0.8421875000000001
0.8612768170005438,0,0,1.3263877197265623,0,0,1.53125
0.8645230760012055,0,0,1.5562310791015623,0,0,1.1484375
0.8674397840004531,0,0,1.1156979736328125,0,0,0.765625
0.8704736939998838,0,0,1.5921441040039062,0,0,0.6125
0.8734642350009381,0,0,1.1516109985351561,0,0,0.3828125
0.8766388650001318,0,0,1.2401964599609374,0,0,1.1484375
0.8796686830010003,0,0,1.5897499023437498,0,0,0.9187500000000001
0.8825242430011713,0,0,1.1851298217773436,0,0,832.8468750000001
0.8853535260004719,0,0,1.6041151123046875,0,0,0.30625
0.8885611010009598,0,0,1.1252747802734375,0,0,0.3828125
0.8915297710009327,0,0,1.0893617553710937,0,0,0.765625
0.8944261460001144,0,0,1.6208745239257811,0,0,1.53125
0.8978706249999959,0,0,1.3646949462890625,0,0,0.6890625
0.900973163999879,0,0,1.5442600708007812,0,0,0.9187500000000001
0.903984501001105,0,0,1.39821376953125,0,0,0.6125
0.9068708200011315,0,0,0.9744400756835937,0,0,0.6125
0.9097091580006236,0,0,1.4820108276367188,0,0,0.765625
0.9123073139999178,0,0,1.4341267944335936,0,0,1.3015625000000002
0.9150479310010269,0,0,0.9744400756835937,0,0,0.8421875000000001
0.9175951619999978,0,0,1.5753846923828123,0,0,0.8421875000000001
0.9201826690004964,0,0,1.37906015625,0,0,1.6843750000000002
0.9227865660013777,0,0,1.1635820068359375,0,0,1.53125
0.9253504440002871,0,0,1.4915876342773438,0,0,1.53125
0.9280938580013753,0,0,1.438915197753906,0,0,0.9187500000000001
0.9307108100001642,0,0,1.2114660400390624,0,0,0.8421875000000001
0.9331330599998182,0,0,1.599326708984375,0,0,1.6078125
0.9356969010004832,0,0,1.6831237670898436,0,0,1.0718750000000001
0.9383964260014181,0,0,1.0845733520507812,0,0,0.22968750000000002
0.9413971330013737,0,0,1.4053963745117186,0,0,1.4546875000000001
0.9438657720002084,0,0,1.599326708984375,0,0,0.8421875000000001
0.9464105210008711,0,0,1.2713210815429687,0,0,0.9187500000000001
0.948796067999865,0,0,1.3527239379882812,0,0,1.0718750000000001
0.9514762039998459,0,0,1.3239935180664062,0,0,1.1484375
0.9539186769998196,0,0,1.2425906616210938,0,0,0.45937500000000003
0.9568634210008895,0,0,1.2737152832031249,0,0,0.153125
0.9592634310010908,0,0,1.5442600708007812,0,0,1.4546875000000001
0.961978289000399,0,0,1.0869675537109373,0,0,0.765625
0.9645204090011248,0,0,1.70467158203125,0,0,1.378125
0.9671097500013275,0,0,1.707065783691406,0,0,0.5359375000000001
0.9698793670013401,0,0,0.9816226806640624,0,0,0.6890625
0.9738684140011173,0,0,1.649604943847656,0,0,0.765625
0.9764403850003873,0,0,1.6735469604492186,0,0,0.9187500000000001
0.9792612979999831,0,0,0.9600748657226562,0,0,0.8421875000000001
0.9821098400007031,0,0,1.4700398193359374,0,0,0.765625
0.9846415520005394,0,0,1.2928688964843749,0,0,0.8421875000000001
0.9872727809997741,0,0,1.2928688964843749,0,0,0.6890625
0.9898795480003173,0,0,1.3742717529296875,0,0,0.765625
0.9928076450014487,0,0,1.0797849487304687,0,0,0.30625
0.9955512249998719,0,0,1.4173673828125,0,0,0.45937500000000003
0.9983329149999918,0,0,1.5442600708007812,0,0,0.9187500000000001
1.0010263290005241,0,0,1.24498486328125,0,0,0.8421875000000001
1.0036882620006509,0,0,1.199495031738281,0,0,0.5359375000000001
1.0062876400006644,0,0,1.5610194824218748,0,0,1.4546875000000001
1.0090855350008496,0,0,1.3048399047851562,0,0,0.6890625
1.011760688999857,0,0,1.235408056640625,0,0,0.6890625
1.014341437999974,0,0,1.7717092285156248,0,0,0.3828125
1.0168772060005722,0,0,1.4891934326171874,0,0,1.3015625000000002
1.019432881001194,0,0,1.024718310546875,0,0,0.8421875000000001
1.0219680560003326,0,0,1.5682020874023437,0,0,0.8421875000000001
1.0244811379998282,0,0,1.5777788940429687,0,0,0.30625
1.0271626450012263,0,0,1.3311761230468748,0,0,0.6125
1.0300002980002319,0,0,1.407790576171875,0,0,1.1484375
1.0325533249997534,0,0,1.4053963745117186,0,0,1.3015625000000002
1.0351945540005545,0,0,1.0342951171875,0,0,0.8421875000000001
1.037922449000689,0,0,1.7477672119140624,0,0,0.6890625
1.0405615310010035,0,0,1.2114660400390624,0,0,0.6125
1.0432973700008006,0,0,1.0989385620117187,0,0,0.30625
1.0458787300012773,0,0,1.6711527587890624,0,0,0.9187500000000001
1.0484175710007548,0,0,1.6136919189453125,0,0,1.0718750000000001
1.0509153950006294,0,0,0.8858546142578124,0,0,0.22968750000000002
1.0536421230008273,0,0,1.5921441040039062,0,0,0.5359375000000001
1.0562369090002903,0,0,1.6711527587890624,0,0,0.6125
1.0587628060002316,0,0,1.0199299072265624,0,0,1.225
1.0613295920011296,0,0,1.2928688964843749,0,0,0.8421875000000001
1.063954081000702,0,0,1.6112977172851561,0,0,0.5359375000000001
1.0665336630008824,0,0,1.0606313354492187,0,0,-9.8
1.0693296500012366,0,0,1.0917559570312498,0,0,0.9187500000000001
1.0722200430009252,0,0,1.4796166259765624,0,0,1.0718750000000001
1.0748059030011063,0,0,1.2473790649414063,0,0,1.225
1.0773969470010343,0,0,1.2641384765625,0,0,1.1484375
1.080011251000542,0,0,1.4053963745117186,0,0,0.6890625
1.0826877580002474,0,0,0.9217676391601562,0,0,0.22968750000000002
1.0853250060008577,0,0,1.429338391113281,0,0,0.6890625
1.0879984020011761,0,0,1.7860744384765623,0,0,0.6890625
1.0907024080006522,0,0,1.197100830078125,0,0,1.225
1.0933967660002963,0,0,1.5011644409179687,0,0,1.1484375
1.096027495999806,0,0,1.6256629272460936,0,0,0.8421875000000001
1.0987241319999157,0,0,0.9911994873046874,0,0,0.0
1.101488527001493,0,0,1.209071838378906,0,0,0.9187500000000001
1.1043248100013443,0,0,1.3862427612304686,0,0,0.45937500000000003
1.1069171320013993,0,0,1.1372457885742187,0,0,0.3828125
1.1093896230013343,0,0,1.3958195678710936,0,0,1.53125
1.1116708010013099,0,0,1.3862427612304686,0,0,1.6078125
1.1133011150013772,0,0,1.3551181396484375,0,0,1.0718750000000001
1.1149225600001955,0,0,0.9911994873046874,0,0,0.3828125
1.1168704080009775,0,0,1.3814543579101561,0,0,1.1484375
1.1185144270002638,0,0,1.7262193969726563,0,0,1.4546875000000001
1.1201620009996986,0,0,1.438915197753906,0,0,1.378125
1.121881332999692,0,0,0.9457096557617187,0,0,0.9187500000000001
1.1235715729999356,0,0,1.209071838378906,0,0,0.9953125
1.1252361470014876,0,0,1.5514426757812498,0,0,0.30625
1.1267810370009101,0,0,1.6831237670898436,0,0,0.5359375000000001
1.1285072950013273,0,0,1.5586252807617187,0,0,1.0718750000000001
1.130167851000806,0,0,0.967257470703125,0,0,0.765625
1.131725852001182,0,0,0.9600748657226562,0,0,0.765625
1.133323666999786,0,0,1.3359645263671873,0,0,1.225
1.1350668690010934,0,0,1.66636435546875,0,0,1.0718750000000001
1.1367064990008657,0,0,1.4101847778320311,0,0,0.6125
1.138298277001013,0,0,1.2856862915039062,0,0,0.6890625
1.1399624620007671,0,0,1.1085153686523437,0,0,0.153125
1.1416438880005444,0,0,1.5059528442382812,0,0,0.22968750000000002
1.143284591000338,0,0,1.7022773803710936,0,0,0.9953125
1.1449318869999843,0,0,1.2138602416992186,0,0,0.8421875000000001
1.1465313139997306,0,0,1.1611878051757811,0,0,0.9953125
1.1480680000004213,0,0,1.254561669921875,0,0,0.6125
1.1495965750000323,0,0,1.5059528442382812,0,0,0.6890625
1.1511699100010446,0,0,1.37906015625,0,0,0.5359375000000001
1.1531065910003235,0,0,1.3575123413085937,0,0,0.22968750000000002
1.1548770160006825,0,0,1.1156979736328125,0,0,0.6890625
1.156512682000539,0,0,1.484405029296875,0,0,0.9187500000000001
1.1581412570012617,0,0,1.7501614135742187,0,0,0.765625
1.1599440509999113,0,0,1.3311761230468748,0,0,0.3828125
1.1614742190013203,0,0,1.0749965454101562,0,0,0.153125
1.1630387010009144,0,0,1.1420341918945311,0,0,0.0765625
1.1649035320006078,0,0,1.3239935180664062,0,0,0.6125
1.1665608470011648,0,0,1.8243816650390623,0,0,0.8421875000000001
1.1682517350000126,0,0,1.4963760375976562,0,0,0.765625
1.170178880000094,0,0,1.0582371337890624,0,0,0.30625
1.1720526360004442,0,0,0.9552864624023437,0,0,0.9953125
1.173992411000654,0,0,1.6927005737304686,0,0,1.225
1.1759486110004218,0,0,1.5466542724609373,0,0,0.22968750000000002
1.1775355000008858,0,0,1.0917559570312498,0,0,-9.1109375
1.1790777420010272,0,0,1.1947066284179686,0,0,0.8421875000000001
1.1808081480012333,0,0,1.3646949462890625,0,0,1.3015625000000002
1.1824362040006235,0,0,1.62805712890625,0,0,1.0718750000000001
1.1841371480004454,0,0,1.39821376953125,0,0,1.225
1.1856842230008624,0,0,1.20667763671875,0,0,0.765625
1.1873831850007264,0,0,1.3215993164062498,0,0,0.6125
1.1892640340010985,0,0,1.7334020019531249,0,0,0.9953125
1.1909696260008786,0,0,1.4149731811523436,0,0,1.0718750000000001
1.1927896060005878,0,0,1.1109095703125,0,0,1.0718750000000001
1.1944971970006009,0,0,1.218648645019531,0,0,0.9187500000000001
1.1961560680010734,0,0,1.2617442749023438,0,0,0.22968750000000002
1.197944418001498,0,0,1.5610194824218748,0,0,1.378125
1.1996123620010621,0,0,1.5945383056640625,0,0,1.53125
1.2011587520009925,0,0,1.1180921752929687,0,0,1.1484375
1.202822176999689,0,0,0.97683427734375,0,0,0.9953125
1.2047694330012746,0,0,1.455674609375,0,0,0.9187500000000001
1.206457099000545,0,0,1.714248388671875,0,0,0.22968750000000002
1.208130691000406,0,0,1.2330138549804688,0,0,0.8421875000000001
1.2096823410010984,0,0,1.2018892333984375,0,0,1.1484375
1.2112078790014493,0,0,0.7972691528320313,0,0,0.45937500000000003
1.2128179900009854,0,0,1.2976572998046874,0,0,1.4546875000000001
1.2144232870014093,0,0,1.5753846923828123,0,0,0.6125
1.216073008999956,0,0,1.5562310791015623,0,0,1.3015625000000002
1.2177304530014226,0,0,1.199495031738281,0,0,0.5359375000000001
1.2193370830009371,0,0,0.93852705078125,0,0,0.765625
1.2208712330011622,0,0,1.5418658691406248,0,0,0.6125
1.2224806770009309,0,0,1.5466542724609373,0,0,0.45937500000000003
1.2241111590010405,0,0,1.5298948608398437,0,0,0.30625
1.2256319940006506,0,0,1.2042834350585936,0,0,0.22968750000000002
1.2272141049998027,0,0,1.2210428466796874,0,0,0.45937500000000003
1.228912679000132,0,0,1.2761094848632812,0,0,0.8421875000000001
1.2304961240006378,0,0,1.9201497314453124,0,0,1.4546875000000001
1.2320602540003165,0,0,1.4341267944335936,0,0,1.225
1.2339007520004088,0,0,1.1156979736328125,0,0,0.153125
1.2355743070002063,0,0,1.2569558715820313,0,0,0.30625
1.2371583260010084,0,0,1.5298948608398437,0,0,0.45937500000000003
1.2391551920009078,0,0,1.6424223388671875,0,0,0.765625
1.2408882840009028,0,0,1.1109095703125,0,0,0.8421875000000001
1.242493136000121,0,0,0.9433154541015625,0,0,0.0765625
1.2442994490011188,0,0,1.1731588134765625,0,0,0.30625
1.2460283180007536,0,0,1.6424223388671875,0,0,0.765625
1.2479948700001842,0,0,1.5083470458984374,0,0,1.1484375
1.2496709440001723,0,0,1.446097802734375,0,0,0.9187500000000001
1.2512290740014578,0,0,1.158793603515625,0,0,0.153125
1.25299616600023,0,0,1.4317325927734375,0,0,0.6125
1.2547196089999488,0,0,1.6472107421875,0,0,0.765625
1.2563302580001618,0,0,1.47482822265625,0,0,1.0718750000000001
1.2580417200006195,0,0,1.218648645019531,0,0,0.9187500000000001
1.2596332940011052,0,0,1.3263877197265623,0,0,0.765625
1.2617506220012729,0,0,1.5801730957031248,0,0,0.765625
1.2635227870014205,0,0,1.5442600708007812,0,0,0.9187500000000001
1.2655146350007271,0,0,1.1516109985351561,0,0,0.5359375000000001
1.2683630470000935,0,0,1.419761584472656,0,0,0.30625
1.27014987900111,0,0,1.7980454467773437,0,0,0.6890625
1.2721924300003593,0,0,1.3287819213867187,0,0,1.225
1.2737599310003134,0,0,0.9002198242187499,0,0,0.9953125
1.2757420380003168,0,0,1.13006318359375,0,0,0.6125
1.277657590000672,0,0,1.8100164550781248,0,0,0.45937500000000003
1.2791965550004534,0,0,1.5346832641601562,0,0,0.9953125
1.2808415170002263,0,0,1.47482822265625,0,0,1.225
1.282883216999835,0,0,0.9888052856445312,0,0,0.5359375000000001
1.2844604769998114,0,0,1.16837041015625,0,0,0.9187500000000001
1.2859916810011782,0,0,1.6328455322265625,0,0,0.6125
1.2879471960004594,0,0,1.5705962890624998,0,0,0.5359375000000001
1.289651696000874,0,0,1.216254443359375,0,0,0.6890625
1.2913428620013292,0,0,1.180341418457031,0,0,0.765625
1.2929298440012644,0,0,1.2234370483398436,0,0,0.9953125
1.294585695000933,0,0,1.438915197753906,0,0,1.3015625000000002
1.2962280100000498,0,0,1.6424223388671875,0,0,0.9187500000000001
1.297887658000036,0,0,1.3263877197265623,0,0,0.3828125
1.2995623980004893,0,0,1.139639990234375,0,0,0.6125
1.301175491000322,0,0,1.687912170410156,0,0,1.3015625000000002
1.302884824001012,0,0,1.68551796875,0,0,1.225
1.3046131930004776,0,0,1.1731588134765625,0,0,0.9953125
1.3063627840001573,0,0,0.9504980590820312,0,0,0.3828125
1.308008265999888,0,0,1.2282254516601563,0,0,0.22968750000000002
1.3096737100004248,0,0,1.6136919189453125,0,0,0.8421875000000001
1.31133265400058,0,0,1.7980454467773437,0,0,1.3015625000000002
1.3128892290005751,0,0,1.209071838378906,0,0,1.3015625000000002
1.3144915440007026,0,0,1.0678139404296874,0,0,1.1484375
1.3162306730009732,0,0,1.158793603515625,0,0,1.378125
1.3178940610014251,0,0,1.879448303222656,0,0,0.6890625
1.319538597999781,0,0,1.8100164550781248,0,0,0.45937500000000003
1.3213966140010598,0,0,1.5155296508789062,0,0,1.0718750000000001
1.3230246150014864,0,0,1.0271125122070313,0,0,1.0718750000000001
1.3246306330001971,0,0,1.2880804931640624,0,0,0.9187500000000001
1.3263740769998549,0,0,1.465251416015625,0,0,0.8421875000000001
1.3280610210003942,0,0,1.599326708984375,0,0,0.30625
1.3296871870006726,0,0,1.120486376953125,0,0,0.5359375000000001
1.331484537000506,0,0,1.2880804931640624,0,0,0.8421875000000001
1.3330485750011576,0,0,1.4820108276367188,0,0,0.8421875000000001
1.3345797800011496,0,0,1.5801730957031248,0,0,1.0718750000000001
1.336352555999838,0,0,1.3934253662109375,0,0,0.8421875000000001
1.3380799630012916,0,0,1.16837041015625,0,0,0.0765625
1.3398994609997317,0,0,1.0295067138671874,0,0,1.0718750000000001
1.3417851800004428,0,0,1.7573440185546874,0,0,1.225
1.3435449200005678,0,0,1.4915876342773438,0,0,1.378125
1.3451736050010368,0,0,1.158793603515625,0,0,1.1484375
1.3467036990005,0,0,1.1563994018554686,0,0,0.6890625
1.3485047340000165,0,0,1.455674609375,0,0,0.45937500000000003
1.3502061960007268,0,0,1.7884686401367187,0,0,1.225
1.351842232999843,0,0,1.4317325927734375,0,0,1.0718750000000001
1.3534274000012374,0,0,1.1013327636718748,0,0,0.9187500000000001
1.3551700839998375,0,0,0.9050082275390624,0,0,0.8421875000000001
1.3567294189997483,0,0,1.3335703247070312,0,0,0.8421875000000001
1.3582515310008603,0,0,1.6543933471679686,0,0,0.8421875000000001
1.3598859200010338,0,0,1.4006079711914061,0,0,0.9187500000000001
1.361619919000077,0,0,1.446097802734375,0,0,0.6890625
1.363151272000323,0,0,1.1731588134765625,0,0,0.22968750000000002
1.3647658650006633,0,0,1.3431471313476562,0,0,0.6125
1.366362939001192,0,0,1.5490484741210937,0,0,0.6890625
1.3678922920007608,0,0,1.4915876342773438,0,0,1.1484375
1.3696813830010797,0,0,1.1635820068359375,0,0,0.9187500000000001
1.3712625320004008,0,0,1.0007762939453124,0,0,0.45937500000000003
1.37281671799974,0,0,1.3168109130859373,0,0,0.6125
1.3744350150009268,0,0,1.618480322265625,0,0,0.6890625
1.3760367000013503,0,0,1.5131354492187499,0,0,0.6125
1.3775671460007288,0,0,1.3575123413085937,0,0,0.3828125
1.3791594800004532,0,0,1.1947066284179686,0,0,0.45937500000000003
1.3808459610008867,0,0,1.6807295654296874,0,0,0.8421875000000001
1.382384203001493,0,0,1.9321207397460936,0,0,0.9953125
1.383908945001167,0,0,1.4508862060546874,0,0,0.765625
1.3857448130002012,0,0,1.0630255371093749,0,0,0.765625
1.3873251280001568,0,0,1.0534487304687499,0,0,0.45937500000000003
1.3889626840009441,0,0,1.4101847778320311,0,0,0.3828125
1.3910829190008371,0,0,1.6065093139648436,0,0,1.225
1.392783381001209,0,0,1.3742717529296875,0,0,1.53125
1.3944716770001833,0,0,1.2042834350585936,0,0,0.3828125
1.3964179700014938,0,0,1.2282254516601563,0,0,0.3828125
1.3980669510001462,0,0,1.6424223388671875,0,0,0.3828125
1.399735729000895,0,0,1.5897499023437498,0,0,0.6890625
1.401325247999921,0,0,1.2713210815429687,0,0,0.9187500000000001
1.4033332620001602,0,0,1.2210428466796874,0,0,0.22968750000000002
1.4050771870006429,0,0,1.3718775512695311,0,0,0.45937500000000003
1.4068219820001104,0,0,1.6424223388671875,0,0,0.3828125
1.4084877040004358,0,0,1.2713210815429687,0,0,1.378125
1.4102350730008766,0,0,1.2569558715820313,0,0,0.9187500000000001
1.4118541660009214,0,0,1.5514426757812498,0,0,0.45937500000000003
1.4135195540002314,0,0,1.9033903198242186,0,0,0.6125
1.4151493320005102,0,0,1.675941162109375,0,0,0.6890625
1.4171294759999,0,0,1.3144167114257812,0,0,0.30625
1.418809771999804,0,0,1.0678139404296874,0,0,1.0718750000000001
1.4206461400008266,0,0,1.4891934326171874,0,0,0.9187500000000001
1.4223757510008,0,0,1.649604943847656,0,0,0.8421875000000001
1.4242594879997341,0,0,1.2665326782226562,0,0,0.45937500000000003
1.4259502660006547,0,0,0.9552864624023437,0,0,0.6125
1.427652135000244,0,0,1.2593500732421874,0,0,0.9187500000000001
1.429358819999834,0,0,1.5394716674804687,0,0,1.0718750000000001
1.4310204490011529,0,0,1.6807295654296874,0,0,0.9187500000000001
1.432649690001199,0,0,1.448492004394531,0,0,0.5359375000000001
1.434200208999755,0,0,0.9864110839843749,0,0,0.153125
1.4359154680005304,0,0,1.1324573852539062,0,0,0.6890625
1.4376016149999487,0,0,1.5729904907226562,0,0,0.6125
1.439208931000394,0,0,1.656787548828125,0,0,1.378125
1.4408602640014578,0,0,1.407790576171875,0,0,0.9187500000000001
1.442591392000395,0,0,1.1827356201171875,0,0,0.5359375000000001
1.4442213180009276,0,0,1.4508862060546874,0,0,0.6890625
1.4457575970009202,0,0,1.6304513305664061,0,0,0.6890625
1.4473733200011338,0,0,1.3838485595703125,0,0,0.22968750000000002
1.4489737460007746,0,0,1.3527239379882812,0,0,0.30625
1.4505040439998993,0,0,1.3407529296874998,0,0,0.6890625
1.4523240230009833,0,0,0.9193734375,0,0,0.6125
1.4539835970008426,0,0,1.637633935546875,0,0,0.765625
1.4555318760012597,0,0,1.6304513305664061,0,0,0.765625
1.4571721160009474,0,0,1.1659762084960936,0,0,0.45937500000000003
1.458801968001353,0,0,1.2306196533203124,0,0,0.6125
1.4604039320001903,0,0,1.235408056640625,0,0,0.30625
1.462248855001235,0,0,1.6400281372070311,0,0,0.9953125
1.4640872420004598,0,0,1.455674609375,0,0,1.225
1.4656833720000577,0,0,0.8762778076171874,0,0,0.22968750000000002
1.4675809990003472,0,0,0.967257470703125,0,0,0.5359375000000001
1.4694755140008056,0,0,1.5155296508789062,0,0,1.225
1.4710832000000664,0,0,1.66636435546875,0,0,0.8421875000000001
1.472619312000461,0,0,1.3455413330078123,0,0,0.765625
1.474391421999826,0,0,1.3479355346679687,0,0,0.6890625
1.476087032000578,0,0,1.209071838378906,0,0,0.6125
1.4776420329999382,0,0,1.465251416015625,0,0,0.6125
1.4791714790007973,0,0,1.5131354492187499,0,0,0.0765625
1.4810486799997307,0,0,1.484405029296875,0,0,0.45937500000000003
1.482788197001355,0,0,1.158793603515625,0,0,0.8421875000000001
1.4843723459998728,0,0,1.24498486328125,0,0,0.6890625
1.486335360999874,0,0,1.4125789794921875,0,0,0.3828125
1.4880668410005455,0,0,1.5418658691406248,0,0,0.45937500000000003
1.4897113780007203,0,0,1.209071838378906,0,0,1.225
1.4914647290006542,0,0,1.2808978881835937,0,0,0.5359375000000001
1.4936253710002347,0,0,1.5131354492187499,0,0,0.765625
1.4952127230008045,0,0,1.5466542724609373,0,0,1.4546875000000001
1.4973071809999965,0,0,0.9720458740234375,0,0,1.0718750000000001
1.4990833650008426,0,0,0.9457096557617187,0,0,0.9187500000000001
1.5009109180009546,0,0,1.5586252807617187,0,0,0.6125
1.5028445810003177,0,0,1.4987702392578124,0,0,1.0718750000000001
1.5045958760001668,0,0,1.6160861206054686,0,0,1.3015625000000002
1.5062964870012365,0,0,1.3335703247070312,0,0,0.9187500000000001
1.5081194659996981,0,0,1.3335703247070312,0,0,0.5359375000000001
1.5098829280013888,0,0,1.7836802368164062,0,0,0.9953125
1.5116027050007688,0,0,1.6160861206054686,0,0,0.6890625
1.5134206840011757,0,0,1.0845733520507812,0,0,0.5359375000000001
1.515029203001177,0,0,0.9983820922851562,0,0,0.8421875000000001
1.516692110000804,0,0,1.3120225097656248,0,0,0.5359375000000001
1.5183678320008767,0,0,1.5418658691406248,0,0,0.30625
1.5199790170008782,0,0,1.4221557861328125,0,0,0.45937500000000003
1.522602488001212,0,0,1.3670891479492187,0,0,0.5359375000000001
1.5243373940011224,0,0,1.599326708984375,0,0,0.6125
1.5259529869999824,0,0,1.5921441040039062,0,0,1.225
1.528007611999783,0,0,1.4437036010742186,0,0,0.9187500000000001
1.5297162590013613,0,0,0.9744400756835937,0,0,0.6890625
1.5313282220013207,0,0,0.9361328491210937,0,0,0.22968750000000002
1.5330400920011016,0,0,1.43652099609375,0,0,0.9953125
1.535216586000388,0,0,1.675941162109375,0,0,1.225
1.5369715840006393,0,0,1.2952630981445312,0,0,0.6125
1.5390318390000175,0,0,1.1324573852539062,0,0,0.30625
1.540856633000658,0,0,1.659181750488281,0,0,1.6843750000000002
1.5424843000000692,0,0,1.9321207397460936,0,0,0.9953125
1.5440957999999227,0,0,1.4939818359375,0,0,0.6125
1.5469990450001205,0,0,0.9959878906249999,0,0,0.8421875000000001
1.5489955230004853,0,0,1.3910311645507811,0,0,0.765625
1.55158917800145,0,0,1.5610194824218748,0,0,0.45937500000000003
1.5531825119996938,0,0,1.3407529296874998,0,0,0.765625
1.5547144390002359,0,0,1.3742717529296875,0,0,1.1484375
1.5571198200013896,0,0,1.4915876342773438,0,0,0.9187500000000001
1.5588266520007892,0,0,1.5873557006835937,0,0,0.765625
1.5604093190013373,0,0,1.1156979736328125,0,0,0.6890625
1.5619393390006735,0,0,1.16837041015625,0,0,0.5359375000000001
1.5639660570013802,0,0,1.3144167114257812,0,0,0.765625
1.5655487060012092,0,0,1.8339584716796873,0,0,0.8421875000000001
1.5670767440005875,0,0,1.5466542724609373,0,0,1.3015625000000002
1.5687782250006421,0,0,1.2713210815429687,0,0,0.765625
1.5704197249997378,0,0,1.1635820068359375,0,0,0.6890625
1.5721029280011862,0,0,1.5658078857421873,0,0,0.5359375000000001
1.5737356320005347,0,0,1.62805712890625,0,0,1.1484375
1.576773263999712,0,0,1.180341418457031,0,0,0.9953125
1.5784739490009088,0,0,1.0438719238281249,0,0,0.9187500000000001
1.58009252300144,0,0,1.1611878051757811,0,0,0.6890625
1.5816263570013689,0,0,1.5203180541992187,0,0,1.378125
1.583142007000788,0,0,1.687912170410156,0,0,1.1484375
1.5851359839998622,0,0,1.4437036010742186,0,0,1.3015625000000002
1.586905760999798,0,0,1.180341418457031,0,0,0.5359375000000001
1.589918708001278,0,0,1.6328455322265625,0,0,0.6890625
1.5916758550010854,0,0,1.4125789794921875,0,0,1.225
1.5932112999998935,0,0,1.2497732666015624,0,0,1.1484375
1.5947326540008362,0,0,1.3000515014648437,0,0,0.6890625
1.5963551170007122,0,0,1.3120225097656248,0,0,0.6890625
1.5983783530009532,0,0,1.6352397338867186,0,0,0.9187500000000001
1.6000004090001312,0,0,1.4413093994140624,0,0,0.8421875000000001
1.6015447990012035,0,0,1.0893617553710937,0,0,0.22968750000000002
1.6037406440009363,0,0,1.3215993164062498,0,0,0.6890625
1.6054271440007142,0,0,1.8195932617187498,0,0,0.8421875000000001
1.6070051070000773,0,0,1.4006079711914061,0,0,0.6125
1.6087083660004282,0,0,1.0342951171875,0,0,0.8421875000000001
1.6106211960013752,0,0,1.1468225952148436,0,0,0.5359375000000001
1.6122871030001988,0,0,1.1228805786132812,0,0,0.9187500000000001
1.614019010001357,0,0,1.6136919189453125,0,0,0.8421875000000001
1.615658546999839,0,0,1.5897499023437498,0,0,0.8421875000000001
1.6172702140011097,0,0,0.9648632690429687,0,0,0.9953125
1.6190791750013886,0,0,1.0271125122070313,0,0,0.9187500000000001
1.6213900000002468,0,0,1.426944189453125,0,0,0.5359375000000001
1.6231491470007313,0,0,1.6136919189453125,0,0,0.6890625
1.6251889200011647,0,0,1.235408056640625,0,0,0.765625
1.6273947839999892,0,0,1.0510545288085937,0,0,0.5359375000000001
1.6293224660003034,0,0,1.2785036865234374,0,0,1.3015625000000002
1.631127798000307,0,0,1.608903515625,0,0,0.8421875000000001
1.6328786480007693,0,0,1.4245499877929686,0,0,0.765625
1.6356994500001747,0,0,1.5969325073242187,0,0,0.3828125
1.6376257430001715,0,0,1.3910311645507811,0,0,0.5359375000000001
1.6395428690011613,0,0,1.2497732666015624,0,0,1.0718750000000001
1.6416229010010284,0,0,1.448492004394531,0,0,0.9187500000000001
1.6433959740006685,0,0,1.2641384765625,0,0,0.6125
1.6451635650009848,0,0,1.1755530151367186,0,0,0.6890625
1.6467914540007769,0,0,1.407790576171875,0,0,1.3015625000000002
1.648490583000239,0,0,1.467645617675781,0,0,1.0718750000000001
1.6502033600008872,0,0,1.2904746948242187,0,0,0.765625
1.6521716340012063,0,0,1.2689268798828124,0,0,0.765625
1.6541841480011499,0,0,1.426944189453125,0,0,0.5359375000000001
1.65595722100079,0,0,1.5921441040039062,0,0,0.6890625
1.6576465160014777,0,0,1.6136919189453125,0,0,0.45937500000000003
1.659393441001157,0,0,1.2928688964843749,0,0,0.6890625
1.6610995510000066,0,0,1.3383587280273437,0,0,0.8421875000000001
1.662794310001118,0,0,1.37906015625,0,0,1.225
1.6644721980010218,0,0,1.5610194824218748,0,0,0.5359375000000001
1.666209938000975,0,0,1.5753846923828123,0,0,0.22968750000000002
1.66786391900132,0,0,1.3072341064453123,0,0,0.6890625
1.6697526940006355,0,0,1.16837041015625,0,0,0.8421875000000001
1.6714185460004956,0,0,1.4149731811523436,0,0,0.6125
1.6730280090014276,0,0,1.3575123413085937,0,0,1.225
1.6746745649998047,0,0,1.4508862060546874,0,0,1.0718750000000001
1.6762644910013478,0,0,1.4532804077148436,0,0,0.22968750000000002
1.6778860470003565,0,0,1.2880804931640624,0,0,0.8421875000000001
1.6794520849998662,0,0,1.2832920898437499,0,0,0.45937500000000003
1.680986381999901,0,0,1.3168109130859373,0,0,0.9953125
1.6826056050012994,0,0,1.2378022583007813,0,0,0.9953125
1.684192050001002,0,0,1.369483349609375,0,0,0.3828125
1.685717846999978,0,0,1.3120225097656248,0,0,1.0718750000000001
1.687309348000781,0,0,1.5514426757812498,0,0,1.378125
1.6890471060014534,0,0,1.2832920898437499,0,0,0.9953125
1.6906004400007077,0,0,1.0797849487304687,0,0,0.9953125
1.6921283299998322,0,0,1.3479355346679687,0,0,0.765625
1.6937793670003884,0,0,1.4341267944335936,0,0,0.0765625
1.6953803860014887,0,0,1.5251064575195312,0,0,0.30625
1.6969142210000427,0,0,1.649604943847656,0,0,0.6125
1.6985868500014476,0,0,1.407790576171875,0,0,0.6890625
1.7003672000009828,0,0,1.120486376953125,0,0,0.8421875000000001
1.7020630510014598,0,0,1.429338391113281,0,0,0.765625
1.7039660110003751,0,0,1.350329736328125,0,0,0.0
1.7056393069997284,0,0,1.4125789794921875,0,0,0.45937500000000003
1.7072243450002134,0,0,1.5658078857421873,0,0,0.9187500000000001
1.7088606779998372,0,0,1.3096283081054687,0,0,0.6890625
1.7104475860014645,0,0,1.1540052001953125,0,0,0.5359375000000001
1.7119815870009916,0,0,1.419761584472656,0,0,0.6890625
1.7136548830003449,0,0,1.4820108276367188,0,0,1.1484375
1.7153268640013266,0,0,1.3814543579101561,0,0,0.6125
1.7169180500004586,0,0,1.6711527587890624,0,0,1.8375000000000001
1.7185374760010745,0,0,1.4820108276367188,0,0,0.5359375000000001
1.7201701610010787,0,0,1.1228805786132812,0,0,0.5359375000000001
1.7217197730005864,0,0,1.3215993164062498,0,0,1.9140625000000002
1.723402180001358,0,0,1.448492004394531,0,0,1.1484375
1.7251181610008643,0,0,1.448492004394531,0,0,1.225
1.7268341970011534,0,0,1.3646949462890625,0,0,-9.1109375
1.7284873640001024,0,0,1.438915197753906,0,0,0.8421875000000001
1.730172974001107,0,0,1.3862427612304686,0,0,0.9187500000000001
1.7317537340004492,0,0,1.4125789794921875,0,0,0.6890625
1.7333295309999812,0,0,1.39821376953125,0,0,0.8421875000000001
1.734989864000454,0,0,1.438915197753906,0,0,0.765625
1.7365339759999188,0,0,1.4149731811523436,0,0,1.378125
1.7380577550011367,0,0,2.1691467041015624,0,0,1.53125
1.7397229030011658,0,0,1.5107412475585937,0,0,1.225
1.741334292000829,0,0,1.0534487304687499,0,0,0.3828125
1.7428675160008424,0,0,1.4245499877929686,0,0,0.6125
1.7444786830001249,0,0,1.5466542724609373,0,0,0.765625
1.7460665540002083,0,0,1.6711527587890624,0,0,0.765625
1.747970995000287,0,0,1.4053963745117186,0,0,0.9187500000000001
1.7496253099998285,0,0,0.842758984375,0,0,0.5359375000000001
1.7512198100012029,0,0,1.2401964599609374,0,0,1.0718750000000001
1.7534007670001301,0,0,1.9225439331054686,0,0,0.9953125
1.7554918550013099,0,0,1.649604943847656,0,0,1.4546875000000001
1.7573568700008764,0,0,1.0726023437499999,0,0,0.6125
1.7592776080000476,0,0,1.3670891479492187,0,0,0.6890625
1.761149698000736,0,0,1.5155296508789062,0,0,0.9187500000000001
1.7631648229998973,0,0,1.446097802734375,0,0,0.8421875000000001
1.764972173001297,0,0,1.3527239379882812,0,0,0.153125
1.7669751140001608,0,0,1.2713210815429687,0,0,0.9187500000000001
1.7687182420013414,0,0,1.5107412475585937,0,0,1.3015625000000002
1.7704729810011486,0,0,1.4772224243164063,0,0,1.0718750000000001
1.7723549230013305,0,0,1.2665326782226562,0,0,1.1484375
1.7739733119997254,0,0,1.2282254516601563,0,0,0.9187500000000001
1.7754994799997803,0,0,1.4125789794921875,0,0,1.9140625000000002
1.777103240001452,0,0,1.4604630126953124,0,0,1.1484375
1.7787129990010726,0,0,1.5322890624999999,0,0,1.0718750000000001
1.7804595910001808,0,0,1.3000515014648437,0,0,0.9187500000000001
1.7821704970010614,0,0,1.216254443359375,0,0,0.6890625
1.7838189600006444,0,0,1.3048399047851562,0,0,0.9187500000000001
1.7855336820011871,0,0,1.446097802734375,0,0,0.22968750000000002
1.787268384001436,0,0,1.484405029296875,0,0,0.765625
1.789119215000028,0,0,1.5179238525390624,0,0,1.3015625000000002
1.7907705850011553,0,0,1.4125789794921875,0,0,0.9953125
1.7925582870011567,0,0,1.4867992309570313,0,0,0.9187500000000001
1.7944465990003664,0,0,1.43652099609375,0,0,0.6890625
1.7961777279997477,0,0,1.5634136840820312,0,0,1.378125
1.7978880230002687,0,0,1.5466542724609373,0,0,0.9953125
1.7996923549999337,0,0,1.5801730957031248,0,0,0.9953125
1.801280466001117,0,0,1.4245499877929686,0,0,1.0718750000000001
1.802809190001426,0,0,1.5011644409179687,0,0,0.765625
1.8045682259999012,0,0,1.5131354492187499,0,0,0.5359375000000001
1.806113690001439,0,0,1.467645617675781,0,0,0.30625
1.807637728001282,0,0,1.37906015625,0,0,0.9953125
1.8092431540007965,0,0,1.4891934326171874,0,0,0.8421875000000001
1.8111145220009348,0,0,1.2497732666015624,0,0,0.9953125
1.8126863930010586,0,0,1.218648645019531,0,0,0.765625
1.8142116720009653,0,0,1.3766659545898436,0,0,0.9953125
1.816130058001363,0,0,1.5682020874023437,0,0,0.3828125
1.8178138170005695,0,0,1.4125789794921875,0,0,1.1484375
1.8195777410001028,0,0,1.6903063720703124,0,0,0.765625
1.8216731430002255,0,0,1.4796166259765624,0,0,0.8421875000000001
1.823636973000248,0,0,1.4867992309570313,0,0,0.9187500000000001
1.8257363379998424,0,0,1.5251064575195312,0,0,-8.728125
1.8276877230000537,0,0,1.6519991455078125,0,0,0.6890625
1.829498054999931,0,0,1.599326708984375,0,0,1.3015625000000002
1.8310966110002482,0,0,1.4125789794921875,0,0,0.8421875000000001
1.8329752190002182,0,0,1.2665326782226562,0,0,0.6890625
1.8348032730009436,0,0,1.448492004394531,0,0,0.765625
1.8363457370014657,0,0,1.448492004394531,0,0,0.22968750000000002
1.8378723490004631,0,0,1.3431471313476562,0,0,0.6890625
1.8403345620008622,0,0,1.2761094848632812,0,0,0.8421875000000001
1.8420343950001552,0,0,1.4149731811523436,0,0,0.8421875000000001
1.8436296730014874,0,0,1.3670891479492187,0,0,0.9187500000000001
1.8456093540007714,0,0,1.426944189453125,0,0,0.9953125
1.8472549650014116,0,0,1.5179238525390624,0,0,1.1484375
1.8488499840004806,0,0,1.5107412475585937,0,0,0.6125
1.8508043510009884,0,0,1.3575123413085937,0,0,2.1437500000000003
1.852486925001358,0,0,1.4125789794921875,0,0,0.6890625
1.8540842950005754,0,0,1.5370774658203123,0,0,0.765625
1.8556679260000237,0,0,1.2808978881835937,0,0,1.6843750000000002
1.8573109810004098,0,0,1.5490484741210937,0,0,1.0718750000000001
1.8588484640004026,0,0,1.6424223388671875,0,0,0.9953125
1.8604249460004212,0,0,1.5418658691406248,0,0,0.9187500000000001
1.8621665560003748,0,0,1.484405029296875,0,0,0.9953125
1.863926795000225,0,0,1.388636962890625,0,0,0.6125
1.8658017739999195,0,0,1.5011644409179687,0,0,1.1484375
1.867613087000791,0,0,1.4508862060546874,0,0,1.0718750000000001
1.869628416001433,0,0,1.2761094848632812,0,0,0.5359375000000001
1.8714424690006126,0,0,1.235408056640625,0,0,0.45937500000000003
1.873379243999807,0,0,1.1923124267578125,0,0,0.9187500000000001
1.8754899790001218,0,0,1.3742717529296875,0,0,0.765625
1.8773339400013356,0,0,1.4101847778320311,0,0,0.45937500000000003
1.87935952800035,0,0,1.419761584472656,0,0,0.9953125
1.8809435840012156,0,0,1.3838485595703125,0,0,0.9953125
1.8826356760000635,0,0,1.3934253662109375,0,0,0.9187500000000001
1.884593284001312,0,0,1.4628572143554686,0,0,0.8421875000000001
1.8861399510005867,0,0,1.5729904907226562,0,0,0.6890625
1.8876664340004936,0,0,1.6041151123046875,0,0,0.6890625
1.8892666940009804,0,0,1.426944189453125,0,0,0.9953125
1.8910592660013208,0,0,1.2761094848632812,0,0,0.6890625
1.892618712001422,0,0,1.3455413330078123,0,0,0.45937500000000003
1.894320803001392,0,0,1.158793603515625,0,0,0.9953125
1.8961621159996866,0,0,1.2928688964843749,0,0,1.1484375
1.8977647829997295,0,0,1.4413093994140624,0,0,0.9187500000000001
1.8993289879999793,0,0,1.4125789794921875,0,0,1.225
1.900852433000182,0,0,1.5083470458984374,0,0,1.225
1.9024656740002683,0,0,1.2952630981445312,0,0,0.9953125
1.9042080250001163,0,0,1.388636962890625,0,0,0.765625
1.9058821910002735,0,0,1.465251416015625,0,0,0.8421875000000001
1.9075146360009967,0,0,1.5346832641601562,0,0,0.153125
1.9092245610008831,0,0,1.4963760375976562,0,0,0.6125
1.911156297999696,0,0,1.43652099609375,0,0,1.225
1.9129488710004807,0,0,1.3263877197265623,0,0,0.9953125
1.914658870000494,0,0,1.1923124267578125,0,0,0.45937500000000003
1.916457868001089,0,0,1.2401964599609374,0,0,0.6125
1.9185087890000432,0,0,1.3718775512695311,0,0,1.3015625000000002
1.9204632860000856,0,0,1.419761584472656,0,0,0.6125
1.9220720270004676,0,0,1.3814543579101561,0,0,1.1484375
1.923602380000375,0,0,1.5322890624999999,0,0,1.0718750000000001
1.9255287100004352,0,0,1.5897499023437498,0,0,1.1484375
1.9274129109999194,0,0,1.39821376953125,0,0,-8.881250000000001
1.9290440590011713,0,0,1.6735469604492186,0,0,0.765625
1.9306328740003664,0,0,1.5346832641601562,0,0,0.6890625
1.9324244470008125,0,0,1.2737152832031249,0,0,0.30625
1.9344358870002907,0,0,0.9840168823242187,0,0,0.6125
1.9360863130004873,0,0,1.20667763671875,0,0,0.30625
1.9377867190014513,0,0,1.2952630981445312,0,0,0.153125
1.9394010720006918,0,0,1.35990654296875,0,0,0.22968750000000002
1.9412303099998098,0,0,1.707065783691406,0,0,1.3015625000000002
1.9431930660011858,0,0,1.6232687255859375,0,0,1.1484375
1.9448420660010015,0,0,1.5729904907226562,0,0,0.9187500000000001
1.9463806960011425,0,0,1.6711527587890624,0,0,0.6890625
1.9488801309998962,0,0,1.5610194824218748,0,0,1.0718750000000001
1.9506483700006356,0,0,1.3072341064453123,0,0,0.6125
1.952340333000393,0,0,1.2952630981445312,0,0,0.153125
1.9541324980000354,0,0,0.9433154541015625,0,0,0.6125
1.9557824230014376,0,0,1.0438719238281249,0,0,0.6890625
1.9575904949997494,0,0,1.120486376953125,0,0,1.6843750000000002
1.9592782170002465,0,0,1.5418658691406248,0,0,1.225
1.960909254001308,0,0,1.9991583862304687,0,0,1.1484375
1.9627596589998575,0,0,1.7764976318359373,0,0,1.225
1.9645844719998422,0,0,1.6424223388671875,0,0,0.9953125
1.9661437510003452,0,0,1.5634136840820312,0,0,0.6125
1.9676768260014796,0,0,1.3838485595703125,0,0,1.3015625000000002
1.9692553450004198,0,0,1.3431471313476562,0,0,0.8421875000000001
1.9713806730014767,0,0,1.235408056640625,0,0,0.765625
1.9731412090004596,0,0,0.8882488159179687,0,0,0.5359375000000001
1.974914300000819,0,0,1.1540052001953125,0,0,1.0718750000000001
1.976729742000316,0,0,1.5298948608398437,0,0,1.0718750000000001
1.9783066130003135,0,0,1.6831237670898436,0,0,1.1484375
1.979865614001028,0,0,1.687912170410156,0,0,0.8421875000000001
1.9815727430013794,0,0,1.8004396484374998,0,0,0.765625
1.98319596500005,0,0,1.4772224243164063,0,0,0.3828125
1.984728929000994,0,0,1.4772224243164063,0,0,0.3828125
1.9865013350008667,0,0,1.2569558715820313,0,0,0.8421875000000001
1.9881808720001573,0,0,1.2234370483398436,0,0,1.225
1.989723225000489,0,0,1.4963760375976562,0,0,1.3015625000000002
1.9912533560000156,0,0,1.5107412475585937,0,0,0.765625
1.9931038900012936,0,0,1.39821376953125,0,0,0.8421875000000001
1.9948085190007987,0,0,1.4341267944335936,0,0,0.45937500000000003
1.9963849270006904,0,0,1.618480322265625,0,0,0.9187500000000001
1.9979128539998783,0,0,1.4867992309570313,0,0,0.9187500000000001
2.0001187739999295,0,0,1.3431471313476562,0,0,0.45937500000000003
2.0018489770009182,0,0,1.2713210815429687,0,0,0.6890625
2.003763381000681,0,0,1.3096283081054687,0,0,0.9187500000000001
2.0058572280013323,0,0,1.4820108276367188,0,0,1.225
2.0079525000001013,0,0,1.5251064575195312,0,0,1.0718750000000001
2.0096025929997268,0,0,1.6208745239257811,0,0,0.8421875000000001
2.0115210519998072,0,0,1.70467158203125,0,0,0.6125
2.013673639001354,0,0,1.484405029296875,0,0,0.45937500000000003
2.0153074730005756,0,0,1.1061211669921875,0,0,0.8421875000000001
2.017441152000174,0,0,1.3096283081054687,0,0,1.0718750000000001
2.019055078000747,0,0,1.5155296508789062,0,0,0.6890625
2.0206446900010633,0,0,1.5849614990234373,0,0,0.9187500000000001
2.0224577250010043,0,0,1.7932570434570312,0,0,0.8421875000000001
2.0241862060011044,0,0,1.4772224243164063,0,0,0.8421875000000001
2.026046684000903,0,0,1.4101847778320311,0,0,0.8421875000000001
2.0277370540006814,0,0,1.426944189453125,0,0,1.0718750000000001
2.029427998000756,0,0,1.3168109130859373,0,0,0.6890625
2.0311824230011553,0,0,1.3024457031249999,0,0,1.3015625000000002
2.032782071000838,0,0,1.4437036010742186,0,0,0.9187500000000001
2.035159951999958,0,0,1.3263877197265623,0,0,0.6125
2.0368568770009006,0,0,1.3862427612304686,0,0,0.45937500000000003
2.038473062000776,0,0,1.3096283081054687,0,0,1.0718750000000001
2.0401848210003664,0,0,1.429338391113281,0,0,0.9953125
2.042037725999762,0,0,1.8842367065429686,0,0,1.1484375
2.0436589300006744,0,0,1.7190367919921874,0,0,0.9187500000000001
2.0456130929997016,0,0,1.1731588134765625,0,0,0.45937500000000003
2.0472485740010598,0,0,1.3814543579101561,0,0,0.3828125
2.048877130000619,0,0,1.5777788940429687,0,0,1.1484375
2.0505890370004636,0,0,1.8195932617187498,0,0,1.1484375
2.052133297000182,0,0,1.2785036865234374,0,0,0.765625
2.0537359450008807,0,0,1.2785036865234374,0,0,1.225
2.05552249900029,0,0,1.0869675537109373,0,0,0.8421875000000001
2.057123185000819,0,0,1.5801730957031248,0,0,1.0718750000000001
2.0586604270010866,0,0,1.6352397338867186,0,0,1.3015625000000002
2.060359352000887,0,0,1.8004396484374998,0,0,1.378125
2.0619739450012275,0,0,1.4939818359375,0,0,1.1484375
2.0635134280000784,0,0,1.4532804077148436,0,0,1.225
2.065267574000245,0,0,1.5682020874023437,0,0,1.0718750000000001
2.066911945001266,0,0,1.419761584472656,0,0,0.9953125
2.06863646200145,0,0,1.3311761230468748,0,0,0.3828125
2.0704406639997615,0,0,1.2641384765625,0,0,0.45937500000000003
2.0721287930009566,0,0,1.1444283935546875,0,0,0.6125
2.0737067380014196,0,0,1.4939818359375,0,0,1.225
2.0753548680004315,0,0,1.3814543579101561,0,0,1.378125
2.077019664000545,0,0,1.3455413330078123,0,0,1.378125
2.078592109000965,0,0,1.3072341064453123,0,0,1.1484375
2.0801291469997523,0,0,1.2641384765625,0,0,0.3828125
2.082220957001482,0,0,1.3287819213867187,0,0,0.45937500000000003
2.0839459560011164,0,0,1.37906015625,0,0,0.9953125
2.0855550300002506,0,0,1.5251064575195312,0,0,1.0718750000000001
2.0872489550001774,0,0,1.3934253662109375,0,0,1.1484375
2.089161971000067,0,0,1.2282254516601563,0,0,1.9140625000000002
2.0912405400013085,0,0,1.446097802734375,0,0,0.6125
2.092978168000627,0,0,1.8243816650390623,0,0,0.6125
2.0948124260012264,0,0,1.7094599853515624,0,0,0.6890625
2.0963789260003978,0,0,1.455674609375,0,0,0.9187500000000001
2.0979944820010132,0,0,1.3934253662109375,0,0,0.9953125
2.100547527001254,0,0,1.3168109130859373,0,0,0.6125
2.102643504000298,0,0,1.3838485595703125,0,0,1.0718750000000001
2.104509259999759,0,0,1.5035586425781249,0,0,1.225
2.1065080340013083,0,0,1.3742717529296875,0,0,0.45937500000000003
2.108227329001238,0,0,1.5849614990234373,0,0,0.9187500000000001
2.110153937001087,0,0,1.426944189453125,0,0,0.765625
2.112109674000749,0,0,1.2282254516601563,0,0,0.22968750000000002
2.1138251180000225,0,0,1.37906015625,0,0,0.9187500000000001
2.115633968000111,0,0,1.2832920898437499,0,0,1.0718750000000001
2.1176767040014965,0,0,1.47482822265625,0,0,1.1484375
2.119588219000434,0,0,1.3934253662109375,0,0,0.9953125
2.1213010150004266,0,0,1.0079588989257813,0,0,1.1484375
2.1229652550009632,0,0,1.2713210815429687,0,0,0.765625
2.12466099500125,0,0,1.3958195678710936,0,0,0.765625
2.126232181000887,0,0,1.6041151123046875,0,0,0.9953125
2.128020883001227,0,0,1.6735469604492186,0,0,1.225
2.129931602999932,0,0,1.47482822265625,0,0,1.9140625000000002
2.1314843440013647,0,0,1.3144167114257812,0,0,1.3015625000000002
2.133009438000954,0,0,1.5777788940429687,0,0,0.765625
2.1346266609998565,0,0,1.8698714965820311,0,0,1.0718750000000001
2.1362198460010404,0,0,1.5394716674804687,0,0,1.1484375
2.137744236000799,0,0,1.2617442749023438,0,0,1.53125
2.139354552000441,0,0,1.4437036010742186,0,0,1.1484375
2.1410990320000565,0,0,1.2665326782226562,0,0,0.153125
2.1427343280010973,0,0,1.3263877197265623,0,0,0.6890625
2.1444904010004393,0,0,1.6735469604492186,0,0,0.8421875000000001
2.1461852339998586,0,0,1.649604943847656,0,0,0.8421875000000001
2.1478553260003537,0,0,1.5897499023437498,0,0,1.4546875000000001
2.1494435670010716,0,0,1.4341267944335936,0,0,1.0718750000000001
2.1511748810007703,0,0,1.2234370483398436,0,0,0.0
2.153038712000125,0,0,1.2665326782226562,0,0,0.6890625
2.1545873610011768,0,0,1.7764976318359373,0,0,0.9187500000000001
2.1561165290004283,0,0,1.8195932617187498,0,0,1.53125
2.157686659000319,0,0,1.5275006591796874,0,0,1.378125
2.159529583001131,0,0,0.9792284790039062,0,0,0.22968750000000002
2.161269322001317,0,0,1.1516109985351561,0,0,832.5406250000001
2.1630071540002973,0,0,1.3838485595703125,0,0,1.1484375
2.1650501130006887,0,0,1.7525556152343749,0,0,1.378125
2.1667369460010377,0,0,1.695094775390625,0,0,1.378125
2.1684022970002843,0,0,0.9504980590820312,0,0,0.9187500000000001
2.1705901800014544,0,0,1.369483349609375,0,0,1.0718750000000001
2.1723877519998496,0,0,1.924938134765625,0,0,0.6890625
2.174031399999876,0,0,2.166752502441406,0,0,1.0718750000000001
2.176011952000408,0,0,1.3215993164062498,0,0,0.8421875000000001
2.1780967060003604,0,0,0.7852981445312499,0,0,0.45937500000000003
2.1798227050003334,0,0,1.2330138549804688,0,0,0.45937500000000003
2.181556037001428,0,0,1.5442600708007812,0,0,0.45937500000000003
2.183502275000137,0,0,1.68551796875,0,0,1.7609375
2.18524208800045,0,0,1.2617442749023438,0,0,1.378125
2.1872904540014133,0,0,0.8810662109374999,0,0,0.30625
2.1891473770010634,0,0,1.6232687255859375,0,0,0.30625
2.190915320001295,0,0,1.838746875,0,0,1.4546875000000001
2.1927852440003335,0,0,1.6256629272460936,0,0,0.6125
2.1949649779999163,0,0,0.7948749511718749,0,0,0.6890625
2.1966605890011124,0,0,0.7326257080078125,0,0,0.30625
2.1984271060009632,0,0,1.24498486328125,0,0,0.9187500000000001
2.200443601999723,0,0,2.0973206542968748,0,0,1.53125
2.2023896720002085,0,0,1.2952630981445312,0,0,1.6843750000000002
2.2042062810014613,0,0,1.1611878051757811,0,0,0.8421875000000001
2.205846022001424,0,0,1.6232687255859375,0,0,0.6890625
2.207882110000355,0,0,2.042254016113281,0,0,0.9953125
2.209618720000435,0,0,1.9871873779296874,0,0,0.9953125
2.211233739000818,0,0,0.8403647827148437,0,0,1.4546875000000001
2.2128992390007625,0,0,0.8092401611328125,0,0,0.0765625
2.214600385999802,0,0,1.3575123413085937,0,0,0.765625
2.2164339950013527,0,0,2.1068974609374997,0,0,1.3015625000000002
2.2182602520006185,0,0,1.2641384765625,0,0,0.9953125
2.2202402479997545,0,0,0.8188169677734375,0,0,0.8421875000000001
2.2223639090007055,0,0,1.4413093994140624,0,0,0.8421875000000001
2.223989854001047,0,0,1.7621324218749999,0,0,1.3015625000000002
2.225941980001153,0,0,1.3000515014648437,0,0,0.6125
2.227604091000103,0,0,1.0342951171875,0,0,0.765625
2.229350127001453,0,0,0.8164227661132812,0,0,0.9187500000000001
2.2313218449999113,0,0,1.6711527587890624,0,0,1.225
2.2331253430002107,0,0,1.675941162109375,0,0,1.225
2.235050007000609,0,0,1.6232687255859375,0,0,0.9953125
2.2370175209998706,0,0,1.3455413330078123,0,0,0.765625
2.2387320210000325,0,0,1.4413093994140624,0,0,1.53125
2.240472834000684,0,0,2.061407629394531,0,0,1.0718750000000001
2.2424493670005177,0,0,1.448492004394531,0,0,0.3828125
2.244233162000455,0,0,0.928950244140625,0,0,0.8421875000000001
2.2458451990005415,0,0,1.5753846923828123,0,0,0.8421875000000001
2.2475704759999644,0,0,1.9512743530273435,0,0,1.4546875000000001
2.249278901001162,0,0,1.3096283081054687,0,0,0.8421875000000001
2.2512893969997094,0,0,0.8116343627929687,0,0,1.1484375
2.253219653000997,0,0,1.5634136840820312,0,0,0.765625
2.254873394000242,0,0,1.9416975463867185,0,0,0.9187500000000001
2.2567690940013563,0,0,1.668758557128906,0,0,0.765625
2.258515093000824,0,0,0.8475473876953125,0,0,0.9187500000000001
2.260246370000459,0,0,1.1659762084960936,0,0,0.9953125
2.2619308320008713,0,0,1.8770541015625,0,0,1.53125
2.2636061840003094,0,0,1.946485949707031,0,0,1.4546875000000001
2.2655138469999656,0,0,1.6711527587890624,0,0,1.0718750000000001
2.2674561769999855,0,0,1.1851298217773436,0,0,0.45937500000000003
2.2690893440012587,0,0,1.89620771484375,0,0,1.225
2.2710599140009435,0,0,1.5682020874023437,0,0,0.765625
2.272629136999967,0,0,1.3024457031249999,0,0,0.0
2.2741546200013545,0,0,1.0366893188476562,0,0,0.6890625
2.2759162110014586,0,0,1.6903063720703124,0,0,0.9953125
2.2774804340006085,0,0,1.4604630126953124,0,0,1.3015625000000002
2.279012454000622,0,0,1.2378022583007813,0,0,1.225
2.2807775080000283,0,0,1.0821791503906248,0,0,0.6890625
2.28231863900146,0,0,1.5658078857421873,0,0,-8.957812500000001
2.2840146200014715,0,0,1.4796166259765624,0,0,0.6125
2.285707971001102,0,0,1.4867992309570313,0,0,-852.8296875000001
2.2873135640002147,0,0,0.8188169677734375,0,0,0.6890625
2.2894967430002,0,0,1.3646949462890625,0,0,1.0718750000000001
2.2914901090007334,0,0,1.5251064575195312,0,0,1.1484375
2.293134720001035,0,0,1.3934253662109375,0,0,0.0765625
2.2946769620011764,0,0,1.3407529296874998,0,0,0.6125
2.2962152039999637,0,0,2.061407629394531,0,0,1.6078125
2.297833945000093,0,0,1.7860744384765623,0,0,0.8421875000000001
2.2994394640008977,0,0,1.2617442749023438,0,0,1.225
2.301044705000095,0,0,1.3000515014648437,0,0,0.8421875000000001
2.3027432230010163,0,0,1.3215993164062498,0,0,0.765625
2.30526845300119,0,0,1.6472107421875,0,0,1.225
2.3070046749999165,0,0,0.93852705078125,0,0,0.765625
2.308651193001424,0,0,1.1755530151367186,0,0,1.9140625000000002
2.3103246560003754,0,0,1.43652099609375,0,0,784.7656250000001
2.3120889500005433,0,0,1.3000515014648437,0,0,1.378125
2.313774801999898,0,0,1.1228805786132812,0,0,2.5265625000000003
2.3155418559999816,0,0,0.6153098266601562,0,0,1.225
2.3171710040005564,0,0,1.6519991455078125,0,0,1.4546875000000001
2.3187213750006777,0,0,1.7764976318359373,0,0,1.7609375
2.3203546530003223,0,0,1.407790576171875,0,0,1.6078125
2.3219756720009173,0,0,1.4125789794921875,0,0,0.9187500000000001
2.3236212829997385,0,0,1.7334020019531249,0,0,1.3015625000000002
2.325217932000669,0,0,1.7932570434570312,0,0,1.0718750000000001
2.3268330430000788,0,0,2.1164742675781247,0,0,1.4546875000000001
2.328485117001037,0,0,1.350329736328125,0,0,0.765625
2.3301657090014487,0,0,1.3144167114257812,0,0,1.0718750000000001
2.3318239680011175,0,0,1.5035586425781249,0,0,1.0718750000000001
2.333672132001084,0,0,1.446097802734375,0,0,0.45937500000000003
2.335430057000849,0,0,1.4245499877929686,0,0,0.6890625
2.337286499001493,0,0,1.2737152832031249,0,0,0.6890625
2.338927036000314,0,0,0.9600748657226562,0,0,0.765625
2.341136159000598,0,0,1.149216796875,0,0,0.9187500000000001
2.3431444140005624,0,0,1.6400281372070311,0,0,0.9187500000000001
2.3447538960008387,0,0,1.5753846923828123,0,0,1.1484375
2.346527543000775,0,0,1.465251416015625,0,0,0.9953125
2.348403613999835,0,0,1.3646949462890625,0,0,0.9953125
2.350087075999909,0,0,1.7645266235351562,0,0,1.0718750000000001
2.3516158740003448,0,0,1.9321207397460936,0,0,1.1484375
2.353146227000252,0,0,1.3551181396484375,0,0,0.8421875000000001
2.3547707090001495,0,0,1.5059528442382812,0,0,0.9187500000000001
2.356371265001144,0,0,1.7310078002929687,0,0,0.45937500000000003
2.3579060990014113,0,0,1.3072341064453123,0,0,1.6843750000000002
2.3598781319997215,0,0,1.3215993164062498,0,0,0.6890625
2.3619559979997575,0,0,1.1276689819335937,0,0,0.153125
2.3638290320013766,0,0,1.0271125122070313,0,0,0.765625
2.3658137870006613,0,0,0.7110778930664062,0,0,0.45937500000000003
2.3674139360009576,0,0,1.5562310791015623,0,0,1.53125
2.368953696000972,0,0,1.5538368774414062,0,0,1.0718750000000001
2.3706098069997097,0,0,1.1228805786132812,0,0,1.0718750000000001
2.3726157290002448,0,0,1.0941501586914062,0,0,0.9953125
2.374173452000832,0,0,2.070984436035156,0,0,0.6890625
2.3763516130002245,0,0,2.2026655273437497,0,0,0.9187500000000001
2.378111240999715,0,0,1.3144167114257812,0,0,0.8421875000000001
2.3796700940001756,0,0,1.4125789794921875,0,0,0.6890625
2.3824026370002684,0,0,1.2880804931640624,0,0,0.45937500000000003
2.383990119000373,0,0,1.6112977172851561,0,0,0.0
2.385513768000237,0,0,1.93451494140625,0,0,0.5359375000000001
2.3871351390007476,0,0,1.350329736328125,0,0,0.22968750000000002
2.389165431000947,0,0,0.7517793212890624,0,0,0.5359375000000001
2.3908626709999226,0,0,1.4413093994140624,0,0,0.9187500000000001
2.3927429459999985,0,0,1.66636435546875,0,0,1.4546875000000001
2.3944784630002687,0,0,1.5346832641601562,0,0,0.9953125
2.3960142790001555,0,0,1.180341418457031,0,0,0.9953125
2.398005720000583,0,0,1.5921441040039062,0,0,0.9953125
2.399964827000076,0,0,1.7884686401367187,0,0,1.3015625000000002
2.4015699940009654,0,0,1.5825672973632812,0,0,1.0718750000000001
2.403094922001401,0,0,1.6017209106445311,0,0,1.378125
2.404718755000431,0,0,1.6112977172851561,0,0,1.1484375
2.406300848000683,0,0,1.0366893188476562,0,0,0.45937500000000003
2.407878256000913,0,0,1.5322890624999999,0,0,1.3015625000000002
2.4094655530007003,0,0,1.637633935546875,0,0,0.6890625
2.4111569600008806,0,0,0.9600748657226562,0,0,1.225
2.4128674040002807,0,0,0.718260498046875,0,0,0.45937500000000003
2.4144566820014006,0,0,1.484405029296875,0,0,0.30625
2.4161495520002063,0,0,1.5251064575195312,0,0,1.6078125
2.4177369970002474,0,0,1.6543933471679686,0,0,1.8375000000000001
2.419448848000684,0,0,1.1109095703125,0,0,1.53125
2.4214231220012152,0,0,1.6543933471679686,0,0,1.3015625000000002
2.423197213000094,0,0,1.8339584716796873,0,0,1.53125
2.424839379000332,0,0,1.917755529785156,0,0,1.0718750000000001
2.4264732870014996,0,0,1.7405846069335937,0,0,1.378125
2.4281244720004906,0,0,1.180341418457031,0,0,0.8421875000000001
2.429779120000603,0,0,0.9241618408203125,0,0,0.5359375000000001
2.4314169900007983,0,0,1.599326708984375,0,0,0.6125
2.4329681580002216,0,0,1.1851298217773436,0,0,0.5359375000000001
2.4346049539999512,0,0,0.8738836059570312,0,0,9.49375
2.4361954360010714,0,0,0.8283937744140625,0,0,0.22968750000000002
2.4378284360009275,0,0,1.4221557861328125,0,0,1.1484375
2.439482121000765,0,0,1.5298948608398437,0,0,1.7609375
2.441168250001283,0,0,1.13006318359375,0,0,0.9187500000000001
2.4428008240010968,0,0,1.5394716674804687,0,0,1.53125
2.444401603001097,0,0,1.7022773803710936,0,0,0.6890625
2.4460366950006573,0,0,1.5442600708007812,0,0,0.6125
2.447629510999832,0,0,1.8602946899414061,0,0,1.378125
2.4492239370010793,0,0,1.5969325073242187,0,0,1.225
2.451258320999841,0,0,0.8762778076171874,0,0,0.3828125
2.452855340001406,0,0,1.1540052001953125,0,0,0.22968750000000002
2.454436378000537,0,0,1.2018892333984375,0,0,-0.153125
2.4561741730012727,0,0,0.9002198242187499,0,0,0.153125
2.4577340070009086,0,0,1.0462661254882812,0,0,1.3015625000000002
2.459331119000126,0,0,1.4891934326171874,0,0,1.6078125
2.4615467980001995,0,0,1.0893617553710937,0,0,0.9953125
2.4631721130008373,0,0,1.2880804931640624,0,0,0.9953125
2.4651889230008237,0,0,1.9225439331054686,0,0,0.765625
2.466995662000045,0,0,1.9584569580078124,0,0,1.0718750000000001
2.468583440000657,0,0,2.114080065917969,0,0,1.1484375
2.470441770999969,0,0,1.659181750488281,0,0,1.1484375
2.47222704700107,0,0,0.8068459594726562,0,0,-0.30625
2.473790344000008,0,0,0.8379705810546875,0,0,0.22968750000000002
2.4754318810009863,0,0,1.199495031738281,0,0,9.264062500000001
2.4770557890005875,0,0,0.9983820922851562,0,0,0.45937500000000003
2.4787014740013547,0,0,1.177947216796875,0,0,1.378125
2.4804292139997415,0,0,1.6831237670898436,0,0,1.53125
2.482166583000435,0,0,1.429338391113281,0,0,1.6078125
2.483937359000265,0,0,1.3335703247070312,0,0,1.225
2.4856068400004006,0,0,1.8435352783203125,0,0,0.9953125
2.4872605440014013,0,0,2.0877438476562498,0,0,1.7609375
2.488949655000397,0,0,1.8435352783203125,0,0,1.6078125
2.4909567989998322,0,0,1.0845733520507812,0,0,2.5265625000000003
2.4926433540003927,0,0,0.8762778076171874,0,0,0.0
2.4942215210012364,0,0,1.1731588134765625,0,0,0.3828125
2.4959020020014577,0,0,1.2713210815429687,0,0,0.45937500000000003
2.497696463000466,0,0,1.1324573852539062,0,0,0.22968750000000002
2.4993748329998198,0,0,0.7852981445312499,0,0,1.378125
2.501154146000772,0,0,1.149216796875,0,0,1.3015625000000002
2.503090902000622,0,0,1.4245499877929686,0,0,1.378125
2.5047902900005283,0,0,1.4053963745117186,0,0,1.225
2.5065503810001246,0,0,2.070984436035156,0,0,0.8421875000000001
2.508184919000996,0,0,2.1835119140624997,0,0,0.9953125
2.5099888800014014,0,0,1.9991583862304687,0,0,0.765625
2.5118144330008363,0,0,1.838746875,0,0,1.3015625000000002
2.5135717280008976,0,0,1.1013327636718748,0,0,0.22968750000000002
2.51535711500037,0,0,1.0941501586914062,0,0,-1.225
2.5169332460009173,0,0,0.6631938598632812,0,0,0.3828125
2.5185474310001155,0,0,0.7900865478515624,0,0,-0.22968750000000002
2.520342633000837,0,0,1.656787548828125,0,0,1.0718750000000001
2.5221310570013884,0,0,1.1851298217773436,0,0,1.990625
2.5237765940000827,0,0,1.1707646118164061,0,0,0.765625
2.525420705000215,0,0,1.5059528442382812,0,0,0.30625
2.5269521139998687,0,0,1.6112977172851561,0,0,0.9187500000000001
2.5286379839999427,0,0,2.281674182128906,0,0,0.765625
2.530454333000307,0,0,2.4756045166015626,0,0,1.8375000000000001
2.5323108120010147,0,0,1.5705962890624998,0,0,1.0718750000000001
2.5341022180000436,0,0,0.8738836059570312,0,0,0.45937500000000003
2.5359220120008104,0,0,1.0534487304687499,0,0,8.498437500000001
2.537654845000361,0,0,0.9337386474609375,0,0,-0.3828125
2.5394400650002353,0,0,1.209071838378906,0,0,1.3015625000000002
2.541614448000473,0,0,0.9816226806640624,0,0,1.6843750000000002
2.544058364999728,0,0,1.1563994018554686,0,0,1.3015625000000002
2.5463797640004486,0,0,1.7645266235351562,0,0,2.0671875
2.549129400000311,0,0,2.5522189697265625,0,0,1.9140625000000002
2.552572324000721,0,0,1.2761094848632812,0,0,0.6890625
2.554642708000756,0,0,1.3551181396484375,0,0,-0.153125
2.5563301330003014,0,0,0.8858546142578124,0,0,0.0765625
2.557911541000067,0,0,1.1372457885742187,0,0,0.6125
2.559706539999752,0,0,1.599326708984375,0,0,1.0718750000000001
2.5613530770006037,0,0,1.0726023437499999,0,0,1.4546875000000001
2.562989280000693,0,0,1.1444283935546875,0,0,1.1484375
2.56464779900125,0,0,1.43652099609375,0,0,0.9187500000000001
2.566330187000858,0,0,1.7980454467773437,0,0,0.9187500000000001
2.5679076690012153,0,0,2.4875755249023435,0,0,1.8375000000000001
2.5694769480014656,0,0,2.710236279296875,0,0,1.6078125
2.5711290030012606,0,0,1.6927005737304686,0,0,1.1484375
2.5727465770014533,0,0,1.2569558715820313,0,0,0.3828125
2.5743390410007123,0,0,0.7900865478515624,0,0,0.0
2.5759769850010343,0,0,0.7709329345703124,0,0,-1.3015625000000002
2.5776893729998847,0,0,1.438915197753906,0,0,0.5359375000000001
2.5792727440002636,0,0,1.5969325073242187,0,0,1.53125
2.5810676319997583,0,0,0.6416460449218749,0,0,1.1484375
2.5827412240014382,0,0,0.967257470703125,0,0,0.9953125
2.584339001999979,0,0,1.5442600708007812,0,0,1.3015625000000002
2.5859974280010647,0,0,2.2266075439453124,0,0,0.6125
2.5877344450000237,0,0,2.5617957763671875,0,0,1.4546875000000001
2.589653201001056,0,0,2.099714855957031,0,0,1.378125
2.5913701629997377,0,0,1.3838485595703125,0,0,0.22968750000000002
2.5931407540010696,0,0,0.8092401611328125,0,0,-9.8
2.5949205300003086,0,0,1.0654197387695312,0,0,0.0
2.596569586001351,0,0,1.5945383056640625,0,0,0.0
2.5980966799997987,0,0,1.2808978881835937,0,0,1.0718750000000001
2.5996329770005104,0,0,1.350329736328125,0,0,1.9140625000000002
2.601222126000721,0,0,1.1468225952148436,0,0,0.3828125
2.603028790999815,0,0,1.4915876342773438,0,0,0.765625
2.6045969770002557,0,0,2.0302830078125,0,0,1.3015625000000002
2.6061268110006495,0,0,2.2601263671875,0,0,1.3015625000000002
2.6077411260012013,0,0,1.7286135986328124,0,0,1.53125
2.6096672160001617,0,0,1.62805712890625,0,0,0.30625
2.6115825270007917,0,0,0.6177040283203125,0,0,-0.22968750000000002
2.6134441169997444,0,0,1.1085153686523437,0,0,0.45937500000000003
2.615273134000745,0,0,1.458068811035156,0,0,1.225
2.616826524001226,0,0,1.5203180541992187,0,0,0.6890625
2.618441802000234,0,0,1.0630255371093749,0,0,1.225
2.6200555060004262,0,0,1.2641384765625,0,0,1.378125
2.621591229000842,0,0,1.4820108276367188,0,0,0.6890625
2.623231729001418,0,0,2.319981408691406,0,0,1.0718750000000001
2.6252217990004283,0,0,1.944091748046875,0,0,1.0718750000000001
2.6267655589999777,0,0,1.8722656982421875,0,0,-0.3828125
2.628507151001031,0,0,0.6584054565429687,0,0,0.0
2.6304678880005667,0,0,0.7206546997070312,0,0,0.5359375000000001
2.632097073001205,0,0,1.5370774658203123,0,0,0.3828125
2.633692332999999,0,0,1.438915197753906,0,0,1.4546875000000001
2.6353651839999657,0,0,0.842758984375,0,0,1.7609375
2.6369349810011045,0,0,0.7493851196289062,0,0,0.45937500000000003
2.638599036999949,0,0,1.1348515869140625,0,0,1.7609375
2.640349387000242,0,0,2.693476867675781,0,0,1.990625
2.6420139420006308,0,0,2.4947581298828125,0,0,1.6078125
2.6438305330011644,0,0,1.9297265380859374,0,0,-8.881250000000001
2.6454995700005384,0,0,0.6105214233398437,0,0,0.8421875000000001
2.6471275510011765,0,0,0.36391865234375,0,0,-0.45937500000000003
2.648748515000989,0,0,1.235408056640625,0,0,0.0765625
2.650405366000996,0,0,2.27927998046875,0,0,1.7609375
2.6520844580008998,0,0,1.2042834350585936,0,0,1.378125
2.653662163000263,0,0,0.7493851196289062,0,0,0.6125
2.6551938860011433,0,0,0.6081272216796875,0,0,0.0
2.656859792999967,0,0,1.235408056640625,0,0,0.22968750000000002
2.6585799590011447,0,0,2.7341782958984373,0,0,1.6078125
2.6604350120014715,0,0,2.3151930053710936,0,0,1.4546875000000001
2.662262454001393,0,0,0.5985504150390625,0,0,1.1484375
2.66388793599981,0,0,0.0430956298828125,0,0,-0.9953125
2.66542258499976,0,0,1.465251416015625,0,0,0.153125
2.6669890860011947,0,0,2.142810485839844,0,0,1.3015625000000002
2.668607512001472,0,0,2.0973206542968748,0,0,1.4546875000000001
2.670313234000787,0,0,1.4221557861328125,0,0,1.3015625000000002
2.67224834100125,0,0,0.9050082275390624,0,0,0.5359375000000001
2.6742521150008542,0,0,1.9752163696289062,0,0,0.9953125
2.675921392001328,0,0,2.2385785522460937,0,0,0.9953125
2.677842741000859,0,0,2.262520568847656,0,0,1.1484375
2.6796069250012806,0,0,0.5530605834960938,0,0,0.30625
2.681238369001221,0,0,0.22266075439453123,0,0,0.3828125
2.682995942001071,0,0,1.2641384765625,0,0,0.8421875000000001
2.684862736001378,0,0,1.8938135131835936,0,0,1.4546875000000001
2.6867980469996837,0,0,1.7094599853515624,0,0,2.1437500000000003
2.6884674730008555,0,0,0.9959878906249999,0,0,1.4546875000000001
2.690104250999866,0,0,2.003946789550781,0,0,0.6890625
2.6917224360004184,0,0,2.2744915771484373,0,0,0.8421875000000001
2.6932550110013835,0,0,2.013523596191406,0,0,1.53125
2.695066972000859,0,0,1.0534487304687499,0,0,0.153125
2.6966952130005666,0,0,0.36391865234375,0,0,0.0
2.6982843430014327,0,0,0.6631938598632812,0,0,0.8421875000000001
2.6999283250006556,0,0,1.7334020019531249,0,0,1.1484375
2.7017325080014416,0,0,1.8842367065429686,0,0,1.225
2.7034501180005464,0,0,1.4700398193359374,0,0,1.0718750000000001
2.7051313590000063,0,0,1.180341418457031,0,0,0.9187500000000001
2.707032930000423,0,0,2.3343466186523436,0,0,1.7609375
2.7086107450013515,0,0,2.243366955566406,0,0,1.225
2.710137191001195,0,0,2.389413256835937,0,0,0.3828125
2.7121508350010117,0,0,0.9528922607421875,0,0,0.5359375000000001
2.713792001000911,0,0,0.23702596435546874,0,0,0.8421875000000001
2.7155868879999616,0,0,0.6153098266601562,0,0,0.765625
2.717284739999741,0,0,1.3862427612304686,0,0,0.9187500000000001
2.718888221999805,0,0,1.6400281372070311,0,0,1.6078125
2.7204723520007974,0,0,1.158793603515625,0,0,0.6890625
2.7220972960003564,0,0,1.6232687255859375,0,0,1.225
2.72369642600097,0,0,2.118868469238281,0,0,1.0718750000000001
2.725273668000227,0,0,2.157175695800781,0,0,1.0718750000000001
2.7270378330013045,0,0,1.5298948608398437,0,0,1.1484375
2.728730999000618,0,0,1.0295067138671874,0,0,-9.8
2.7307781239996984,0,0,0.8762778076171874,0,0,0.153125
2.732402384001034,0,0,1.120486376953125,0,0,1.0718750000000001
2.734368343000824,0,0,1.2114660400390624,0,0,1.53125
2.7359201770013897,0,0,1.3120225097656248,0,0,1.3015625000000002
2.737539159001244,0,0,1.1755530151367186,0,0,0.5359375000000001
2.7391390850007156,0,0,2.1164742675781247,0,0,1.225
2.7406781230001798,0,0,2.224213342285156,0,0,0.9187500000000001
2.742348548999871,0,0,1.9297265380859374,0,0,0.0
2.7440302520008117,0,0,0.3112462158203125,0,0,0.0765625
2.745572383000763,0,0,0.1292868896484375,0,0,0.0
2.747296419000122,0,0,1.2713210815429687,0,0,1.378125
2.7489877520001755,0,0,1.637633935546875,0,0,1.53125
2.750634584999716,0,0,1.2785036865234374,0,0,1.6843750000000002
2.7522177709997777,0,0,0.6344634399414062,0,0,0.5359375000000001
2.753987510001025,0,0,1.7621324218749999,0,0,0.9953125
2.755656084000293,0,0,2.3511060302734372,0,0,1.378125
2.757189677000497,0,0,2.1547814941406247,0,0,1.3015625000000002
2.7588652140002523,0,0,1.9584569580078124,0,0,0.6890625
2.760459733000971,0,0,0.33758243408203126,0,0,-9.8
2.761999086000287,0,0,0.6703764648437499,0,0,0.30625
2.763615308000226,0,0,1.3144167114257812,0,0,1.4546875000000001
2.7652061980006692,0,0,1.4939818359375,0,0,1.378125
2.7667394950003654,0,0,1.37906015625,0,0,1.7609375
2.7685836230011773,0,0,0.8738836059570312,0,0,1.3015625000000002
2.770244733999789,0,0,1.886630908203125,0,0,1.378125
2.771778827000162,0,0,2.7557261108398436,0,0,1.7609375
2.7733312170003046,0,0,2.446874096679687,0,0,1.53125
2.7749082549999002,0,0,1.9847931762695312,0,0,0.5359375000000001
2.7765661440007534,0,0,0.39264907226562495,0,0,-0.6125
2.778154607000033,0,0,0.7445967163085937,0,0,-0.22968750000000002
2.7797518670013233,0,0,1.1013327636718748,0,0,0.9187500000000001
2.78135955200014,0,0,1.7980454467773437,0,0,1.3015625000000002
2.7829836640012218,0,0,1.1875240234375,0,0,1.4546875000000001
2.784562201000881,0,0,0.6631938598632812,0,0,1.3015625000000002
2.786270904000048,0,0,1.848323681640625,0,0,0.9953125
2.7879435520007974,0,0,2.2768857788085937,0,0,2.9859375000000004
2.7907069840002805,0,0,2.3367408203125,0,0,-9.034375
2.7925612590006494,0,0,0.9552864624023437,0,0,-0.6890625
2.794468534000771,0,0,0.6057330200195312,0,0,9.5703125
2.7960391090000485,0,0,0.9840168823242187,0,0,0.6125
2.797674146000645,0,0,1.0031704956054688,0,0,1.4546875000000001
2.7996893449999334,0,0,1.0462661254882812,0,0,1.1484375
2.8012580499998876,0,0,1.3934253662109375,0,0,0.8421875000000001
2.802855253999951,0,0,2.1068974609374997,0,0,1.53125
2.8046471220004605,0,0,2.0925322509765625,0,0,0.6890625
2.8064817499998753,0,0,2.01112939453125,0,0,0.765625
2.808160583001154,0,0,0.9576806640625,0,0,0.153125
2.8097961010007566,0,0,0.5793968017578125,0,0,0.45937500000000003
2.811373694001304,0,0,1.5753846923828123,0,0,0.6125
2.8130146940002305,0,0,1.1156979736328125,0,0,0.8421875000000001
2.8148942469997564,0,0,0.8020575561523438,0,0,1.0718750000000001
2.8168037070008722,0,0,0.6488286499023437,0,0,0.9187500000000001
2.818620687001385,0,0,1.8722656982421875,0,0,0.9953125
2.820315371000106,0,0,2.1619640991210938,0,0,1.0718750000000001
2.8220218700007536,0,0,2.0063409912109376,0,0,1.378125
2.8240235510002094,0,0,0.45968671875,0,0,-0.45937500000000003
2.8261556570014363,0,0,1.1947066284179686,0,0,0.22968750000000002
2.8279637480009114,0,0,1.4508862060546874,0,0,1.225
2.8295991550003237,0,0,1.4101847778320311,0,0,1.1484375
2.831384152999817,0,0,1.1707646118164061,0,0,0.765625
2.8330831160001253,0,0,1.120486376953125,0,0,0.6890625
2.8346807090001676,0,0,1.9704279663085937,0,0,1.53125
2.836204692001047,0,0,2.27927998046875,0,0,0.6125
2.837711230000423,0,0,2.1811177124023438,0,0,1.225
2.8392816380001022,0,0,1.2401964599609374,0,0,0.9187500000000001
2.840973415000917,0,0,0.45489831542968745,0,0,0.0
2.842942004001088,0,0,1.1133037719726562,0,0,0.22968750000000002
2.8446240590001253,0,0,1.5011644409179687,0,0,0.9953125
2.8462772439997934,0,0,1.2521674682617188,0,0,1.378125
2.8479447070003516,0,0,0.9792284790039062,0,0,1.1484375
2.8495100410000305,0,0,1.1707646118164061,0,0,0.9187500000000001
2.8519441059997916,0,0,2.243366955566406,0,0,1.0718750000000001
2.8539027140013786,0,0,2.1835119140624997,0,0,0.45937500000000003
2.8557767849997617,0,0,1.1875240234375,0,0,0.6890625
2.8574070260001463,0,0,0.1292868896484375,0,0,-0.153125
2.8595346870006324,0,0,1.0749965454101562,0,0,0.153125
2.861372351000682,0,0,1.3311761230468748,0,0,0.8421875000000001
2.863030296000943,0,0,0.8595183959960937,0,0,1.7609375
2.8646942030009086,0,0,0.7326257080078125,0,0,1.3015625000000002
2.8662988140004018,0,0,1.898601916503906,0,0,1.8375000000000001
2.8678840740012674,0,0,2.281674182128906,0,0,0.9187500000000001
2.8695011110012274,0,0,2.6695348510742187,0,0,1.225
2.8710817970004427,0,0,1.618480322265625,0,0,1.0718750000000001
2.8726815010013524,0,0,1.0127473022460938,0,0,-0.22968750000000002
2.8742482800007565,0,0,0.9074024291992187,0,0,0.6890625
2.8758804099998088,0,0,1.0295067138671874,0,0,1.378125
2.8777070000014646,0,0,1.1109095703125,0,0,0.9187500000000001
2.879314667001381,0,0,1.1324573852539062,0,0,0.45937500000000003
2.8809361120001995,0,0,1.0414777221679687,0,0,1.225
2.8826054080000176,0,0,1.9488801513671874,0,0,1.6843750000000002
2.884130020000157,0,0,2.1164742675781247,0,0,0.6890625
2.8857243720012775,0,0,2.1787235107421874,0,0,1.1484375
2.887343206000878,0,0,1.5083470458984374,0,0,0.6890625
2.888880300000892,0,0,0.6200982299804687,0,0,-0.22968750000000002
2.8905576699999074,0,0,1.1851298217773436,0,0,0.0
2.8927702930013766,0,0,1.7022773803710936,0,0,0.45937500000000003
2.8943428680013312,0,0,1.0630255371093749,0,0,1.6078125
2.8965916570014087,0,0,0.5698199951171875,0,0,1.1484375
2.898300527000174,0,0,1.3838485595703125,0,0,0.9953125
2.9000850620013807,0,0,2.2960393920898436,0,0,1.225
2.902111094999782,0,0,2.3870190551757813,0,0,0.765625
2.9036636510008975,0,0,1.5921441040039062,0,0,0.765625
2.905221282000639,0,0,0.33518823242187495,0,0,-9.8
2.906929818000208,0,0,1.1156979736328125,0,0,0.0
2.9085674660000223,0,0,1.5873557006835937,0,0,0.45937500000000003
2.910121708000588,0,0,1.5370774658203123,0,0,1.6078125
2.9118562250005198,0,0,1.2378022583007813,0,0,1.53125
2.9135101510000823,0,0,0.8834604125976562,0,0,1.225
2.915061985000648,0,0,1.7477672119140624,0,0,1.6843750000000002
2.916737800000192,0,0,2.0757728393554684,0,0,1.0718750000000001
2.919145809000838,0,0,1.3479355346679687,0,0,1.378125
2.9210642510006437,0,0,0.2442085693359375,0,0,-0.153125
2.9229963950001547,0,0,1.35990654296875,0,0,0.0765625
2.924741709000955,0,0,1.0893617553710937,0,0,1.0718750000000001
2.926651761999892,0,0,1.5777788940429687,0,0,2.2203125000000004
2.928360464000434,0,0,0.8499415893554687,0,0,1.6078125
2.9299032430008083,0,0,0.9983820922851562,0,0,0.8421875000000001
2.9315522800006875,0,0,2.0278888061523435,0,0,1.0718750000000001
2.9334232220007834,0,0,2.767697119140625,0,0,1.7609375
2.934984945000906,0,0,2.0254946044921875,0,0,1.3015625000000002
2.936803239001165,0,0,0.6105214233398437,0,0,-0.6125
2.938683200000014,0,0,0.5339069702148437,0,0,-0.22968750000000002
2.940281793000395,0,0,1.3359645263671873,0,0,0.153125
2.9418041090011684,0,0,1.2928688964843749,0,0,1.1484375
2.9434077570003865,0,0,1.2234370483398436,0,0,1.6843750000000002
2.945019646000219,0,0,1.024718310546875,0,0,1.6843750000000002
2.9466748499999085,0,0,1.4101847778320311,0,0,1.6078125
2.948252758000308,0,0,2.43250888671875,0,0,1.6078125
2.949953461000405,0,0,2.722207287597656,0,0,0.9187500000000001
2.9518076990007103,0,0,1.7980454467773437,0,0,0.765625
2.9533981810000114,0,0,0.38786066894531246,0,0,9.340625000000001
2.9554045109998697,0,0,1.0821791503906248,0,0,0.5359375000000001
2.956985992999762,0,0,1.177947216796875,0,0,1.0718750000000001
2.9585658270007116,0,0,0.97683427734375,0,0,2.0671875
2.9602837520014873,0,0,0.38786066894531246,0,0,0.765625
2.9618254380002327,0,0,0.6631938598632812,0,0,0.9953125
2.9634059390009497,0,0,2.473210314941406,0,0,1.990625
2.9650301420006144,0,0,2.839523168945312,0,0,1.8375000000000001
2.966609884000718,0,0,2.7437551025390623,0,0,1.225
2.968145718001324,0,0,0.7924807495117187,0,0,0.22968750000000002
2.969951791001222,0,0,0.2442085693359375,0,0,0.153125
2.9715400130007765,0,0,1.3742717529296875,0,0,0.22968750000000002
2.97307214400098,0,0,1.649604943847656,0,0,0.3828125
2.9748804010014283,0,0,1.2713210815429687,0,0,0.5359375000000001
2.97666869600107,0,0,0.6057330200195312,0,0,0.45937500000000003
2.9782985290003126,0,0,0.9600748657226562,0,0,0.9953125
2.9799713810007233,0,0,1.6735469604492186,0,0,1.6843750000000002
2.981500085999869,0,0,2.3032219970703123,0,0,2.296875
2.9830075320005562,0,0,2.090138049316406,0,0,0.9187500000000001
2.9845729589997063,0,0,0.9983820922851562,0,0,0.0
2.9864499739996972,0,0,1.4532804077148436,0,0,0.9187500000000001
2.9879990860008547,0,0,2.1116858642578125,0,0,0.9187500000000001
2.9896255870007735,0,0,1.4413093994140624,0,0,0.765625
2.9913457710008515,0,0,0.9983820922851562,0,0,1.0718750000000001
2.9928747169997223,0,0,0.354341845703125,0,0,0.45937500000000003
2.9944328100009443,0,0,1.2713210815429687,0,0,1.1484375
2.9961046620010165,0,0,1.8626888916015625,0,0,1.225
2.9976229590010917,0,0,1.9991583862304687,0,0,3.3687500000000004
2.9991305350013135,0,0,1.1659762084960936,0,0,1.6078125
3.000728054001229,0,0,0.47644613037109373,0,0,-0.5359375000000001
3.002418812000542,0,0,1.1013327636718748,0,0,0.5359375000000001
3.004048775001138,0,0,2.1691467041015624,0,0,1.53125
3.0058106260003115,0,0,2.118868469238281,0,0,2.1437500000000003
3.0076297350005916,0,0,1.3192051147460937,0,0,1.0718750000000001
3.0093080120004743,0,0,0.6488286499023437,0,0,0.9953125
3.0109304750003503,0,0,1.3239935180664062,0,0,0.6125
3.0125936420008657,0,0,1.9488801513671874,0,0,1.1484375
3.0142508640001324,0,0,2.109291662597656,0,0,0.8421875000000001
3.0158179019999807,0,0,1.177947216796875,0,0,1.1484375
3.017404494999937,0,0,-0.01915361328125,0,0,0.6890625
3.01909788300145,0,0,1.3192051147460937,0,0,0.6890625
3.0207450310008426,0,0,1.668758557128906,0,0,0.6125
3.0222767730010673,0,0,1.5370774658203123,0,0,1.4546875000000001
3.0241303630009497,0,0,1.1420341918945311,0,0,1.3015625000000002
3.026059878000524,0,0,1.3455413330078123,0,0,1.990625
3.0277166930009116,0,0,1.687912170410156,0,0,1.8375000000000001
3.0293463409998367,0,0,2.308010400390625,0,0,2.1437500000000003
3.030869898000674,0,0,1.9033903198242186,0,0,1.0718750000000001
3.032541415999731,0,0,0.5147533569335937,0,0,-0.153125
3.034381507000944,0,0,1.24498486328125,0,0,0.153125
3.0360430990003806,0,0,1.8148048583984373,0,0,1.4546875000000001
3.0377176350011723,0,0,1.4030021728515625,0,0,2.1437500000000003
3.039458190000005,0,0,0.9935936889648437,0,0,1.8375000000000001
3.0410508940003638,0,0,0.6536170532226562,0,0,0.3828125
3.042740634000438,0,0,1.3168109130859373,0,0,1.378125
3.0443819310003164,0,0,2.4516625,0,0,1.53125
3.045907432000604,0,0,2.463633508300781,0,0,0.9953125
3.0475616170006106,0,0,1.465251416015625,0,0,1.378125
3.0491674130007596,0,0,0.39264907226562495,0,0,0.153125
3.0506971550003072,0,0,1.1875240234375,0,0,1.0718750000000001
3.0522816560005595,0,0,1.5729904907226562,0,0,0.9953125
3.053911415001494,0,0,1.5155296508789062,0,0,0.9953125
3.0556159890002164,0,0,1.139639990234375,0,0,0.3828125
3.0571658790013316,0,0,0.8068459594726562,0,0,0.5359375000000001
3.0588097300005757,0,0,1.2904746948242187,0,0,1.1484375
3.06039200899977,0,0,1.7238251953125,0,0,1.0718750000000001
3.062264136000522,0,0,1.8650830932617186,0,0,0.5359375000000001
3.064095671001269,0,0,1.158793603515625,0,0,0.30625
3.065719763000743,0,0,0.6967126831054687,0,0,0.153125
3.0673094680005306,0,0,1.5897499023437498,0,0,0.6125
3.069167150000794,0,0,1.4628572143554686,0,0,1.1484375
3.070840094000232,0,0,1.426944189453125,0,0,1.225
3.0724499839998316,0,0,1.0965443603515623,0,0,0.30625
3.074870678001389,0,0,1.6831237670898436,0,0,1.0718750000000001
3.0764807340001425,0,0,1.608903515625,0,0,0.6125
3.078625580001244,0,0,1.6711527587890624,0,0,0.8421875000000001
3.080904776999887,0,0,0.4381389038085937,0,0,0.153125
3.0824432040008105,0,0,1.218648645019531,0,0,0.45937500000000003
3.0844764590001432,0,0,1.9632453613281249,0,0,1.225
3.0860979400004,0,0,1.946485949707031,0,0,1.4546875000000001
3.087630089999948,0,0,1.7932570434570312,0,0,1.3015625000000002
3.090050896000321,0,0,1.2497732666015624,0,0,-8.8046875
3.0917617280010745,0,0,1.7022773803710936,0,0,0.6125
3.094700380001086,0,0,2.2170307373046874,0,0,0.6890625
3.096646525000324,0,0,0.4070142822265625,0,0,9.646875000000001
3.0987798710011702,0,0,0.3064578125,0,0,0.5359375000000001
3.101249639001253,0,0,1.7501614135742187,0,0,1.0718750000000001
3.1030067120009335,0,0,1.9776105712890624,0,0,2.0671875
3.104614694000702,0,0,1.2665326782226562,0,0,1.378125
3.1066097270013415,0,0,1.5849614990234373,0,0,1.53125
3.1083294110012503,0,0,1.6711527587890624,0,0,0.5359375000000001
3.1099878550012363,0,0,2.0829554443359375,0,0,0.5359375000000001
3.111528505000024,0,0,1.2952630981445312,0,0,1.1484375
3.113073376000102,0,0,0.258573779296875,0,0,9.264062500000001
3.1147387090004486,0,0,0.8810662109374999,0,0,-0.6890625
3.1164367830006086,0,0,1.1061211669921875,0,0,0.45937500000000003
3.1181394860013825,0,0,1.3096283081054687,0,0,1.53125
3.119831392001288,0,0,1.3527239379882812,0,0,1.1484375
3.1214583000000857,0,0,1.1635820068359375,0,0,1.378125
3.1229922830007126,0,0,1.8004396484374998,0,0,1.7609375
3.1245159690006403,0,0,2.059013427734375,0,0,0.9187500000000001
3.1261163400013174,0,0,2.1643583007812497,0,0,0.8421875000000001
3.1279114120006852,0,0,1.5394716674804687,0,0,0.6125
3.12957630100027,0,0,0.086191259765625,0,0,0.0
3.1312568000012106,0,0,0.9744400756835937,0,0,0.6125
3.133182649000446,0,0,1.5921441040039062,0,0,0.9187500000000001
3.134748001000844,0,0,1.39821376953125,0,0,1.7609375
3.1364710190009646,0,0,0.6536170532226562,0,0,0.9187500000000001
3.1382048140003462,0,0,1.446097802734375,0,0,0.6125
3.139751463000721,0,0,1.8842367065429686,0,0,0.0
3.1413174090012035,0,0,2.360682836914062,0,0,1.378125
3.143212572000266,0,0,1.5753846923828123,0,0,1.0718750000000001
3.1448759800005064,0,0,0.7038952880859375,0,0,-9.8
3.1466052560008393,0,0,0.9528922607421875,0,0,0.0765625
3.148377588000585,0,0,1.4030021728515625,0,0,1.378125
3.1500859950010636,0,0,1.3407529296874998,0,0,1.225
3.1518319380011235,0,0,1.2138602416992186,0,0,0.45937500000000003
3.153865989001133,0,0,1.20667763671875,0,0,0.45937500000000003
3.155536154999936,0,0,2.3726538452148436,0,0,1.3015625000000002
3.157143674001418,0,0,2.1906945190429687,0,0,1.53125
3.1587561190008273,0,0,1.5562310791015623,0,0,0.3828125
3.1607355779997306,0,0,0.011971008300781249,0,0,-853.4421875
3.162537780001003,0,0,0.97683427734375,0,0,-0.45937500000000003
3.164199094000651,0,0,1.8435352783203125,0,0,1.4546875000000001
3.166282386000603,0,0,2.04943662109375,0,0,2.5265625000000003
3.1680780690003303,0,0,0.5722141967773438,0,0,1.0718750000000001
3.1702198780003528,0,0,1.5466542724609373,0,0,0.22968750000000002
3.171869730000253,0,0,2.1116858642578125,0,0,1.0718750000000001
3.1734658229997876,0,0,2.731784094238281,0,0,1.0718750000000001
3.1751823220001825,0,0,1.3910311645507811,0,0,0.8421875000000001
3.176863136000975,0,0,0.5123591552734374,0,0,-0.45937500000000003
3.1784635260009964,0,0,0.6631938598632812,0,0,0.0
3.180373226001393,0,0,1.216254443359375,0,0,0.6890625
3.1819378010004584,0,0,1.2330138549804688,0,0,2.296875
3.1835324870007753,0,0,1.5682020874023437,0,0,1.0718750000000001
3.1852589299996907,0,0,1.7597382202148437,0,0,1.6078125
3.186830505001126,0,0,2.070984436035156,0,0,1.6843750000000002
3.1886539660008566,0,0,1.9416975463867185,0,0,0.765625
3.190737128001274,0,0,2.003946789550781,0,0,0.153125
3.1922814440004004,0,0,0.4955997436523437,0,0,0.0
3.1938044449998415,0,0,0.15322890625,0,0,0.0
3.1955663320004533,0,0,1.2808978881835937,0,0,-9.1109375
3.197252109999681,0,0,1.0726023437499999,0,0,0.765625
3.1987941290008166,0,0,1.0845733520507812,0,0,1.1484375
3.201086196000688,0,0,1.3838485595703125,0,0,0.8421875000000001
3.2027356030012015,0,0,1.917755529785156,0,0,1.53125
3.204529676000675,0,0,2.243366955566406,0,0,1.6078125
3.206742762000431,0,0,2.2481553588867187,0,0,1.0718750000000001
3.2085603710002033,0,0,0.4955997436523437,0,0,-0.5359375000000001
3.2103208690004976,0,0,0.9935936889648437,0,0,0.0
3.212117905000923,0,0,1.6807295654296874,0,0,0.8421875000000001
3.213782460001312,0,0,1.687912170410156,0,0,1.4546875000000001
3.215363220000654,0,0,0.9792284790039062,0,0,1.3015625000000002
3.217430400000012,0,0,0.9528922607421875,0,0,1.0718750000000001
3.2191470470006607,0,0,1.9033903198242186,0,0,1.7609375
3.220737139999983,0,0,2.2960393920898436,0,0,1.3015625000000002
3.222362084999986,0,0,1.908178723144531,0,0,1.4546875000000001
3.223901642000783,0,0,1.1659762084960936,0,0,0.8421875000000001
3.2256291960002272,0,0,0.25139117431640623,0,0,0.5359375000000001
3.22728699199979,0,0,1.2521674682617188,0,0,0.22968750000000002
3.228834938001455,0,0,1.5849614990234373,0,0,0.6125
3.2306225290012662,0,0,1.4341267944335936,0,0,1.53125
3.232271380000384,0,0,0.7733271362304687,0,0,0.9953125
3.2338106960014557,0,0,1.0582371337890624,0,0,1.6078125
3.2357373230006488,0,0,2.0087351928710935,0,0,1.4546875000000001
3.2373806000014156,0,0,2.090138049316406,0,0,1.9140625000000002
3.2389254530007747,0,0,1.7717092285156248,0,0,1.4546875000000001
3.24062643400066,0,0,0.70868369140625,0,0,0.0
3.2426858369999536,0,0,1.0654197387695312,0,0,1.0718750000000001
3.244317280999894,0,0,1.9584569580078124,0,0,1.0718750000000001
3.24590567100131,0,0,1.6256629272460936,0,0,1.6078125
3.2480017030011368,0,0,1.39821376953125,0,0,0.9953125
3.249983642999723,0,0,0.8738836059570312,0,0,0.5359375000000001
3.2517303270014963,0,0,1.956062756347656,0,0,0.6890625
3.253620380000939,0,0,2.1835119140624997,0,0,0.30625
3.2552612500003306,0,0,1.024718310546875,0,0,0.5359375000000001
3.256799103000958,0,0,0.5243301635742187,0,0,-0.6890625
3.2584796950013697,0,0,0.8092401611328125,0,0,0.22968750000000002
3.260122917001354,0,0,1.0606313354492187,0,0,1.225
3.2618040650013427,0,0,1.3072341064453123,0,0,1.6078125
3.2634932680011843,0,0,1.3263877197265623,0,0,0.6890625
3.265197860000626,0,0,1.2521674682617188,0,0,1.1484375
3.26677917500092,0,0,2.2290017456054687,0,0,1.8375000000000001
3.2684860640001716,0,0,2.588131994628906,0,0,1.225
3.2701963409999735,0,0,2.0374656127929685,0,0,0.6125
3.2718470260006143,0,0,1.1228805786132812,0,0,0.0765625
3.2735370620011963,0,0,-0.031124621582031248,0,0,-0.9953125
3.2752265430008265,0,0,1.235408056640625,0,0,0.0
3.276851821001401,0,0,1.8171990600585937,0,0,0.765625
3.2784733950011287,0,0,1.1037269653320312,0,0,2.296875
3.280137450001348,0,0,0.12449848632812499,0,0,0.8421875000000001
3.2820106700000906,0,0,0.689530078125,0,0,1.0718750000000001
3.2837378540007194,0,0,2.2673089721679687,0,0,1.378125
3.285327651001353,0,0,2.81558115234375,0,0,1.8375000000000001
3.2873160910003207,0,0,1.8531120849609375,0,0,1.0718750000000001
3.2895210290007526,0,0,0.36631285400390623,0,0,0.0
3.2911874370001897,0,0,1.0749965454101562,0,0,0.8421875000000001
3.29290876900086,0,0,1.2306196533203124,0,0,0.6125
3.294663249000223,0,0,1.1707646118164061,0,0,1.6078125
3.2962735640012397,0,0,0.63206923828125,0,0,0.8421875000000001
3.2978024359999836,0,0,1.0965443603515623,0,0,1.0718750000000001
3.299508787000377,0,0,2.3343466186523436,0,0,1.8375000000000001
3.301235490000181,0,0,2.528276953125,0,0,2.3734375
3.3027965649998805,0,0,2.3295582153320313,0,0,1.225
3.304449768000268,0,0,0.9744400756835937,0,0,-0.8421875000000001
3.3061002120011835,0,0,1.3096283081054687,0,0,9.5703125
3.3077638049999223,0,0,1.5969325073242187,0,0,0.6125
3.309448304000398,0,0,1.4173673828125,0,0,1.3015625000000002
3.31106006400114,0,0,1.3215993164062498,0,0,1.3015625000000002
3.3127248600012535,0,0,0.2346317626953125,0,0,0.8421875000000001
3.31440258099974,0,0,0.842758984375,0,0,0.45937500000000003
3.3160082860013063,0,0,1.6639701538085936,0,0,0.765625
3.3175288420006837,0,0,2.7365724975585937,0,0,1.7609375
3.3191141019997303,0,0,1.6160861206054686,0,0,1.9140625000000002
3.3207041770001524,0,0,0.6703764648437499,0,0,-1.1484375
3.322366584001429,0,0,1.0606313354492187,0,0,0.22968750000000002
3.324047101999895,0,0,1.2737152832031249,0,0,0.8421875000000001
3.325741268001366,0,0,1.7621324218749999,0,0,1.1484375
3.3273451020013454,0,0,1.7238251953125,0,0,1.7609375
3.3288960290010436,0,0,0.622492431640625,0,0,0.765625
3.330684379001468,0,0,1.1611878051757811,0,0,0.765625
3.3325482470008865,0,0,2.0925322509765625,0,0,0.9953125
3.3341109700013476,0,0,2.3319524169921872,0,0,0.765625
3.3358910420010943,0,0,1.5897499023437498,0,0,0.45937500000000003
3.337762188000852,0,0,0.4285620971679687,0,0,0.45937500000000003
3.3393822990001354,0,0,1.0199299072265624,0,0,0.0
3.3410905390010157,0,0,1.4221557861328125,0,0,0.5359375000000001
3.3427485570009594,0,0,1.649604943847656,0,0,1.1484375
3.344692776001466,0,0,0.8738836059570312,0,0,0.3828125
3.3464506450000044,0,0,1.687912170410156,0,0,1.7609375
3.348051683000449,0,0,2.250549560546875,0,0,1.0718750000000001
3.3496327200009546,0,0,2.068590234375,0,0,1.378125
3.351325423000162,0,0,1.2808978881835937,0,0,1.0718750000000001
3.352999238000848,0,0,0.6607996582031249,0,0,-0.8421875000000001
3.354568590000781,0,0,1.24498486328125,0,0,-0.5359375000000001
3.3561039800006256,0,0,1.2856862915039062,0,0,0.6125
3.3577766650014382,0,0,1.2761094848632812,0,0,1.4546875000000001
3.3594508309997764,0,0,0.7398083129882812,0,0,0.9953125
3.361025165000683,0,0,0.5674257934570313,0,0,0.9187500000000001
3.362675628000943,0,0,1.637633935546875,0,0,1.7609375
3.3643473320007615,0,0,2.300827795410156,0,0,0.765625
3.366069960000459,0,0,2.588131994628906,0,0,1.0718750000000001
3.367726386000868,0,0,1.9536685546875,0,0,0.3828125
3.3694327370012616,0,0,0.612915625,0,0,0.22968750000000002
3.371060830000715,0,0,1.2665326782226562,0,0,-0.22968750000000002
3.3726945520011213,0,0,1.5155296508789062,0,0,0.45937500000000003
3.3743806630009203,0,0,1.2210428466796874,0,0,1.7609375
3.376012681001157,0,0,0.93852705078125,0,0,1.225
3.3775703860010253,0,0,0.5363011718749999,0,0,0.6890625
3.379093090999959,0,0,1.5825672973632812,0,0,1.6843750000000002
3.380739330999859,0,0,2.1164742675781247,0,0,1.8375000000000001
3.3823346280005353,0,0,1.9752163696289062,0,0,1.1484375
3.3838901480012282,0,0,1.2832920898437499,0,0,1.3015625000000002
3.385534851000557,0,0,1.1085153686523437,0,0,1.1484375
3.387141832999987,0,0,1.7022773803710936,0,0,0.3828125
3.3888068329997623,0,0,1.9632453613281249,0,0,0.30625
3.390364093000244,0,0,1.407790576171875,0,0,1.1484375
3.391898335001315,0,0,0.7278373046875,0,0,0.45937500000000003
3.3935662980002235,0,0,0.469263525390625,0,0,0.30625
3.3951509650014486,0,0,1.6328455322265625,0,0,0.9187500000000001
3.3967790580009023,0,0,2.138022082519531,0,0,1.3015625000000002
3.398410502000843,0,0,2.3391350219726563,0,0,1.378125
3.400035354001375,0,0,1.3048399047851562,0,0,0.45937500000000003
3.4017103540008975,0,0,0.43574470214843747,0,0,2.45
3.403318112999841,0,0,1.7717092285156248,0,0,0.6890625
3.404953706000015,0,0,2.0661960327148434,0,0,0.765625
3.4066430570001103,0,0,1.6903063720703124,0,0,1.8375000000000001
3.4081881689999136,0,0,0.9121908325195311,0,0,0.6125
3.4098251320010604,0,0,0.7589619262695312,0,0,0.8421875000000001
3.4114822990013636,0,0,1.7836802368164062,0,0,0.6890625
3.413133595000545,0,0,2.1715409057617188,0,0,1.225
3.4147622250002314,0,0,1.8339584716796873,0,0,1.225
3.416410724999878,0,0,0.4381389038085937,0,0,-0.22968750000000002
3.4179472440009704,0,0,0.08379705810546874,0,0,0.765625
3.419583078000869,0,0,1.2880804931640624,0,0,1.225
3.4213895200009574,0,0,1.5873557006835937,0,0,1.1484375
3.4229336509997665,0,0,1.6208745239257811,0,0,1.8375000000000001
3.424557577000087,0,0,0.7805097412109374,0,0,0.8421875000000001
3.4262182430011308,0,0,1.9608511596679685,0,0,1.4546875000000001
3.4279554830009147,0,0,2.4516625,0,0,1.1484375
3.429673852000633,0,0,2.3487118286132813,0,0,1.8375000000000001
3.4313810180010478,0,0,0.6919242797851562,0,0,0.765625
3.4330857950008067,0,0,-0.028730419921875,0,0,-0.45937500000000003
3.434880423001232,0,0,1.1635820068359375,0,0,0.153125
3.4367215870006476,0,0,1.8698714965820311,0,0,0.9953125
3.438355717000377,0,0,1.7310078002929687,0,0,2.3734375
3.439898552000159,0,0,1.0414777221679687,0,0,0.9953125
3.4415561990008428,0,0,0.7278373046875,0,0,0.45937500000000003
3.443220495000787,0,0,2.5378537597656248,0,0,1.3015625000000002
3.4448679400011315,0,0,2.6719290527343746,0,0,2.0671875
3.446506644000692,0,0,2.0087351928710935,0,0,0.9953125
3.4482506240001385,0,0,0.5363011718749999,0,0,0.0765625
3.449855976001345,0,0,0.01915361328125,0,0,0.22968750000000002
3.4519441009997536,0,0,1.429338391113281,0,0,1.225
3.4537087099997734,0,0,1.388636962890625,0,0,1.8375000000000001
3.455395820999911,0,0,0.8044517578125,0,0,1.8375000000000001
3.456985358001475,0,0,0.5315127685546874,0,0,0.765625
3.458653525000045,0,0,1.9321207397460936,0,0,1.7609375
3.460479467001278,0,0,2.224213342285156,0,0,1.378125
3.46208980099982,0,0,2.2553379638671873,0,0,1.0718750000000001
3.4636864490003063,0,0,1.0366893188476562,0,0,0.9187500000000001
3.4655430580005486,0,0,0.05027823486328125,0,0,0.45937500000000003
3.467216613000346,0,0,1.7429788085937499,0,0,0.5359375000000001
3.468830206000348,0,0,2.123656872558594,0,0,1.0718750000000001
3.470543687000827,0,0,1.7238251953125,0,0,1.4546875000000001
3.4720925580004405,0,0,1.2425906616210938,0,0,0.5359375000000001
3.4736202630010666,0,0,0.39743747558593745,0,0,0.30625
3.475216689001172,0,0,2.0733786376953125,0,0,1.7609375
3.4769556139999622,0,0,2.4013842651367185,0,0,1.6843750000000002
3.478628779999781,0,0,1.889025109863281,0,0,1.0718750000000001
3.4802113370005827,0,0,-0.02154781494140625,0,0,-0.3828125
3.4818512620004185,0,0,-0.3016694091796875,0,0,0.6125
3.4835570579998603,0,0,1.2713210815429687,0,0,0.8421875000000001
3.485148614001446,0,0,2.212242333984375,0,0,1.53125
3.4867709480004123,0,0,2.2170307373046874,0,0,2.1437500000000003
3.4884573360013746,0,0,0.5961562133789062,0,0,0.6890625
3.4900548360001267,0,0,1.0462661254882812,0,0,0.9187500000000001
3.491682596000828,0,0,2.1452046874999997,0,0,1.0718750000000001
3.493263022000974,0,0,2.252943762207031,0,0,1.53125
3.494788635000077,0,0,1.9512743530273435,0,0,0.30625
3.4965523179998854,0,0,0.02633621826171875,0,0,-1.225
3.498163726000712,0,0,0.7158662963867187,0,0,0.153125
3.499699783000324,0,0,1.3263877197265623,0,0,0.8421875000000001
3.5013594680003735,0,0,1.6352397338867186,0,0,1.225
3.503090948001045,0,0,1.649604943847656,0,0,1.6078125
3.5048447429999214,0,0,0.6344634399414062,0,0,1.1484375
3.506455521001044,0,0,1.8818425048828125,0,0,0.3828125
3.5081544280001253,0,0,2.5761609863281247,0,0,1.1484375
3.509982499999751,0,0,3.0334535034179684,0,0,0.8421875000000001
3.5116619070013257,0,0,0.9840168823242187,0,0,0.9187500000000001
3.5133172960013326,0,0,-0.3447650390625,0,0,9.264062500000001
3.5149742770008743,0,0,0.6200982299804687,0,0,9.49375
3.5166178880008374,0,0,1.6615759521484375,0,0,0.22968750000000002
3.5182556100007787,0,0,1.5251064575195312,0,0,2.1437500000000003
3.5199043140000867,0,0,1.1228805786132812,0,0,0.9187500000000001
3.521572499001195,0,0,0.9026140258789062,0,0,1.378125
3.523348867000095,0,0,2.0925322509765625,0,0,1.4546875000000001
3.524993959999847,0,0,2.461239306640625,0,0,1.225
3.526581572001305,0,0,2.3343466186523436,0,0,0.153125
3.5284159210004873,0,0,0.49320554199218747,0,0,-0.9953125
3.5300849760005804,0,0,0.17956512451171874,0,0,0.153125
3.5317452540002705,0,0,0.7900865478515624,0,0,-8.728125
3.5334576229997765,0,0,1.1755530151367186,0,0,1.53125
3.5350540500003262,0,0,1.429338391113281,0,0,1.6078125
3.5367560490012693,0,0,0.7589619262695312,0,0,-0.153125
3.5384502520009846,0,0,1.9416975463867185,0,0,1.3015625000000002
3.5401069930012454,0,0,2.3391350219726563,0,0,0.9187500000000001
3.541863047001243,0,0,2.29843359375,0,0,1.378125
3.543683489000614,0,0,0.9888052856445312,0,0,-0.6890625
3.545919557000161,0,0,-0.0047884033203125,0,0,0.0
3.5478818120009237,0,0,1.1444283935546875,0,0,1.1484375
3.549628329999905,0,0,1.5682020874023437,0,0,1.6843750000000002
3.551276162999784,0,0,1.1707646118164061,0,0,2.296875
3.5528986070003157,0,0,0.93852705078125,0,0,0.9953125
3.5546281060014735,0,0,1.6208745239257811,0,0,0.765625
3.556328309001401,0,0,2.269703173828125,0,0,1.0718750000000001
3.5579439580014878,0,0,2.5354595581054684,0,0,0.765625
3.5596344390014565,0,0,1.4772224243164063,0,0,0.9953125
3.5614944730004936,0,0,-0.14604630126953125,0,0,0.3828125
3.5631222510000953,0,0,0.833182177734375,0,0,0.22968750000000002
3.564712048000729,0,0,1.4508862060546874,0,0,1.225
3.566433677000532,0,0,1.6615759521484375,0,0,2.9093750000000003
3.568219193000914,0,0,0.9169792358398436,0,0,1.0718750000000001
3.569870434001132,0,0,1.4341267944335936,0,0,1.225
3.5715251750007155,0,0,2.24097275390625,0,0,1.378125
3.5732233590006217,0,0,1.9680337646484374,0,0,1.4546875000000001
3.574903840000843,0,0,1.697488977050781,0,0,1.0718750000000001
3.576729948999855,0,0,-0.02154781494140625,0,0,-1.0718750000000001
3.578497596001398,0,0,1.0199299072265624,0,0,-9.8
3.580055911001182,0,0,1.3239935180664062,0,0,1.1484375
3.5815964129997155,0,0,1.5059528442382812,0,0,2.1437500000000003
3.583586648999699,0,0,0.6919242797851562,0,0,1.3015625000000002
3.585735681001097,0,0,1.0989385620117187,0,0,0.765625
3.587316365999868,0,0,2.5043349365234375,0,0,0.6125
3.5892183080013638,0,0,2.636016027832031,0,0,1.53125
3.590836864001176,0,0,2.530671154785156,0,0,0.45937500000000003
3.592413252999904,0,0,-0.028730419921875,0,0,-0.8421875000000001
3.594800393000696,0,0,0.7254431030273437,0,0,9.646875000000001
3.596750926000823,0,0,1.388636962890625,0,0,1.3015625000000002
3.598391019000701,0,0,1.5251064575195312,0,0,2.1437500000000003
3.599927076000313,0,0,0.7876923461914062,0,0,1.225
3.6017926660006196,0,0,1.0893617553710937,0,0,0.9187500000000001
3.6034052400009386,0,0,2.1499930908203124,0,0,1.3015625000000002
3.6049490189998323,0,0,2.4133552734375,0,0,1.378125
3.6065353710000636,0,0,2.310404602050781,0,0,1.0718750000000001
3.608135927001058,0,0,1.254561669921875,0,0,0.0
3.6098227790007513,0,0,0.031124621582031248,0,0,0.5359375000000001
3.6115434630009986,0,0,1.1707646118164061,0,0,0.9187500000000001
3.613249961999827,0,0,1.1420341918945311,0,0,1.4546875000000001
3.6149973130013677,0,0,1.0630255371093749,0,0,1.6078125
3.6166568680000637,0,0,0.7398083129882812,0,0,0.765625
3.618194647000564,0,0,2.269703173828125,0,0,1.378125
3.619805295000333,0,0,2.389413256835937,0,0,1.1484375
3.6215696830004163,0,0,2.5641899780273434,0,0,1.6843750000000002
3.623168183001326,0,0,1.838746875,0,0,0.9187500000000001
3.624776147000375,0,0,0.10773907470703124,0,0,-0.9187500000000001
3.626658088000113,0,0,1.3239935180664062,0,0,-0.22968750000000002
3.628364068999872,0,0,1.687912170410156,0,0,1.225
3.6301714930013986,0,0,1.1156979736328125,0,0,2.2203125000000004
3.6321999890005827,0,0,0.5434837768554687,0,0,1.1484375
3.6338874510001915,0,0,0.7709329345703124,0,0,0.9953125
3.6355143769997085,0,0,2.059013427734375,0,0,1.1484375
3.637138562000473,0,0,2.4779987182617185,0,0,1.3015625000000002
3.6387684700002865,0,0,2.4516625,0,0,1.0718750000000001
3.6404155070013076,0,0,0.6751648681640625,0,0,0.0
3.642020544000843,0,0,0.3184288208007812,0,0,1.1484375
3.643603415001053,0,0,0.8930372192382812,0,0,0.8421875000000001
3.645187359999909,0,0,0.8714894042968749,0,0,1.3015625000000002
3.646951636999802,0,0,1.2689268798828124,0,0,1.9140625000000002
3.6486105250005494,0,0,1.120486376953125,0,0,1.53125
3.6502379330013355,0,0,2.212242333984375,0,0,1.6843750000000002
3.6519075440010056,0,0,2.3223756103515623,0,0,1.378125
3.653490340000644,0,0,2.2026655273437497,0,0,1.8375000000000001
3.6550198050008476,0,0,1.7262193969726563,0,0,0.765625
3.656650601000365,0,0,0.30406361083984373,0,0,-1.1484375
3.6582273050007643,0,0,1.3670891479492187,0,0,-0.22968750000000002
3.659890730999905,0,0,1.5298948608398437,0,0,1.6078125
3.6615878230004455,0,0,1.2282254516601563,0,0,1.53125
3.6631751010008884,0,0,0.9840168823242187,0,0,1.7609375
3.6647820650014182,0,0,0.32082302246093747,0,0,0.6890625
3.66659134099973,0,0,2.0757728393554684,0,0,1.6843750000000002
3.668234933000349,0,0,2.5426421630859375,0,0,0.30625
3.669878303000587,0,0,2.7461493041992187,0,0,0.5359375000000001
3.6716787460009073,0,0,1.6136919189453125,0,0,1.0718750000000001
3.673327579001125,0,0,0.076614453125,0,0,-0.45937500000000003
3.6748701360011182,0,0,0.622492431640625,0,0,0.153125
3.6769011870001123,0,0,1.3383587280273437,0,0,0.765625
3.67855570500069,0,0,1.2306196533203124,0,0,1.4546875000000001
3.680285833999733,0,0,0.699106884765625,0,0,1.3015625000000002
3.6821766829998523,0,0,1.3359645263671873,0,0,1.8375000000000001
3.683727720999741,0,0,2.3127988037109373,0,0,1.990625
3.6852739440000732,0,0,2.626439221191406,0,0,2.1437500000000003
3.687141979000444,0,0,2.059013427734375,0,0,1.3015625000000002
3.688735035000718,0,0,0.33518823242187495,0,0,-1.378125
3.6906685499998275,0,0,1.5442600708007812,0,0,9.5703125
3.6926018240010308,0,0,1.446097802734375,0,0,0.9953125
3.6942953420002596,0,0,0.6775590698242188,0,0,1.6078125
3.6963338750010735,0,0,0.3280056274414062,0,0,0.8421875000000001
3.698140336000506,0,0,0.9911994873046874,0,0,1.225
3.6997719099999813,0,0,2.588131994628906,0,0,1.53125
3.701842108999699,0,0,2.9089550170898435,0,0,1.7609375
3.7036827730007644,0,0,1.1540052001953125,0,0,1.8375000000000001
3.70527168100125,0,0,0.13646949462890623,0,0,0.0
3.7070765500011476,0,0,1.5203180541992187,0,0,0.153125
3.70877834500061,0,0,1.656787548828125,0,0,0.0
3.710421641000721,0,0,0.86191259765625,0,0,1.990625
3.71219764000125,0,0,0.699106884765625,0,0,0.6890625
3.7138352319998376,0,0,0.679953271484375,0,0,0.9187500000000001
3.7154913430003944,0,0,2.042254016113281,0,0,1.9140625000000002
3.717135472999871,0,0,2.3965958618164063,0,0,1.7609375
3.7186884000002465,0,0,2.070984436035156,0,0,0.765625
3.720400658001381,0,0,0.3399766357421875,0,0,-0.9953125
3.7222484339999937,0,0,1.4987702392578124,0,0,0.0
3.724106634999771,0,0,1.5227122558593749,0,0,1.7609375
3.7262017220000416,0,0,1.3048399047851562,0,0,2.45
3.728017109000575,0,0,0.8834604125976562,0,0,0.6890625
3.729565592000654,0,0,0.5363011718749999,0,0,0.6125
3.7310870370001794,0,0,1.5131354492187499,0,0,1.378125
3.7326875750004547,0,0,2.636016027832031,0,0,1.53125
3.7342584090001765,0,0,2.1547814941406247,0,0,1.225
3.736219534999691,0,0,0.14604630126953125,0,0,1.225
3.737931497000318,0,0,-0.4165910888671875,0,0,0.0765625
3.7395744410005136,0,0,1.6735469604492186,0,0,0.3828125
3.7411402570014616,0,0,2.059013427734375,0,0,0.9187500000000001
3.742811571000857,0,0,1.37906015625,0,0,2.0671875
3.7444711640000605,0,0,0.28012159423828126,0,0,1.0718750000000001
3.74605331299972,0,0,0.229843359375,0,0,0.765625
3.747619517000203,0,0,2.3774422485351563,0,0,1.7609375
3.749157759000809,0,0,2.4109610717773435,0,0,0.765625
3.7508180370004993,0,0,2.221819140625,0,0,0.765625
3.7525304800001322,0,0,0.7876923461914062,0,0,0.9187500000000001
3.7542205910012854,0,0,-0.4333505004882812,0,0,-0.30625
3.755974312000035,0,0,1.3575123413085937,0,0,0.0765625
3.7576727920004487,0,0,1.85790048828125,0,0,1.378125
3.759224293000443,0,0,1.197100830078125,0,0,1.6078125
3.7608780520004075,0,0,0.7996633544921875,0,0,0.5359375000000001
3.7624804970000696,0,0,1.0007762939453124,0,0,-9.723437500000001
3.7640183130006335,0,0,1.4820108276367188,0,0,1.0718750000000001
3.7657604050000373,0,0,2.327164013671875,0,0,1.6078125
3.7674085710004874,0,0,2.0661960327148434,0,0,1.0718750000000001
3.769045367000217,0,0,1.3096283081054687,0,0,1.1484375
3.77070436699978,0,0,0.08858546142578125,0,0,-1.1484375
3.772318830000586,0,0,1.8171990600585937,0,0,0.0
3.773863534999691,0,0,1.7573440185546874,0,0,1.53125
3.775445851000768,0,0,0.8403647827148437,0,0,1.0718750000000001
3.7771829980010807,0,0,0.8092401611328125,0,0,9.49375
3.778994866001085,0,0,0.373495458984375,0,0,0.6890625
3.7805998290004936,0,0,1.9823989746093749,0,0,1.6078125
3.7823142360011843,0,0,2.5546131713867184,0,0,1.225
3.784047883000312,0,0,2.0302830078125,0,0,1.7609375
3.785689383001227,0,0,1.0438719238281249,0,0,0.0765625
3.787351901000875,0,0,0.17238251953125,0,0,-1.1484375
3.78940543400131,0,0,1.7956512451171873,0,0,0.0
3.7912547280011495,0,0,1.656787548828125,0,0,1.7609375
3.792951505000019,0,0,1.1923124267578125,0,0,1.0718750000000001
3.7946165970006405,0,0,0.4477157104492187,0,0,0.6125
3.796817424001347,0,0,0.46686932373046874,0,0,0.0
3.7989892510013306,0,0,2.6958710693359373,0,0,1.9140625000000002
3.8005495850011357,0,0,2.4253262817382812,0,0,2.45
3.803043965001052,0,0,1.2785036865234374,0,0,0.30625
3.8049187770011486,0,0,0.0143652099609375,0,0,-0.8421875000000001
3.807191732999854,0,0,1.5251064575195312,0,0,0.22968750000000002
3.8094552620004833,0,0,1.5538368774414062,0,0,1.8375000000000001
3.8110790770006133,0,0,0.9457096557617187,0,0,1.990625
3.8127058549998765,0,0,0.5698199951171875,0,0,0.22968750000000002
3.8142299310002272,0,0,1.0175357055664063,0,0,0.0765625
3.815870968001036,0,0,2.2026655273437497,0,0,1.6078125
3.817527486000472,0,0,2.3391350219726563,0,0,1.53125
3.819447020001462,0,0,1.4867992309570313,0,0,1.4546875000000001
3.8210766310003237,0,0,1.0606313354492187,0,0,0.153125
3.822972646999915,0,0,0.4836287353515625,0,0,-0.5359375000000001
3.8248386070008564,0,0,1.5801730957031248,0,0,0.6125
3.826753456000006,0,0,1.4221557861328125,0,0,2.3734375
3.8285235470011685,0,0,0.5458779785156249,0,0,1.4546875000000001
3.83013776900043,0,0,0.8451531860351562,0,0,-0.153125
3.831969545000902,0,0,1.1947066284179686,0,0,0.6890625
3.8336404340006993,0,0,2.6312276245117188,0,0,1.8375000000000001
3.8355552820012235,0,0,1.9608511596679685,0,0,1.7609375
3.8372996140005853,0,0,0.8475473876953125,0,0,0.3828125
3.8389659840013337,0,0,0.7972691528320313,0,0,-0.45937500000000003
3.840680354000142,0,0,0.9002198242187499,0,0,-0.6125
3.8424983149998297,0,0,1.4867992309570313,0,0,1.4546875000000001
3.844182388000263,0,0,1.9895815795898437,0,0,1.990625
3.847251316999973,0,0,0.32561142578124996,0,0,1.4546875000000001
3.8494228110012045,0,0,1.4341267944335936,0,0,0.9187500000000001
3.8512219760013977,0,0,1.8722656982421875,0,0,0.30625
3.852804439000465,0,0,2.559401574707031,0,0,1.378125
3.8543871800011402,0,0,1.2689268798828124,0,0,1.225
3.8562203450001107,0,0,0.842758984375,0,0,0.22968750000000002
3.8577893640012917,0,0,0.6464344482421874,0,0,-0.30625
3.8593845129998954,0,0,0.6081272216796875,0,0,0.0
3.8611789560000034,0,0,1.0438719238281249,0,0,1.53125
3.8628067150002607,0,0,1.5729904907226562,0,0,1.1484375
3.864394178001021,0,0,0.8068459594726562,0,0,0.9187500000000001
3.8663268050004262,0,0,1.455674609375,0,0,1.7609375
3.8680284889996983,0,0,1.467645617675781,0,0,0.9953125
3.869674229999873,0,0,1.6543933471679686,0,0,0.22968750000000002
3.8715544679998857,0,0,2.446874096679687,0,0,1.53125
3.87321826400148,0,0,1.5705962890624998,0,0,1.4546875000000001
3.8748577820006176,0,0,0.9002198242187499,0,0,0.6890625
3.876569041000039,0,0,0.6081272216796875,0,0,832.2343750000001
3.8782114850000653,0,0,0.49799394531249996,0,0,832.8468750000001
3.8800001320014417,0,0,0.7565677246093749,0,0,1.3015625000000002
3.8818682030014315,0,0,1.7932570434570312,0,0,1.6078125
3.8836235540002235,0,0,1.1827356201171875,0,0,1.1484375
3.885164221001105,0,0,1.0103531005859374,0,0,1.4546875000000001
3.8866880559999117,0,0,1.2665326782226562,0,0,0.30625
3.8885739980014478,0,0,1.6831237670898436,0,0,0.153125
3.890813898000488,0,0,2.427720483398437,0,0,0.45937500000000003
3.892403825000656,0,0,1.3718775512695311,0,0,0.9187500000000001
3.894297044000268,0,0,0.9050082275390624,0,0,0.9187500000000001
3.8961448200007,0,0,0.6871358764648438,0,0,-0.22968750000000002
3.8976910239998688,0,0,0.4261678955078125,0,0,0.0765625
3.8992377659997146,0,0,0.679953271484375,0,0,1.225
3.9011106150010164,0,0,1.5849614990234373,0,0,1.1484375
3.90278439299982,0,0,1.465251416015625,0,0,1.8375000000000001
3.9043982260009216,0,0,1.4437036010742186,0,0,1.990625
3.9065031469999667,0,0,1.4772224243164063,0,0,1.1484375
3.9081699430007575,0,0,1.6065093139648436,0,0,0.3828125
3.9100580330014054,0,0,2.0877438476562498,0,0,1.3015625000000002
3.9119435110005725,0,0,1.8028338500976562,0,0,1.6078125
3.913510345000759,0,0,0.6248866333007812,0,0,0.153125
3.915353657999731,0,0,0.5458779785156249,0,0,0.0
3.917123879000428,0,0,0.6751648681640625,0,0,0.0
3.919094300999859,0,0,0.6607996582031249,0,0,0.9953125
3.920857707000323,0,0,1.5729904907226562,0,0,1.3015625000000002
3.9228495360002853,0,0,1.6160861206054686,0,0,1.9140625000000002
3.9250105669998447,0,0,1.4317325927734375,0,0,1.7609375
3.9270566550003423,0,0,1.8219874633789062,0,0,1.3015625000000002
3.928860005000388,0,0,1.9105729248046874,0,0,0.6890625
3.9306592810007714,0,0,1.9943699829101562,0,0,1.4546875000000001
3.9322775780001393,0,0,1.6232687255859375,0,0,1.225
3.933877023000605,0,0,0.5722141967773438,0,0,0.30625
3.935992888000328,0,0,0.8403647827148437,0,0,-0.8421875000000001
3.937691942001038,0,0,0.6440402465820312,0,0,0.30625
3.9397822890005045,0,0,0.7422025146484375,0,0,1.1484375
