Time (s),Accel X1,Accel Y1,Accel Z1,Accel X2,Accel Y2,Accel Z2
0.00010849899990716949,0,0,1.6711527587890624,0,0,0.9187500000000001
0.004167916999904264,0,0,1.3335703247070312,0,0,0.45937500000000003
0.008253057999354496,0,0,1.3958195678710936,0,0,1.1484375
0.012245939999957045,0,0,1.458068811035156,0,0,0.765625
0.016351597999346268,0,0,1.4820108276367188,0,0,1.1484375
0.020401220999701764,0,0,1.3766659545898436,0,0,1.0718750000000001
0.02456173099926673,0,0,1.3958195678710936,0,0,0.6890625
0.02859003799949278,0,0,1.3814543579101561,0,0,1.3015625000000002
0.03311663699969358,0,0,1.429338391113281,0,0,0.9187500000000001
0.03709133399934217,0,0,1.2401964599609374,0,0,0.6125
0.0412921950000964,0,0,1.37906015625,0,0,0.765625
0.04529881799953728,0,0,1.3215993164062498,0,0,0.6890625
0.04978793499958556,0,0,1.2569558715820313,0,0,0.9953125
0.054172645999642555,0,0,1.2904746948242187,0,0,0.6890625
0.058256841999536846,0,0,1.2425906616210938,0,0,0.30625
0.06220961300005001,0,0,1.4987702392578124,0,0,0.8421875000000001
0.06640147500002058,0,0,1.4101847778320311,0,0,0.6890625
0.07036628300011216,0,0,1.2378022583007813,0,0,0.9187500000000001
0.07456216299942753,0,0,1.3623007446289062,0,0,0.8421875000000001
0.07865387699985149,0,0,1.2665326782226562,0,0,1.0718750000000001
0.08274592499947175,0,0,1.2832920898437499,0,0,0.8421875000000001
0.08715428399955272,0,0,1.5322890624999999,0,0,1.0718750000000001
0.09136849700007588,0,0,1.3527239379882812,0,0,1.0718750000000001
0.09589715099991736,0,0,1.3168109130859373,0,0,1.1484375
0.09849776999999449,0,0,1.4125789794921875,0,0,0.8421875000000001
0.10131518399975903,0,0,1.2497732666015624,0,0,1.0718750000000001
0.1043584839999312,0,0,1.3766659545898436,0,0,1.225
0.10739146899959451,0,0,1.484405029296875,0,0,0.9187500000000001
0.11024062299929938,0,0,1.3024457031249999,0,0,0.9953125
0.11312301699945237,0,0,1.2832920898437499,0,0,1.1484375
0.11585372799981997,0,0,1.3742717529296875,0,0,0.3828125
0.11872575199959101,0,0,1.4030021728515625,0,0,0.6125
0.12146840700006578,0,0,1.3239935180664062,0,0,0.6125
0.1241733219994785,0,0,1.3742717529296875,0,0,0.6125
0.1271295669994288,0,0,1.2282254516601563,0,0,0.153125
0.12996596199991473,0,0,1.4724340209960938,0,0,0.9187500000000001
0.1327882639998279,0,0,1.2976572998046874,0,0,0.6890625
0.13560158499967656,0,0,1.350329736328125,0,0,0.3828125
0.13825633399937942,0,0,1.4053963745117186,0,0,0.5359375000000001
0.14104878499983897,0,0,1.448492004394531,0,0,0.6125
0.14377610599967738,0,0,1.3072341064453123,0,0,0.6890625
0.14659776099961164,0,0,1.22583125,0,0,0.6890625
0.14919969499987928,0,0,1.5155296508789062,0,0,0.9187500000000001
0.15208888500001194,0,0,1.438915197753906,0,0,0.9953125
0.154788484999699,0,0,1.3862427612304686,0,0,0.6125
0.15751534399987577,0,0,1.2306196533203124,0,0,0.8421875000000001
0.16037568299998384,0,0,1.5131354492187499,0,0,0.6890625
0.16322705899983703,0,0,1.4796166259765624,0,0,0.9953125
0.16601608399923862,0,0,1.2880804931640624,0,0,1.53125
0.16890692299966759,0,0,1.369483349609375,0,0,1.0718750000000001
0.17170509599964134,0,0,1.4437036010742186,0,0,0.9187500000000001
0.17435221499999898,0,0,1.4604630126953124,0,0,0.6890625
0.17728927499956626,0,0,1.3814543579101561,0,0,0.5359375000000001
0.17996289399980014,0,0,1.3551181396484375,0,0,1.1484375
0.18263971699980175,0,0,1.4030021728515625,0,0,0.765625
0.18527627999992546,0,0,1.5107412475585937,0,0,0.9953125
0.1879492139996728,0,0,1.2785036865234374,0,0,0.9953125
0.19058886999937386,0,0,1.3431471313476562,0,0,0.9953125
0.19351109699982771,0,0,1.419761584472656,0,0,0.45937500000000003
0.19615873499969894,0,0,1.6424223388671875,0,0,0.6125
0.19884040899978572,0,0,1.2330138549804688,0,0,0.6125
0.20143589899998915,0,0,1.2425906616210938,0,0,0.9187500000000001
0.20435490399995615,0,0,1.6807295654296874,0,0,0.45937500000000003
0.20710663299996668,0,0,1.4628572143554686,0,0,0.8421875000000001
0.20991065799989883,0,0,1.3551181396484375,0,0,0.5359375000000001
0.21267512699978397,0,0,1.3551181396484375,0,0,1.1484375
0.2154188009999416,0,0,1.6017209106445311,0,0,0.6890625
0.2181545859994003,0,0,1.3814543579101561,0,0,0.8421875000000001
0.22120607099986955,0,0,1.3048399047851562,0,0,0.765625
0.224024446999465,0,0,1.1061211669921875,0,0,0.765625
0.22673632499936502,0,0,1.2497732666015624,0,0,1.1484375
0.22945781399994303,0,0,1.4245499877929686,0,0,0.765625
0.23211930299930827,0,0,1.2832920898437499,0,0,0.9187500000000001
0.23487925399967935,0,0,1.5203180541992187,0,0,0.9187500000000001
0.23749109599975782,0,0,1.4437036010742186,0,0,0.9187500000000001
0.24016865900011908,0,0,1.2306196533203124,0,0,0.8421875000000001
0.2428253889993357,0,0,1.2928688964843749,0,0,0.9187500000000001
0.2455635070000426,0,0,1.3838485595703125,0,0,0.9953125
0.24816316399937932,0,0,1.43652099609375,0,0,0.9953125
0.25085194899929775,0,0,1.24498486328125,0,0,0.6890625
0.25352815999940503,0,0,1.2689268798828124,0,0,0.765625
0.256385498999407,0,0,1.2976572998046874,0,0,1.53125
0.25909198799945443,0,0,1.3862427612304686,0,0,1.0718750000000001
0.2618881609996606,0,0,1.2856862915039062,0,0,0.9953125
0.26497344199924555,0,0,1.2401964599609374,0,0,0.8421875000000001
0.2677235410001231,0,0,1.3910311645507811,0,0,0.5359375000000001
0.27042971499940904,0,0,1.484405029296875,0,0,0.8421875000000001
0.2731956479992732,0,0,1.3335703247070312,0,0,0.6125
0.27675094200003514,0,0,1.3958195678710936,0,0,0.5359375000000001
0.28019518199926097,0,0,1.5682020874023437,0,0,0.765625
0.28308166899932985,0,0,1.5753846923828123,0,0,0.8421875000000001
0.28650892799942085,0,0,1.3311761230468748,0,0,0.765625
0.2892025649998686,0,0,1.3072341064453123,0,0,0.6125
0.29207782999947085,0,0,1.2378022583007813,0,0,0.8421875000000001
0.29483894699933444,0,0,1.3455413330078123,0,0,0.765625
0.2974619930000699,0,0,1.2497732666015624,0,0,0.9187500000000001
0.30034792399965227,0,0,1.2785036865234374,0,0,0.9953125
0.3029454879997502,0,0,1.24498486328125,0,0,0.8421875000000001
0.30579893799949787,0,0,1.2282254516601563,0,0,0.9187500000000001
0.30838887299978524,0,0,1.4317325927734375,0,0,0.6125
0.3112233969995941,0,0,1.2976572998046874,0,0,0.9187500000000001
0.31390953399932187,0,0,1.35990654296875,0,0,0.8421875000000001
0.3167682439998316,0,0,1.3024457031249999,0,0,0.9187500000000001
0.31936230799965415,0,0,1.235408056640625,0,0,0.9187500000000001
0.3221283509992645,0,0,1.1540052001953125,0,0,0.30625
0.3247483409995766,0,0,1.369483349609375,0,0,0.8421875000000001
0.3275922539996827,0,0,1.3000515014648437,0,0,1.0718750000000001
0.33033526100007293,0,0,1.2713210815429687,0,0,0.765625
0.333045786999719,0,0,1.2880804931640624,0,0,0.3828125
0.3359172929995111,0,0,1.2904746948242187,0,0,0.9953125
0.3387221879993376,0,0,1.3287819213867187,0,0,0.8421875000000001
0.3415119719993527,0,0,1.2785036865234374,0,0,0.5359375000000001
0.3441359799999191,0,0,1.2473790649414063,0,0,0.765625
0.34707296599935944,0,0,1.3431471313476562,0,0,0.6890625
0.3498204359993906,0,0,1.2378022583007813,0,0,0.6125
0.35256936899986613,0,0,1.37906015625,0,0,0.765625
0.35519958099939686,0,0,1.3120225097656248,0,0,0.765625
0.35793119899972226,0,0,1.2976572998046874,0,0,0.6890625
0.3606292799995572,0,0,1.3670891479492187,0,0,0.6890625
0.36343384199972206,0,0,1.2378022583007813,0,0,0.765625
0.3660526839994418,0,0,1.5418658691406248,0,0,0.8421875000000001
0.3687907459998314,0,0,1.419761584472656,0,0,0.6890625
0.3713772549999703,0,0,1.3311761230468748,0,0,0.6125
0.3741892799998823,0,0,1.3000515014648437,0,0,0.6125
0.3769726009995793,0,0,1.47482822265625,0,0,0.6125
0.3797307559998444,0,0,1.426944189453125,0,0,0.8421875000000001
0.3825309659996492,0,0,1.35990654296875,0,0,0.765625
0.38537028599967016,0,0,1.2018892333984375,0,0,0.6890625
0.38807921999978134,0,0,1.426944189453125,0,0,1.6078125
0.39089146700007404,0,0,1.5059528442382812,0,0,0.8421875000000001
0.3939104329992915,0,0,1.2282254516601563,0,0,0.9187500000000001
0.3971346199996333,0,0,1.22583125,0,0,0.9953125
0.3998482939996393,0,0,1.4939818359375,0,0,0.6890625
0.40225408199967205,0,0,1.37906015625,0,0,0.8421875000000001
0.40501492299972597,0,0,1.2306196533203124,0,0,0.765625
0.40751206200002343,0,0,1.3120225097656248,0,0,1.378125
0.4108088590000989,0,0,1.5035586425781249,0,0,0.5359375000000001
0.4133688309993886,0,0,1.4700398193359374,0,0,0.9187500000000001
0.4160029129998293,0,0,1.3718775512695311,0,0,0.5359375000000001
0.41849953399923834,0,0,1.2689268798828124,0,0,0.3828125
0.421235169999818,0,0,1.5945383056640625,0,0,0.6125
0.4237659199998234,0,0,1.4963760375976562,0,0,0.8421875000000001
0.4262788369996997,0,0,1.3527239379882812,0,0,0.5359375000000001
0.4286823659995207,0,0,1.3359645263671873,0,0,0.765625
0.43117815400000836,0,0,1.4963760375976562,0,0,1.3015625000000002
0.434099084999616,0,0,1.254561669921875,0,0,0.6890625
0.4366313529999388,0,0,1.2593500732421874,0,0,0.8421875000000001
0.43907873399984965,0,0,1.3096283081054687,0,0,0.6890625
0.44166781599960814,0,0,1.446097802734375,0,0,0.30625
0.44408762300008675,0,0,1.5251064575195312,0,0,0.6890625
0.4466262249998181,0,0,1.2976572998046874,0,0,0.765625
0.4491646229998878,0,0,1.3263877197265623,0,0,1.1484375
0.45155455999974947,0,0,1.2617442749023438,0,0,0.6125
0.4540668839999853,0,0,1.5514426757812498,0,0,0.6125
0.4565898559994821,0,0,1.3311761230468748,0,0,0.9187500000000001
0.4592288269996061,0,0,1.2856862915039062,0,0,0.5359375000000001
0.4616432819993861,0,0,1.3359645263671873,0,0,0.6125
0.4643474009999409,0,0,1.6208745239257811,0,0,0.6890625
0.4669435199994041,0,0,1.4149731811523436,0,0,0.6890625
0.46951458500006993,0,0,1.2425906616210938,0,0,0.8421875000000001
0.4720355199997357,0,0,1.3958195678710936,0,0,0.5359375000000001
0.47520807799992326,0,0,1.4772224243164063,0,0,0.9187500000000001
0.4776133289997233,0,0,1.4915876342773438,0,0,0.8421875000000001
0.4803377989992441,0,0,1.216254443359375,0,0,0.6125
0.48276640199946996,0,0,1.3072341064453123,0,0,0.9953125
0.4851435609998589,0,0,1.3335703247070312,0,0,0.5359375000000001
0.48771618099999614,0,0,1.369483349609375,0,0,0.8421875000000001
0.49010483999973076,0,0,1.3551181396484375,0,0,0.6125
0.4929169939996427,0,0,1.3311761230468748,0,0,0.153125
0.4955829829996219,0,0,1.3359645263671873,0,0,0.5359375000000001
0.4981971950001025,0,0,1.438915197753906,0,0,0.9187500000000001
0.5090014099996552,0,0,1.37906015625,0,0,0.6125
0.5124866679998377,0,0,1.2425906616210938,0,0,0.5359375000000001
0.5151535649993093,0,0,1.2880804931640624,0,0,0.765625
0.5177508509996187,0,0,1.4963760375976562,0,0,0.765625
0.5207896879992404,0,0,1.4772224243164063,0,0,0.6890625
0.5234171960000822,0,0,1.3718775512695311,0,0,0.8421875000000001
0.5261197589998119,0,0,1.2521674682617188,0,0,0.6125
0.528766951999387,0,0,1.4628572143554686,0,0,0.6890625
0.5318600849996074,0,0,1.5131354492187499,0,0,0.6890625
0.534486351999476,0,0,1.0726023437499999,0,0,0.6125
0.5374364680001236,0,0,1.3551181396484375,0,0,0.6125
0.5401159570001255,0,0,1.455674609375,0,0,0.5359375000000001
0.5427920949996405,0,0,1.4628572143554686,0,0,0.6890625
0.545765654999741,0,0,1.3287819213867187,0,0,0.6890625
0.5484606429999985,0,0,1.3072341064453123,0,0,0.6125
0.5510885220001001,0,0,1.6807295654296874,0,0,0.9953125
0.5537550669996563,0,0,1.4221557861328125,0,0,0.765625
0.5565696469993782,0,0,1.2808978881835937,0,0,0.9187500000000001
0.5592891359992791,0,0,1.3096283081054687,0,0,2.0
0.5618767739997566,0,0,1.5275006591796874,0,0,0.765625
0.5645140970000284,0,0,1.3742717529296875,0,0,0.765625
0.567206122999778,0,0,1.3359645263671873,0,0,0.6125
0.5698118899999827,0,0,1.2497732666015624,0,0,0.6890625
0.5724968419999641,0,0,1.5107412475585937,0,0,0.6125
0.5751241469997694,0,0,1.3144167114257812,0,0,0.765625
0.5780158739999024,0,0,1.2521674682617188,0,0,0.6890625
0.5810913589994016,0,0,1.3383587280273437,0,0,0.22968750000000002
0.583921697999358,0,0,1.4891934326171874,0,0,0.6125
0.5871479589995943,0,0,1.4820108276367188,0,0,0.6890625
0.5901863330000197,0,0,1.2569558715820313,0,0,0.8421875000000001
0.5933189659999698,0,0,1.254561669921875,0,0,0.45937500000000003
0.5960739539996212,0,0,1.3311761230468748,0,0,2.0
0.5988646639998478,0,0,1.35990654296875,0,0,0.765625
0.6016558559995246,0,0,1.3239935180664062,0,0,0.765625
0.6044580649995623,0,0,1.3551181396484375,0,0,0.3828125
0.6073386999996728,0,0,1.2832920898437499,0,0,0.5359375000000001
0.6104700179994325,0,0,1.2737152832031249,0,0,0.8421875000000001
0.6132252279994646,0,0,1.2785036865234374,0,0,0.5359375000000001
0.6159836239994547,0,0,1.4820108276367188,0,0,-2.0
0.6187397599996984,0,0,1.5011644409179687,0,0,0.8421875000000001
0.6213701759998003,0,0,1.2569558715820313,0,0,0.765625
0.6241097759993863,0,0,1.2521674682617188,0,0,0.45937500000000003
0.6267439319999539,0,0,1.5251064575195312,0,0,0.765625
0.6297004729995024,0,0,1.5370774658203123,0,0,0.8421875000000001
0.6324683689999802,0,0,1.3407529296874998,0,0,0.6890625
0.6353265779998765,0,0,1.3431471313476562,0,0,0.153125
0.6380990659999952,0,0,1.4341267944335936,0,0,0.9953125
0.6410264599999209,0,0,1.4508862060546874,0,0,0.6890625
0.6440527790000488,0,0,1.2952630981445312,0,0,0.8421875000000001
0.6468575439994311,0,0,1.3000515014648437,0,0,1.0718750000000001
0.649633865999931,0,0,1.3144167114257812,0,0,0.9187500000000001
0.6525191299997459,0,0,1.3910311645507811,0,0,0.8421875000000001
0.6552174709995597,0,0,1.3096283081054687,0,0,0.765625
0.6579853659995933,0,0,1.2689268798828124,0,0,0.5359375000000001
0.6610470549994716,0,0,1.2641384765625,0,0,0.765625
0.6640417629996591,0,0,1.3335703247070312,0,0,0.9953125
0.6666925669996999,0,0,1.369483349609375,0,0,0.765625
0.6694739810000101,0,0,1.3311761230468748,0,0,0.30625
0.6722245619994283,0,0,1.3575123413085937,0,0,0.765625
0.6752021769998464,0,0,1.3120225097656248,0,0,0.765625
0.6778045929995642,0,0,1.3168109130859373,0,0,0.6890625
0.6805168779992528,0,0,1.4508862060546874,0,0,0.3828125
0.6831578860001173,0,0,1.3575123413085937,0,0,0.765625
0.685890875000041,0,0,1.1085153686523437,0,0,0.9187500000000001
0.6886029379993488,0,0,1.3431471313476562,0,0,0.8421875000000001
0.6913526669995917,0,0,1.3431471313476562,0,0,0.5359375000000001
0.6939981189998434,0,0,1.35990654296875,0,0,0.6890625
0.6967296449993228,0,0,1.3263877197265623,0,0,0.8421875000000001
0.6993186899999273,0,0,1.3407529296874998,0,0,0.8421875000000001
0.7020752159996846,0,0,1.2306196533203124,0,0,0.5359375000000001
0.7047077419993002,0,0,1.3096283081054687,0,0,1.990625
0.7075353780001024,0,0,1.3144167114257812,0,0,0.8421875000000001
0.7101474419996521,0,0,1.2497732666015624,0,0,0.6125
0.7128797269997449,0,0,1.4939818359375,0,0,0.9953125
0.7160422289998678,0,0,1.5011644409179687,0,0,0.9187500000000001
0.7188240499999665,0,0,1.2832920898437499,0,0,0.6890625
0.7216118529995583,0,0,1.2617442749023438,0,0,0.765625
0.7243921369999953,0,0,1.5155296508789062,0,0,0.765625
0.7270480709994445,0,0,1.4341267944335936,0,0,0.6890625
0.7297881889999189,0,0,1.2976572998046874,0,0,0.9187500000000001
0.7327160639997601,0,0,1.4030021728515625,0,0,0.765625
0.7354094419997637,0,0,1.3910311645507811,0,0,0.8421875000000001
0.738051634999465,0,0,1.4987702392578124,0,0,0.5359375000000001
0.740643884999372,0,0,1.3048399047851562,0,0,0.765625
0.7433855209992544,0,0,1.2282254516601563,0,0,0.0
0.7460845659998085,0,0,1.4987702392578124,0,0,0.9187500000000001
0.7488308319998396,0,0,1.5179238525390624,0,0,0.6125
0.7514975619997131,0,0,1.2713210815429687,0,0,0.6890625
0.7541215510000256,0,0,1.5107412475585937,0,0,0.6890625
0.7569082989994058,0,0,1.4963760375976562,0,0,0.8421875000000001
0.7595523249992766,0,0,1.5753846923828123,0,0,0.6890625
0.7622651839992614,0,0,1.3311761230468748,0,0,0.6125
0.7649283029995786,0,0,1.3120225097656248,0,0,0.5359375000000001
0.7677235129995097,0,0,1.4772224243164063,0,0,0.9187500000000001
0.7710155329996269,0,0,1.3958195678710936,0,0,0.9953125
0.7738571869995212,0,0,1.3742717529296875,0,0,0.765625
0.7765184350000709,0,0,1.2593500732421874,0,0,0.6890625
0.7795413459998599,0,0,1.3623007446289062,0,0,0.9187500000000001
0.7827544409992697,0,0,1.139639990234375,0,0,0.8421875000000001
0.7862076249994061,0,0,1.3479355346679687,0,0,0.765625
0.7891556479999053,0,0,1.3024457031249999,0,0,0.765625
0.7920148019993576,0,0,1.4341267944335936,0,0,0.9187500000000001
0.7948087710001346,0,0,1.2976572998046874,0,0,0.6125
0.7975405560000581,0,0,1.3431471313476562,0,0,0.6890625
0.8003152289993523,0,0,1.465251416015625,0,0,0.6125
0.8031312909997723,0,0,1.5155296508789062,0,0,0.9187500000000001
0.805782927999644,0,0,1.350329736328125,0,0,0.8421875000000001
0.8084606579996034,0,0,1.3766659545898436,0,0,0.45937500000000003
0.8112186469998051,0,0,1.4221557861328125,0,0,0.6890625
0.8138116549998813,0,0,1.5131354492187499,0,0,0.6125
0.8163755529994887,0,0,1.3096283081054687,0,0,1.0718750000000001
0.8191634479999266,0,0,1.3838485595703125,0,0,0.5359375000000001
0.8218285670000114,0,0,1.43652099609375,0,0,0.8421875000000001
0.8245738519999577,0,0,1.5682020874023437,0,0,0.765625
0.8271755079995273,0,0,1.3359645263671873,0,0,0.8421875000000001
0.829862182999932,0,0,1.2713210815429687,0,0,0.5359375000000001
0.832564022999577,0,0,1.5251064575195312,0,0,0.765625
0.835283437999351,0,0,1.3527239379882812,0,0,0.765625
0.8378606319993196,0,0,1.3311761230468748,0,0,0.6890625
0.840500751000036,0,0,1.2521674682617188,0,0,0.6125
0.8432261469997684,0,0,1.5251064575195312,0,0,0.765625
0.8459019319998333,0,0,1.4987702392578124,0,0,0.6890625
0.8486337169997569,0,0,1.3623007446289062,0,0,0.6890625
0.8516044809994128,0,0,1.3120225097656248,0,0,0.45937500000000003
0.854335968999294,0,0,1.3862427612304686,0,0,1.6078125
0.8570341619997635,0,0,1.5011644409179687,0,0,0.6890625
0.8596590219995051,0,0,1.3215993164062498,0,0,0.6890625
0.8623784369992791,0,0,1.3359645263671873,0,0,0.5359375000000001
0.8650181479997627,0,0,1.426944189453125,0,0,0.9953125
0.8677607659992645,0,0,1.4867992309570313,0,0,0.6890625
0.8716266129995347,0,0,1.3383587280273437,0,0,0.9187500000000001
0.8750465570001325,0,0,1.4820108276367188,0,0,0.0
0.8793940460000158,0,0,1.3479355346679687,0,0,0.9187500000000001
0.8829086929999903,0,0,1.2641384765625,0,0,0.9953125
0.8866420399999697,0,0,1.5418658691406248,0,0,1.225
0.8904236469998068,0,0,1.9297265380859374,0,0,0.9953125
0.8932422269999734,0,0,1.4939818359375,0,0,0.45937500000000003
0.8958661979995668,0,0,1.4915876342773438,0,0,0.8421875000000001
0.8984687809997922,0,0,1.707065783691406,0,0,1.4546875000000001
0.901675578999857,0,0,0.9265560424804687,0,0,0.45937500000000003
0.9043735489995015,0,0,1.5155296508789062,0,0,0.765625
0.9071491859995149,0,0,1.7956512451171873,0,0,1.1484375
0.9097551569993811,0,0,1.2641384765625,0,0,0.6125
0.9125640709999061,0,0,1.5514426757812498,0,0,0.0765625
0.9153332440000668,0,0,1.4724340209960938,0,0,1.3015625000000002
0.9180509179996079,0,0,1.0630255371093749,0,0,0.6890625
0.9208460909994756,0,0,1.4532804077148436,0,0,1.225
0.9235695979996308,0,0,1.369483349609375,0,0,1.0718750000000001
0.9262862899995525,0,0,1.3718775512695311,0,0,0.6125
0.9290759999994407,0,0,1.4125789794921875,0,0,0.9187500000000001
0.9321240589997615,0,0,1.3287819213867187,0,0,0.8421875000000001
0.9348703999994541,0,0,1.22583125,0,0,0.22968750000000002
0.9378235149997636,0,0,1.3215993164062498,0,0,0.9953125
0.9405998550000731,0,0,1.5155296508789062,0,0,0.6125
0.9431905679994088,0,0,1.3192051147460937,0,0,0.6125
0.9459506479997799,0,0,1.2808978881835937,0,0,0.8421875000000001
0.9486136189998433,0,0,1.3551181396484375,0,0,0.9953125
0.9513948479998362,0,0,1.5251064575195312,0,0,0.45937500000000003
0.9539907449998282,0,0,1.2617442749023438,0,0,0.6890625
0.9569390829992699,0,0,1.35990654296875,0,0,1.0718750000000001
0.9595557579996239,0,0,1.2761094848632812,0,0,1.9140625000000002
0.9622311359999003,0,0,1.2761094848632812,0,0,0.5359375000000001
0.9648325150001256,0,0,1.2306196533203124,0,0,0.9187500000000001
0.9676771320000626,0,0,1.407790576171875,0,0,1.1484375
0.9704140089997964,0,0,1.3048399047851562,0,0,0.765625
0.9731691459992362,0,0,1.6639701538085936,0,0,0.9187500000000001
0.975941559999228,0,0,1.675941162109375,0,0,1.6078125
0.9787650289999874,0,0,1.388636962890625,0,0,1.0718750000000001
0.9815042390000599,0,0,1.2785036865234374,0,0,0.3828125
0.9843855599992821,0,0,1.5586252807617187,0,0,0.6125
0.9871704729994235,0,0,1.5131354492187499,0,0,0.765625
0.9898688509993008,0,0,1.2665326782226562,0,0,0.5359375000000001
0.9924842109994643,0,0,1.3575123413085937,0,0,0.22968750000000002
0.9952341259995592,0,0,1.5275006591796874,0,0,0.9953125
0.9981727599997612,0,0,1.4317325927734375,0,0,0.765625
1.0012015969996355,0,0,1.2737152832031249,0,0,0.9953125
1.004218915999445,0,0,1.5275006591796874,0,0,0.9953125
1.0072727529995973,0,0,1.5131354492187499,0,0,1.1484375
1.0106179750000592,0,0,1.4532804077148436,0,0,1.225
1.0139424019998842,0,0,1.4053963745117186,0,0,0.6125
1.017356622999614,0,0,1.6232687255859375,0,0,0.5359375000000001
1.0204288489994724,0,0,1.3862427612304686,0,0,0.5359375000000001
1.0237328679995699,0,0,1.2521674682617188,0,0,0.765625
1.0267926859996805,0,0,1.3215993164062498,0,0,0.765625
1.0299498559998028,0,0,1.2952630981445312,0,0,0.8421875000000001
1.0333504659993196,0,0,1.3910311645507811,0,0,0.9187500000000001
1.0365697829993223,0,0,1.5682020874023437,0,0,1.4546875000000001
1.0397390259995518,0,0,1.429338391113281,0,0,0.6890625
1.0427380669998456,0,0,1.3455413330078123,0,0,0.6125
1.046151362999808,0,0,1.1635820068359375,0,0,0.45937500000000003
1.0492207739998776,0,0,1.2689268798828124,0,0,0.9187500000000001
1.0522471479998785,0,0,1.4532804077148436,0,0,1.1484375
1.0553278729994418,0,0,1.5179238525390624,0,0,1.1484375
1.058430801999748,0,0,1.47482822265625,0,0,1.1484375
1.0615583969993168,0,0,1.3910311645507811,0,0,1.1484375
1.0646730849994128,0,0,1.2617442749023438,0,0,0.765625
1.0676514409997253,0,0,1.2210428466796874,0,0,0.6890625
1.0705907609999485,0,0,1.4053963745117186,0,0,1.6078125
1.0736748379995333,0,0,1.5610194824218748,0,0,0.9953125
1.0767267679993893,0,0,1.5849614990234373,0,0,1.225
1.0797230869993655,0,0,1.5729904907226562,0,0,0.5359375000000001
1.0827173689995107,0,0,1.5322890624999999,0,0,0.6890625
1.0858457969998199,0,0,1.2808978881835937,0,0,0.9187500000000001
1.0889212259999113,0,0,1.0558429321289062,0,0,0.6890625
1.0919437859993195,0,0,1.3766659545898436,0,0,1.0718750000000001
1.0950630849993104,0,0,1.4604630126953124,0,0,1.1484375
1.0979367760000969,0,0,1.5969325073242187,0,0,0.9187500000000001
1.0997420889998466,0,0,1.5610194824218748,0,0,0.765625
1.101529328999277,0,0,1.4341267944335936,0,0,0.30625
1.1036452499993175,0,0,1.4245499877929686,0,0,0.0765625
1.1054613969999991,0,0,1.254561669921875,0,0,0.45937500000000003
1.1073822829994242,0,0,1.3215993164062498,0,0,0.45937500000000003
1.1091676709993408,0,0,1.0031704956054688,0,0,1.1484375
1.1109696319999784,0,0,1.3718775512695311,0,0,1.378125
1.1127841869993063,0,0,1.6639701538085936,0,0,1.378125
1.1148519419994045,0,0,1.9393033447265624,0,0,1.0718750000000001
1.1165382009994573,0,0,1.8818425048828125,0,0,1.0718750000000001
1.1182767370000875,0,0,1.8770541015625,0,0,0.5359375000000001
1.120278937999501,0,0,1.4006079711914061,0,0,0.8421875000000001
1.1219646039999134,0,0,1.1061211669921875,0,0,0.5359375000000001
1.1236006599992834,0,0,0.9169792358398436,0,0,0.22968750000000002
1.125220401999286,0,0,1.0438719238281249,0,0,0.6125
1.1268754759994408,0,0,1.158793603515625,0,0,0.9187500000000001
1.1285676059997058,0,0,1.5107412475585937,0,0,1.4546875000000001
1.1301942549998785,0,0,1.4437036010742186,0,0,1.0718750000000001
1.1318236439992688,0,0,1.6448165405273436,0,0,0.9953125
1.1333948490000694,0,0,1.649604943847656,0,0,0.9187500000000001
1.1350623489997815,0,0,1.6543933471679686,0,0,0.6125
1.136969180000051,0,0,1.5298948608398437,0,0,0.5359375000000001
1.1386051809995479,0,0,1.2497732666015624,0,0,0.765625
1.1402370699997846,0,0,1.2737152832031249,0,0,0.8421875000000001
1.141788515999906,0,0,1.20667763671875,0,0,1.4546875000000001
1.1433324619993073,0,0,1.3527239379882812,0,0,1.225
1.1449313709999842,0,0,1.4963760375976562,0,0,0.9953125
1.1465222970000468,0,0,1.656787548828125,0,0,1.225
1.1480553179999333,0,0,1.8555062866210936,0,0,0.6125
1.1500168699994902,0,0,1.7190367919921874,0,0,1.1484375
1.1516231299992796,0,0,1.20667763671875,0,0,0.5359375000000001
1.1531752989994857,0,0,1.20667763671875,0,0,0.45937500000000003
1.1552018869997482,0,0,0.8259995727539062,0,0,0.765625
1.1570719040000768,0,0,1.2689268798828124,0,0,0.9187500000000001
1.1586332019996917,0,0,1.5514426757812498,0,0,1.225
1.1606877719996191,0,0,1.649604943847656,0,0,1.225
1.1623737719992278,0,0,1.5346832641601562,0,0,1.1484375
1.1639101989994742,0,0,1.5083470458984374,0,0,0.6125
1.1654782189998514,0,0,1.3862427612304686,0,0,0.6890625
1.1675011229999654,0,0,1.3192051147460937,0,0,0.6890625
1.1691725489999953,0,0,1.3072341064453123,0,0,0.6890625
1.170776678999573,0,0,1.2832920898437499,0,0,1.1484375
1.1730500429994208,0,0,1.5107412475585937,0,0,0.765625
1.1748094309996304,0,0,1.6711527587890624,0,0,0.8421875000000001
1.1765596340001139,0,0,1.5466542724609373,0,0,0.9187500000000001
1.1784685759994318,0,0,1.6807295654296874,0,0,0.5359375000000001
1.1801105209997331,0,0,1.448492004394531,0,0,0.3828125
1.1817173549998188,0,0,1.1420341918945311,0,0,0.8421875000000001
1.183352707999802,0,0,1.2904746948242187,0,0,0.8421875000000001
1.185109373999694,0,0,1.2952630981445312,0,0,0.6890625
1.1868588170000294,0,0,1.2497732666015624,0,0,0.765625
1.1884458739996262,0,0,1.5107412475585937,0,0,0.30625
1.1903133910000179,0,0,1.4820108276367188,0,0,0.6125
1.1920772789999319,0,0,1.2569558715820313,0,0,0.9953125
1.1937965749993964,0,0,1.668758557128906,0,0,1.378125
1.1954709450001246,0,0,1.66636435546875,0,0,1.3015625000000002
1.1971258529993065,0,0,1.5394716674804687,0,0,0.9953125
1.1987080579992835,0,0,1.2713210815429687,0,0,0.6125
1.2002882809993025,0,0,1.426944189453125,0,0,0.6125
1.2019233929995607,0,0,1.7429788085937499,0,0,0.765625
1.2035822999996526,0,0,1.4724340209960938,0,0,1.0718750000000001
1.2051902459998018,0,0,1.2378022583007813,0,0,0.6125
1.206826505999743,0,0,0.9696516723632812,0,0,1.1484375
1.2084852279995175,0,0,0.93852705078125,0,0,0.9187500000000001
1.2100922469999205,0,0,1.5466542724609373,0,0,0.9187500000000001
1.2116722860000664,0,0,1.8171990600585937,0,0,1.225
1.2132990459995199,0,0,1.9871873779296874,0,0,1.0718750000000001
1.2149357129992495,0,0,1.6519991455078125,0,0,1.225
1.2165139549997548,0,0,1.6112977172851561,0,0,0.765625
1.2180860299995402,0,0,1.3910311645507811,0,0,0.8421875000000001
1.2200083049992827,0,0,1.419761584472656,0,0,0.8421875000000001
1.2217675639994923,0,0,1.2856862915039062,0,0,0.6125
1.2233110469996973,0,0,1.3910311645507811,0,0,0.0765625
1.224943732999236,0,0,1.3335703247070312,0,0,0.6890625
1.2266287699994791,0,0,1.4628572143554686,0,0,0.6890625
1.2283067700000174,0,0,1.3168109130859373,0,0,1.1484375
1.2299550110001292,0,0,1.1707646118164061,0,0,1.225
1.2316839360000813,0,0,1.1109095703125,0,0,0.9187500000000001
1.2333918619997348,0,0,1.139639990234375,0,0,0.9187500000000001
1.2352806379994945,0,0,1.4987702392578124,0,0,0.5359375000000001
1.237139209999441,0,0,1.6352397338867186,0,0,1.1484375
1.238766933000079,0,0,1.3814543579101561,0,0,1.53125
1.240348914999231,0,0,1.4915876342773438,0,0,1.225
1.2418791209993287,0,0,1.43652099609375,0,0,0.9953125
1.2434542510000028,0,0,1.24498486328125,0,0,0.765625
1.24541202599994,0,0,1.649604943847656,0,0,0.22968750000000002
1.2471490069992797,0,0,1.6639701538085936,0,0,1.0718750000000001
1.2489516539999386,0,0,1.4437036010742186,0,0,1.0718750000000001
1.2506416910000553,0,0,1.22583125,0,0,1.0718750000000001
1.2521906559995841,0,0,0.9552864624023437,0,0,1.0718750000000001
1.2537176759997237,0,0,1.1707646118164061,0,0,0.765625
1.2552928069999325,0,0,1.2665326782226562,0,0,0.765625
1.2570733799993832,0,0,1.5394716674804687,0,0,0.6890625
1.2586299919994417,0,0,1.6903063720703124,0,0,0.8421875000000001
1.2601681420001114,0,0,1.5658078857421873,0,0,1.3015625000000002
1.2618143089994192,0,0,1.6304513305664061,0,0,1.225
1.2634931239999787,0,0,1.5131354492187499,0,0,1.0718750000000001
1.2650455329994656,0,0,1.218648645019531,0,0,0.22968750000000002
1.2666520519996993,0,0,1.407790576171875,0,0,0.22968750000000002
1.268278626999745,0,0,1.5059528442382812,0,0,0.6125
1.2698098139999274,0,0,1.7094599853515624,0,0,0.9187500000000001
1.2713841479999246,0,0,1.3670891479492187,0,0,1.225
1.2732997200000682,0,0,1.0199299072265624,0,0,0.765625
1.2752004769999985,0,0,0.9241618408203125,0,0,0.6125
1.2767740339995726,0,0,1.608903515625,0,0,0.6890625
1.278597902999536,0,0,1.7022773803710936,0,0,0.9953125
1.2801484409992554,0,0,1.9512743530273435,0,0,1.3015625000000002
1.283039242999621,0,0,1.484405029296875,0,0,1.0718750000000001
1.2848400189996028,0,0,1.2234370483398436,0,0,0.5359375000000001
1.2865330009999525,0,0,1.4173673828125,0,0,0.0
1.288118038999528,0,0,1.6112977172851561,0,0,0.3828125
1.2899258709994683,0,0,1.3575123413085937,0,0,0.9953125
1.291590537999582,0,0,1.1851298217773436,0,0,0.6890625
1.293137334999301,0,0,1.0989385620117187,0,0,0.9187500000000001
1.2947756879993904,0,0,1.0821791503906248,0,0,0.5359375000000001
1.2963640409998334,0,0,1.4867992309570313,0,0,0.8421875000000001
1.2980136149999453,0,0,1.7573440185546874,0,0,1.4546875000000001
1.2996728749994872,0,0,1.9728221679687499,0,0,1.4546875000000001
1.301276171999234,0,0,1.687912170410156,0,0,1.6843750000000002
1.3028073400000721,0,0,1.20667763671875,0,0,0.8421875000000001
1.3043411939997895,0,0,0.9528922607421875,0,0,0.22968750000000002
1.3059687869999834,0,0,1.22583125,0,0,0.0
1.3075716769999417,0,0,1.4772224243164063,0,0,0.5359375000000001
1.309315472999515,0,0,1.6232687255859375,0,0,1.3015625000000002
1.3110196389998237,0,0,1.1252747802734375,0,0,0.765625
1.3128072489998885,0,0,0.9337386474609375,0,0,0.30625
1.3145918780001011,0,0,1.1013327636718748,0,0,0.6125
1.316376413999933,0,0,1.455674609375,0,0,0.8421875000000001
1.3180568210000274,0,0,1.9416975463867185,0,0,1.6843750000000002
1.319796783000129,0,0,1.6519991455078125,0,0,1.8375000000000001
1.3215806709995377,0,0,1.22583125,0,0,1.9140625000000002
1.3233636889999616,0,0,1.3670891479492187,0,0,0.6125
1.3250297999993563,0,0,1.5705962890624998,0,0,0.5359375000000001
1.3267689479998808,0,0,1.7525556152343749,0,0,0.9953125
1.3286591859996406,0,0,1.177947216796875,0,0,1.0718750000000001
1.3303490559992497,0,0,0.842758984375,0,0,0.6125
1.3320713519997298,0,0,1.0630255371093749,0,0,0.45937500000000003
1.333734629999526,0,0,1.7812860351562498,0,0,1.3015625000000002
1.335350852999909,0,0,2.0781670410156248,0,0,1.4546875000000001
1.3371327969998674,0,0,1.687912170410156,0,0,1.6078125
1.3388375929998801,0,0,1.1540052001953125,0,0,0.6890625
1.3404703709993555,0,0,1.0462661254882812,0,0,2.0
1.3421882409993486,0,0,1.6400281372070311,0,0,0.3828125
1.3438378900000316,0,0,1.7573440185546874,0,0,0.9187500000000001
1.3454455199998847,0,0,1.5658078857421873,0,0,0.8421875000000001
1.3471444829992834,0,0,0.5027823486328125,0,0,0.22968750000000002
1.3494383839997681,0,0,0.507570751953125,0,0,0.0
1.3510810319994562,0,0,1.4987702392578124,0,0,0.9187500000000001
1.3527982539999357,0,0,2.2960393920898436,0,0,1.8375000000000001
1.3547005849995912,0,0,1.37906015625,0,0,1.3015625000000002
1.356424436999987,0,0,1.2952630981445312,0,0,0.6890625
1.3580657889997383,0,0,1.3215993164062498,0,0,0.6125
1.359728659999746,0,0,2.2074539306640624,0,0,0.765625
1.3614015299999664,0,0,2.157175695800781,0,0,1.3015625000000002
1.3630124009996507,0,0,1.3455413330078123,0,0,1.1484375
1.364679975999934,0,0,0.6177040283203125,0,0,0.153125
1.3663048469998103,0,0,0.7158662963867187,0,0,0.6890625
1.368111196999962,0,0,1.5945383056640625,0,0,1.378125
1.3698333819993422,0,0,1.9871873779296874,0,0,1.3015625000000002
1.3714742709998973,0,0,1.656787548828125,0,0,1.225
1.3732692699995823,0,0,0.82360537109375,0,0,0.3828125
1.3749493629993594,0,0,1.4772224243164063,0,0,0.0765625
1.3765532899997197,0,0,1.9632453613281249,0,0,0.45937500000000003
1.3781056990001161,0,0,2.0733786376953125,0,0,0.8421875000000001
1.3800936769994223,0,0,0.7302315063476562,0,0,0.8421875000000001
1.383831432000079,0,0,1.618480322265625,0,0,0.8421875000000001
1.3856176720000803,0,0,1.915361328125,0,0,0.765625
1.387403947999701,0,0,1.6472107421875,0,0,1.225
1.3890364669996416,0,0,1.3192051147460937,0,0,0.9953125
1.3907025230000727,0,0,1.5203180541992187,0,0,0.9187500000000001
1.39241230099924,0,0,1.927332336425781,0,0,1.0718750000000001
1.3939792649998708,0,0,1.7310078002929687,0,0,1.0718750000000001
1.3956437839997307,0,0,0.9983820922851562,0,0,1.225
1.3972991919999913,0,0,0.8403647827148437,0,0,0.45937500000000003
1.3990117099992858,0,0,1.5849614990234373,0,0,1.225
1.4006557289994817,0,0,1.7214309936523438,0,0,1.1484375
1.402379987999666,0,0,1.5370774658203123,0,0,0.9187500000000001
1.4039277849997234,0,0,0.852335791015625,0,0,0.5359375000000001
1.4054533799999263,0,0,0.9864110839843749,0,0,0.30625
1.407128379999449,0,0,1.637633935546875,0,0,0.45937500000000003
1.4087520839993886,0,0,1.5777788940429687,0,0,0.765625
1.4103650299994115,0,0,1.2521674682617188,0,0,0.3828125
1.4121675279993724,0,0,0.70868369140625,0,0,0.6890625
1.4137515659995188,0,0,1.3144167114257812,0,0,0.765625
1.4152880679994269,0,0,1.8315642700195311,0,0,1.225
1.4170232709993797,0,0,1.7262193969726563,0,0,1.3015625000000002
1.4185964579992287,0,0,1.429338391113281,0,0,0.6125
1.4202352539996355,0,0,1.4341267944335936,0,0,0.8421875000000001
1.4219712909998634,0,0,2.0159177978515626,0,0,0.6125
1.423614864999763,0,0,1.5729904907226562,0,0,1.225
1.4252785689996017,0,0,1.199495031738281,0,0,0.3828125
1.4268500339994716,0,0,0.948103857421875,0,0,0.45937500000000003
1.428438534999259,0,0,1.235408056640625,0,0,1.1484375
1.430069497999284,0,0,1.697488977050781,0,0,0.765625
1.431774497999868,0,0,1.467645617675781,0,0,1.0718750000000001
1.4333505179993153,0,0,1.1109095703125,0,0,0.30625
1.43497142599972,0,0,1.5394716674804687,0,0,0.6890625
1.4366568890000053,0,0,1.429338391113281,0,0,0.5359375000000001
1.43819033499949,0,0,1.3287819213867187,0,0,0.30625
1.439720022000074,0,0,1.0702081420898437,0,0,0.6890625
1.4413088189994596,0,0,1.1109095703125,0,0,0.8421875000000001
1.443004374999873,0,0,1.7477672119140624,0,0,1.0718750000000001
1.4445883569997022,0,0,1.4006079711914061,0,0,1.225
1.4461199889992713,0,0,1.3646949462890625,0,0,1.0718750000000001
1.447744860000057,0,0,1.465251416015625,0,0,0.765625
1.4493317870001192,0,0,1.8195932617187498,0,0,0.6890625
1.4508601219995398,0,0,1.898601916503906,0,0,0.45937500000000003
1.4524384010001086,0,0,1.6615759521484375,0,0,0.9187500000000001
1.4541264189992944,0,0,1.3431471313476562,0,0,0.765625
1.4557642529998702,0,0,1.3814543579101561,0,0,0.9953125
1.4573185689996535,0,0,1.6543933471679686,0,0,0.8421875000000001
1.4594289719998415,0,0,1.429338391113281,0,0,0.45937500000000003
1.4612940259994502,0,0,1.20667763671875,0,0,0.6125
1.4629103409997697,0,0,1.5705962890624998,0,0,0.30625
1.4645253789994968,0,0,1.6232687255859375,0,0,0.6890625
1.466087380999852,0,0,0.9696516723632812,0,0,0.3828125
1.4677442699994572,0,0,0.7805097412109374,0,0,0.6125
1.4693787329997576,0,0,1.2234370483398436,0,0,1.225
1.4711811580000358,0,0,1.5538368774414062,0,0,1.4546875000000001
1.4731171369994627,0,0,1.656787548828125,0,0,0.9187500000000001
1.4748228769994967,0,0,1.668758557128906,0,0,1.225
1.4763604709996798,0,0,1.89620771484375,0,0,1.1484375
1.4779576949995317,0,0,1.7860744384765623,0,0,1.0718750000000001
1.4801583929993285,0,0,1.3335703247070312,0,0,1.0718750000000001
1.4817449490001309,0,0,1.3551181396484375,0,0,0.6125
1.483277543999975,0,0,1.5562310791015623,0,0,0.5359375000000001
1.4848276379998424,0,0,1.5083470458984374,0,0,0.9187500000000001
1.4867305059997307,0,0,1.2737152832031249,0,0,0.8421875000000001
1.4884413569998287,0,0,1.3000515014648437,0,0,0.765625
1.4900897649995386,0,0,1.2785036865234374,0,0,0.45937500000000003
1.4920906879997347,0,0,1.0103531005859374,0,0,0.3828125
1.4937687799993,0,0,1.1659762084960936,0,0,0.45937500000000003
1.4953117079994627,0,0,1.4413093994140624,0,0,1.225
1.496836949999306,0,0,1.7621324218749999,0,0,1.6078125
1.498731336999299,0,0,1.2689268798828124,0,0,1.225
1.5004301700000724,0,0,1.1707646118164061,0,0,0.8421875000000001
1.5021188179998717,0,0,1.7405846069335937,0,0,0.9953125
1.5038183369997569,0,0,1.7286135986328124,0,0,1.7609375
1.5057461669994154,0,0,1.4796166259765624,0,0,0.3828125
1.5079206619993784,0,0,1.5705962890624998,0,0,1.0718750000000001
1.5097898639996856,0,0,1.3551181396484375,0,0,0.9953125
1.5113377540001238,0,0,1.4149731811523436,0,0,0.45937500000000003
1.5128679959998408,0,0,1.5634136840820312,0,0,0.765625
1.5144512379993103,0,0,1.4053963745117186,0,0,0.765625
1.516324309999618,0,0,1.1252747802734375,0,0,0.3828125
1.5179442549997475,0,0,0.7493851196289062,0,0,0.6125
1.5195429599998533,0,0,1.4820108276367188,0,0,1.0718750000000001
1.5212348119994203,0,0,1.608903515625,0,0,1.4546875000000001
1.5228735900000174,0,0,1.3335703247070312,0,0,1.8375000000000001
1.524478573000124,0,0,1.0271125122070313,0,0,0.765625
1.526109128999451,0,0,1.7717092285156248,0,0,1.4546875000000001
1.5276603709999108,0,0,1.9752163696289062,0,0,0.9953125
1.529284352999639,0,0,2.138022082519531,0,0,1.6078125
1.5309367049994762,0,0,1.2497732666015624,0,0,1.225
1.5329870899995512,0,0,1.2401964599609374,0,0,1.0718750000000001
1.534745940999528,0,0,1.209071838378906,0,0,0.8421875000000001
1.5364444229999208,0,0,1.0869675537109373,0,0,0.6125
1.5381535890001032,0,0,1.7956512451171873,0,0,0.3828125
1.540527340999688,0,0,0.9983820922851562,0,0,0.8421875000000001
1.5423282649999237,0,0,0.5363011718749999,0,0,2.0
1.5439617659994838,0,0,1.3311761230468748,0,0,1.1484375
1.5454958599993915,0,0,1.6831237670898436,0,0,1.53125
1.5470425469993643,0,0,1.4772224243164063,0,0,1.3015625000000002
1.5487545279993356,0,0,1.350329736328125,0,0,0.6890625
1.5504130469998927,0,0,1.649604943847656,0,0,0.9187500000000001
1.551999455999976,0,0,2.0063409912109376,0,0,0.8421875000000001
1.5536443999999392,0,0,1.5945383056640625,0,0,1.1484375
1.5553179190001174,0,0,1.3623007446289062,0,0,1.6078125
1.5568621980000898,0,0,1.3623007446289062,0,0,0.5359375000000001
1.55840968099983,0,0,1.1635820068359375,0,0,0.8421875000000001
1.5600312749993464,0,0,1.2641384765625,0,0,0.3828125
1.5617590519996156,0,0,1.8435352783203125,0,0,0.6890625
1.5634136079997916,0,0,1.388636962890625,0,0,1.1484375
1.565031423999244,0,0,0.7326257080078125,0,0,0.5359375000000001
1.5672238070001185,0,0,1.0773907470703123,0,0,1.3015625000000002
1.5689928239999062,0,0,1.4963760375976562,0,0,1.6078125
1.570582585000011,0,0,1.39821376953125,0,0,0.765625
1.5723304539997116,0,0,1.3718775512695311,0,0,1.4546875000000001
1.5739043449993915,0,0,1.848323681640625,0,0,1.1484375
1.5754862159992626,0,0,1.5705962890624998,0,0,1.7609375
1.5771491790001164,0,0,1.5658078857421873,0,0,1.378125
1.579197082999599,0,0,1.8291700683593748,0,0,0.9953125
1.5808686009995654,0,0,1.3311761230468748,0,0,1.6843750000000002
1.5825651010000001,0,0,1.2497732666015624,0,0,0.6125
1.5842499159998624,0,0,1.8171990600585937,0,0,0.30625
1.585908508999637,0,0,1.3623007446289062,0,0,0.9953125
1.587707618999957,0,0,0.5889736083984375,0,0,0.6890625
1.5892512499995064,0,0,0.7038952880859375,0,0,0.9187500000000001
1.59088236199932,0,0,1.2569558715820313,0,0,1.4546875000000001
1.5926111019998643,0,0,1.4987702392578124,0,0,1.225
1.5942043439999907,0,0,1.5107412475585937,0,0,1.53125
1.5958414560000165,0,0,1.8291700683593748,0,0,1.378125
1.5974391229992762,0,0,1.8052280517578123,0,0,1.0718750000000001
1.599170845000117,0,0,1.5705962890624998,0,0,0.9187500000000001
1.6008581969999796,0,0,1.8195932617187498,0,0,0.9953125
1.6024828089994116,0,0,1.8243816650390623,0,0,0.9953125
1.6041107169994575,0,0,1.0390835205078124,0,0,0.22968750000000002
1.605689383999561,0,0,1.3287819213867187,0,0,0.45937500000000003
1.6073840319995725,0,0,1.1540052001953125,0,0,0.5359375000000001
1.6090073850000408,0,0,0.8762778076171874,0,0,0.5359375000000001
1.6107435139992958,0,0,1.3742717529296875,0,0,0.9953125
1.612345792999804,0,0,1.5179238525390624,0,0,1.6078125
1.6139719419998073,0,0,1.5322890624999999,0,0,1.4546875000000001
1.6155539060000592,0,0,1.4508862060546874,0,0,0.8421875000000001
1.6171138699992298,0,0,1.8602946899414061,0,0,0.9187500000000001
1.6187301859999934,0,0,1.8100164550781248,0,0,1.225
1.6204748149993975,0,0,1.714248388671875,0,0,1.378125
1.6221644439992815,0,0,1.936909143066406,0,0,1.0718750000000001
1.6238242039999022,0,0,1.0821791503906248,0,0,1.1484375
1.6255204069993852,0,0,0.9265560424804687,0,0,0.45937500000000003
1.6277076799997303,0,0,1.1947066284179686,0,0,0.0
1.6299016180000763,0,0,0.9457096557617187,0,0,0.30625
1.6319581699999617,0,0,1.3862427612304686,0,0,1.6843750000000002
1.6337205769996217,0,0,1.5658078857421873,0,0,1.990625
1.6353188369994314,0,0,1.465251416015625,0,0,1.1484375
1.6371824269999706,0,0,1.2689268798828124,0,0,1.4546875000000001
1.6391442019994429,0,0,1.889025109863281,0,0,0.8421875000000001
1.6408700909996696,0,0,2.0973206542968748,0,0,1.3015625000000002
1.6425996829993892,0,0,1.8315642700195311,0,0,1.53125
1.6442166279994126,0,0,1.2569558715820313,0,0,0.5359375000000001
1.6458882019996963,0,0,0.8858546142578124,0,0,-0.45937500000000003
1.6475722019995374,0,0,1.2282254516601563,0,0,2.0
1.6493129789996601,0,0,1.3575123413085937,0,0,0.5359375000000001
1.6510996819997672,0,0,0.8283937744140625,0,0,0.6890625
1.6528502000001026,0,0,1.5801730957031248,0,0,1.53125
1.6544623859999774,0,0,1.5059528442382812,0,0,2.0
1.6562643099996421,0,0,1.2737152832031249,0,0,0.9953125
1.6579309029993965,0,0,1.8339584716796873,0,0,1.53125
1.6595505519999278,0,0,2.2002713256835937,0,0,1.4546875000000001
1.6613796060000823,0,0,2.04943662109375,0,0,1.378125
1.6631431050000174,0,0,1.8626888916015625,0,0,1.225
1.6650798430000577,0,0,1.4604630126953124,0,0,0.30625
1.6672463939994486,0,0,1.0366893188476562,0,0,0.5359375000000001
1.6688739129995156,0,0,0.7876923461914062,0,0,-0.153125
1.670413413999995,0,0,1.0007762939453124,0,0,0.153125
1.6719808230000126,0,0,0.928950244140625,0,0,1.0718750000000001
1.673849283999516,0,0,1.388636962890625,0,0,1.53125
1.6754991549996703,0,0,1.0582371337890624,0,0,1.53125
1.6771175629992285,0,0,0.8475473876953125,0,0,2.0
1.678731396999865,0,0,1.6735469604492186,0,0,0.3828125
1.6804056189994299,0,0,1.7501614135742187,0,0,1.53125
1.6820167309997487,0,0,2.2457611572265623,0,0,1.990625
1.6836148429993045,0,0,2.3511060302734372,0,0,1.9140625000000002
1.6866823840000507,0,0,0.6584054565429687,0,0,0.30625
1.6883101809999062,0,0,0.8379705810546875,0,0,-0.6125
1.6898997190000955,0,0,1.1180921752929687,0,0,0.0
1.6915335339999729,0,0,1.5634136840820312,0,0,0.8421875000000001
1.693086757999481,0,0,1.905784521484375,0,0,1.378125
1.6946153149992824,0,0,0.9528922607421875,0,0,2.0
1.6965414050000618,0,0,0.6177040283203125,0,0,1.378125
1.6981964429996879,0,0,1.3623007446289062,0,0,0.30625
1.6997555549996832,0,0,2.214636535644531,0,0,1.6078125
1.7016448119993584,0,0,2.5713725830078125,0,0,1.990625
1.703717418999986,0,0,1.8052280517578123,0,0,1.8375000000000001
1.705327789999501,0,0,1.0797849487304687,0,0,2.0
1.706868717999896,0,0,1.0510545288085937,0,0,-2.0
1.7086278460001267,0,0,0.9002198242187499,0,0,0.0
1.7103397169994423,0,0,1.0007762939453124,0,0,0.3828125
1.711955568999656,0,0,1.7166425903320313,0,0,1.0718750000000001
1.7134906259998388,0,0,1.3431471313476562,0,0,2.0
1.7153861059996416,0,0,0.373495458984375,0,0,1.0718750000000001
1.7171254569993835,0,0,1.158793603515625,0,0,0.6890625
1.7186849029994846,0,0,1.7956512451171873,0,0,1.378125
1.7202379039999869,0,0,1.8626888916015625,0,0,1.990625
1.721851219999735,0,0,2.636016027832031,0,0,1.6843750000000002
1.7234578689995033,0,0,2.1021090576171875,0,0,1.225
1.7249874629997066,0,0,1.4939818359375,0,0,0.3828125
1.7266596859999481,0,0,1.01514150390625,0,0,0.0
1.728322018999279,0,0,0.8643067993164062,0,0,-0.3828125
1.7298735389995272,0,0,1.3862427612304686,0,0,1.1484375
1.731404447999921,0,0,1.446097802734375,0,0,1.1484375
1.733020912000029,0,0,0.8690952026367187,0,0,0.6890625
1.7346900789998472,0,0,0.928950244140625,0,0,1.1484375
1.7362240619995646,0,0,1.3072341064453123,0,0,0.6125
1.73855223999999,0,0,2.2840683837890623,0,0,1.7609375
1.7401839260000997,0,0,2.607285607910156,0,0,2.0
1.7417679079999289,0,0,1.6519991455078125,0,0,-2.0
1.7434615189995384,0,0,1.3934253662109375,0,0,0.5359375000000001
1.7451789449996795,0,0,0.9959878906249999,0,0,-0.3828125
1.746819389999473,0,0,1.1037269653320312,0,0,-0.765625
1.7484656309998172,0,0,1.3575123413085937,0,0,1.378125
1.7505091269995319,0,0,1.0989385620117187,0,0,1.6843750000000002
1.7521733679996032,0,0,0.59376201171875,0,0,0.9187500000000001
1.7539676819997112,0,0,0.967257470703125,0,0,0.30625
1.7556479599998056,0,0,1.7693150268554687,0,0,0.9953125
1.7574258479999116,0,0,2.4971523315429685,0,0,1.9140625000000002
1.7592002729998057,0,0,2.5761609863281247,0,0,1.9140625000000002
1.7608538659997066,0,0,1.3215993164062498,0,0,1.0718750000000001
1.7624607549996654,0,0,0.833182177734375,0,0,-0.3828125
1.7640110899992578,0,0,0.8188169677734375,0,0,-0.22968750000000002
1.7655426100000113,0,0,1.6328455322265625,0,0,0.0
1.7670945379995828,0,0,1.9895815795898437,0,0,1.225
1.7689763689995743,0,0,1.2832920898437499,0,0,1.4546875000000001
1.770550777999233,0,0,0.5746083984375,0,0,1.3015625000000002
1.772109408999313,0,0,0.7422025146484375,0,0,0.9187500000000001
1.7738574079994578,0,0,1.7286135986328124,0,0,0.6125
1.7754665570000725,0,0,2.4396914916992185,0,0,2.0
1.7769970399995145,0,0,2.5450363647460934,0,0,1.0718750000000001
1.7785955780000222,0,0,1.8602946899414061,0,0,1.378125
1.7803028739999718,0,0,0.8643067993164062,0,0,0.0
1.7819313189993409,0,0,0.7661445312499999,0,0,-0.9953125
1.783845908999865,0,0,1.6519991455078125,0,0,0.6125
1.7857797030001166,0,0,1.6017209106445311,0,0,2.0
1.7876624599994102,0,0,0.5339069702148437,0,0,1.7609375
1.7892283689998294,0,0,0.45968671875,0,0,0.765625
1.7907701670001188,0,0,0.9911994873046874,0,0,1.0718750000000001
1.792489888000091,0,0,1.7022773803710936,0,0,1.9140625000000002
1.7941688519995296,0,0,2.767697119140625,0,0,2.0
1.795707463999861,0,0,1.9608511596679685,0,0,1.8375000000000001
1.7976776649993553,0,0,0.6153098266601562,0,0,0.22968750000000002
1.7993707569994513,0,0,0.5219359619140624,0,0,-0.9187500000000001
1.800983610000003,0,0,1.697488977050781,0,0,0.6890625
1.8025187969997205,0,0,1.879448303222656,0,0,2.0
1.8043185729993638,0,0,1.4173673828125,0,0,0.765625
1.805963017999602,0,0,0.6607996582031249,0,0,0.9953125
1.8075627779999195,0,0,0.8044517578125,0,0,1.0718750000000001
1.8090952429993195,0,0,1.6112977172851561,0,0,0.5359375000000001
1.8108663160001015,0,0,2.7629087158203123,0,0,2.0
1.8124638909994246,0,0,2.4205378784179685,0,0,1.9140625000000002
1.8140041149999888,0,0,1.2928688964843749,0,0,0.22968750000000002
1.8159285570000065,0,0,0.277727392578125,0,0,-2.0
1.8176909449994127,0,0,1.3120225097656248,0,0,0.6890625
1.8193937969999752,0,0,2.2361843505859373,0,0,1.4546875000000001
1.8210428160000447,0,0,1.6831237670898436,0,0,1.6843750000000002
1.822824758999559,0,0,0.948103857421875,0,0,1.53125
1.824417259999791,0,0,0.6105214233398437,0,0,1.0718750000000001
1.8259503359995506,0,0,1.4796166259765624,0,0,0.45937500000000003
1.827709223999591,0,0,2.5330653564453125,0,0,2.0
1.8294111129998782,0,0,2.4349030883789062,0,0,1.9140625000000002
1.8310516689998622,0,0,1.446097802734375,0,0,0.3828125
1.8328765379992547,0,0,0.055066638183593745,0,0,-0.6890625
1.8346097779995034,0,0,1.254561669921875,0,0,0.45937500000000003
1.8362467779998042,0,0,1.8004396484374998,0,0,1.53125
1.8378474089995507,0,0,1.9297265380859374,0,0,1.4546875000000001
1.8395052979994944,0,0,1.2234370483398436,0,0,1.4546875000000001
1.8410746700001255,0,0,0.8259995727539062,0,0,0.765625
1.8426620969994474,0,0,1.908178723144531,0,0,1.378125
1.844284133999281,0,0,2.7437551025390623,0,0,1.6843750000000002
1.8458256179992532,0,0,2.2601263671875,0,0,1.3015625000000002
1.847363433999817,0,0,1.7788918334960937,0,0,0.153125
1.848978379000073,0,0,0.15322890625,0,0,-0.30625
1.8505848249997143,0,0,0.8906430175781249,0,0,0.45937500000000003
1.8521254739998767,0,0,1.5682020874023437,0,0,0.9187500000000001
1.853787399999419,0,0,1.8267758666992187,0,0,1.378125
1.855370438999671,0,0,1.5586252807617187,0,0,1.7609375
1.856936420999773,0,0,0.5530605834960938,0,0,1.0718750000000001
1.8585444410000491,0,0,1.7381904052734374,0,0,1.378125
1.8601606449992687,0,0,2.559401574707031,0,0,1.378125
1.8617492569992464,0,0,2.4349030883789062,0,0,1.7609375
1.8632874439999796,0,0,2.446874096679687,0,0,0.765625
1.8649055189998762,0,0,1.0462661254882812,0,0,0.5359375000000001
1.8665771859996312,0,0,0.5003881469726562,0,0,0.30625
1.868112631999793,0,0,1.0606313354492187,0,0,0.765625
1.8697147809998569,0,0,1.1013327636718748,0,0,0.765625
1.8714698359999602,0,0,1.1013327636718748,0,0,1.225
1.87300122599936,0,0,0.7661445312499999,0,0,0.9953125
1.8746155419994466,0,0,1.6352397338867186,0,0,0.8421875000000001
1.8763797080000586,0,0,2.272097375488281,0,0,1.3015625000000002
1.8779309499996089,0,0,1.9823989746093749,0,0,1.6078125
1.879593931999807,0,0,1.5466542724609373,0,0,0.5359375000000001
1.8813461529998676,0,0,0.928950244140625,0,0,-0.30625
1.8829475989996354,0,0,0.8164227661132812,0,0,0.6125
1.8846435429995836,0,0,1.6232687255859375,0,0,1.378125
1.8864775599995482,0,0,1.62805712890625,0,0,1.4546875000000001
1.8880997829992339,0,0,1.3407529296874998,0,0,1.1484375
1.889765893999538,0,0,0.97683427734375,0,0,1.225
1.891449282999929,0,0,1.6208745239257811,0,0,1.53125
1.8930717650000588,0,0,2.142810485839844,0,0,0.9187500000000001
1.8947421909997502,0,0,1.9488801513671874,0,0,0.5359375000000001
1.896428802999253,0,0,1.2473790649414063,0,0,0.45937500000000003
1.898038691999318,0,0,0.28490999755859375,0,0,0.0
1.8997011000001294,0,0,1.4963760375976562,0,0,0.8421875000000001
1.9014705249992403,0,0,1.7166425903320313,0,0,1.3015625000000002
1.9031154879994574,0,0,1.1851298217773436,0,0,1.378125
1.9049879679996593,0,0,0.74699091796875,0,0,0.3828125
1.9070685379992938,0,0,2.0757728393554684,0,0,1.53125
1.9091793110001163,0,0,2.73896669921875,0,0,1.4546875000000001
1.9111670669999512,0,0,1.5562310791015623,0,0,0.0
1.9128052149999348,0,0,0.09816226806640624,0,0,0.0
1.9143700499998886,0,0,-0.229843359375,0,0,0.0
1.915996050999638,0,0,1.6304513305664061,0,0,1.1484375
1.9178040309998323,0,0,1.8602946899414061,0,0,1.4546875000000001
1.9194472529998166,0,0,1.4820108276367188,0,0,1.8375000000000001
1.9210017360001075,0,0,0.5913678100585937,0,0,1.0718750000000001
1.9227212549994874,0,0,1.838746875,0,0,0.9953125
1.9244039209997936,0,0,2.4109610717773435,0,0,1.378125
1.9259347189999971,0,0,2.166752502441406,0,0,1.225
1.9274624989993754,0,0,1.9393033447265624,0,0,0.0
1.9291364430000613,0,0,0.4070142822265625,0,0,-0.45937500000000003
1.9310440889994425,0,0,1.0678139404296874,0,0,0.5359375000000001
1.9327264969997486,0,0,1.39821376953125,0,0,1.378125
1.9343000720000418,0,0,1.369483349609375,0,0,0.9187500000000001
1.9359358129995599,0,0,0.8475473876953125,0,0,0.6125
1.9376234979999936,0,0,1.3670891479492187,0,0,1.6078125
1.93919748099961,0,0,2.099714855957031,0,0,1.6078125
1.9407217979996858,0,0,2.3630770385742186,0,0,1.6078125
1.942316261999622,0,0,2.138022082519531,0,0,0.8421875000000001
1.9440660019999996,0,0,1.2761094848632812,0,0,0.6890625
1.9457577979992493,0,0,0.239420166015625,0,0,-0.5359375000000001
1.94732040999952,0,0,0.9026140258789062,0,0,0.6890625
1.9489361329997337,0,0,1.465251416015625,0,0,1.0718750000000001
1.9505386900000303,0,0,0.7900865478515624,0,0,1.378125
1.9521973569999318,0,0,0.8906430175781249,0,0,0.765625
1.9538900049992662,0,0,1.0630255371093749,0,0,1.1484375
1.9554459319997477,0,0,1.8650830932617186,0,0,2.0
1.957074432999434,0,0,2.3032219970703123,0,0,1.53125
1.9587559510000574,0,0,1.9967641845703124,0,0,0.765625
1.9603824709993205,0,0,1.4221557861328125,0,0,0.30625
1.9619162689996301,0,0,0.5243301635742187,0,0,0.153125
1.9636294900001303,0,0,1.7573440185546874,0,0,0.6125
1.9654768959999274,0,0,1.6232687255859375,0,0,0.9953125
1.9671606920001068,0,0,0.7637503295898437,0,0,1.1484375
1.9688549149996106,0,0,0.38786066894531246,0,0,0.3828125
1.9705503219993261,0,0,1.8818425048828125,0,0,-2.0
1.9721548779998557,0,0,2.492363928222656,0,0,1.8375000000000001
1.9737371759993039,0,0,2.1978771240234374,0,0,1.6078125
1.9755121190000864,0,0,1.0534487304687499,0,0,1.0718750000000001
1.9772193230000994,0,0,0.34237083740234375,0,0,-0.45937500000000003
1.9788219160000153,0,0,1.0366893188476562,0,0,0.5359375000000001
1.9804425279999123,0,0,1.9584569580078124,0,0,1.4546875000000001
1.9820074179997391,0,0,1.5586252807617187,0,0,1.1484375
1.983585474999927,0,0,1.1180921752929687,0,0,1.3015625000000002
1.9852008089992523,0,0,1.1827356201171875,0,0,1.3015625000000002
1.986839475999659,0,0,1.7357962036132812,0,0,2.0
1.9884419769996384,0,0,2.2649147705078123,0,0,1.4546875000000001
1.9900520339997456,0,0,2.068590234375,0,0,1.1484375
1.991662200999599,0,0,1.2210428466796874,0,0,0.8421875000000001
1.9931951660000777,0,0,0.6967126831054687,0,0,-0.5359375000000001
1.9947376299996904,0,0,0.7996633544921875,0,0,0.8421875000000001
1.9963455759998396,0,0,1.6519991455078125,0,0,1.0718750000000001
1.998042334999809,0,0,1.4700398193359374,0,0,1.4546875000000001
1.9997455570000966,0,0,0.82360537109375,0,0,1.4546875000000001
2.001278706999983,0,0,0.7134720947265625,0,0,1.225
2.003970583999944,0,0,2.6192566162109374,0,0,1.9140625000000002
2.0056423070000164,0,0,2.2457611572265623,0,0,1.6078125
2.0072547149993625,0,0,1.93451494140625,0,0,0.0765625
2.0088635120000617,0,0,0.47644613037109373,0,0,-0.3828125
2.010552493999967,0,0,0.7613561279296874,0,0,0.30625
2.012104198999623,0,0,1.3862427612304686,0,0,0.765625
2.0137297000001126,0,0,1.3287819213867187,0,0,1.1484375
2.0153426449996914,0,0,0.9600748657226562,0,0,1.225
2.0170327189998716,0,0,0.7637503295898437,0,0,1.0718750000000001
2.0186907930001325,0,0,1.8052280517578123,0,0,1.6078125
2.0203306079993126,0,0,2.3367408203125,0,0,1.53125
2.0222231620000457,0,0,2.3343466186523436,0,0,1.6843750000000002
2.023900365999907,0,0,1.4891934326171874,0,0,0.8421875000000001
2.0255259769992335,0,0,0.5506663818359374,0,0,-0.5359375000000001
2.027154810999491,0,0,0.9504980590820312,0,0,0.3828125
2.0291180679996614,0,0,1.3455413330078123,0,0,0.9187500000000001
2.0308554369994454,0,0,0.7613561279296874,0,0,1.1484375
2.0324665309999546,0,0,0.6607996582031249,0,0,0.9187500000000001
2.0343974729994443,0,0,0.8212111694335937,0,0,1.7609375
2.036126934999629,0,0,2.398990063476562,0,0,1.7609375
2.037860546000047,0,0,2.427720483398437,0,0,1.9140625000000002
2.039405954999893,0,0,2.3487118286132813,0,0,0.9187500000000001
2.041400469999644,0,0,0.7924807495117187,0,0,-0.45937500000000003
2.0431365249996816,0,0,0.928950244140625,0,0,0.45937500000000003
2.0447475439996197,0,0,1.5251064575195312,0,0,0.6890625
2.046441228999356,0,0,1.5682020874023437,0,0,0.9953125
2.0481345620000866,0,0,0.9696516723632812,0,0,0.5359375000000001
2.049744285000088,0,0,0.9696516723632812,0,0,0.9953125
2.051397581999481,0,0,1.24498486328125,0,0,1.8375000000000001
2.053020526999717,0,0,2.0278888061523435,0,0,1.4546875000000001
2.054679656999724,0,0,1.93451494140625,0,0,1.225
2.0566186910000397,0,0,0.7852981445312499,0,0,0.765625
2.0582612099997277,0,0,0.5027823486328125,0,0,0.0765625
2.059947321999971,0,0,1.8722656982421875,0,0,0.6890625
2.0615829700000177,0,0,1.4939818359375,0,0,1.0718750000000001
2.0636912800000573,0,0,1.1228805786132812,0,0,0.9187500000000001
2.0653807989992856,0,0,0.6057330200195312,0,0,0.6125
2.067168335000133,0,0,1.1037269653320312,0,0,1.53125
2.06905172200004,0,0,2.243366955566406,0,0,0.765625
2.0707017029999406,0,0,2.3151930053710936,0,0,1.378125
2.0723757219993786,0,0,1.4508862060546874,0,0,0.765625
2.0739530749997357,0,0,0.13407529296874998,0,0,1.990625
2.0756415569994715,0,0,1.4245499877929686,0,0,0.45937500000000003
2.07733955599997,0,0,1.5945383056640625,0,0,0.6125
2.0789484649994847,0,0,1.5418658691406248,0,0,1.225
2.080688594000094,0,0,0.9193734375,0,0,0.9187500000000001
2.0823908339998525,0,0,1.0630255371093749,0,0,1.1484375
2.0840901299998222,0,0,1.9009961181640624,0,0,1.8375000000000001
2.0857536679995974,0,0,2.1452046874999997,0,0,1.378125
2.087447778999376,0,0,1.9847931762695312,0,0,0.6125
2.0890801499999725,0,0,0.7565677246093749,0,0,0.0
2.0906651319992307,0,0,0.9074024291992187,0,0,0.8421875000000001
2.092629351999676,0,0,1.6807295654296874,0,0,1.53125
2.0942343339993386,0,0,1.37906015625,0,0,0.9187500000000001
2.0958699269995122,0,0,0.97683427734375,0,0,1.225
2.097576963999927,0,0,0.814028564453125,0,0,1.1484375
2.0991165030000047,0,0,1.438915197753906,0,0,1.4546875000000001
2.1006979479998336,0,0,2.693476867675781,0,0,1.0718750000000001
2.10252864999984,0,0,2.3343466186523436,0,0,1.4546875000000001
2.104626274999646,0,0,0.6153098266601562,0,0,0.8421875000000001
2.1064545889994406,0,0,-0.0143652099609375,0,0,0.0
2.1084010669992495,0,0,1.4867992309570313,0,0,0.765625
2.110149307000029,0,0,1.5562310791015623,0,0,1.225
2.1127531490001275,0,0,0.1580173095703125,0,0,0.6890625
2.115201695999531,0,0,1.189918225097656,0,0,2.0
2.1172326739997516,0,0,2.5474305664062498,0,0,1.6843750000000002
2.1199013850000483,0,0,1.7621324218749999,0,0,1.3015625000000002
2.1219213819995275,0,0,0.258573779296875,0,0,0.30625
2.1240643029996136,0,0,1.4173673828125,0,0,-2.0
2.1259776329998203,0,0,1.687912170410156,0,0,0.3828125
2.1277458730000944,0,0,0.8762778076171874,0,0,0.9953125
2.1294943359998797,0,0,0.5267243652343749,0,0,0.6890625
2.1311777239998264,0,0,0.9864110839843749,0,0,1.990625
2.1331824619992403,0,0,2.0446482177734375,0,0,1.0718750000000001
2.1349573869993037,0,0,2.0542250244140625,0,0,1.0718750000000001
2.136698589999469,0,0,1.1252747802734375,0,0,0.0765625
2.1385787359995447,0,0,1.388636962890625,0,0,0.45937500000000003
2.1403259199996683,0,0,1.9919757812499999,0,0,1.8375000000000001
2.1420890859999417,0,0,1.7788918334960937,0,0,0.765625
2.1437613089992738,0,0,0.8930372192382812,0,0,0.153125
2.14577858299981,0,0,0.4261678955078125,0,0,0.30625
2.147319009999592,0,0,1.1659762084960936,0,0,1.3015625000000002
2.1490296769998167,0,0,2.1356278808593747,0,0,1.3015625000000002
2.150559381999301,0,0,1.85790048828125,0,0,1.0718750000000001
2.152123827999276,0,0,1.0941501586914062,0,0,1.6078125
2.153720754999995,0,0,-0.05746083984375,0,0,0.0
2.155489475999275,0,0,1.0342951171875,0,0,0.5359375000000001
2.157291900999553,0,0,2.1499930908203124,0,0,1.53125
2.159115472999474,0,0,1.9201497314453124,0,0,1.9140625000000002
2.1607935289994202,0,0,0.6679822631835937,0,0,0.8421875000000001
2.162716971000009,0,0,0.9026140258789062,0,0,0.8421875000000001
2.1646203199998126,0,0,2.1643583007812497,0,0,1.1484375
2.166384653000023,0,0,2.4061726684570313,0,0,1.0718750000000001
2.1682023729999855,0,0,1.0199299072265624,0,0,0.9187500000000001
2.169963390999328,0,0,0.24899697265624998,0,0,0.0
2.1715994469996076,0,0,1.446097802734375,0,0,0.3828125
2.173212114999842,0,0,1.3862427612304686,0,0,0.765625
2.17533488799927,0,0,1.0869675537109373,0,0,1.1484375
2.1769451109994407,0,0,1.0127473022460938,0,0,0.8421875000000001
2.1787239059995045,0,0,1.6639701538085936,0,0,1.8375000000000001
2.180653032999544,0,0,2.408566870117187,0,0,1.378125
2.182324958999743,0,0,2.4492682983398435,0,0,1.990625
2.184004551999351,0,0,0.9720458740234375,0,0,1.225
2.185998121999546,0,0,-0.03591302490234375,0,0,-0.3828125
2.1878068619998885,0,0,1.908178723144531,0,0,0.45937500000000003
2.189549175999673,0,0,1.8195932617187498,0,0,0.9187500000000001
2.1914737469996908,0,0,1.369483349609375,0,0,1.378125
2.1931325629993808,0,0,0.3758896606445312,0,0,0.765625
2.1947860629998104,0,0,0.9792284790039062,0,0,0.9187500000000001
2.1963596939995114,0,0,1.838746875,0,0,0.8421875000000001
2.1978926399997363,0,0,2.4444798950195312,0,0,1.4546875000000001
2.199483918999249,0,0,2.27927998046875,0,0,0.6125
2.2011149189993375,0,0,1.0773907470703123,0,0,0.3828125
2.2026689389995227,0,0,0.9265560424804687,0,0,0.6890625
2.204254051999669,0,0,1.6424223388671875,0,0,1.53125
2.205976291999832,0,0,1.6352397338867186,0,0,0.30625
2.2075761629994304,0,0,1.139639990234375,0,0,0.9953125
2.2091749789997266,0,0,0.8403647827148437,0,0,0.22968750000000002
2.2108800899995913,0,0,1.2737152832031249,0,0,1.1484375
2.2126619410000785,0,0,2.0159177978515626,0,0,0.9953125
2.214371847999246,0,0,1.7717092285156248,0,0,1.1484375
2.2160338479998245,0,0,1.1372457885742187,0,0,1.53125
2.217703700000129,0,0,0.19871873779296872,0,0,0.153125
2.2193293119999,0,0,1.3407529296874998,0,0,1.378125
2.2210306449997006,0,0,2.0638018310546875,0,0,0.9953125
2.22265979399981,0,0,1.5011644409179687,0,0,2.0
2.2243331639992903,0,0,1.2497732666015624,0,0,0.45937500000000003
2.225877109999601,0,0,0.9074024291992187,0,0,0.9953125
2.227667534999455,0,0,1.6208745239257811,0,0,1.1484375
2.2293764979995103,0,0,1.6328455322265625,0,0,0.6125
2.230965443000059,0,0,1.8124106567382812,0,0,0.45937500000000003
2.2325111119998837,0,0,0.51714755859375,0,0,0.6890625
2.234403664999263,0,0,0.22505495605468748,0,0,0.9187500000000001
2.236080220999611,0,0,1.4173673828125,0,0,0.9187500000000001
2.237692887999401,0,0,1.7477672119140624,0,0,1.0718750000000001
2.2392541119997986,0,0,1.6543933471679686,0,0,1.9140625000000002
2.2410384810000323,0,0,0.9624690673828125,0,0,1.0718750000000001
2.242687962999298,0,0,1.407790576171875,0,0,0.8421875000000001
2.2443320189995575,0,0,2.0925322509765625,0,0,1.378125
2.245984629999839,0,0,2.032677209472656,0,0,1.225
2.247632130999591,0,0,1.1755530151367186,0,0,1.0718750000000001
2.249303241999769,0,0,0.49799394531249996,0,0,-0.22968750000000002
2.2509503169994787,0,0,0.622492431640625,0,0,0.3828125
2.2531532549992335,0,0,1.637633935546875,0,0,0.8421875000000001
2.254847273999985,0,0,1.6927005737304686,0,0,1.990625
2.256417589999728,0,0,1.6352397338867186,0,0,1.3015625000000002
2.257994423999662,0,0,0.9552864624023437,0,0,1.53125
2.2596203140001307,0,0,2.0566192260742184,0,0,1.53125
2.2612327959996037,0,0,2.142810485839844,0,0,1.1484375
2.2632129409994377,0,0,1.8770541015625,0,0,-0.153125
2.2648052750000716,0,0,0.6919242797851562,0,0,0.3828125
2.266390572999626,0,0,0.507570751953125,0,0,-0.22968750000000002
2.2680835729997852,0,0,1.2737152832031249,0,0,0.9953125
2.2696407220000765,0,0,1.4317325927734375,0,0,1.225
2.2711849090001124,0,0,1.3359645263671873,0,0,1.6078125
2.2739790269997684,0,0,0.948103857421875,0,0,0.9187500000000001
2.27596311599973,0,0,2.250549560546875,0,0,1.990625
2.2780853329995807,0,0,2.370259643554687,0,0,1.7609375
2.279832795999937,0,0,1.3646949462890625,0,0,0.765625
2.281427703999725,0,0,0.622492431640625,0,0,2.0
2.283253498999329,0,0,0.7661445312499999,0,0,0.0
2.2849529619998066,0,0,1.5921441040039062,0,0,0.6125
2.2869038660001024,0,0,1.3192051147460937,0,0,1.7609375
2.2886108659995443,0,0,0.6248866333007812,0,0,0.9187500000000001
2.29032492099941,0,0,0.7206546997070312,0,0,0.9953125
2.2925187119999464,0,0,1.89620771484375,0,0,1.1484375
2.295025961999272,0,0,2.023100402832031,0,0,0.5359375000000001
2.2967773689997557,0,0,0.8547299926757812,0,0,0.3828125
2.2987227730000086,0,0,1.0582371337890624,0,0,0.6125
2.3012876160000815,0,0,1.8531120849609375,0,0,1.53125
2.3034148139995523,0,0,1.4772224243164063,0,0,2.0
2.3059832859999005,0,0,0.8571241943359375,0,0,0.30625
2.3078011739999056,0,0,2.128445275878906,0,0,1.6843750000000002
2.3093414349996237,0,0,2.43250888671875,0,0,1.1484375
2.3109302499997284,0,0,1.7884686401367187,0,0,0.8421875000000001
2.312611027999992,0,0,0.14125789794921875,0,0,0.0765625
2.3141621409995423,0,0,-0.24660277099609373,0,0,-0.3828125
2.3157515489992875,0,0,1.599326708984375,0,0,0.6890625
2.3174248269997406,0,0,2.1068974609374997,0,0,1.378125
2.319095845999982,0,0,1.668758557128906,0,0,2.0
2.3207350319999023,0,0,0.6967126831054687,0,0,0.9187500000000001
2.3223802169995906,0,0,0.8690952026367187,0,0,0.9187500000000001
2.3239288669992675,0,0,2.1452046874999997,0,0,1.0718750000000001
2.3254543319999357,0,0,2.480392919921875,0,0,1.225
2.327142664999883,0,0,2.128445275878906,0,0,0.45937500000000003
2.3287135739992664,0,0,0.6392518432617187,0,0,0.0
2.330249982999703,0,0,-0.22744915771484372,0,0,2.0
2.331875928000045,0,0,1.218648645019531,0,0,1.4546875000000001
2.3335291499997766,0,0,1.4604630126953124,0,0,1.0718750000000001
2.3351095589996476,0,0,1.1013327636718748,0,0,1.9140625000000002
2.3367318370001158,0,0,0.4955997436523437,0,0,0.9953125
2.3383151899997756,0,0,0.9840168823242187,0,0,1.225
2.3398587289993884,0,0,2.5641899780273434,0,0,1.6843750000000002
2.341423711999596,0,0,2.741360900878906,0,0,1.7609375
2.3430738789993484,0,0,2.403778466796875,0,0,0.765625
2.344757341999866,0,0,0.258573779296875,0,0,0.153125
2.3463634350000575,0,0,-0.14604630126953125,0,0,2.0
2.3481731379997655,0,0,1.254561669921875,0,0,0.45937500000000003
2.3498787299995456,0,0,1.6065093139648436,0,0,0.6125
2.3515996369997083,0,0,0.9983820922851562,0,0,1.378125
2.35327319299995,0,0,0.7709329345703124,0,0,1.1484375
2.3550057849997756,0,0,1.5179238525390624,0,0,1.53125
2.3566656929997407,0,0,2.35589443359375,0,0,1.1484375
2.3585043759994733,0,0,2.243366955566406,0,0,1.4546875000000001
2.360269504999451,0,0,1.5155296508789062,0,0,1.0718750000000001
2.3619199499999013,0,0,0.11252747802734374,0,0,-1.1484375
2.363668967999729,0,0,1.9512743530273435,0,0,0.22968750000000002
2.36540518899983,0,0,1.7741034301757812,0,0,1.225
2.3670754669992675,0,0,0.8571241943359375,0,0,1.4546875000000001
2.368774410999322,0,0,0.17238251953125,0,0,0.6125
2.3706697429997803,0,0,1.4772224243164063,0,0,0.9953125
2.3723018909995517,0,0,2.3726538452148436,0,0,1.3015625000000002
2.3740536679997604,0,0,2.5665841796874997,0,0,1.8375000000000001
2.3757972969997354,0,0,1.1252747802734375,0,0,1.0718750000000001
2.377406797999356,0,0,0.5315127685546874,0,0,-0.5359375000000001
2.3791235939997932,0,0,0.51714755859375,0,0,0.22968750000000002
2.3808747419998326,0,0,1.8339584716796873,0,0,1.1484375
2.3827571470001203,0,0,1.5945383056640625,0,0,1.53125
2.3843390739993993,0,0,1.218648645019531,0,0,0.8421875000000001
2.386047017999772,0,0,0.9121908325195311,0,0,0.765625
2.387659796999287,0,0,2.0350714111328125,0,0,2.0
2.3891921499998716,0,0,2.5258827514648434,0,0,1.4546875000000001
2.3910954069997388,0,0,2.013523596191406,0,0,0.8421875000000001
2.392742907999491,0,0,0.6392518432617187,0,0,-2.0
2.3943340749992785,0,0,0.201112939453125,0,0,0.0
2.396067203999337,0,0,1.6903063720703124,0,0,0.9953125
2.397732055999768,0,0,1.8650830932617186,0,0,1.225
2.3993301869995776,0,0,1.4101847778320311,0,0,1.53125
2.4008715769996343,0,0,0.5099649536132812,0,0,1.0718750000000001
2.402543391999643,0,0,1.2497732666015624,0,0,0.45937500000000003
2.404210336999313,0,0,2.308010400390625,0,0,0.9953125
2.4061059089999617,0,0,2.1739351074218747,0,0,1.7609375
2.407750575999671,0,0,1.1707646118164061,0,0,0.8421875000000001
2.4093710029992508,0,0,0.20829554443359374,0,0,-0.6890625
2.410962706999271,0,0,0.40222587890625,0,0,0.153125
2.4124944870000036,0,0,1.35990654296875,0,0,0.9953125
2.4143521329997384,0,0,1.419761584472656,0,0,1.4546875000000001
2.4161087059992497,0,0,1.1372457885742187,0,0,1.225
2.417725521999273,0,0,1.0295067138671874,0,0,1.378125
2.4192769679993944,0,0,1.5490484741210937,0,0,1.7609375
2.4209027649994823,0,0,2.9664158569335934,0,0,1.6843750000000002
2.4224867479997556,0,0,2.3965958618164063,0,0,1.8375000000000001
2.424014526999599,0,0,1.1635820068359375,0,0,0.8421875000000001
2.4257471379996787,0,0,0.03591302490234375,0,0,-1.378125
2.427442062999944,0,0,0.814028564453125,0,0,2.0
2.429016471999603,0,0,1.8195932617187498,0,0,0.6125
2.4313044659993466,0,0,0.9720458740234375,0,0,1.4546875000000001
2.4328901149992816,0,0,0.19632453613281248,0,0,0.5359375000000001
2.4344140789999074,0,0,0.44532150878906246,0,0,0.765625
2.4363054479999846,0,0,2.128445275878906,0,0,0.9953125
2.438055687999622,0,0,2.722207287597656,0,0,1.6078125
2.4401259609994668,0,0,1.8938135131835936,0,0,1.378125
2.4418147389997102,0,0,0.076614453125,0,0,-0.6125
2.4434693319999496,0,0,1.388636962890625,0,0,0.0
2.4451474620000226,0,0,1.637633935546875,0,0,0.6890625
2.446811757999967,0,0,1.0654197387695312,0,0,1.6843750000000002
2.448370629999772,0,0,0.8906430175781249,0,0,0.22968750000000002
2.450047722999443,0,0,0.8595183959960937,0,0,1.3015625000000002
2.45173799999975,0,0,2.1978771240234374,0,0,1.7609375
2.4534698150000622,0,0,2.5546131713867184,0,0,1.8375000000000001
2.4550401119995513,0,0,2.2481553588867187,0,0,1.378125
2.456636779999826,0,0,0.7110778930664062,0,0,0.3828125
2.4583719269994617,0,0,0.18914193115234373,0,0,0.0
2.4600731309992625,0,0,1.5059528442382812,0,0,0.45937500000000003
2.461721464999755,0,0,1.9129671264648436,0,0,0.765625
2.463611518000107,0,0,1.005564697265625,0,0,1.378125
2.4651881859999776,0,0,0.17477672119140625,0,0,0.5359375000000001
2.4667204839997794,0,0,0.5363011718749999,0,0,0.3828125
2.468498575999547,0,0,2.24097275390625,0,0,1.3015625000000002
2.4702147049993073,0,0,2.712630480957031,0,0,2.0
2.471801095000046,0,0,1.7908628417968748,0,0,1.225
2.473379410999769,0,0,0.8882488159179687,0,0,-0.3828125
2.4750038189995394,0,0,0.9935936889648437,0,0,0.3828125
2.4766802079993795,0,0,1.714248388671875,0,0,0.9187500000000001
2.4783775969999624,0,0,1.7238251953125,0,0,1.378125
2.48003491199961,0,0,1.4915876342773438,0,0,0.9187500000000001
2.481704281999555,0,0,0.63206923828125,0,0,0.6890625
2.4833176539996202,0,0,1.1563994018554686,0,0,1.1484375
2.4848739509998268,0,0,2.250549560546875,0,0,1.378125
2.4866848199999367,0,0,2.1547814941406247,0,0,1.53125
2.4883958569998867,0,0,1.369483349609375,0,0,0.9953125
2.48993950699969,0,0,-0.06464344482421874,0,0,2.0
2.4916594319993237,0,0,1.5634136840820312,0,0,-0.22968750000000002
2.493321635999564,0,0,1.6903063720703124,0,0,0.6125
2.4948628419997476,0,0,1.3814543579101561,0,0,1.7609375
2.4964537500000006,0,0,0.4525041137695312,0,0,1.1484375
2.498214026999449,0,0,0.5793968017578125,0,0,0.9953125
2.499971507999362,0,0,2.3151930053710936,0,0,1.9140625000000002
2.5015831749997233,0,0,2.5163059448242184,0,0,1.8375000000000001
2.5038066509996497,0,0,1.4173673828125,0,0,0.3828125
2.5055381499996656,0,0,0.06464344482421874,0,0,-1.378125
2.507132669999919,0,0,0.7661445312499999,0,0,0.30625
2.508779040999798,0,0,1.429338391113281,0,0,1.1484375
2.510468280999703,0,0,1.0869675537109373,0,0,1.4546875000000001
2.5121805029993993,0,0,1.0462661254882812,0,0,0.6890625
2.513835984999787,0,0,0.411802685546875,0,0,0.45937500000000003
2.515684667999267,0,0,2.463633508300781,0,0,2.0
2.517497185999673,0,0,2.5761609863281247,0,0,2.0
2.519422626999585,0,0,2.3918074584960936,0,0,1.225
2.521229014999335,0,0,0.49320554199218747,0,0,-0.9953125
2.5230796059995555,0,0,1.2856862915039062,0,0,-0.3828125
2.5249229189994367,0,0,1.8435352783203125,0,0,0.9953125
2.5265131420001126,0,0,1.235408056640625,0,0,1.3015625000000002
2.528348436999295,0,0,0.8020575561523438,0,0,0.765625
2.530001269999957,0,0,-0.040701428222656245,0,0,0.6125
2.5315945489992373,0,0,1.8626888916015625,0,0,1.378125
2.5331249209993985,0,0,2.29843359375,0,0,1.53125
2.5352703239996117,0,0,2.4061726684570313,0,0,1.3015625000000002
2.537006267999459,0,0,1.1156979736328125,0,0,0.30625
2.5388525250000384,0,0,1.1324573852539062,0,0,0.9187500000000001
2.5405066180001086,0,0,1.7884686401367187,0,0,1.1484375
2.542188265999357,0,0,1.8219874633789062,0,0,0.9953125
2.543770081999355,0,0,0.9600748657226562,0,0,1.1484375
2.5453063989998554,0,0,0.3902548706054687,0,0,-2.0
2.547034156999871,0,0,1.0534487304687499,0,0,1.225
2.54867119499977,0,0,2.123656872558594,0,0,1.1484375
2.5503995089993623,0,0,2.085349645996094,0,0,1.6078125
2.5520541209998555,0,0,0.9959878906249999,0,0,1.3015625000000002
2.5536816959993303,0,0,0.11252747802734374,0,0,2.0
2.555421602000024,0,0,1.1133037719726562,0,0,0.153125
2.5571892309999384,0,0,2.2768857788085937,0,0,1.3015625000000002
2.5588239909993717,0,0,1.9752163696289062,0,0,2.0
2.5604271769998377,0,0,1.1611878051757811,0,0,1.0718750000000001
2.5619899749999604,0,0,0.2753331909179687,0,0,0.0765625
2.5637186959993414,0,0,2.176329309082031,0,0,1.3015625000000002
2.565344400999493,0,0,2.540247961425781,0,0,1.4546875000000001
2.5668931249992966,0,0,2.0661960327148434,0,0,0.3828125
2.5688307329992313,0,0,0.26815058593749996,0,0,0.22968750000000002
2.5705088999993677,0,0,0.5985504150390625,0,0,0.8421875000000001
2.5724063229999956,0,0,1.6328455322265625,0,0,1.378125
2.573961991000033,0,0,2.0829554443359375,0,0,1.6078125
2.575615955000103,0,0,1.1013327636718748,0,0,1.378125
2.577382953999404,0,0,0.5722141967773438,0,0,0.45937500000000003
2.5790304359998117,0,0,1.5035586425781249,0,0,1.6843750000000002
2.5810607650000748,0,0,2.8514941772460936,0,0,1.225
2.582768560999284,0,0,2.085349645996094,0,0,0.765625
2.584331858999576,0,0,0.8834604125976562,0,0,0.45937500000000003
2.585879508999824,0,0,-0.3495534423828125,0,0,2.0
2.5874776209993797,0,0,1.5753846923828123,0,0,-0.45937500000000003
2.589193787000113,0,0,1.944091748046875,0,0,1.1484375
2.591023359999781,0,0,1.4628572143554686,0,0,2.0
2.5927628029994594,0,0,0.34237083740234375,0,0,0.9953125
2.594424469999467,0,0,0.3327940307617187,0,0,0.765625
2.59601839700008,0,0,2.4588451049804685,0,0,1.9140625000000002
2.598064800999964,0,0,2.81558115234375,0,0,2.0
2.599763818999236,0,0,1.4245499877929686,0,0,0.9953125
2.601306079999631,0,0,0.47884033203125,0,0,-0.153125
2.603131263999785,0,0,0.9911994873046874,0,0,0.45937500000000003
2.604762560999916,0,0,1.6903063720703124,0,0,1.225
2.606399579999561,0,0,1.4963760375976562,0,0,1.6078125
2.60793400700004,0,0,0.7302315063476562,0,0,0.8421875000000001
2.6097088950000398,0,0,0.5123591552734374,0,0,0.0765625
2.611390469000071,0,0,1.4125789794921875,0,0,1.7609375
2.612914489999639,0,0,2.6862942626953124,0,0,1.53125
2.6144781949997196,0,0,1.9680337646484374,0,0,1.225
2.6164696169998933,0,0,0.4165910888671875,0,0,1.0718750000000001
2.6180799329995352,0,0,-0.143652099609375,0,0,-0.30625
2.6196942669994314,0,0,2.157175695800781,0,0,0.5359375000000001
2.621432432999427,0,0,1.9895815795898437,0,0,1.378125
2.623125395999523,0,0,1.4891934326171874,0,0,1.9140625000000002
2.624710581999352,0,0,0.2346317626953125,0,0,0.45937500000000003
2.626312508999945,0,0,0.296881005859375,0,0,0.5359375000000001
2.62789876899933,0,0,2.157175695800781,0,0,1.225
2.6300364310000077,0,0,2.2744915771484373,0,0,1.6078125
2.6317359119993853,0,0,1.2210428466796874,0,0,0.765625
2.633384097999624,0,0,0.23702596435546874,0,0,-0.5359375000000001
2.6351302459997896,0,0,0.8595183959960937,0,0,0.3828125
2.6368546899993817,0,0,2.3319524169921872,0,0,1.990625
2.638492172000042,0,0,1.8938135131835936,0,0,2.0
2.6401720979993115,0,0,1.465251416015625,0,0,1.3015625000000002
2.641851300999406,0,0,0.5195417602539062,0,0,0.0765625
2.6434993570001097,0,0,2.2673089721679687,0,0,1.3015625000000002
2.6452428749998944,0,0,2.5450363647460934,0,0,0.6890625
2.6470655959992655,0,0,1.695094775390625,0,0,0.45937500000000003
2.64870698499999,0,0,0.08140285644531249,0,0,-2.0
2.650259745999392,0,0,-0.4740519287109375,0,0,0.0
2.651788563000082,0,0,1.2689268798828124,0,0,0.0765625
2.6533863039994685,0,0,1.9033903198242186,0,0,1.378125
2.6552033029993254,0,0,1.8004396484374998,0,0,2.0
2.656930616999489,0,0,0.5626373901367188,0,0,0.9953125
2.658571987999494,0,0,1.5945383056640625,0,0,0.9187500000000001
2.660393930999817,0,0,2.384624853515625,0,0,1.3015625000000002
2.6620711899995513,0,0,2.7461493041992187,0,0,1.3015625000000002
2.6636953209999774,0,0,1.419761584472656,0,0,0.45937500000000003
2.6653047849995346,0,0,0.2346317626953125,0,0,0.6890625
2.66725061499983,0,0,0.6009446166992187,0,0,-0.765625
2.669113482999819,0,0,1.5610194824218748,0,0,1.6843750000000002
2.670776853999996,0,0,1.5322890624999999,0,0,2.0
2.672449927999878,0,0,0.2753331909179687,0,0,1.225
2.674052317999667,0,0,0.49320554199218747,0,0,1.1484375
2.6757090410001183,0,0,2.3918074584960936,0,0,1.4546875000000001
2.6773116340000342,0,0,2.583343591308594,0,0,1.53125
2.6792362609994598,0,0,2.3965958618164063,0,0,0.8421875000000001
2.680909205999342,0,0,0.7398083129882812,0,0,0.0
2.682513595999808,0,0,0.5003881469726562,0,0,0.45937500000000003
2.6840563189998647,0,0,1.1659762084960936,0,0,2.0
2.685652060999928,0,0,1.886630908203125,0,0,1.1484375
2.687380411999584,0,0,1.5179238525390624,0,0,1.225
2.6890189499999906,0,0,0.45968671875,0,0,0.6890625
2.690615357999377,0,0,1.5011644409179687,0,0,1.0718750000000001
2.6923533019999013,0,0,2.327164013671875,0,0,1.1484375
2.693975061999481,0,0,2.473210314941406,0,0,1.6843750000000002
2.6955720819996714,0,0,1.5346832641601562,0,0,0.8421875000000001
2.6972293230001014,0,0,0.5291185668945312,0,0,-0.9187500000000001
2.6987985279993154,0,0,0.7230489013671875,0,0,0.22968750000000002
2.7003309179999633,0,0,1.4341267944335936,0,0,1.3015625000000002
2.7020111960000577,0,0,1.6711527587890624,0,0,1.6843750000000002
2.7040518589992644,0,0,1.120486376953125,0,0,1.9140625000000002
2.705631989999347,0,0,0.8020575561523438,0,0,0.6125
2.707505265999316,0,0,2.166752502441406,0,0,1.225
2.709444799999801,0,0,2.4516625,0,0,1.53125
2.7113216679999823,0,0,2.2074539306640624,0,0,0.3828125
2.7132739979997496,0,0,0.5410895751953124,0,0,-0.6125
2.7148481659996833,0,0,0.3687070556640625,0,0,0.3828125
2.7165306849992703,0,0,1.429338391113281,0,0,1.3015625000000002
2.718274850999478,0,0,1.7262193969726563,0,0,1.3015625000000002
2.7198737039998377,0,0,1.4101847778320311,0,0,1.53125
2.721613740000066,0,0,1.0941501586914062,0,0,1.225
2.7235214969996377,0,0,2.375048046875,0,0,1.225
2.7251255539995327,0,0,2.3918074584960936,0,0,1.1484375
2.7267490730000645,0,0,1.7573440185546874,0,0,0.22968750000000002
2.728572942000028,0,0,0.4261678955078125,0,0,0.22968750000000002
2.7302057199995033,0,0,-0.1867477294921875,0,0,-0.22968750000000002
2.731789479999861,0,0,1.4317325927734375,0,0,0.0765625
2.7334970539995993,0,0,1.608903515625,0,0,1.3015625000000002
2.7351456469996265,0,0,1.465251416015625,0,0,2.0
2.7366813709995768,0,0,0.5003881469726562,0,0,1.1484375
2.7382760569998936,0,0,0.9145850341796874,0,0,0.765625
2.739915409999412,0,0,2.6623522460937497,0,0,1.990625
2.7414510219996373,0,0,2.568978381347656,0,0,1.7609375
2.7430101529998865,0,0,2.6216508178710938,0,0,0.6890625
2.744690282999727,0,0,0.3399766357421875,0,0,0.30625
2.746393467999951,0,0,-0.42377369384765623,0,0,0.153125
2.747973931999695,0,0,1.1037269653320312,0,0,0.30625
2.7496308959998714,0,0,1.6711527587890624,0,0,1.3015625000000002
2.7514418390001083,0,0,1.0223241088867188,0,0,1.4546875000000001
2.7531492459993387,0,0,0.430956298828125,0,0,1.1484375
2.754896318999272,0,0,1.158793603515625,0,0,1.3015625000000002
2.756601744999898,0,0,2.626439221191406,0,0,1.378125
2.7582305229998383,0,0,2.877830395507812,0,0,1.7609375
2.7597794509993037,0,0,1.3862427612304686,0,0,0.765625
2.7613854329993046,0,0,0.5339069702148437,0,0,-1.0718750000000001
2.763266726999973,0,0,0.8355763793945312,0,0,0.0
2.7648586539999087,0,0,1.7405846069335937,0,0,0.8421875000000001
2.7663986369998383,0,0,1.438915197753906,0,0,1.6078125
2.7680992299992795,0,0,0.6416460449218749,0,0,0.9187500000000001
2.7698016549993554,0,0,0.5243301635742187,0,0,0.765625
2.7713895639999464,0,0,1.5298948608398437,0,0,1.990625
2.772920677000002,0,0,2.4253262817382812,0,0,0.9953125
2.7745476769996458,0,0,2.3774422485351563,0,0,1.4546875000000001
2.77614908599935,0,0,1.2378022583007813,0,0,0.6890625
2.7777276979995804,0,0,0.047884033203124995,0,0,-0.9187500000000001
2.779260217999763,0,0,0.9792284790039062,0,0,0.3828125
2.780942032999519,0,0,1.7166425903320313,0,0,1.1484375
2.7827433649999875,0,0,1.0702081420898437,0,0,1.3015625000000002
2.7843263849999857,0,0,0.8020575561523438,0,0,0.9187500000000001
2.7860590699992827,0,0,0.9121908325195311,0,0,0.6890625
2.7879169749994617,0,0,1.9943699829101562,0,0,1.6078125
2.7895493089999945,0,0,2.6001030029296874,0,0,0.765625
2.7911034589997143,0,0,2.252943762207031,0,0,0.5359375000000001
2.7927891619992806,0,0,0.45968671875,0,0,1.225
2.794438958999308,0,0,0.5482721801757812,0,0,0.22968750000000002
2.795996182999261,0,0,1.3479355346679687,0,0,0.5359375000000001
2.7976845709999907,0,0,1.43652099609375,0,0,1.3015625000000002
2.7993992379997508,0,0,1.0486603271484374,0,0,1.8375000000000001
2.801131403999534,0,0,0.6847416748046875,0,0,1.0718750000000001
2.802738293999937,0,0,1.7621324218749999,0,0,1.0718750000000001
2.8044560159996763,0,0,2.7557261108398436,0,0,0.9953125
2.806138811999517,0,0,2.549824768066406,0,0,-2.0
2.8077480169995397,0,0,1.4628572143554686,0,0,0.5359375000000001
2.8094609979998495,0,0,-0.316034619140625,0,0,-0.8421875000000001
2.8112123860000793,0,0,0.5339069702148437,0,0,-0.22968750000000002
2.8128143869998894,0,0,1.5634136840820312,0,0,1.4546875000000001
2.814476442999876,0,0,1.1276689819335937,0,0,2.0
2.816164349999781,0,0,1.0223241088867188,0,0,1.1484375
2.8179038489997765,0,0,0.8188169677734375,0,0,0.6125
2.8196262559995375,0,0,2.6791116577148437,0,0,1.990625
2.8213043859996105,0,0,2.7437551025390623,0,0,1.3015625000000002
2.8229454419997637,0,0,2.2266075439453124,0,0,-2.0
2.8246318309993512,0,0,0.5530605834960938,0,0,-0.30625
2.826311330999488,0,0,0.02633621826171875,0,0,0.0765625
2.827970145999643,0,0,1.3527239379882812,0,0,0.9187500000000001
2.829573203000109,0,0,1.2593500732421874,0,0,0.6125
2.831260442999337,0,0,0.86191259765625,0,0,2.0
2.8328573149992735,0,0,0.25139117431640623,0,0,0.765625
2.834516129999429,0,0,1.5682020874023437,0,0,1.225
2.8362485369998467,0,0,2.530671154785156,0,0,2.0
2.8378145009992295,0,0,2.73896669921875,0,0,1.6843750000000002
2.839367409999795,0,0,2.4349030883789062,0,0,0.8421875000000001
2.8411588159997336,0,0,0.5363011718749999,0,0,-0.9187500000000001
2.8427952799993363,0,0,1.0079588989257813,0,0,0.30625
2.8443362629996045,0,0,1.6927005737304686,0,0,0.9953125
2.845931467999435,0,0,1.189918225097656,0,0,0.765625
2.8475939119998657,0,0,0.49799394531249996,0,0,1.3015625000000002
2.8491592469999887,0,0,0.08140285644531249,0,0,0.5359375000000001
2.850762265999947,0,0,1.886630908203125,0,0,1.378125
2.8524748399995588,0,0,2.8754361938476563,0,0,2.0
2.8540831000000253,0,0,2.901772412109375,0,0,2.0
2.855673989999559,0,0,1.3144167114257812,0,0,0.765625
2.8573982489997434,0,0,0.3280056274414062,0,0,-1.225
2.8591570259995933,0,0,1.3072341064453123,0,0,-0.153125
2.860809025999515,0,0,1.7908628417968748,0,0,1.6843750000000002
2.8624495449994356,0,0,0.928950244140625,0,0,1.225
2.8640156020001086,0,0,0.3112462158203125,0,0,0.765625
2.8656676209993748,0,0,0.1388636962890625,0,0,0.30625
2.8674178609999217,0,0,2.042254016113281,0,0,1.0718750000000001
2.8690085289999843,0,0,2.499546533203125,0,0,1.53125
2.8706024559996877,0,0,2.389413256835937,0,0,1.8375000000000001
2.8722561969998424,0,0,1.5897499023437498,0,0,0.8421875000000001
2.8738157719999435,0,0,-0.19393033447265623,0,0,-1.4546875000000001
2.8753545149993442,0,0,0.6272808349609375,0,0,-0.22968750000000002
2.877023829999416,0,0,1.8602946899414061,0,0,1.6078125
2.8786326639992694,0,0,1.1947066284179686,0,0,1.6078125
2.8802676089999295,0,0,0.7924807495117187,0,0,0.22968750000000002
2.881992349000029,0,0,0.02633621826171875,0,0,0.0
2.8836170169997786,0,0,2.35589443359375,0,0,0.5359375000000001
2.8852385169993795,0,0,2.612074011230469,0,0,1.378125
2.8868606289997842,0,0,2.454056701660156,0,0,1.7609375
2.8884522230000584,0,0,0.33518823242187495,0,0,1.0718750000000001
2.890062890000081,0,0,-0.5195417602539062,0,0,2.0
2.891614150999885,0,0,1.7669208251953124,0,0,0.0765625
2.8931385599998976,0,0,2.24097275390625,0,0,1.6843750000000002
2.8948400599992965,0,0,1.5562310791015623,0,0,1.7609375
2.8964140239995686,0,0,0.20829554443359374,0,0,0.6890625
2.897938544999306,0,0,-0.18435352783203124,0,0,0.0
2.899685524999768,0,0,1.8459294799804686,0,0,0.9187500000000001
2.90125367499968,0,0,2.6527754394531247,0,0,1.6843750000000002
2.902811842999654,0,0,2.6216508178710938,0,0,1.9140625000000002
2.9043449739992866,0,0,1.9584569580078124,0,0,0.6890625
2.9059632339995005,0,0,-0.20350714111328125,0,0,-0.3828125
2.9075616979998813,0,0,0.9648632690429687,0,0,-2.0
2.909113736999643,0,0,1.8698714965820311,0,0,0.8421875000000001
2.9109263089994784,0,0,1.7405846069335937,0,0,1.225
2.9126537719994303,0,0,0.7900865478515624,0,0,0.9953125
2.914275438999539,0,0,-0.13407529296874998,0,0,1.0718750000000001
2.9158790880001106,0,0,1.2521674682617188,0,0,0.5359375000000001
2.917861844000072,0,0,2.9281086303710935,0,0,1.9140625000000002
2.9195884179998757,0,0,2.3535002319335936,0,0,2.0
2.921203326000068,0,0,1.5346832641601562,0,0,0.22968750000000002
2.923074065000037,0,0,0.086191259765625,0,0,-1.9140625000000002
2.9248716749998493,0,0,1.5155296508789062,0,0,0.45937500000000003
2.926526878999539,0,0,2.1787235107421874,0,0,1.6843750000000002
2.9283936359997824,0,0,1.189918225097656,0,0,1.6078125
2.9300589509994097,0,0,0.17956512451171874,0,0,0.0
2.9316130449997218,0,0,0.5746083984375,0,0,0.45937500000000003
2.9335752459992364,0,0,2.9041666137695312,0,0,2.0
2.9352797829997144,0,0,2.925714428710937,0,0,1.53125
2.9369204679996983,0,0,2.01112939453125,0,0,2.0
2.9384775620001164,0,0,0.4429273071289062,0,0,0.0765625
2.9400927669994417,0,0,0.10773907470703124,0,0,-1.6843750000000002
2.9417418779994478,0,0,1.455674609375,0,0,0.45937500000000003
2.9433387129993207,0,0,2.185906115722656,0,0,1.225
2.9449850459996014,0,0,1.438915197753906,0,0,0.6125
2.9466371210000943,0,0,0.3112462158203125,0,0,0.8421875000000001
2.9482293439996283,0,0,0.10295067138671875,0,0,0.45937500000000003
2.9497567159996834,0,0,1.0510545288085937,0,0,2.0
2.951350069,0,0,2.3511060302734372,0,0,1.990625
2.953093438999531,0,0,2.47081611328125,0,0,2.0
2.9546239409992268,0,0,1.1635820068359375,0,0,1.53125
2.9561441649993867,0,0,0.565031591796875,0,0,0.0765625
2.958127420999517,0,0,0.23223756103515625,0,0,-1.1484375
2.9597448099993926,0,0,2.2960393920898436,0,0,0.765625
2.961280292999618,0,0,2.3223756103515623,0,0,2.0
2.963066773999344,0,0,0.7517793212890624,0,0,1.4546875000000001
2.9646465159994477,0,0,0.07422025146484375,0,0,-2.0
2.966177776999757,0,0,0.4213794921875,0,0,1.1484375
2.9678047399993375,0,0,1.9895815795898437,0,0,0.765625
2.969461554999725,0,0,2.906560815429687,0,0,1.9140625000000002
2.9710686489997897,0,0,2.1308394775390624,0,0,1.7609375
2.9726890379997712,0,0,0.7805097412109374,0,0,0.3828125
2.974295835999328,0,0,0.18435352783203124,0,0,0.0
2.976058223999644,0,0,0.5027823486328125,0,0,0.0
2.977712242999587,0,0,2.2936451904296873,0,0,0.5359375000000001
2.9793120770000314,0,0,1.8650830932617186,0,0,2.0
2.9811180009992313,0,0,0.8212111694335937,0,0,1.225
2.983142219999536,0,0,0.74699091796875,0,0,0.0
2.984713424999427,0,0,1.254561669921875,0,0,0.6890625
2.986584053000115,0,0,2.70065947265625,0,0,1.7609375
2.9885042349997093,0,0,1.7310078002929687,0,0,1.378125
2.9901535869994404,0,0,1.0606313354492187,0,0,0.3828125
2.991693829999349,0,0,0.5458779785156249,0,0,-0.6125
2.993338496999968,0,0,0.39264907226562495,0,0,2.0
2.9951072739995652,0,0,1.16837041015625,0,0,1.3015625000000002
2.996672885999942,0,0,2.0302830078125,0,0,1.378125
2.998217979999936,0,0,1.6448165405273436,0,0,2.0
2.9998594069993487,0,0,0.3687070556640625,0,0,1.1484375
3.0014864999993733,0,0,1.197100830078125,0,0,0.0
3.0031747590001032,0,0,1.6041151123046875,0,0,0.3828125
3.005146941000021,0,0,2.4109610717773435,0,0,2.0
3.0071439749999627,0,0,1.7405846069335937,0,0,1.6078125
3.0088582149992362,0,0,0.7230489013671875,0,0,0.22968750000000002
3.0105956589995913,0,0,0.8834604125976562,0,0,-0.3828125
3.0123422879996724,0,0,0.8283937744140625,0,0,0.0
3.0139647519999926,0,0,1.3048399047851562,0,0,1.6078125
3.0155594569996538,0,0,1.5538368774414062,0,0,1.53125
3.017206826999427,0,0,1.2018892333984375,0,0,1.0718750000000001
3.018746328999441,0,0,0.7829039428710937,0,0,0.9953125
3.020348310999907,0,0,1.2042834350585936,0,0,0.6125
3.022102476999862,0,0,1.7717092285156248,0,0,0.30625
3.0237497179996353,0,0,2.6815058593749996,0,0,2.0
3.0252853869997125,0,0,2.3511060302734372,0,0,2.0
3.0269613869995737,0,0,1.0199299072265624,0,0,0.3828125
3.0285515729992767,0,0,0.7326257080078125,0,0,-0.22968750000000002
3.0300877969993962,0,0,0.35194764404296874,0,0,0.0765625
3.031872296000074,0,0,0.9002198242187499,0,0,-0.6125
3.0334219269998357,0,0,1.9416975463867185,0,0,1.378125
3.0354247380000743,0,0,1.218648645019531,0,0,2.0
3.0373281619995396,0,0,0.7015010864257812,0,0,1.0718750000000001
3.0392549190000864,0,0,1.1851298217773436,0,0,0.153125
3.041098564999629,0,0,1.599326708984375,0,0,0.9187500000000001
3.0427501579997625,0,0,2.5139117431640625,0,0,1.9140625000000002
3.0443808439995337,0,0,1.8267758666992187,0,0,1.53125
3.046128824999869,0,0,1.0989385620117187,0,0,0.45937500000000003
3.0477810289994522,0,0,0.6703764648437499,0,0,0.30625
3.049481416999697,0,0,0.7565677246093749,0,0,2.0
3.0511274549999143,0,0,0.9241618408203125,0,0,0.0
3.0527347889992598,0,0,1.7669208251953124,0,0,0.9953125
3.054431345000012,0,0,1.4221557861328125,0,0,1.8375000000000001
3.056030531000033,0,0,1.3718775512695311,0,0,0.9953125
3.057658734999677,0,0,1.24498486328125,0,0,1.3015625000000002
3.059411511999315,0,0,1.608903515625,0,0,0.8421875000000001
3.0610197719997814,0,0,1.7310078002929687,0,0,0.6890625
3.0626047179994202,0,0,2.2577321655273437,0,0,1.53125
3.0646630840001308,0,0,1.649604943847656,0,0,1.3015625000000002
3.0663369169997168,0,0,0.8954314208984374,0,0,0.0765625
3.0679425109992735,0,0,0.8020575561523438,0,0,-0.45937500000000003
3.0696271039996645,0,0,0.6536170532226562,0,0,0.45937500000000003
3.0712983439998425,0,0,0.7541735229492187,0,0,0.153125
3.0728903829995033,0,0,1.3192051147460937,0,0,1.1484375
3.0745436239994888,0,0,1.6424223388671875,0,0,2.0
3.0762517160001153,0,0,1.2234370483398436,0,0,0.9187500000000001
3.077897290999317,0,0,1.6017209106445311,0,0,1.225
3.0795743829994535,0,0,1.8818425048828125,0,0,1.53125
3.0814006040000095,0,0,1.9416975463867185,0,0,0.9187500000000001
3.083112214999346,0,0,2.2385785522460937,0,0,1.1484375
3.0850370819998716,0,0,1.2641384765625,0,0,1.0718750000000001
3.0865742319992933,0,0,0.36152445068359373,0,0,2.0
3.088375471999825,0,0,0.8810662109374999,0,0,-0.6890625
3.0901911000000837,0,0,0.86191259765625,0,0,0.9187500000000001
3.091806877999261,0,0,0.6631938598632812,0,0,0.45937500000000003
3.0934366199999204,0,0,1.1444283935546875,0,0,1.6078125
3.095174471000064,0,0,1.350329736328125,0,0,2.0
3.0968077869993067,0,0,1.3168109130859373,0,0,1.1484375
3.0984701759998643,0,0,1.7381904052734374,0,0,1.225
3.100562541999352,0,0,1.8148048583984373,0,0,1.225
3.102139339000132,0,0,1.917755529785156,0,0,0.9187500000000001
3.1037755059996925,0,0,2.070984436035156,0,0,0.9953125
3.105977592999807,0,0,1.3383587280273437,0,0,0.6125
3.107696407999356,0,0,0.5817910034179687,0,0,0.30625
3.1095337209999343,0,0,0.9648632690429687,0,0,0.0
3.111249128000054,0,0,1.1252747802734375,0,0,0.30625
3.112884572999974,0,0,0.6631938598632812,0,0,0.45937500000000003
3.1144671849997394,0,0,1.5059528442382812,0,0,1.53125
3.1161909259999447,0,0,1.5394716674804687,0,0,1.6843750000000002
3.117866536999827,0,0,1.2617442749023438,0,0,0.6125
3.119548499999837,0,0,1.3096283081054687,0,0,1.0718750000000001
3.121223184999508,0,0,1.697488977050781,0,0,0.6125
3.123106571999415,0,0,1.9416975463867185,0,0,1.1484375
3.1248778489998585,0,0,1.838746875,0,0,1.4546875000000001
3.126533329999802,0,0,1.1516109985351561,0,0,0.8421875000000001
3.1281889229994704,0,0,0.8379705810546875,0,0,0.6125
3.129776072999448,0,0,0.7541735229492187,0,0,0.30625
3.1313853329993435,0,0,1.2306196533203124,0,0,0.0
3.133057739999458,0,0,1.2952630981445312,0,0,0.6125
3.1349248309998075,0,0,0.8379705810546875,0,0,1.225
3.13661716399929,0,0,1.3192051147460937,0,0,1.4546875000000001
3.138279589999911,0,0,1.4006079711914061,0,0,2.0
3.1399457389998133,0,0,1.4030021728515625,0,0,0.765625
3.141622739000013,0,0,1.7908628417968748,0,0,1.53125
3.1432517389994246,0,0,2.1883003173828124,0,0,0.6890625
3.14481870399959,0,0,1.6304513305664061,0,0,1.0718750000000001
3.1464948329994513,0,0,1.458068811035156,0,0,0.9187500000000001
3.1481860369995047,0,0,1.5586252807617187,0,0,0.3828125
3.1497905010000977,0,0,0.7613561279296874,0,0,0.9953125
3.151324279999244,0,0,0.5458779785156249,0,0,0.45937500000000003
3.15311003899933,0,0,1.199495031738281,0,0,0.45937500000000003
3.154864463999729,0,0,1.3718775512695311,0,0,1.0718750000000001
3.156413335999787,0,0,0.6584054565429687,0,0,0.765625
3.158426627999688,0,0,0.7230489013671875,0,0,1.1484375
3.1600509069994587,0,0,1.714248388671875,0,0,1.3015625000000002
3.1616325559998586,0,0,1.6400281372070311,0,0,0.9953125
3.163658811999994,0,0,1.695094775390625,0,0,1.6078125
3.165331514999707,0,0,2.0278888061523435,0,0,1.0718750000000001
3.1669561089993294,0,0,1.6807295654296874,0,0,1.1484375
3.168598313000075,0,0,1.3192051147460937,0,0,0.765625
3.1702582580001035,0,0,1.5179238525390624,0,0,0.765625
3.1718514249996588,0,0,1.5107412475585937,0,0,0.9953125
3.173421703999338,0,0,0.59376201171875,0,0,0.153125
3.1751126119997934,0,0,0.8690952026367187,0,0,0.0765625
3.1770737199994983,0,0,1.216254443359375,0,0,0.6890625
3.178765478999594,0,0,1.0199299072265624,0,0,0.765625
3.1804649969999446,0,0,0.8954314208984374,0,0,0.5359375000000001
3.1820217579997916,0,0,1.458068811035156,0,0,1.6078125
3.183959754999705,0,0,1.5921441040039062,0,0,1.4546875000000001
3.1857246059998943,0,0,1.3431471313476562,0,0,0.6890625
3.187308051999935,0,0,1.4245499877929686,0,0,0.8421875000000001
3.189168754000093,0,0,1.8148048583984373,0,0,0.6125
3.1908547539997016,0,0,1.5251064575195312,0,0,1.1484375
3.1925934939999934,0,0,1.446097802734375,0,0,1.225
3.194124902999647,0,0,1.3527239379882812,0,0,0.5359375000000001
3.1957819219996964,0,0,0.7661445312499999,0,0,0.6125
3.197528198999862,0,0,0.8475473876953125,0,0,0.8421875000000001
3.2002339659993595,0,0,1.6328455322265625,0,0,0.8421875000000001
3.2018626509998285,0,0,1.1540052001953125,0,0,0.6125
3.203566946999672,0,0,0.5363011718749999,0,0,0.6890625
3.205353649999779,0,0,1.4772224243164063,0,0,1.1484375
3.207270850999521,0,0,1.9321207397460936,0,0,1.225
3.2088213709994307,0,0,1.5442600708007812,0,0,0.9953125
3.2105616299995745,0,0,1.0773907470703123,0,0,0.8421875000000001
3.212516941999638,0,0,1.6160861206054686,0,0,0.3828125
3.2141110909997224,0,0,1.687912170410156,0,0,1.378125
3.215685924999889,0,0,1.5466542724609373,0,0,1.0718750000000001
3.217419906000032,0,0,1.2617442749023438,0,0,0.8421875000000001
3.2190417589999925,0,0,1.1468225952148436,0,0,0.6890625
3.220628759999272,0,0,0.8810662109374999,0,0,0.3828125
3.222577478999483,0,0,1.3120225097656248,0,0,0.6890625
3.224309885999901,0,0,1.6448165405273436,0,0,0.3828125
3.225890794999941,0,0,1.4724340209960938,0,0,0.5359375000000001
3.227680072000112,0,0,0.5961562133789062,0,0,0.765625
3.229384700999617,0,0,1.235408056640625,0,0,0.6125
3.2309709239998483,0,0,1.6328455322265625,0,0,1.53125
3.232638775999476,0,0,1.4221557861328125,0,0,1.3015625000000002
3.2345473479999782,0,0,0.7302315063476562,0,0,0.45937500000000003
3.2362693479999507,0,0,1.0917559570312498,0,0,0.8421875000000001
3.2380086989996926,0,0,1.8698714965820311,0,0,0.8421875000000001
3.2396094219993756,0,0,1.7884686401367187,0,0,1.4546875000000001
3.241280829999596,0,0,1.1085153686523437,0,0,1.378125
3.24309923599958,0,0,1.0414777221679687,0,0,0.6890625
3.244645793000018,0,0,1.350329736328125,0,0,0.6125
3.2464658099997905,0,0,1.438915197753906,0,0,0.9953125
3.248347400000057,0,0,1.6472107421875,0,0,0.765625
3.2498988649995226,0,0,1.5035586425781249,0,0,0.9953125
3.251549753999825,0,0,0.9313444458007812,0,0,0.6125
3.2532298279993483,0,0,0.7398083129882812,0,0,0.30625
3.2549406979997,0,0,0.6560112548828124,0,0,0.30625
3.2566149019994555,0,0,1.668758557128906,0,0,0.9187500000000001
3.25837780799975,0,0,1.70467158203125,0,0,0.6890625
3.2599254209999344,0,0,1.0773907470703123,0,0,0.9953125
3.26151166299951,0,0,1.3862427612304686,0,0,0.5359375000000001
3.2632401999999274,0,0,1.484405029296875,0,0,1.0718750000000001
3.264791626999795,0,0,1.6256629272460936,0,0,1.378125
3.2671147309993103,0,0,1.218648645019531,0,0,0.6890625
3.2688433969997277,0,0,1.1180921752929687,0,0,0.9187500000000001
3.2703977510000186,0,0,1.4939818359375,0,0,0.8421875000000001
3.271936473999631,0,0,1.7166425903320313,0,0,1.0718750000000001
3.273517308999544,0,0,0.8858546142578124,0,0,1.0718750000000001
3.2751446059992304,0,0,1.0845733520507812,0,0,0.8421875000000001
3.2771907500000452,0,0,1.438915197753906,0,0,0.6125
3.2789262489995963,0,0,1.199495031738281,0,0,0.45937500000000003
3.2806879519994254,0,0,0.8571241943359375,0,0,-0.30625
3.2825822089998837,0,0,1.5227122558593749,0,0,1.4546875000000001
3.284420078000039,0,0,1.3838485595703125,0,0,1.6843750000000002
3.2865708879999147,0,0,0.8690952026367187,0,0,0.8421875000000001
3.288422496999374,0,0,0.9337386474609375,0,0,0.0
3.290069071999824,0,0,1.5370774658203123,0,0,1.225
3.2916980350000813,0,0,2.114080065917969,0,0,0.9187500000000001
3.293243813999652,0,0,1.5370774658203123,0,0,1.3015625000000002
3.295004257999608,0,0,0.8307879760742187,0,0,1.1484375
3.296610851999503,0,0,1.0558429321289062,0,0,0.5359375000000001
3.2982014639992485,0,0,1.66636435546875,0,0,1.0718750000000001
3.2999178889995164,0,0,1.5921441040039062,0,0,1.1484375
3.3015615009999237,0,0,1.3551181396484375,0,0,0.30625
3.303168908999396,0,0,1.0869675537109373,0,0,0.765625
3.304828575999636,0,0,1.6232687255859375,0,0,0.45937500000000003
3.3064058919999297,0,0,0.9744400756835937,0,0,0.6890625
3.308050892999745,0,0,0.7230489013671875,0,0,0.30625
3.3096323569998276,0,0,0.7972691528320313,0,0,-2.0
3.3111728209996727,0,0,1.2928688964843749,0,0,1.378125
3.3127814889994625,0,0,1.908178723144531,0,0,1.1484375
3.3144297669996376,0,0,1.35990654296875,0,0,1.378125
3.316383226999278,0,0,0.8355763793945312,0,0,0.45937500000000003
3.318235058999562,0,0,1.3718775512695311,0,0,0.9953125
3.320048816000053,0,0,1.9895815795898437,0,0,1.225
3.322021534999294,0,0,1.1013327636718748,0,0,1.225
3.323892626000088,0,0,0.7661445312499999,0,0,0.3828125
3.325659643999643,0,0,1.5538368774414062,0,0,0.9187500000000001
3.327551085999403,0,0,1.70467158203125,0,0,1.378125
3.3291616789992986,0,0,1.448492004394531,0,0,0.9953125
3.3308147349998762,0,0,0.8834604125976562,0,0,0.765625
3.3324466429994573,0,0,1.3431471313476562,0,0,0.6890625
3.334235974999501,0,0,1.5801730957031248,0,0,0.22968750000000002
3.335925493999639,0,0,1.2042834350585936,0,0,0.5359375000000001
3.3375326429995766,0,0,0.5434837768554687,0,0,-0.22968750000000002
3.339110107000124,0,0,0.35194764404296874,0,0,0.8421875000000001
3.3408656989995507,0,0,1.4604630126953124,0,0,1.225
3.3425288469998122,0,0,1.5658078857421873,0,0,0.9187500000000001
3.3443832529992505,0,0,1.0869675537109373,0,0,1.225
3.3459220689992435,0,0,1.0534487304687499,0,0,0.8421875000000001
3.347513015000004,0,0,1.8435352783203125,0,0,2.0
3.3492585879994294,0,0,2.3630770385742186,0,0,1.6843750000000002
3.3507939419996546,0,0,2.114080065917969,0,0,1.4546875000000001
3.352443404999576,0,0,0.7038952880859375,0,0,1.0718750000000001
3.3542467190000025,0,0,0.239420166015625,0,0,0.153125
3.3558311829992817,0,0,1.3479355346679687,0,0,0.5359375000000001
3.357506478999312,0,0,2.250549560546875,0,0,1.3015625000000002
3.3592756819998613,0,0,2.032677209472656,0,0,1.225
3.360903330999463,0,0,0.6416460449218749,0,0,0.9187500000000001
3.3625646269993013,0,0,0.7062894897460937,0,0,0.0
3.364200979999623,0,0,1.3646949462890625,0,0,0.22968750000000002
3.3658668689995466,0,0,1.848323681640625,0,0,0.8421875000000001
3.3674868699999934,0,0,0.9002198242187499,0,0,0.765625
3.3691230549993634,0,0,0.5027823486328125,0,0,2.0
3.371142033000069,0,0,0.45968671875,0,0,1.0718750000000001
3.372782255999482,0,0,2.0470424194335934,0,0,1.225
3.374317942999369,0,0,1.4413093994140624,0,0,1.7609375
3.3759274809999624,0,0,1.0917559570312498,0,0,1.6078125
3.378021401999831,0,0,0.7924807495117187,0,0,0.22968750000000002
3.3796424399997704,0,0,2.0877438476562498,0,0,0.6125
3.381261865999477,0,0,2.7365724975585937,0,0,1.53125
3.382941273999677,0,0,1.8602946899414061,0,0,1.53125
3.3846881069994197,0,0,0.39264907226562495,0,0,0.8421875000000001
3.3863446810000823,0,0,0.3950432739257812,0,0,2.0
3.3878797379993557,0,0,1.3862427612304686,0,0,-0.3828125
3.38940760999958,0,0,2.442085693359375,0,0,1.3015625000000002
3.391360792999876,0,0,1.5251064575195312,0,0,1.4546875000000001
3.3931792909997966,0,0,0.6967126831054687,0,0,0.765625
3.39516612099942,0,0,0.5602431884765625,0,0,0.0765625
3.396836768999492,0,0,1.8339584716796873,0,0,0.9187500000000001
3.398393288999614,0,0,1.8698714965820311,0,0,0.22968750000000002
3.4003011389995663,0,0,1.388636962890625,0,0,0.3828125
3.401945916999466,0,0,1.3263877197265623,0,0,0.153125
3.403526547999718,0,0,1.024718310546875,0,0,1.9140625000000002
3.4051878999998735,0,0,1.1540052001953125,0,0,1.1484375
3.4068503079997754,0,0,1.3383587280273437,0,0,1.1484375
3.4085203819995513,0,0,0.7398083129882812,0,0,0.6890625
3.410055198000009,0,0,0.6177040283203125,0,0,0.0
3.4118327899996075,0,0,1.5107412475585937,0,0,0.6125
3.4134925859998475,0,0,2.5570073730468748,0,0,1.6078125
3.415053402999547,0,0,2.375048046875,0,0,1.990625
3.4167550140000458,0,0,1.0031704956054688,0,0,1.8375000000000001
3.4184309769998436,0,0,0.258573779296875,0,0,-2.0
3.419979274999605,0,0,0.316034619140625,0,0,-0.3828125
3.421633644999929,0,0,1.7549498168945312,0,0,0.22968750000000002
3.423403588999463,0,0,2.5330653564453125,0,0,1.378125
3.425004385999273,0,0,1.7717092285156248,0,0,2.0
3.426588256999821,0,0,0.4572925170898437,0,0,1.3015625000000002
3.4284068119995936,0,0,0.4740519287109375,0,0,0.3828125
3.430347530999825,0,0,1.7477672119140624,0,0,1.4546875000000001
3.432017086999622,0,0,2.1811177124023438,0,0,0.8421875000000001
3.4338058260000253,0,0,1.9704279663085937,0,0,1.378125
3.4355032889998256,0,0,0.9050082275390624,0,0,0.6890625
3.437249621999399,0,0,0.5698199951171875,0,0,0.0
3.4388570490000347,0,0,0.7350199096679687,0,0,0.0
3.4404766419993393,0,0,1.2761094848632812,0,0,0.6890625
3.4421448829998553,0,0,1.7334020019531249,0,0,1.1484375
3.4439168629996857,0,0,1.3646949462890625,0,0,0.9187500000000001
3.4454848649993437,0,0,1.005564697265625,0,0,0.6890625
3.4471372170000905,0,0,0.7757213378906249,0,0,0.6890625
3.4490389550001055,0,0,1.3551181396484375,0,0,1.1484375
3.450607678999404,0,0,1.6543933471679686,0,0,0.9187500000000001
3.4521582729994407,0,0,1.599326708984375,0,0,1.1484375
3.453950845999316,0,0,1.3623007446289062,0,0,0.9953125
3.455521920999672,0,0,1.3479355346679687,0,0,0.45937500000000003
3.4570542009996643,0,0,0.6919242797851562,0,0,0.3828125
3.458834976999242,0,0,1.2976572998046874,0,0,0.0
3.460393737999766,0,0,1.7764976318359373,0,0,1.7609375
3.461970886999552,0,0,1.7884686401367187,0,0,0.153125
3.4637627570000404,0,0,1.6017209106445311,0,0,0.9187500000000001
3.465324979999423,0,0,0.9433154541015625,0,0,0.9953125
3.466849037999964,0,0,1.0558429321289062,0,0,0.0
3.468423927999538,0,0,1.4006079711914061,0,0,0.5359375000000001
3.4700405579997096,0,0,1.5658078857421873,0,0,0.22968750000000002
3.471709520999866,0,0,1.5442600708007812,0,0,0.9187500000000001
3.473238059999858,0,0,1.2928688964843749,0,0,1.4546875000000001
3.4750551329998416,0,0,0.8164227661132812,0,0,-2.0
3.476710021999679,0,0,0.8810662109374999,0,0,0.153125
3.4782435609995446,0,0,1.2138602416992186,0,0,0.45937500000000003
3.479824653999458,0,0,1.7238251953125,0,0,0.9953125
3.481614226999227,0,0,1.7238251953125,0,0,0.8421875000000001
3.4831678949994966,0,0,1.4724340209960938,0,0,0.3828125
3.484970763999627,0,0,1.0271125122070313,0,0,0.6125
3.4868927799998346,0,0,1.1731588134765625,0,0,0.0765625
3.4887692599995717,0,0,1.8052280517578123,0,0,0.9187500000000001
3.4903248909995455,0,0,1.5346832641601562,0,0,0.3828125
3.4920812419995855,0,0,1.2401964599609374,0,0,0.153125
3.493840370999351,0,0,1.0582371337890624,0,0,0.0765625
3.495633146999353,0,0,1.024718310546875,0,0,2.0
3.497432960999504,0,0,1.0510545288085937,0,0,0.6125
3.4990166099996713,0,0,1.5586252807617187,0,0,1.4546875000000001
3.5005689270001312,0,0,1.7190367919921874,0,0,0.45937500000000003
3.5021879089999857,0,0,1.4413093994140624,0,0,0.6890625
3.5038755569994464,0,0,1.0989385620117187,0,0,2.0
3.506004588999531,0,0,1.3766659545898436,0,0,1.0718750000000001
3.5077851249998275,0,0,1.216254443359375,0,0,0.153125
3.509406143999513,0,0,1.6400281372070311,0,0,0.45937500000000003
3.5112593650001145,0,0,1.369483349609375,0,0,0.9187500000000001
3.5129024949992527,0,0,1.3479355346679687,0,0,0.5359375000000001
3.5145380320000186,0,0,0.9217676391601562,0,0,0.9953125
3.5163518270001077,0,0,1.0319009155273438,0,0,0.9187500000000001
3.517954364999241,0,0,1.3527239379882812,0,0,0.9187500000000001
3.519602366000072,0,0,1.5275006591796874,0,0,0.6890625
3.5211851999993087,0,0,1.5466542724609373,0,0,0.6890625
3.522848310999507,0,0,1.438915197753906,0,0,1.0718750000000001
3.524529311999686,0,0,1.6927005737304686,0,0,1.3015625000000002
3.5262102930000765,0,0,1.5418658691406248,0,0,1.225
3.527761886999542,0,0,1.3311761230468748,0,0,0.9187500000000001
3.5294902199993885,0,0,0.9074024291992187,0,0,0.22968750000000002
3.531151886999396,0,0,1.2210428466796874,0,0,0.30625
3.532730924999669,0,0,1.446097802734375,0,0,0.3828125
3.534258353000041,0,0,1.5370774658203123,0,0,0.9187500000000001
3.5359612419997575,0,0,1.189918225097656,0,0,0.765625
3.5377134450000085,0,0,0.8810662109374999,0,0,0.765625
3.53940942600002,0,0,1.235408056640625,0,0,1.225
3.5412147580000237,0,0,1.1324573852539062,0,0,0.765625
3.542810739999368,0,0,1.5729904907226562,0,0,0.8421875000000001
3.5444134449999183,0,0,1.5825672973632812,0,0,0.765625
3.546168926000064,0,0,1.599326708984375,0,0,0.765625
3.547939572999894,0,0,1.1468225952148436,0,0,0.8421875000000001
3.5499795879995872,0,0,1.2617442749023438,0,0,0.6125
3.551954139999907,0,0,1.3311761230468748,0,0,0.9187500000000001
3.5539011000000755,0,0,1.5155296508789062,0,0,0.765625
3.5558402079996085,0,0,1.3168109130859373,0,0,0.8421875000000001
3.55777461299931,0,0,1.2928688964843749,0,0,0.6125
3.559767775999717,0,0,1.1731588134765625,0,0,0.6125
3.56167147799988,0,0,1.2737152832031249,0,0,0.30625
3.5636583629993765,0,0,1.3838485595703125,0,0,0.45937500000000003
3.5654606769994643,0,0,1.2785036865234374,0,0,0.8421875000000001
3.5676796150000882,0,0,1.2880804931640624,0,0,1.0718750000000001
3.5700634779996108,0,0,1.3263877197265623,0,0,0.6890625
3.571797699999479,0,0,1.3072341064453123,0,0,0.3828125
3.573333441999239,0,0,1.2737152832031249,0,0,0.9187500000000001
3.5750625339996986,0,0,1.5251064575195312,0,0,0.8421875000000001
3.576652460999867,0,0,1.4628572143554686,0,0,1.4546875000000001
3.57818120399952,0,0,1.2641384765625,0,0,0.9187500000000001
3.5798077039999043,0,0,1.189918225097656,0,0,0.6890625
3.581413390999842,0,0,1.4939818359375,0,0,0.8421875000000001
3.582956854999793,0,0,1.5849614990234373,0,0,0.6125
3.5846261329998015,0,0,1.649604943847656,0,0,0.45937500000000003
3.5862697819993627,0,0,1.4317325927734375,0,0,0.6125
3.5878146169998217,0,0,0.8930372192382812,0,0,0.45937500000000003
3.589340173999517,0,0,1.0342951171875,0,0,0.6125
3.5909543970001323,0,0,1.1755530151367186,0,0,0.9953125
3.592544323999391,0,0,1.5466542724609373,0,0,0.9953125
3.5940736769998693,0,0,1.4867992309570313,0,0,0.9953125
3.595775398999649,0,0,1.5897499023437498,0,0,0.8421875000000001
3.597482917999514,0,0,1.3192051147460937,0,0,0.45937500000000003
3.5990877889998956,0,0,1.2713210815429687,0,0,0.30625
3.60071475299992,0,0,1.180341418457031,0,0,0.3828125
3.6023369199992885,0,0,1.1348515869140625,0,0,0.6890625
3.6039327539992883,0,0,1.3072341064453123,0,0,0.6890625
3.605642068999259,0,0,1.2880804931640624,0,0,1.0718750000000001
3.607384252999509,0,0,1.2761094848632812,0,0,0.765625
3.6090337349996844,0,0,1.0965443603515623,0,0,0.9953125
3.6107773639996594,0,0,1.3551181396484375,0,0,0.6890625
3.612589084999854,0,0,1.446097802734375,0,0,0.45937500000000003
3.6142928069994014,0,0,1.5466542724609373,0,0,1.53125
3.6159076039994034,0,0,1.2473790649414063,0,0,0.5359375000000001
3.6175104389994885,0,0,1.3263877197265623,0,0,0.3828125
3.6193137519994707,0,0,1.1875240234375,0,0,0.765625
3.6209511970000676,0,0,1.1348515869140625,0,0,0.8421875000000001
3.6226161599997795,0,0,1.1156979736328125,0,0,0.6125
3.624402325999654,0,0,1.3862427612304686,0,0,1.225
3.6260077339993586,0,0,1.4101847778320311,0,0,0.6125
3.6276777529992614,0,0,1.6232687255859375,0,0,0.765625
3.6294332150000628,0,0,1.2234370483398436,0,0,0.9953125
3.631320582999251,0,0,1.1037269653320312,0,0,0.45937500000000003
3.6332346359995427,0,0,1.0031704956054688,0,0,-2.0
3.634970320999855,0,0,1.0965443603515623,0,0,2.0
3.636622191999777,0,0,1.3958195678710936,0,0,0.8421875000000001
3.6382260999998834,0,0,1.3144167114257812,0,0,1.3015625000000002
3.6401374679999208,0,0,1.4101847778320311,0,0,1.0718750000000001
3.641953614999693,0,0,1.3000515014648437,0,0,0.8421875000000001
3.6436771509997925,0,0,1.4413093994140624,0,0,0.9187500000000001
3.6453770210000584,0,0,1.5729904907226562,0,0,0.45937500000000003
3.6470944279999458,0,0,1.5418658691406248,0,0,0.6890625
3.648792613999831,0,0,1.2378022583007813,0,0,0.6125
3.650469576999967,0,0,0.9169792358398436,0,0,0.22968750000000002
3.652450943999611,0,0,0.967257470703125,0,0,0.22968750000000002
3.6542487199994866,0,0,1.0630255371093749,0,0,0.6890625
3.656028181999318,0,0,1.2928688964843749,0,0,1.1484375
3.657682942000065,0,0,1.6017209106445311,0,0,0.6890625
3.6592850349998116,0,0,1.6807295654296874,0,0,1.3015625000000002
3.6610885339996457,0,0,1.4867992309570313,0,0,0.6890625
3.6627506449995053,0,0,1.3383587280273437,0,0,0.8421875000000001
3.664377534999403,0,0,1.43652099609375,0,0,0.6890625
3.666319346999444,0,0,1.2665326782226562,0,0,0.30625
3.667990235999241,0,0,1.1468225952148436,0,0,0.30625
3.669913899999301,0,0,0.8499415893554687,0,0,0.45937500000000003
3.671871655999894,0,0,1.3192051147460937,0,0,0.6125
3.6734671569993225,0,0,1.2234370483398436,0,0,1.3015625000000002
3.675172415999441,0,0,1.3144167114257812,0,0,0.8421875000000001
3.676898564000112,0,0,1.2425906616210938,0,0,0.9187500000000001
3.6784879540000475,0,0,1.6017209106445311,0,0,1.225
3.680013436999616,0,0,1.7262193969726563,0,0,0.8421875000000001
3.6816767519994755,0,0,1.7334020019531249,0,0,0.765625
3.683265697999559,0,0,1.6136919189453125,0,0,0.6125
3.684793162999995,0,0,1.35990654296875,0,0,0.5359375000000001
3.6868453070001124,0,0,0.9888052856445312,0,0,0.153125
3.688893339999595,0,0,0.9888052856445312,0,0,0.5359375000000001
3.6904866369995943,0,0,1.189918225097656,0,0,0.45937500000000003
3.692024971999672,0,0,1.0534487304687499,0,0,0.8421875000000001
3.69355104799979,0,0,1.235408056640625,0,0,0.8421875000000001
3.695368249999774,0,0,1.2952630981445312,0,0,0.9953125
3.6970105840000542,0,0,1.2737152832031249,0,0,0.9953125
3.698547938000047,0,0,1.369483349609375,0,0,0.5359375000000001
3.7002243449996968,0,0,1.4939818359375,0,0,0.765625
3.701960436999798,0,0,1.407790576171875,0,0,0.5359375000000001
3.703558659999544,0,0,1.5418658691406248,0,0,0.6890625
3.7050773659993865,0,0,1.0869675537109373,0,0,0.6890625
3.7071263799998633,0,0,1.1180921752929687,0,0,0.6125
3.7088532319994556,0,0,1.0845733520507812,0,0,0.6125
3.7104766769998605,0,0,1.35990654296875,0,0,0.8421875000000001
3.7121054179997373,0,0,1.448492004394531,0,0,0.9187500000000001
3.7138852509997378,0,0,1.2401964599609374,0,0,0.9187500000000001
3.7155043249995288,0,0,1.1516109985351561,0,0,0.6125
3.717141862999597,0,0,1.2832920898437499,0,0,0.6890625
3.7188718439992954,0,0,1.2617442749023438,0,0,0.6890625
3.7204988999992565,0,0,1.2761094848632812,0,0,0.5359375000000001
3.722062808999908,0,0,1.3862427612304686,0,0,0.45937500000000003
3.7236094589998174,0,0,1.2138602416992186,0,0,0.6125
3.7252011259997744,0,0,1.5179238525390624,0,0,1.0718750000000001
3.7268628490000992,0,0,1.3479355346679687,0,0,0.9187500000000001
3.728501533999406,0,0,1.3551181396484375,0,0,0.9187500000000001
3.7301299239998116,0,0,1.2785036865234374,0,0,0.9187500000000001
3.7318548499997632,0,0,1.3000515014648437,0,0,0.9953125
3.7334251289994427,0,0,1.37906015625,0,0,0.6890625
3.734958426999583,0,0,1.3215993164062498,0,0,0.5359375000000001
3.7364918539997234,0,0,1.3718775512695311,0,0,0.765625
3.738077188999341,0,0,1.0941501586914062,0,0,0.8421875000000001
3.7397435959992436,0,0,1.2330138549804688,0,0,-2.0
3.741438021999784,0,0,1.2521674682617188,0,0,0.765625
3.7430612079997445,0,0,1.3096283081054687,0,0,1.0718750000000001
3.744734023000092,0,0,1.4221557861328125,0,0,0.765625
3.746483466999962,0,0,1.5011644409179687,0,0,0.8421875000000001
3.7481497259996104,0,0,1.2976572998046874,0,0,0.765625
3.749807929999406,0,0,1.3144167114257812,0,0,2.0
3.75148991199967,0,0,1.1109095703125,0,0,0.9187500000000001
3.753145726999719,0,0,1.199495031738281,0,0,0.6125
3.7548069489994305,0,0,1.429338391113281,0,0,0.6125
3.7564712829998825,0,0,1.2808978881835937,0,0,1.0718750000000001
3.7580464879993087,0,0,1.5897499023437498,0,0,0.5359375000000001
3.7597564689995124,0,0,1.3000515014648437,0,0,0.9953125
3.761417005999647,0,0,1.3479355346679687,0,0,0.9187500000000001
3.7629501929995968,0,0,1.3934253662109375,0,0,0.8421875000000001
3.7645453420000194,0,0,1.465251416015625,0,0,1.0718750000000001
3.7664608029999727,0,0,1.3096283081054687,0,0,0.6890625
3.768093599999702,0,0,1.3144167114257812,0,0,0.8421875000000001
3.769744563000131,0,0,1.2306196533203124,0,0,0.6890625
3.7714900619994296,0,0,1.2497732666015624,0,0,0.8421875000000001
3.773104821999368,0,0,1.1731588134765625,0,0,-2.0
3.774645509000038,0,0,1.0390835205078124,0,0,0.45937500000000003
3.776336934999563,0,0,1.350329736328125,0,0,0.45937500000000003
3.777962213999672,0,0,1.3120225097656248,0,0,0.765625
3.7794975859997066,0,0,1.467645617675781,0,0,0.6890625
3.7810191429998667,0,0,1.1085153686523437,0,0,0.9187500000000001
3.782764660999419,0,0,1.1635820068359375,0,0,-2.0
3.7843929390000994,0,0,1.1348515869140625,0,0,0.8421875000000001
3.785928292999415,0,0,1.3551181396484375,0,0,0.6890625
3.7875489969992486,0,0,1.3862427612304686,0,0,0.765625
3.7892822189996878,0,0,1.2761094848632812,0,0,0.9187500000000001
3.791008810999301,0,0,1.3192051147460937,0,0,0.765625
3.792596200999469,0,0,1.2330138549804688,0,0,0.6890625
3.7942477939996024,0,0,1.1444283935546875,0,0,0.6890625
3.7959955149999587,0,0,1.3263877197265623,0,0,0.45937500000000003
3.797652016000029,0,0,1.4867992309570313,0,0,0.45937500000000003
3.7993006639999294,0,0,1.2282254516601563,0,0,0.9187500000000001
3.8013395489997492,0,0,1.2521674682617188,0,0,0.9953125
3.8033973419996983,0,0,1.2641384765625,0,0,0.9187500000000001
3.8050090090000595,0,0,1.3192051147460937,0,0,0.765625
3.8066840459996456,0,0,1.2737152832031249,0,0,0.6125
3.808375712999805,0,0,1.4891934326171874,0,0,0.8421875000000001
3.8100103429997034,0,0,1.3072341064453123,0,0,0.765625
3.811993672999961,0,0,1.4341267944335936,0,0,0.5359375000000001
3.8137187839993203,0,0,1.39821376953125,0,0,1.3015625000000002
3.815350932999536,0,0,1.0869675537109373,0,0,0.6890625
3.8169507669999803,0,0,1.1133037719726562,0,0,0.5359375000000001
3.818660080999507,0,0,1.4125789794921875,0,0,1.0718750000000001
3.820372321999457,0,0,1.177947216796875,0,0,0.45937500000000003
3.821995173999312,0,0,1.22583125,0,0,0.9187500000000001
3.8240404849993865,0,0,1.2713210815429687,0,0,0.765625
3.825803132999681,0,0,1.350329736328125,0,0,0.765625
3.8274336889999176,0,0,1.0510545288085937,0,0,0.6125
3.8293318529995304,0,0,1.446097802734375,0,0,1.1484375
3.831114351999531,0,0,1.6400281372070311,0,0,0.765625
3.8327337419996184,0,0,1.6160861206054686,0,0,0.9187500000000001
3.834276779999527,0,0,1.3335703247070312,0,0,0.765625
3.836063889999423,0,0,0.9959878906249999,0,0,0.22968750000000002
3.8377092059999995,0,0,1.4796166259765624,0,0,1.378125
3.8392469109994636,0,0,1.6304513305664061,0,0,0.8421875000000001
3.8408808189997217,0,0,1.4604630126953124,0,0,0.5359375000000001
3.8425484669996877,0,0,1.1635820068359375,0,0,0.6125
3.844201578999673,0,0,1.22583125,0,0,0.45937500000000003
3.8457603759998165,0,0,0.9983820922851562,0,0,0.45937500000000003
3.8474505799995313,0,0,1.458068811035156,0,0,0.765625
3.8491983019994223,0,0,1.4939818359375,0,0,1.1484375
3.8507496550000724,0,0,1.199495031738281,0,0,1.0718750000000001
3.852319100999921,0,0,1.22583125,0,0,0.6890625
3.8540382109995335,0,0,1.4915876342773438,0,0,0.765625
3.855681359999835,0,0,1.8267758666992187,0,0,1.1484375
3.857225546999871,0,0,1.7262193969726563,0,0,0.8421875000000001
3.859019601,0,0,1.3575123413085937,0,0,0.3828125
3.860787877999428,0,0,0.86191259765625,0,0,0.153125
3.8624795449995872,0,0,1.3383587280273437,0,0,0.30625
3.864175914999578,0,0,1.2880804931640624,0,0,1.0718750000000001
3.8659087109999746,0,0,1.3910311645507811,0,0,1.1484375
3.8675391189999573,0,0,1.3383587280273437,0,0,1.225
3.8690675459993145,0,0,1.1133037719726562,0,0,1.1484375
3.870761954000045,0,0,1.4006079711914061,0,0,0.9187500000000001
3.872391250999499,0,0,1.5921441040039062,0,0,1.3015625000000002
3.87407162099953,0,0,1.6041151123046875,0,0,0.8421875000000001
3.8758146390000547,0,0,1.5083470458984374,0,0,0.6890625
3.877420398999675,0,0,1.20667763671875,0,0,0.6125
3.878950585999519,0,0,1.1947066284179686,0,0,1.7609375
3.880581753000115,0,0,1.0438719238281249,0,0,0.9187500000000001
3.882283252999514,0,0,0.9624690673828125,0,0,0.6125
3.883979659999568,0,0,1.5131354492187499,0,0,0.5359375000000001
3.885696456000005,0,0,1.43652099609375,0,0,1.0718750000000001
3.887468289000026,0,0,1.407790576171875,0,0,0.8421875000000001
3.8890029939993838,0,0,1.2282254516601563,0,0,0.6890625
3.8905826059999526,0,0,1.3168109130859373,0,0,0.6125
3.8924142159994517,0,0,1.3623007446289062,0,0,0.45937500000000003
3.894099030999314,0,0,1.4867992309570313,0,0,1.0718750000000001
3.8957571239998288,0,0,1.4173673828125,0,0,0.6890625
3.8976094919999014,0,0,1.465251416015625,0,0,0.765625
3.8993900279992886,0,0,1.1875240234375,0,0,1.1484375
3.901444301999618,0,0,1.3215993164062498,0,0,0.8421875000000001
3.9031066729994564,0,0,1.2665326782226562,0,0,0.6890625
3.9046620439994513,0,0,1.4006079711914061,0,0,1.225
3.9066269669992835,0,0,1.5705962890624998,0,0,0.9187500000000001
3.908397225999579,0,0,1.6352397338867186,0,0,0.9187500000000001
