Time (s),Accel X1,Accel Y1,Accel Z1,Accel X2,Accel Y2,Accel Z2
9.87960002021282e-05,0,0,1.1635820068359375,0,0,0.5359375000000001
0.003374980999979016,0,0,1.3120225097656248,0,0,0.3828125
0.006536019000122906,0,0,1.6041151123046875,0,0,0.8421875000000001
0.009902556000270124,0,0,1.1252747802734375,0,0,1.1484375
0.013077409000288753,0,0,1.4245499877929686,0,0,0.765625
0.01643403700018098,0,0,1.47482822265625,0,0,0.9953125
0.019607686999734142,0,0,1.1516109985351561,0,0,0.9187500000000001
0.022942593999687233,0,0,1.4437036010742186,0,0,1.4546875000000001
0.026134353999623272,0,0,1.5418658691406248,0,0,1.1484375
0.029751349999969534,0,0,1.0726023437499999,0,0,1.8375000000000001
0.03305885000008857,0,0,1.2952630981445312,0,0,0.3828125
0.03632255399952555,0,0,1.4700398193359374,0,0,1.1484375
0.04011804799938545,0,0,1.2785036865234374,0,0,0.6125
0.04349639900010516,0,0,1.4413093994140624,0,0,0.30625
0.046706604000064544,0,0,1.5682020874023437,0,0,0.8421875000000001
0.04991628999960085,0,0,0.9600748657226562,0,0,0.9953125
0.05314917899977445,0,0,1.484405029296875,0,0,0.6125
0.05674715700024535,0,0,1.5873557006835937,0,0,0.9187500000000001
0.060144600000057835,0,0,0.9983820922851562,0,0,0.6890625
0.0634324149996246,0,0,1.4413093994140624,0,0,0.6890625
0.06661145299949567,0,0,1.5131354492187499,0,0,1.0718750000000001
0.06989837899982376,0,0,1.1947066284179686,0,0,0.8421875000000001
0.07289082700026484,0,0,1.4628572143554686,0,0,1.53125
0.07626219600024342,0,0,1.5107412475585937,0,0,0.6125
0.07997326599979715,0,0,1.1707646118164061,0,0,0.6890625
0.08321654399969702,0,0,1.5155296508789062,0,0,1.4546875000000001
0.0863519719996475,0,0,1.4437036010742186,0,0,0.9187500000000001
0.08966608199989423,0,0,1.1731588134765625,0,0,0.9187500000000001
0.09285126899976603,0,0,1.5203180541992187,0,0,1.53125
0.09577666199947998,0,0,1.388636962890625,0,0,0.765625
0.09865955500026757,0,0,1.3168109130859373,0,0,0.6125
0.1031466710001041,0,0,1.2569558715820313,0,0,1.53125
0.10635496800023247,0,0,1.3718775512695311,0,0,0.765625
0.10946678500022244,0,0,1.448492004394531,0,0,0.3828125
0.11257275000025402,0,0,1.2832920898437499,0,0,0.45937500000000003
0.11553982799978257,0,0,1.4604630126953124,0,0,0.6125
0.11835042599977896,0,0,1.2330138549804688,0,0,0.8421875000000001
0.12142476099961641,0,0,1.4867992309570313,0,0,1.4546875000000001
0.12457570700007636,0,0,1.35990654296875,0,0,0.9187500000000001
0.12777772699973866,0,0,1.3646949462890625,0,0,0.0765625
0.1310851520001961,0,0,1.3407529296874998,0,0,1.6843750000000002
0.13439222600027279,0,0,1.4796166259765624,0,0,0.9187500000000001
0.1378632429996287,0,0,1.3192051147460937,0,0,0.0
0.1411767609997696,0,0,1.3718775512695311,0,0,0.45937500000000003
0.14415528300014557,0,0,1.2976572998046874,0,0,0.5359375000000001
0.14781066799969267,0,0,1.2330138549804688,0,0,0.6125
0.15115538899954117,0,0,1.2952630981445312,0,0,0.30625
0.1540629679993799,0,0,1.47482822265625,0,0,0.5359375000000001
0.15696532399942953,0,0,1.5418658691406248,0,0,0.9187500000000001
0.1598641430000498,0,0,1.1731588134765625,0,0,0.8421875000000001
0.16283948000000237,0,0,1.2689268798828124,0,0,0.6890625
0.16571255799954088,0,0,1.4053963745117186,0,0,0.6125
0.16849252700012585,0,0,1.3407529296874998,0,0,0.9187500000000001
0.17118805199970666,0,0,1.3479355346679687,0,0,0.45937500000000003
0.173828207999577,0,0,1.458068811035156,0,0,0.765625
0.17652702899977157,0,0,1.6519991455078125,0,0,0.9187500000000001
0.17910748199938098,0,0,1.446097802734375,0,0,1.1484375
0.181932579000204,0,0,1.3527239379882812,0,0,1.6843750000000002
0.18465240099976654,0,0,1.3359645263671873,0,0,0.6125
0.18737085100019613,0,0,1.6232687255859375,0,0,0.8421875000000001
0.1901078579994646,0,0,1.1875240234375,0,0,0.30625
0.19278017899978295,0,0,1.369483349609375,0,0,0.0
0.19538590899992414,0,0,1.2473790649414063,0,0,0.8421875000000001
0.19836172699979215,0,0,1.5131354492187499,0,0,0.6125
0.2011578069996176,0,0,1.2785036865234374,0,0,0.3828125
0.203922775999672,0,0,1.4987702392578124,0,0,0.9187500000000001
0.20655969099971117,0,0,1.5945383056640625,0,0,1.1484375
0.20936762200017256,0,0,1.4413093994140624,0,0,0.8421875000000001
0.2120963130000746,0,0,1.3479355346679687,0,0,1.1484375
0.21483400499982963,0,0,1.3862427612304686,0,0,1.0718750000000001
0.21744188299999223,0,0,1.5562310791015623,0,0,0.9187500000000001
0.22017220399993676,0,0,1.16837041015625,0,0,0.9187500000000001
0.2232435030000488,0,0,1.3168109130859373,0,0,0.8421875000000001
0.226241153999581,0,0,1.2617442749023438,0,0,0.9953125
0.2297271699999328,0,0,1.1133037719726562,0,0,0.30625
0.23253604599995015,0,0,1.2641384765625,0,0,-852.8296875000001
0.2354268469998715,0,0,1.3575123413085937,0,0,0.9187500000000001
0.2385574780000752,0,0,1.3239935180664062,0,0,0.30625
0.24135563199979515,0,0,1.2330138549804688,0,0,0.3828125
0.24413448899940704,0,0,1.62805712890625,0,0,-9.034375
0.24756972799968935,0,0,1.3239935180664062,0,0,1.1484375
0.25041675200009195,0,0,1.1372457885742187,0,0,1.0718750000000001
0.2531532020002487,0,0,1.2976572998046874,0,0,1.225
0.256110205999903,0,0,1.350329736328125,0,0,1.1484375
0.2591625610002666,0,0,1.4915876342773438,0,0,0.9187500000000001
0.26218787800007703,0,0,1.5251064575195312,0,0,1.6078125
0.2647927010002604,0,0,1.3527239379882812,0,0,0.5359375000000001
0.2674114860001282,0,0,1.649604943847656,0,0,0.6890625
0.2705101179999474,0,0,1.3215993164062498,0,0,0.765625
0.2733697519997804,0,0,1.3335703247070312,0,0,1.225
0.27617627600011474,0,0,1.3862427612304686,0,0,0.9953125
0.2788469500001156,0,0,1.2737152832031249,0,0,0.9953125
0.28155779000007897,0,0,1.39821376953125,0,0,0.8421875000000001
0.2844493129996408,0,0,1.3407529296874998,0,0,0.5359375000000001
0.287272780999956,0,0,1.678335363769531,0,0,1.225
0.29004613799952494,0,0,1.1923124267578125,0,0,0.6890625
0.2928567729995848,0,0,1.4030021728515625,0,0,832.69375
0.29565155699947354,0,0,1.3575123413085937,0,0,0.765625
0.29842159999952855,0,0,1.2928688964843749,0,0,0.8421875000000001
0.3009934040001099,0,0,1.2425906616210938,0,0,0.9953125
0.3037749650002297,0,0,1.4628572143554686,0,0,1.225
0.3064208059995508,0,0,1.3958195678710936,0,0,1.225
0.30912766399978864,0,0,1.4149731811523436,0,0,1.0718750000000001
0.3119093919995066,0,0,1.388636962890625,0,0,1.53125
0.3145028999997521,0,0,1.47482822265625,0,0,0.5359375000000001
0.3170811299996785,0,0,1.618480322265625,0,0,0.8421875000000001
0.31989798699942185,0,0,1.1252747802734375,0,0,0.22968750000000002
0.32261608599947067,0,0,1.3192051147460937,0,0,0.153125
0.3253164449997712,0,0,1.2497732666015624,0,0,0.6125
0.32845776100020885,0,0,1.369483349609375,0,0,0.5359375000000001
0.3312875809997422,0,0,1.0965443603515623,0,0,0.45937500000000003
0.33423675099948014,0,0,1.419761584472656,0,0,0.22968750000000002
0.3370011830002113,0,0,1.6041151123046875,0,0,0.6890625
0.33983696599989344,0,0,1.197100830078125,0,0,0.5359375000000001
0.342681674999767,0,0,1.3958195678710936,0,0,0.0
0.3454862540002068,0,0,1.3551181396484375,0,0,0.8421875000000001
0.348368500000106,0,0,1.2569558715820313,0,0,0.6890625
0.3509780439999304,0,0,1.2378022583007813,0,0,0.765625
0.3538350119997631,0,0,1.4125789794921875,0,0,0.9187500000000001
0.35659483299968997,0,0,1.6400281372070311,0,0,0.8421875000000001
0.3593152650000775,0,0,1.5155296508789062,0,0,0.9187500000000001
0.36191856899949926,0,0,1.47482822265625,0,0,1.6843750000000002
0.3647428710000895,0,0,1.3670891479492187,0,0,0.45937500000000003
0.3674896539996553,0,0,1.637633935546875,0,0,0.9953125
0.370271474999754,0,0,1.1180921752929687,0,0,0.6125
0.37288770499981183,0,0,1.2569558715820313,0,0,832.3875
0.3756318770001599,0,0,1.3287819213867187,0,0,0.5359375000000001
0.3785067520002485,0,0,1.3263877197265623,0,0,0.9953125
0.3815560880002522,0,0,1.3000515014648437,0,0,0.5359375000000001
0.3841600589994414,0,0,1.407790576171875,0,0,1.0718750000000001
0.386981083000137,0,0,1.7956512451171873,0,0,0.8421875000000001
0.3898840129995733,0,0,1.0773907470703123,0,0,0.5359375000000001
0.3925413719998687,0,0,1.2856862915039062,0,0,1.6078125
0.395223212000019,0,0,1.4700398193359374,0,0,0.765625
0.39799342199967214,0,0,1.350329736328125,0,0,0.6125
0.40094225899974845,0,0,1.3048399047851562,0,0,1.1484375
0.4036452649997955,0,0,1.4724340209960938,0,0,1.378125
0.4064106420000826,0,0,1.438915197753906,0,0,0.9953125
0.40903663100016274,0,0,1.2282254516601563,0,0,0.9187500000000001
0.41209841099953337,0,0,1.5275006591796874,0,0,1.6843750000000002
0.41518376499971055,0,0,1.4101847778320311,0,0,0.6125
0.41795451199959643,0,0,1.4891934326171874,0,0,0.6125
0.4205775189993801,0,0,1.2569558715820313,0,0,1.3015625000000002
0.4234257649995925,0,0,1.2497732666015624,0,0,0.8421875000000001
0.4261437710001701,0,0,1.35990654296875,0,0,1.1484375
0.42894366499967873,0,0,1.3096283081054687,0,0,0.9953125
0.43178379999972094,0,0,1.4006079711914061,0,0,0.9187500000000001
0.43464810099976603,0,0,1.4101847778320311,0,0,0.3828125
0.43735273699985555,0,0,1.675941162109375,0,0,0.8421875000000001
0.4402215749996685,0,0,1.1348515869140625,0,0,0.5359375000000001
0.44297511799959466,0,0,1.4604630126953124,0,0,0.0
0.44578566099971795,0,0,1.3359645263671873,0,0,0.6125
0.4486236100001406,0,0,1.3934253662109375,0,0,1.225
0.451519243999428,0,0,1.1851298217773436,0,0,0.6125
0.45439789699958055,0,0,1.35990654296875,0,0,0.765625
0.4570779779996883,0,0,1.6711527587890624,0,0,0.9953125
0.45980689199950575,0,0,1.2928688964843749,0,0,0.9953125
0.46262463799939724,0,0,1.2976572998046874,0,0,0.765625
0.46523453400004655,0,0,1.3838485595703125,0,0,0.6890625
0.46796335499948327,0,0,1.5035586425781249,0,0,0.8421875000000001
0.4705767890000061,0,0,1.1228805786132812,0,0,1.0718750000000001
0.4733499240001038,0,0,1.2641384765625,0,0,0.0765625
0.4760253200001898,0,0,1.3646949462890625,0,0,0.9187500000000001
0.4788463810000394,0,0,1.4317325927734375,0,0,0.3828125
0.48145238799952494,0,0,1.2785036865234374,0,0,0.5359375000000001
0.48425935700015543,0,0,1.5346832641601562,0,0,0.5359375000000001
0.48697738200007734,0,0,1.6208745239257811,0,0,0.8421875000000001
0.4898904040001071,0,0,1.1156979736328125,0,0,0.30625
0.4926795579995087,0,0,1.3814543579101561,0,0,0.5359375000000001
0.4954109159998552,0,0,1.5227122558593749,0,0,0.6890625
0.4979914240002472,0,0,1.407790576171875,0,0,1.0718750000000001
0.5074844279997706,0,0,1.6807295654296874,0,0,0.6890625
0.5102729519994682,0,0,1.0749965454101562,0,0,0.5359375000000001
0.5130659950000336,0,0,1.2378022583007813,0,0,-852.8296875000001
0.5157859089995327,0,0,1.2617442749023438,0,0,0.765625
0.518659802000002,0,0,1.369483349609375,0,0,0.765625
0.5212666990000798,0,0,1.2497732666015624,0,0,0.9187500000000001
0.5239748719995987,0,0,1.446097802734375,0,0,0.9187500000000001
0.5268179509994297,0,0,1.5849614990234373,0,0,1.225
0.5297739919997184,0,0,1.2114660400390624,0,0,0.9953125
0.5323982769996292,0,0,1.5035586425781249,0,0,1.225
0.5351305429994682,0,0,1.5011644409179687,0,0,0.9187500000000001
0.5377892159995099,0,0,1.39821376953125,0,0,0.9953125
0.5406035919995702,0,0,1.2425906616210938,0,0,0.765625
0.5433267099997465,0,0,1.2808978881835937,0,0,-852.8296875000001
0.546113344999867,0,0,1.3575123413085937,0,0,0.9953125
0.5487116670001342,0,0,1.2785036865234374,0,0,0.45937500000000003
0.5514186919999702,0,0,1.2114660400390624,0,0,0.6890625
0.5541397169999982,0,0,1.6352397338867186,0,0,0.8421875000000001
0.5571656279998933,0,0,1.7190367919921874,0,0,0.6125
0.5599387259999276,0,0,1.22583125,0,0,1.225
0.5625517890002811,0,0,1.4508862060546874,0,0,1.4546875000000001
0.5653612019996217,0,0,1.235408056640625,0,0,1.1484375
0.568132188999698,0,0,1.2832920898437499,0,0,0.6890625
0.5707982149997406,0,0,1.3431471313476562,0,0,0.45937500000000003
0.5741323249994821,0,0,1.438915197753906,0,0,0.9187500000000001
0.5778070619999198,0,0,1.4149731811523436,0,0,0.3828125
0.5805662530001428,0,0,1.3096283081054687,0,0,0.8421875000000001
0.5833765360002872,0,0,1.2689268798828124,0,0,0.0
0.5863270399995599,0,0,1.3479355346679687,0,0,-9.340625000000001
0.5891214160001255,0,0,1.3766659545898436,0,0,0.765625
0.5919398099995306,0,0,1.2617442749023438,0,0,1.0718750000000001
0.5947612589998243,0,0,1.4700398193359374,0,0,0.22968750000000002
0.5975610240002425,0,0,1.5394716674804687,0,0,0.9187500000000001
0.6004147699995883,0,0,1.3287819213867187,0,0,0.5359375000000001
0.6030789059996096,0,0,1.3144167114257812,0,0,832.69375
0.6059710219997214,0,0,1.369483349609375,0,0,0.8421875000000001
0.6092232999999396,0,0,1.3239935180664062,0,0,0.8421875000000001
0.612040990999958,0,0,1.2306196533203124,0,0,0.8421875000000001
0.6149063840002782,0,0,1.4053963745117186,0,0,0.45937500000000003
0.6177933700000722,0,0,1.3814543579101561,0,0,0.9953125
0.6206344309994165,0,0,1.2018892333984375,0,0,0.6125
0.6233545850000155,0,0,1.3168109130859373,0,0,0.0765625
0.6262498859996413,0,0,1.2761094848632812,0,0,0.6125
0.6290478729997631,0,0,1.254561669921875,0,0,1.0718750000000001
0.6319836729999224,0,0,1.5155296508789062,0,0,0.3828125
0.6346814759999688,0,0,1.4221557861328125,0,0,0.3828125
0.6374952219994157,0,0,1.6735469604492186,0,0,0.765625
0.6403596339996511,0,0,1.2473790649414063,0,0,0.8421875000000001
0.6430463259994212,0,0,1.3838485595703125,0,0,0.22968750000000002
0.6457758509995983,0,0,1.235408056640625,0,0,0.6890625
0.6485496349996538,0,0,1.47482822265625,0,0,0.5359375000000001
0.6514162879993819,0,0,1.1228805786132812,0,0,0.30625
0.6542834960000619,0,0,1.5227122558593749,0,0,1.225
0.6569878169993899,0,0,1.5322890624999999,0,0,0.9187500000000001
0.6596693430001324,0,0,1.2665326782226562,0,0,0.9187500000000001
0.6624041449995275,0,0,1.4317325927734375,0,0,1.1484375
0.6652172059993973,0,0,1.4437036010742186,0,0,0.30625
0.6676307159996213,0,0,1.5562310791015623,0,0,0.9953125
0.6701998910002658,0,0,1.2497732666015624,0,0,1.1484375
0.6725919009995778,0,0,1.5203180541992187,0,0,1.3015625000000002
0.6749690219994591,0,0,1.369483349609375,0,0,0.45937500000000003
0.6774515309998606,0,0,1.5442600708007812,0,0,1.0718750000000001
0.6799517439994816,0,0,1.3239935180664062,0,0,0.8421875000000001
0.6824649379996117,0,0,1.4891934326171874,0,0,1.1484375
0.684864947999813,0,0,1.4317325927734375,0,0,0.3828125
0.6873673079999207,0,0,1.649604943847656,0,0,0.8421875000000001
0.6898871499997767,0,0,1.139639990234375,0,0,0.6890625
0.6924025849993996,0,0,1.2761094848632812,0,0,1.1484375
0.6949780369996006,0,0,1.4221557861328125,0,0,0.0765625
0.699106971999754,0,0,1.3575123413085937,0,0,0.9187500000000001
0.7017287199996645,0,0,1.3335703247070312,0,0,0.6125
0.7043127279994223,0,0,1.5035586425781249,0,0,0.9953125
0.7070309569999154,0,0,1.6065093139648436,0,0,1.225
0.7095641690002594,0,0,1.3000515014648437,0,0,0.8421875000000001
0.7127858550002202,0,0,1.2904746948242187,0,0,0.765625
0.7155204909995518,0,0,1.3958195678710936,0,0,0.9187500000000001
0.7181216839999252,0,0,1.5035586425781249,0,0,0.5359375000000001
0.7205048240002725,0,0,1.2473790649414063,0,0,0.6125
0.7230564619994766,0,0,1.2521674682617188,0,0,1.1484375
0.7257715790001384,0,0,1.2593500732421874,0,0,0.9953125
0.7284545860002254,0,0,1.5203180541992187,0,0,0.765625
0.7311208339997393,0,0,1.35990654296875,0,0,0.8421875000000001
0.7336147679998248,0,0,1.4101847778320311,0,0,0.0765625
0.7360917030000564,0,0,1.35990654296875,0,0,0.765625
0.7385041950001323,0,0,1.3814543579101561,0,0,0.8421875000000001
0.7410534250002456,0,0,1.3359645263671873,0,0,0.6890625
0.7435336379994624,0,0,1.2904746948242187,0,0,832.5406250000001
0.7460637019994465,0,0,1.3623007446289062,0,0,0.765625
0.74871141299991,0,0,1.3383587280273437,0,0,0.765625
0.7512393659999361,0,0,1.3359645263671873,0,0,0.9953125
0.7539372430001094,0,0,1.3814543579101561,0,0,0.30625
0.7567530629994508,0,0,1.6400281372070311,0,0,0.8421875000000001
0.7595354389995919,0,0,1.3527239379882812,0,0,0.9187500000000001
0.7620447629997216,0,0,1.4987702392578124,0,0,0.6890625
0.7646459739999045,0,0,1.2880804931640624,0,0,0.0
0.767610459000025,0,0,1.5586252807617187,0,0,1.0718750000000001
0.7707670529998722,0,0,1.209071838378906,0,0,0.9953125
0.7737492790001852,0,0,1.3862427612304686,0,0,1.225
0.7769238909995693,0,0,1.62805712890625,0,0,0.6125
0.7801654469994901,0,0,1.0749965454101562,0,0,0.8421875000000001
0.7835102429999097,0,0,1.3263877197265623,0,0,0.5359375000000001
0.7866669850000108,0,0,1.5059528442382812,0,0,0.765625
0.7898447090001355,0,0,1.2210428466796874,0,0,0.6890625
0.7926998249995449,0,0,1.37906015625,0,0,1.4546875000000001
0.7956318839997039,0,0,1.5275006591796874,0,0,0.6890625
0.7986928310001531,0,0,1.2378022583007813,0,0,0.765625
0.801890072999413,0,0,1.4006079711914061,0,0,1.4546875000000001
0.8056402900001558,0,0,1.467645617675781,0,0,0.6125
0.8093898959996295,0,0,1.2425906616210938,0,0,0.0
0.8131494649996966,0,0,1.4341267944335936,0,0,0.0
0.8161812270000155,0,0,1.3766659545898436,0,0,0.8421875000000001
0.8196079099998315,0,0,1.4006079711914061,0,0,-9.264062500000001
0.8227523189998465,0,0,1.2832920898437499,0,0,0.9953125
0.8264007039997523,0,0,1.3144167114257812,0,0,0.6125
0.8295828720001737,0,0,1.2952630981445312,0,0,0.6890625
0.832534301999658,0,0,1.458068811035156,0,0,0.765625
0.8355729710001469,0,0,1.4413093994140624,0,0,0.6890625
0.8390246540002408,0,0,1.2832920898437499,0,0,1.0718750000000001
0.8422896359998049,0,0,1.4053963745117186,0,0,1.6078125
0.8471843030001764,0,0,1.6041151123046875,0,0,0.9187500000000001
0.8503074350001043,0,0,1.3072341064453123,0,0,0.8421875000000001
0.8538273389995084,0,0,1.4820108276367188,0,0,1.53125
0.8572235419997014,0,0,1.5514426757812498,0,0,0.9953125
0.860889574999419,0,0,1.2832920898437499,0,0,1.6843750000000002
0.8641255009997622,0,0,1.4101847778320311,0,0,1.3015625000000002
0.8671274859998448,0,0,1.678335363769531,0,0,0.9953125
0.8698489739999786,0,0,1.2880804931640624,0,0,0.6890625
0.8723602600002778,0,0,1.4149731811523436,0,0,0.6125
0.8750540259998161,0,0,1.4149731811523436,0,0,0.45937500000000003
0.8776007010001194,0,0,1.4628572143554686,0,0,1.1484375
0.8801071359994239,0,0,1.24498486328125,0,0,0.8421875000000001
0.8827337539996734,0,0,1.3910311645507811,0,0,1.378125
0.8854643529994064,0,0,1.3862427612304686,0,0,1.378125
0.8880731199997172,0,0,1.675941162109375,0,0,1.378125
0.8905726839993804,0,0,1.4508862060546874,0,0,0.3828125
0.8932935799994084,0,0,1.1324573852539062,0,0,-9.8
0.8959776609999608,0,0,1.6903063720703124,0,0,1.4546875000000001
0.8985237799997776,0,0,1.3168109130859373,0,0,0.6125
0.9011344359996656,0,0,0.8714894042968749,0,0,0.30625
0.9037885729994741,0,0,1.9919757812499999,0,0,1.225
0.906420283999978,0,0,1.5107412475585937,0,0,0.9187500000000001
0.9090942719994928,0,0,1.1324573852539062,0,0,0.0
0.9117857229994115,0,0,1.5370774658203123,0,0,0.9187500000000001
0.9157556780000959,0,0,1.2018892333984375,0,0,0.6890625
0.9192408979997708,0,0,1.3958195678710936,0,0,0.6890625
0.922314474999439,0,0,1.608903515625,0,0,1.3015625000000002
0.9247371699993892,0,0,1.438915197753906,0,0,0.8421875000000001
0.927300362999631,0,0,1.7669208251953124,0,0,0.9953125
0.9299084079993918,0,0,1.3479355346679687,0,0,1.0718750000000001
0.9323043809999945,0,0,1.2737152832031249,0,0,0.9187500000000001
0.9349430920001396,0,0,1.3718775512695311,0,0,0.5359375000000001
0.9374077120000948,0,0,1.7310078002929687,0,0,0.9187500000000001
0.9399664430002304,0,0,1.2832920898437499,0,0,0.9953125
0.9424561369996809,0,0,1.388636962890625,0,0,-9.340625000000001
0.9457986919996983,0,0,1.3359645263671873,0,0,0.8421875000000001
0.9483975699995426,0,0,1.467645617675781,0,0,1.1484375
0.9510287809998772,0,0,1.2569558715820313,0,0,0.8421875000000001
0.9539681919995928,0,0,1.5945383056640625,0,0,0.0765625
0.9564826449995962,0,0,1.4532804077148436,0,0,0.6890625
0.9589725059995544,0,0,1.2713210815429687,0,0,0.6890625
0.9615820139997595,0,0,1.1731588134765625,0,0,0.5359375000000001
0.9646491829998922,0,0,1.4053963745117186,0,0,0.5359375000000001
0.9676088349997372,0,0,1.7286135986328124,0,0,1.1484375
0.9718218799998795,0,0,1.5634136840820312,0,0,0.30625
0.9748805119997996,0,0,1.5442600708007812,0,0,0.765625
0.9779856989998734,0,0,1.3551181396484375,0,0,0.765625
0.9814003269993918,0,0,1.4149731811523436,0,0,0.5359375000000001
0.9845805690001725,0,0,1.4413093994140624,0,0,0.45937500000000003
0.9878474400002233,0,0,1.4053963745117186,0,0,0.9187500000000001
0.9908722019999914,0,0,1.2832920898437499,0,0,1.1484375
0.9939119270002266,0,0,1.3766659545898436,0,0,1.4546875000000001
0.9968010060001689,0,0,1.66636435546875,0,0,1.225
0.9998016939998706,0,0,1.177947216796875,0,0,0.5359375000000001
1.0029108809994796,0,0,1.4006079711914061,0,0,-9.5703125
1.005963827999949,0,0,1.2761094848632812,0,0,0.9187500000000001
1.0090974599997935,0,0,1.4820108276367188,0,0,1.225
1.0123874599994451,0,0,1.6352397338867186,0,0,1.53125
1.0156128859998717,0,0,1.6160861206054686,0,0,0.8421875000000001
1.018738091999694,0,0,1.3263877197265623,0,0,0.6125
1.0222109790001923,0,0,1.2761094848632812,0,0,1.6843750000000002
1.025463015999776,0,0,1.5275006591796874,0,0,1.1484375
1.0284813709995433,0,0,1.458068811035156,0,0,0.6125
1.0319385359998705,0,0,1.47482822265625,0,0,0.9187500000000001
1.0352007769997726,0,0,1.7334020019531249,0,0,1.4546875000000001
1.0381594469999982,0,0,1.4628572143554686,0,0,0.6890625
1.0410817840001982,0,0,1.3096283081054687,0,0,0.9953125
1.0441312309994828,0,0,1.3407529296874998,0,0,0.9187500000000001
1.0472033629994257,0,0,1.5442600708007812,0,0,0.9953125
1.0503651609997178,0,0,1.3144167114257812,0,0,1.0718750000000001
1.0538409549999415,0,0,1.419761584472656,0,0,1.378125
1.0568232369996622,0,0,1.85790048828125,0,0,1.0718750000000001
1.0600871440001356,0,0,1.2473790649414063,0,0,0.6890625
1.0634706060000099,0,0,1.2713210815429687,0,0,0.9187500000000001
1.0667114580000998,0,0,1.235408056640625,0,0,0.8421875000000001
1.0691210420000061,0,0,1.2306196533203124,0,0,0.3828125
1.0709583729994847,0,0,1.22583125,0,0,0.765625
1.072650168999644,0,0,1.4125789794921875,0,0,1.0718750000000001
1.07439292700019,0,0,1.656787548828125,0,0,0.765625
1.0763484239996615,0,0,1.6256629272460936,0,0,1.6843750000000002
1.0782928459993855,0,0,1.6160861206054686,0,0,0.8421875000000001
1.0800130309999076,0,0,1.4700398193359374,0,0,0.6125
1.0818012879999515,0,0,1.4772224243164063,0,0,1.0718750000000001
1.08354436099944,0,0,1.2641384765625,0,0,1.3015625000000002
1.085402265999619,0,0,1.350329736328125,0,0,0.30625
1.087104766000266,0,0,1.3096283081054687,0,0,0.5359375000000001
1.0889021900002263,0,0,1.0726023437499999,0,0,0.6125
1.090677317999507,0,0,1.0773907470703123,0,0,1.3015625000000002
1.0924100579995866,0,0,1.5155296508789062,0,0,1.0718750000000001
1.0941161119999379,0,0,1.6711527587890624,0,0,0.0765625
1.0959768689999692,0,0,1.7022773803710936,0,0,0.9187500000000001
1.0977499969994824,0,0,1.936909143066406,0,0,1.378125
1.0994036639995102,0,0,1.5921441040039062,0,0,0.8421875000000001
1.1011467179996544,0,0,1.4173673828125,0,0,0.45937500000000003
1.1026935709996906,0,0,1.3862427612304686,0,0,0.0
1.1043629969999529,0,0,1.3479355346679687,0,0,832.3875
1.1061493659999542,0,0,1.0079588989257813,0,0,0.45937500000000003
1.107719569999972,0,0,1.2617442749023438,0,0,0.8421875000000001
1.1093930139995791,0,0,1.3742717529296875,0,0,0.9953125
1.11107895799978,0,0,1.5346832641601562,0,0,1.378125
1.1126529040002424,0,0,1.687912170410156,0,0,0.9953125
1.1141883119998965,0,0,1.889025109863281,0,0,-9.034375
1.115762757000084,0,0,1.8267758666992187,0,0,0.8421875000000001
1.1173800719998326,0,0,1.8770541015625,0,0,0.6125
1.1189186479996351,0,0,1.3527239379882812,0,0,0.45937500000000003
1.1204378530001122,0,0,1.3646949462890625,0,0,0.6125
1.122027149999667,0,0,0.9457096557617187,0,0,0.45937500000000003
1.1236908350001613,0,0,0.7733271362304687,0,0,0.9953125
1.1252904089997173,0,0,1.0630255371093749,0,0,0.6890625
1.126825409999583,0,0,1.6711527587890624,0,0,1.0718750000000001
1.128436299999521,0,0,1.5227122558593749,0,0,0.9953125
1.1300486519994593,0,0,1.608903515625,0,0,0.9187500000000001
1.1315723199995773,0,0,1.5442600708007812,0,0,0.8421875000000001
1.1331430239997644,0,0,1.6735469604492186,0,0,0.765625
1.1348448569997345,0,0,1.5155296508789062,0,0,0.6125
1.1363985429998138,0,0,1.2713210815429687,0,0,0.6890625
1.1380586360000962,0,0,1.3048399047851562,0,0,0.9187500000000001
1.139793524000197,0,0,1.1468225952148436,0,0,0.9187500000000001
1.1413695800001733,0,0,1.209071838378906,0,0,0.765625
1.1429000999996788,0,0,1.3431471313476562,0,0,0.8421875000000001
1.1445157480002308,0,0,1.4628572143554686,0,0,0.30625
1.1460929340000803,0,0,1.6472107421875,0,0,0.9187500000000001
1.1476225649994376,0,0,1.956062756347656,0,0,0.765625
1.1493148979998296,0,0,1.5346832641601562,0,0,0.765625
1.150956898000004,0,0,1.1947066284179686,0,0,0.765625
1.1524966209999548,0,0,1.199495031738281,0,0,0.3828125
1.1540500109995264,0,0,1.1947066284179686,0,0,832.6171875000001
1.1556705849998252,0,0,1.3814543579101561,0,0,0.9187500000000001
1.1572710669997832,0,0,1.6903063720703124,0,0,1.1484375
1.1588817339998059,0,0,1.4341267944335936,0,0,0.8421875000000001
1.1606380479997824,0,0,1.2401964599609374,0,0,0.9187500000000001
1.1623137139995379,0,0,1.5562310791015623,0,0,0.6125
1.1640168059993812,0,0,1.5658078857421873,0,0,832.69375
1.1658374150001691,0,0,1.350329736328125,0,0,0.30625
1.1674982109998382,0,0,1.6831237670898436,0,0,0.9187500000000001
1.1691091749999032,0,0,1.2689268798828124,0,0,1.0718750000000001
1.1707763409995096,0,0,1.2761094848632812,0,0,1.225
1.172471191999648,0,0,1.6711527587890624,0,0,1.53125
1.174224747000153,0,0,1.5897499023437498,0,0,1.7609375
1.1761819280000054,0,0,1.5251064575195312,0,0,0.45937500000000003
1.177791187999901,0,0,1.7788918334960937,0,0,0.8421875000000001
1.1796722779999982,0,0,1.2138602416992186,0,0,0.45937500000000003
1.1814810539999598,0,0,1.2138602416992186,0,0,0.45937500000000003
1.1839706179998757,0,0,1.3263877197265623,0,0,0.30625
1.1857053209996593,0,0,1.4317325927734375,0,0,0.45937500000000003
1.1875350599993908,0,0,1.7597382202148437,0,0,1.0718750000000001
1.1893175759996666,0,0,1.2617442749023438,0,0,0.6890625
1.190862966000168,0,0,1.1468225952148436,0,0,1.0718750000000001
1.19248515199979,0,0,1.484405029296875,0,0,1.1484375
1.194239001999449,0,0,1.7621324218749999,0,0,0.0
1.1958582429997477,0,0,1.5035586425781249,0,0,1.225
1.1974796329996025,0,0,1.8148048583984373,0,0,0.6125
1.1991522250000344,0,0,1.3766659545898436,0,0,0.153125
1.2007750399998258,0,0,1.4101847778320311,0,0,0.765625
1.2024189469993871,0,0,1.4604630126953124,0,0,0.765625
1.2040420399998766,0,0,1.1659762084960936,0,0,-9.5703125
1.2064346429997386,0,0,1.0510545288085937,0,0,1.225
1.2084258979994047,0,0,1.3168109130859373,0,0,1.0718750000000001
1.2101170460000503,0,0,1.5298948608398437,0,0,0.9187500000000001
1.2116644729994732,0,0,1.5873557006835937,0,0,0.6125
1.213264621000235,0,0,1.5490484741210937,0,0,1.3015625000000002
1.2149305470002218,0,0,1.465251416015625,0,0,1.4546875000000001
1.2164869919997727,0,0,1.6424223388671875,0,0,0.9953125
1.2181514739995691,0,0,1.39821376953125,0,0,0.9953125
1.2198522509997929,0,0,1.2880804931640624,0,0,0.22968750000000002
1.2215194909995262,0,0,1.3287819213867187,0,0,0.0765625
1.223154694999721,0,0,1.2521674682617188,0,0,0.30625
1.22487000899946,0,0,1.458068811035156,0,0,0.5359375000000001
1.2266148409999005,0,0,1.5275006591796874,0,0,0.8421875000000001
1.228444784000203,0,0,1.426944189453125,0,0,1.225
1.230193133999819,0,0,1.0797849487304687,0,0,0.8421875000000001
1.2318507079999108,0,0,1.3239935180664062,0,0,0.6890625
1.2334507460000168,0,0,1.3383587280273437,0,0,1.4546875000000001
1.2353263539998807,0,0,1.5346832641601562,0,0,0.6125
1.2371657220000998,0,0,1.8363526733398436,0,0,1.225
1.2388046669993855,0,0,1.6160861206054686,0,0,1.378125
1.2404803150002408,0,0,1.3168109130859373,0,0,1.6078125
1.242290256999695,0,0,1.3215993164062498,0,0,1.1484375
1.2439000169997598,0,0,1.5418658691406248,0,0,0.6125
1.2456100159997732,0,0,1.7884686401367187,0,0,0.5359375000000001
1.2473933659994145,0,0,1.915361328125,0,0,0.9187500000000001
1.2490529589995276,0,0,1.2713210815429687,0,0,1.225
1.250838697999825,0,0,1.0773907470703123,0,0,0.8421875000000001
1.252563270999417,0,0,1.0941501586914062,0,0,0.22968750000000002
1.2541821969998637,0,0,1.47482822265625,0,0,832.6171875000001
1.255787975000203,0,0,1.659181750488281,0,0,0.6125
1.2575074380001752,0,0,1.9656395629882812,0,0,1.3015625000000002
1.2592508620000444,0,0,1.6711527587890624,0,0,1.378125
1.2609445469997809,0,0,1.5298948608398437,0,0,0.9953125
1.262783674000275,0,0,1.4867992309570313,0,0,0.153125
1.265572031999909,0,0,1.3646949462890625,0,0,0.0
1.2682070760001807,0,0,1.4772224243164063,0,0,0.6125
1.2704114219995972,0,0,1.1731588134765625,0,0,1.378125
1.2723532519994478,0,0,0.967257470703125,0,0,1.0718750000000001
1.274107675999403,0,0,1.139639990234375,0,0,832.3109375
1.27600730299946,0,0,1.4532804077148436,0,0,0.8421875000000001
1.2778518189998067,0,0,1.70467158203125,0,0,1.6843750000000002
1.2798666299995602,0,0,1.5322890624999999,0,0,1.4546875000000001
1.2815747590002502,0,0,1.43652099609375,0,0,1.378125
1.283186685000146,0,0,1.24498486328125,0,0,0.22968750000000002
1.2847907779996603,0,0,1.4867992309570313,0,0,1.225
1.2866586459995233,0,0,1.5705962890624998,0,0,0.6890625
1.2884167929996693,0,0,1.5251064575195312,0,0,0.9953125
1.290096865999658,0,0,1.1468225952148436,0,0,1.3015625000000002
1.2930528329998197,0,0,0.8834604125976562,0,0,0.3828125
1.2950169220002863,0,0,1.6328455322265625,0,0,0.5359375000000001
1.297846927000137,0,0,2.1260510742187497,0,0,1.6843750000000002
1.299744758000088,0,0,1.68551796875,0,0,1.225
1.3014219050000975,0,0,1.3144167114257812,0,0,0.6890625
1.3030433320000157,0,0,1.01514150390625,0,0,0.0
1.3048306820001017,0,0,1.2306196533203124,0,0,0.5359375000000001
1.3065651249999064,0,0,1.5969325073242187,0,0,1.225
1.3081955879997622,0,0,1.3766659545898436,0,0,1.4546875000000001
1.3097598859994832,0,0,1.120486376953125,0,0,0.8421875000000001
1.3113426270001582,0,0,0.6703764648437499,0,0,0.30625
1.3129570900000544,0,0,0.9552864624023437,0,0,0.22968750000000002
1.3146532379996643,0,0,1.6831237670898436,0,0,0.765625
1.3163504039994223,0,0,1.898601916503906,0,0,1.8375000000000001
1.3180995319999056,0,0,1.599326708984375,0,0,1.7609375
1.3198482899997543,0,0,1.369483349609375,0,0,1.1484375
1.321430123999562,0,0,1.3383587280273437,0,0,0.3828125
1.3230991800000993,0,0,1.6543933471679686,0,0,0.765625
1.3246905139994851,0,0,1.7932570434570312,0,0,1.0718750000000001
1.326274402999843,0,0,1.8076222534179687,0,0,1.3015625000000002
1.3283411579996027,0,0,0.9409212524414062,0,0,1.0718750000000001
1.3303423759998623,0,0,0.7972691528320313,0,0,0.6125
1.332161762999931,0,0,1.5801730957031248,0,0,1.225
1.3340330559994982,0,0,2.0781670410156248,0,0,0.5359375000000001
1.3359842939998998,0,0,1.4796166259765624,0,0,1.1484375
1.3376161090000096,0,0,1.4508862060546874,0,0,0.6890625
1.339482180000232,0,0,1.1947066284179686,0,0,0.45937500000000003
1.3413797880002676,0,0,1.6639701538085936,0,0,0.8421875000000001
1.3430925100001332,0,0,1.5227122558593749,0,0,1.6078125
1.3454293349996078,0,0,0.7996633544921875,0,0,0.6125
1.3471168529995339,0,0,0.8355763793945312,0,0,0.3828125
1.3491582750002635,0,0,1.3838485595703125,0,0,1.0718750000000001
1.3508756259998336,0,0,2.1691467041015624,0,0,1.8375000000000001
1.3526469950002138,0,0,1.8411410766601561,0,0,1.53125
1.3544518079997943,0,0,1.0893617553710937,0,0,0.6890625
1.356266343000243,0,0,1.2761094848632812,0,0,0.765625
1.358416799999759,0,0,2.1404162841796874,0,0,1.1484375
1.3604396660002749,0,0,1.70467158203125,0,0,1.4546875000000001
1.3621383689996946,0,0,0.8379705810546875,0,0,0.8421875000000001
1.3638586460001534,0,0,0.4908113403320312,0,0,-0.5359375000000001
1.365517608999653,0,0,1.0390835205078124,0,0,0.153125
1.3671088499995676,0,0,2.2601263671875,0,0,1.7609375
1.3692434739996315,0,0,1.687912170410156,0,0,1.7609375
1.3710133989998212,0,0,0.9696516723632812,0,0,0.45937500000000003
1.3729966729997614,0,0,1.1563994018554686,0,0,0.153125
1.374760783000056,0,0,1.908178723144531,0,0,0.9187500000000001
1.3764175969999997,0,0,1.8267758666992187,0,0,1.1484375
1.378003097999681,0,0,0.8307879760742187,0,0,0.9187500000000001
1.3796639679994769,0,0,0.40462008056640625,0,0,0.45937500000000003
1.38135093100027,0,0,0.9265560424804687,0,0,0.45937500000000003
1.3831325959999958,0,0,1.956062756347656,0,0,1.53125
1.384780483999748,0,0,1.9704279663085937,0,0,1.8375000000000001
1.3865061129999958,0,0,1.5275006591796874,0,0,1.3015625000000002
1.3882080570001563,0,0,1.2330138549804688,0,0,0.8421875000000001
1.38983070499944,0,0,1.43652099609375,0,0,0.765625
1.3914587979998032,0,0,1.9919757812499999,0,0,1.0718750000000001
1.3930420950000553,0,0,1.3814543579101561,0,0,1.3015625000000002
1.394732261000172,0,0,1.1563994018554686,0,0,0.9187500000000001
1.3964666120000402,0,0,0.928950244140625,0,0,0.6125
1.3981693890000315,0,0,1.7884686401367187,0,0,1.1484375
1.3998906289998558,0,0,1.5370774658203123,0,0,1.378125
1.401544481000201,0,0,1.3168109130859373,0,0,0.9187500000000001
1.4031447589995878,0,0,1.0103531005859374,0,0,1.4546875000000001
1.404972034999446,0,0,1.6615759521484375,0,0,1.3015625000000002
1.4066450899999836,0,0,1.687912170410156,0,0,0.9953125
1.4087185110001883,0,0,1.149216796875,0,0,0.8421875000000001
1.410382344000027,0,0,0.5722141967773438,0,0,0.8421875000000001
1.412088324999786,0,0,1.458068811035156,0,0,1.3015625000000002
1.4138402869994025,0,0,1.8698714965820311,0,0,0.9953125
1.4154867500001274,0,0,1.8435352783203125,0,0,1.4546875000000001
1.4171028419996219,0,0,1.5801730957031248,0,0,0.9187500000000001
1.4189505619997362,0,0,1.6927005737304686,0,0,0.8421875000000001
1.4208487449996028,0,0,1.867477294921875,0,0,0.8421875000000001
1.4224696889996267,0,0,1.7741034301757812,0,0,0.8421875000000001
1.4240411159998985,0,0,1.0462661254882812,0,0,-0.45937500000000003
1.4258722439999474,0,0,0.9193734375,0,0,0.6125
1.4277275750000626,0,0,1.5801730957031248,0,0,1.3015625000000002
1.4298457169998073,0,0,1.6400281372070311,0,0,0.6890625
1.4316488079994087,0,0,1.1252747802734375,0,0,0.5359375000000001
1.4332429939995563,0,0,1.3407529296874998,0,0,1.6078125
1.434989158999997,0,0,1.5011644409179687,0,0,1.378125
1.436526104999757,0,0,1.4101847778320311,0,0,0.8421875000000001
1.4381870679999338,0,0,0.8930372192382812,0,0,0.9187500000000001
1.4398119199995563,0,0,0.928950244140625,0,0,0.9953125
1.4415947890001917,0,0,1.5945383056640625,0,0,1.3015625000000002
1.4433441579994906,0,0,1.484405029296875,0,0,1.7609375
1.4448845850001817,0,0,1.62805712890625,0,0,1.6843750000000002
1.446532510999532,0,0,1.5442600708007812,0,0,0.9953125
1.448141621999639,0,0,2.032677209472656,0,0,1.225
1.4497094009993816,0,0,1.9704279663085937,0,0,0.6125
1.451370585999939,0,0,1.2473790649414063,0,0,0.5359375000000001
1.4531376029999592,0,0,1.0103531005859374,0,0,1.225
1.4548191769999903,0,0,1.3934253662109375,0,0,1.3015625000000002
1.4564036960000522,0,0,1.7645266235351562,0,0,1.225
1.4580984360000002,0,0,1.0965443603515623,0,0,1.0718750000000001
1.4599593410002853,0,0,1.0582371337890624,0,0,0.5359375000000001
1.46163102599985,0,0,1.446097802734375,0,0,0.765625
1.4633346729997356,0,0,1.458068811035156,0,0,1.990625
1.4650590800001737,0,0,0.8858546142578124,0,0,1.3015625000000002
1.4666442839998126,0,0,0.612915625,0,0,0.6890625
1.4682324879995576,0,0,1.35990654296875,0,0,1.1484375
1.4703769830002784,0,0,1.4245499877929686,0,0,1.8375000000000001
1.4722188879995883,0,0,1.47482822265625,0,0,1.3015625000000002
1.473897758000021,0,0,1.47482822265625,0,0,0.765625
1.4756036829994628,0,0,1.879448303222656,0,0,0.6125
1.4772394789997634,0,0,1.924938134765625,0,0,1.3015625000000002
1.4788031660000343,0,0,1.2856862915039062,0,0,0.8421875000000001
1.4806774779999614,0,0,1.1827356201171875,0,0,0.9187500000000001
1.4824844759996267,0,0,1.5753846923828123,0,0,0.8421875000000001
1.4840958650001994,0,0,1.5394716674804687,0,0,0.0
1.485734328000035,0,0,1.2641384765625,0,0,0.30625
1.4873398469999302,0,0,1.687912170410156,0,0,0.765625
1.4888718669999434,0,0,1.1133037719726562,0,0,0.3828125
1.490480218999437,0,0,0.9313444458007812,0,0,0.30625
1.4921835889999784,0,0,1.0869675537109373,0,0,0.9187500000000001
1.493887939999695,0,0,1.3239935180664062,0,0,0.9953125
1.4955736060001072,0,0,1.5538368774414062,0,0,0.6125
1.4971646809999584,0,0,1.7357962036132812,0,0,1.0718750000000001
1.4987155339995297,0,0,1.2210428466796874,0,0,1.0718750000000001
1.5004923659998894,0,0,1.5203180541992187,0,0,1.0718750000000001
1.5023872330002632,0,0,1.8435352783203125,0,0,0.9187500000000001
1.5039558819999002,0,0,1.467645617675781,0,0,0.6125
1.5056190300001617,0,0,1.2665326782226562,0,0,1.1484375
1.5075951930002702,0,0,1.7669208251953124,0,0,1.0718750000000001
1.509254415000214,0,0,1.5466542724609373,0,0,0.765625
1.5111386339995079,0,0,1.2569558715820313,0,0,0.6890625
1.512974483999642,0,0,1.3120225097656248,0,0,0.3828125
1.5145254479994037,0,0,1.22583125,0,0,0.30625
1.5161799480001719,0,0,0.7110778930664062,0,0,0.765625
1.517986056999689,0,0,1.4221557861328125,0,0,0.8421875000000001
1.51963735299978,0,0,1.7764976318359373,0,0,1.3015625000000002
1.521227538999483,0,0,1.3120225097656248,0,0,1.225
1.5230506299994886,0,0,0.9744400756835937,0,0,0.8421875000000001
1.5247290919996885,0,0,1.5897499023437498,0,0,1.0718750000000001
1.5264909429997715,0,0,2.1883003173828124,0,0,1.225
1.5282087939995108,0,0,1.7381904052734374,0,0,1.6843750000000002
1.5297934430000169,0,0,1.2425906616210938,0,0,0.9953125
1.5320184359998166,0,0,1.24498486328125,0,0,0.6890625
1.5336619919999066,0,0,1.2713210815429687,0,0,0.22968750000000002
1.5356265620002887,0,0,1.6112977172851561,0,0,0.3828125
1.537851314999898,0,0,1.7812860351562498,0,0,0.6125
1.5397295160000795,0,0,1.0271125122070313,0,0,0.30625
1.541507606999403,0,0,0.7230489013671875,0,0,1.1484375
1.5432003839996469,0,0,1.7190367919921874,0,0,2.2203125000000004
1.5450601410002491,0,0,1.6112977172851561,0,0,1.990625
1.546721843999876,0,0,1.3527239379882812,0,0,0.8421875000000001
1.5482540490002066,0,0,1.4867992309570313,0,0,0.9187500000000001
1.5499061969994727,0,0,1.9512743530273435,0,0,0.8421875000000001
1.5515239939995809,0,0,1.8938135131835936,0,0,1.4546875000000001
1.5531399940000483,0,0,1.3838485595703125,0,0,1.9140625000000002
1.5546755329996813,0,0,1.6112977172851561,0,0,1.6843750000000002
1.556360790999861,0,0,1.16837041015625,0,0,0.9953125
1.5581564189997152,0,0,1.1156979736328125,0,0,0.30625
1.559709328000281,0,0,1.659181750488281,0,0,0.9187500000000001
1.5613656790001187,0,0,1.4604630126953124,0,0,1.225
1.5630063459993835,0,0,0.7493851196289062,0,0,1.0718750000000001
1.5645952169998054,0,0,0.8355763793945312,0,0,0.9187500000000001
1.566302438999628,0,0,1.5562310791015623,0,0,1.378125
1.567996771000253,0,0,1.3239935180664062,0,0,1.4546875000000001
1.5697742510001262,0,0,1.3431471313476562,0,0,0.22968750000000002
1.5713706219994492,0,0,1.5825672973632812,0,0,1.0718750000000001
1.5730644360000952,0,0,1.6831237670898436,0,0,1.1484375
1.5746859920000134,0,0,1.946485949707031,0,0,1.6843750000000002
1.5764288430000306,0,0,1.7334020019531249,0,0,1.7609375
1.5781259539999155,0,0,1.4604630126953124,0,0,0.9187500000000001
1.5800487649994466,0,0,0.9074024291992187,0,0,0.22968750000000002
1.5817865049993998,0,0,1.0869675537109373,0,0,0.0765625
1.5834402640002736,0,0,1.47482822265625,0,0,0.765625
1.585062635000213,0,0,1.158793603515625,0,0,0.6890625
1.5867816339996352,0,0,0.9888052856445312,0,0,0.5359375000000001
1.5886516310001753,0,0,1.0869675537109373,0,0,1.225
1.5905591649998314,0,0,1.16837041015625,0,0,1.3015625000000002
1.5923247009995976,0,0,1.2042834350585936,0,0,0.6125
1.5944971210001313,0,0,1.9895815795898437,0,0,1.53125
1.596313119000115,0,0,1.7669208251953124,0,0,1.4546875000000001
1.598069191999457,0,0,1.5777788940429687,0,0,2.75625
1.6000487060000523,0,0,1.4149731811523436,0,0,1.6078125
1.6018393899994408,0,0,1.3215993164062498,0,0,0.765625
1.6035526480000044,0,0,1.2042834350585936,0,0,0.45937500000000003
1.6053822940002647,0,0,1.2808978881835937,0,0,0.45937500000000003
1.6070271279995723,0,0,1.2928688964843749,0,0,0.3828125
1.608565462000115,0,0,0.8571241943359375,0,0,1.1484375
1.6101970549998441,0,0,1.3958195678710936,0,0,1.4546875000000001
1.6118306849994042,0,0,1.438915197753906,0,0,1.9140625000000002
1.6134909069996866,0,0,1.0678139404296874,0,0,1.4546875000000001
1.6150378149995959,0,0,1.68551796875,0,0,1.53125
1.6167032960001961,0,0,1.956062756347656,0,0,1.0718750000000001
1.6183744069994646,0,0,1.8722656982421875,0,0,1.6078125
1.619927853000263,0,0,1.9943699829101562,0,0,1.7609375
1.6214613719994304,0,0,1.7286135986328124,0,0,1.378125
1.6230090399994879,0,0,0.93852705078125,0,0,1.0718750000000001
1.6247845939997205,0,0,0.9121908325195311,0,0,0.5359375000000001
1.6264907790000507,0,0,1.0821791503906248,0,0,0.0
1.6281462229999306,0,0,0.9864110839843749,0,0,0.6890625
1.629982942999959,0,0,1.0438719238281249,0,0,1.6078125
1.6316876089995276,0,0,1.2521674682617188,0,0,1.9140625000000002
1.633446496999568,0,0,1.39821376953125,0,0,2.296875
1.6350345709997782,0,0,1.2856862915039062,0,0,1.378125
1.636740699999791,0,0,1.8818425048828125,0,0,1.0718750000000001
1.638469643999997,0,0,1.9919757812499999,0,0,1.6078125
1.6400028859998201,0,0,1.9991583862304687,0,0,1.8375000000000001
1.6416154970002026,0,0,1.8531120849609375,0,0,1.225
1.6434561059995758,0,0,1.0414777221679687,0,0,0.8421875000000001
1.645050588000231,0,0,1.0175357055664063,0,0,0.45937500000000003
1.646681940000235,0,0,1.3718775512695311,0,0,-0.153125
1.6483041439996668,0,0,1.0845733520507812,0,0,1.3015625000000002
1.6498666079996838,0,0,0.8379705810546875,0,0,0.45937500000000003
1.6514920159997928,0,0,1.2808978881835937,0,0,1.6078125
1.6532718290000048,0,0,1.2497732666015624,0,0,2.8328125
1.6549036249998608,0,0,1.2808978881835937,0,0,1.4546875000000001
1.6565428469994004,0,0,1.8195932617187498,0,0,1.990625
1.658182940000188,0,0,1.9488801513671874,0,0,1.3015625000000002
1.6598686799998177,0,0,2.0087351928710935,0,0,0.9187500000000001
1.6615151059995696,0,0,2.001552587890625,0,0,1.6078125
1.6631588840000404,0,0,1.4317325927734375,0,0,2.1437500000000003
1.6649439749999146,0,0,1.1635820068359375,0,0,0.6890625
1.6665869009993912,0,0,1.216254443359375,0,0,0.0
1.6682210119997762,0,0,0.7517793212890624,0,0,0.5359375000000001
1.6698804379993817,0,0,0.7924807495117187,0,0,9.1875
1.671544363999601,0,0,1.4006079711914061,0,0,1.4546875000000001
1.67314567899939,0,0,1.3215993164062498,0,0,2.45
1.6747539569996661,0,0,1.1061211669921875,0,0,1.378125
1.6767830449998655,0,0,1.2808978881835937,0,0,1.1484375
1.678577968999889,0,0,1.707065783691406,0,0,1.378125
1.6801609519998237,0,0,1.8243816650390623,0,0,1.1484375
1.6817111190002834,0,0,2.3726538452148436,0,0,1.9140625000000002
1.6839223540000603,0,0,1.7334020019531249,0,0,0.0
1.6855238359994473,0,0,0.7972691528320313,0,0,0.0
1.6873486670001512,0,0,1.2401964599609374,0,0,0.0
1.6889511119998133,0,0,0.9696516723632812,0,0,9.264062500000001
1.690639759000078,0,0,0.9265560424804687,0,0,1.6843750000000002
1.6923504989999856,0,0,1.4820108276367188,0,0,1.8375000000000001
1.693884166999851,0,0,0.9361328491210937,0,0,0.6890625
1.6954078540002229,0,0,0.7829039428710937,0,0,0.9953125
1.6970734279993849,0,0,1.7310078002929687,0,0,0.3828125
1.698877093000192,0,0,1.7932570434570312,0,0,0.9187500000000001
1.7004935929999192,0,0,2.2194249389648437,0,0,2.45
1.702080611999918,0,0,1.9632453613281249,0,0,1.8375000000000001
1.7036964459994124,0,0,1.4963760375976562,0,0,0.0
1.7052946129997508,0,0,1.1468225952148436,0,0,0.0
1.7068904649995602,0,0,1.1468225952148436,0,0,-0.0765625
1.708721351999884,0,0,0.8307879760742187,0,0,0.0
1.7103063710001152,0,0,1.2904746948242187,0,0,1.53125
1.711871945999519,0,0,1.3742717529296875,0,0,1.6843750000000002
1.7134546879997288,0,0,0.5267243652343749,0,0,1.225
1.7153217409995705,0,0,1.20667763671875,0,0,0.30625
1.7172319599994808,0,0,2.085349645996094,0,0,1.378125
1.7188285709999036,0,0,1.9704279663085937,0,0,1.8375000000000001
1.7204884969996783,0,0,2.3295582153320313,0,0,1.53125
1.7228216749999774,0,0,1.438915197753906,0,0,0.765625
1.7244400270001279,0,0,1.158793603515625,0,0,0.0
1.7264389490001122,0,0,0.8906430175781249,0,0,0.22968750000000002
1.7281799289994524,0,0,1.2473790649414063,0,0,0.6890625
1.729833946999861,0,0,1.6232687255859375,0,0,1.6078125
1.731570723999539,0,0,0.8116343627929687,0,0,0.8421875000000001
1.7333176860001913,0,0,0.7685387329101562,0,0,2.0671875
1.7350786480001261,0,0,1.4341267944335936,0,0,1.53125
1.7369442560002426,0,0,2.0638018310546875,0,0,1.1484375
1.7385861450002267,0,0,2.8898014038085935,0,0,2.1437500000000003
1.7401717940001618,0,0,1.6328455322265625,0,0,1.53125
1.7420811060001142,0,0,1.0127473022460938,0,0,0.45937500000000003
1.7443731169996681,0,0,1.01514150390625,0,0,0.3828125
1.7465501480000967,0,0,1.3862427612304686,0,0,1.225
1.7482451659998333,0,0,1.4724340209960938,0,0,0.9953125
1.7501801999997042,0,0,0.5506663818359374,0,0,0.6125
1.7517974219999815,0,0,0.9050082275390624,0,0,0.765625
1.75340795899956,0,0,1.0654197387695312,0,0,1.6843750000000002
1.7550309230000494,0,0,2.1739351074218747,0,0,1.4546875000000001
1.7565945529995588,0,0,3.0262708984374997,0,0,2.45
1.7582223499994143,0,0,1.7956512451171873,0,0,1.6078125
1.7598307019998174,0,0,1.5083470458984374,0,0,0.6890625
1.7615295899995544,0,0,0.4644751220703125,0,0,0.0
1.7631336459999147,0,0,0.699106884765625,0,0,0.0
1.7647423319995141,0,0,1.5682020874023437,0,0,1.378125
1.7663593130000663,0,0,1.8411410766601561,0,0,2.1437500000000003
1.7684210489996985,0,0,0.43574470214843747,0,0,1.1484375
1.7699914389995683,0,0,0.6823474731445313,0,0,0.8421875000000001
1.7723969119997491,0,0,1.7094599853515624,0,0,0.0
1.7741456519997882,0,0,3.0047230834960934,0,0,2.3734375
1.7763360339995415,0,0,1.956062756347656,0,0,2.0671875
1.778071996000108,0,0,0.7876923461914062,0,0,0.22968750000000002
1.7796128859999953,0,0,0.5147533569335937,0,0,0.0
1.781591252999533,0,0,0.7110778930664062,0,0,0.8421875000000001
1.7839062080001895,0,0,1.8555062866210936,0,0,1.3015625000000002
1.7854674129994237,0,0,1.2521674682617188,0,0,1.6843750000000002
1.7879193849994408,0,0,0.7733271362304687,0,0,0.6890625
1.7899396590000833,0,0,0.8547299926757812,0,0,0.30625
1.7915131409999958,0,0,2.6982652709960937,0,0,2.0671875
1.793111123000017,0,0,2.6623522460937497,0,0,2.45
1.7949615099996663,0,0,2.1356278808593747,0,0,1.7609375
1.7966283979994842,0,0,0.5961562133789062,0,0,0.765625
1.7982390839997606,0,0,0.4213794921875,0,0,-0.30625
1.8001146369997514,0,0,1.9991583862304687,0,0,0.30625
1.8017847659994004,0,0,2.023100402832031,0,0,2.0671875
1.8034193399998912,0,0,0.928950244140625,0,0,1.6843750000000002
1.8052655599994978,0,0,0.22026655273437498,0,0,0.45937500000000003
1.8069683189996795,0,0,0.689530078125,0,0,0.45937500000000003
1.8088175200000478,0,0,2.1787235107421874,0,0,1.9140625000000002
1.8107722570002807,0,0,2.2361843505859373,0,0,1.4546875000000001
1.8126089219995265,0,0,1.3575123413085937,0,0,0.45937500000000003
1.8145876589996988,0,0,0.2154781494140625,0,0,-0.153125
1.816615339999771,0,0,1.5873557006835937,0,0,0.765625
1.818556391999664,0,0,2.059013427734375,0,0,2.45
1.8204897959994923,0,0,1.1707646118164061,0,0,1.6078125
1.82249808799952,0,0,0.5291185668945312,0,0,1.0718750000000001
1.8245617499997024,0,0,1.6065093139648436,0,0,0.9953125
1.8262678419996519,0,0,2.6503812377929687,0,0,1.0718750000000001
1.8279312489994481,0,0,2.50912333984375,0,0,1.9140625000000002
1.830419369000083,0,0,0.11013327636718749,0,0,-9.646875000000001
1.8325604559995554,0,0,0.055066638183593745,0,0,0.3828125
1.8348432080001658,0,0,1.8195932617187498,0,0,2.1437500000000003
1.836651224999514,0,0,2.43250888671875,0,0,1.6843750000000002
1.8383446870002444,0,0,1.1348515869140625,0,0,2.296875
1.8400463899997703,0,0,0.6584054565429687,0,0,0.0
1.8425441769995814,0,0,2.499546533203125,0,0,1.225
1.8442516579998482,0,0,2.3056161987304686,0,0,2.5265625000000003
1.8459175090001736,0,0,1.7908628417968748,0,0,0.0
1.8475136950000888,0,0,0.5003881469726562,0,0,0.0765625
1.8491867319999074,0,0,0.6751648681640625,0,0,0.45937500000000003
1.8508990640002594,0,0,1.1348515869140625,0,0,0.8421875000000001
1.8525196390000929,0,0,1.8842367065429686,0,0,1.0718750000000001
1.854125546999967,0,0,1.4700398193359374,0,0,0.8421875000000001
1.8558256569995137,0,0,0.6488286499023437,0,0,0.9953125
1.8574926009996489,0,0,1.8698714965820311,0,0,1.53125
1.8591781929999343,0,0,2.454056701660156,0,0,0.9953125
1.860820340999453,0,0,2.114080065917969,0,0,1.0718750000000001
1.8625188219994016,0,0,1.4437036010742186,0,0,0.5359375000000001
1.8642027480000252,0,0,0.4165910888671875,0,0,9.034375
1.8659619869995367,0,0,0.5147533569335937,0,0,0.0
1.8677322260000437,0,0,1.2737152832031249,0,0,0.9953125
1.8693530789996657,0,0,1.2832920898437499,0,0,1.1484375
1.871048152000185,0,0,0.7350199096679687,0,0,0.765625
1.8727398179999,0,0,1.0319009155273438,0,0,0.5359375000000001
1.8743474670000069,0,0,2.166752502441406,0,0,1.3015625000000002
1.8758815789997243,0,0,2.1308394775390624,0,0,1.0718750000000001
1.8775477079998382,0,0,2.2457611572265623,0,0,0.5359375000000001
1.87918346799961,0,0,0.8355763793945312,0,0,0.6125
1.8808656159999373,0,0,0.08140285644531249,0,0,0.22968750000000002
1.8830801459998838,0,0,1.4867992309570313,0,0,2.1437500000000003
1.8847896079996644,0,0,1.7956512451171873,0,0,1.7609375
1.886345701999744,0,0,1.3120225097656248,0,0,1.8375000000000001
1.8879450909998923,0,0,1.01514150390625,0,0,0.9953125
1.8895767399999386,0,0,1.6136919189453125,0,0,1.0718750000000001
1.8912163139993936,0,0,2.2385785522460937,0,0,0.0
1.8928250729995852,0,0,2.1260510742187497,0,0,0.30625
1.8945153690001462,0,0,1.1444283935546875,0,0,0.5359375000000001
1.8961859800001548,0,0,0.18435352783203124,0,0,-0.22968750000000002
1.8981389760001548,0,0,1.2856862915039062,0,0,0.5359375000000001
1.8998839199994109,0,0,1.8267758666992187,0,0,1.6843750000000002
1.901492197999687,0,0,1.2521674682617188,0,0,1.8375000000000001
1.9030473840002742,0,0,0.4333505004882812,0,0,1.53125
1.9045745519997581,0,0,0.9265560424804687,0,0,0.9953125
1.9062232559999757,0,0,2.9544448486328125,0,0,1.990625
1.907976050999423,0,0,2.863465185546875,0,0,1.3015625000000002
1.9095809769996777,0,0,1.7022773803710936,0,0,0.153125
1.911173978000079,0,0,0.181959326171875,0,0,0.30625
1.9129107729995667,0,0,-0.00718260498046875,0,0,2.3734375
1.91453571799957,0,0,1.5203180541992187,0,0,0.22968750000000002
1.9160677370000485,0,0,1.9608511596679685,0,0,1.3015625000000002
1.9176229049999165,0,0,1.8076222534179687,0,0,2.296875
1.9193537929995728,0,0,0.6512228515624999,0,0,1.1484375
1.9210176259994114,0,0,0.8499415893554687,0,0,0.5359375000000001
1.9225569049995102,0,0,2.4516625,0,0,0.9953125
1.9241292019996763,0,0,2.437297290039062,0,0,0.0
1.9258318860001964,0,0,2.0829554443359375,0,0,0.0
1.9273587580000822,0,0,0.6943184814453125,0,0,0.0
1.928903019000245,0,0,-0.2059013427734375,0,0,-0.3828125
1.9306377769999017,0,0,0.9959878906249999,0,0,0.5359375000000001
1.9323017389997403,0,0,1.429338391113281,0,0,0.6125
1.933860463000201,0,0,1.180341418457031,0,0,0.8421875000000001
1.9356414240000959,0,0,0.6631938598632812,0,0,1.0718750000000001
1.9374197189999904,0,0,1.9919757812499999,0,0,1.0718750000000001
1.9389651089995823,0,0,2.454056701660156,0,0,1.7609375
1.9406714790002297,0,0,2.0063409912109376,0,0,1.225
1.9424198659999092,0,0,1.3096283081054687,0,0,0.22968750000000002
1.9440259590001006,0,0,0.7517793212890624,0,0,-1.6843750000000002
1.9455602199996065,0,0,0.7134720947265625,0,0,0.0765625
1.9478208239997912,0,0,1.6256629272460936,0,0,1.3015625000000002
1.9497070799998255,0,0,0.9576806640625,0,0,0.8421875000000001
1.9514345239995237,0,0,0.4285620971679687,0,0,0.9187500000000001
1.9530936350001866,0,0,1.5921441040039062,0,0,1.990625
1.9547252279999157,0,0,2.4564509033203126,0,0,2.3734375
1.9564491900000576,0,0,2.5139117431640625,0,0,2.2203125000000004
1.9582022989998222,0,0,1.3335703247070312,0,0,0.8421875000000001
1.959885798999494,0,0,0.6847416748046875,0,0,-0.5359375000000001
1.961576779999632,0,0,0.8906430175781249,0,0,0.22968750000000002
1.9634924809997756,0,0,1.6160861206054686,0,0,0.6890625
1.9651419800002259,0,0,1.0271125122070313,0,0,1.1484375
1.9667398510000567,0,0,0.7948749511718749,0,0,0.3828125
1.9686252749997948,0,0,0.8403647827148437,0,0,0.9953125
1.9703332740000405,0,0,2.01112939453125,0,0,1.378125
1.9722778630002722,0,0,2.0638018310546875,0,0,1.0718750000000001
1.9746427989994118,0,0,1.2808978881835937,0,0,1.225
1.9763552799995523,0,0,0.33758243408203126,0,0,9.264062500000001
1.9779105589996107,0,0,1.3718775512695311,0,0,0.765625
1.9808020999998917,0,0,1.3718775512695311,0,0,1.0718750000000001
1.9827393750001647,0,0,0.8116343627929687,0,0,0.45937500000000003
1.984347300999616,0,0,1.216254443359375,0,0,0.153125
1.9858987099996739,0,0,1.8195932617187498,0,0,1.3015625000000002
1.9875245249995714,0,0,2.4157494750976563,0,0,1.0718750000000001
1.9894624290000138,0,0,1.7190367919921874,0,0,0.5359375000000001
1.9913212040000872,0,0,0.3806780639648437,0,0,0.3828125
1.9929613340000287,0,0,-0.06464344482421874,0,0,0.8421875000000001
1.9945928709994405,0,0,1.66636435546875,0,0,1.0718750000000001
1.99617198299984,0,0,1.7357962036132812,0,0,1.0718750000000001
1.9977335209996454,0,0,1.2497732666015624,0,0,1.6078125
1.9993576870001561,0,0,0.8188169677734375,0,0,0.8421875000000001
2.00114144500003,0,0,1.7812860351562498,0,0,0.6890625
2.002762668000287,0,0,2.5522189697265625,0,0,1.378125
2.004428111999914,0,0,2.1116858642578125,0,0,0.8421875000000001
2.0060322049994284,0,0,1.898601916503906,0,0,0.0
2.0077323340001385,0,0,0.6248866333007812,0,0,-0.6890625
2.009374000000207,0,0,0.8547299926757812,0,0,0.153125
2.0110869259997344,0,0,1.599326708984375,0,0,0.9953125
2.0127272219997394,0,0,1.5275006591796874,0,0,0.6125
2.0143794069999785,0,0,0.8499415893554687,0,0,1.225
2.0160369440000068,0,0,0.5985504150390625,0,0,0.6890625
2.0177510539997456,0,0,2.2960393920898436,0,0,1.8375000000000001
2.019377091000024,0,0,2.446874096679687,0,0,1.1484375
2.02103661000001,0,0,2.231395947265625,0,0,1.225
2.022700812999574,0,0,1.3335703247070312,0,0,0.6125
2.0243815349995202,0,0,0.24899697265624998,0,0,-0.8421875000000001
2.026038089999929,0,0,0.7900865478515624,0,0,0.30625
2.027603794999777,0,0,1.5035586425781249,0,0,1.0718750000000001
2.029323108999961,0,0,0.9265560424804687,0,0,0.9953125
2.0310259789994234,0,0,0.7206546997070312,0,0,0.6890625
2.032633589999932,0,0,0.9193734375,0,0,1.6078125
2.034545882999737,0,0,2.437297290039062,0,0,2.0671875
2.0363999179999155,0,0,2.5546131713867184,0,0,1.7609375
2.0381633429997237,0,0,1.7381904052734374,0,0,0.9953125
2.039803101999496,0,0,0.6751648681640625,0,0,-0.3828125
2.041639285000201,0,0,0.8164227661132812,0,0,0.45937500000000003
2.043401764999544,0,0,1.4006079711914061,0,0,1.0718750000000001
2.0450471349995496,0,0,1.5179238525390624,0,0,1.225
2.0467856710001797,0,0,0.8643067993164062,0,0,0.765625
2.048567298999842,0,0,0.7278373046875,0,0,0.9953125
2.050269669000045,0,0,1.8100164550781248,0,0,1.8375000000000001
2.0519773539999733,0,0,2.176329309082031,0,0,1.1484375
2.0537438519995703,0,0,1.944091748046875,0,0,-0.153125
2.055570980000084,0,0,0.842758984375,0,0,-9.723437500000001
2.057346440999936,0,0,1.4508862060546874,0,0,0.45937500000000003
2.0590151449996483,0,0,1.6352397338867186,0,0,0.765625
2.0607903469999655,0,0,1.2569558715820313,0,0,1.0718750000000001
2.063018228999681,0,0,1.0558429321289062,0,0,1.7609375
2.0650249660002373,0,0,0.8906430175781249,0,0,0.8421875000000001
2.0668196859996897,0,0,2.2840683837890623,0,0,0.9953125
2.0687962749998405,0,0,2.379836450195312,0,0,1.53125
2.0704666820001876,0,0,1.2425906616210938,0,0,1.0718750000000001
2.072165626000242,0,0,0.03591302490234375,0,0,-0.8421875000000001
2.073959642999398,0,0,0.9002198242187499,0,0,8.881250000000001
2.075741771000139,0,0,1.6400281372070311,0,0,0.765625
2.077825192000091,0,0,1.6328455322265625,0,0,1.6078125
2.0797051709996595,0,0,0.8882488159179687,0,0,0.9187500000000001
2.0819216640002196,0,0,1.2234370483398436,0,0,1.1484375
2.0846219489994837,0,0,2.360682836914062,0,0,1.6843750000000002
2.086444632000166,0,0,1.7190367919921874,0,0,0.9187500000000001
2.0885604969998894,0,0,0.086191259765625,0,0,0.30625
2.0907516569996005,0,0,1.2425906616210938,0,0,0.3828125
2.0925434709997717,0,0,1.4030021728515625,0,0,0.0
2.094268228999681,0,0,1.189918225097656,0,0,0.6890625
2.0959772469996096,0,0,0.8092401611328125,0,0,0.9953125
2.09838018299979,0,0,2.1452046874999997,0,0,1.4546875000000001
2.100387456000135,0,0,2.3870190551757813,0,0,1.990625
2.1022645650000413,0,0,1.2976572998046874,0,0,0.45937500000000003
2.104031840999596,0,0,0.3687070556640625,0,0,-2.1437500000000003
2.10575804400014,0,0,0.8643067993164062,0,0,0.0
2.1074348769998323,0,0,1.944091748046875,0,0,1.1484375
2.1094934829998238,0,0,1.1875240234375,0,0,1.53125
2.111331424999662,0,0,0.24660277099609373,0,0,0.9187500000000001
2.1133357179996892,0,0,0.928950244140625,0,0,1.3015625000000002
2.1151161239995417,0,0,2.779668127441406,0,0,1.1484375
2.1168365300000005,0,0,3.1196447631835937,0,0,1.9140625000000002
2.1186805830002413,0,0,1.4053963745117186,0,0,0.9187500000000001
2.1204194530000677,0,0,0.1197100830078125,0,0,0.0
2.1220475640002405,0,0,1.0558429321289062,0,0,0.0
2.1236536569995224,0,0,1.6328455322265625,0,0,-0.3828125
2.1253352859994266,0,0,1.2306196533203124,0,0,0.45937500000000003
2.126931508999405,0,0,1.3335703247070312,0,0,0.5359375000000001
2.128471195000202,0,0,0.5291185668945312,0,0,1.1484375
2.1300767329994414,0,0,1.1156979736328125,0,0,1.990625
2.131709528999636,0,0,1.5873557006835937,0,0,1.0718750000000001
2.1332403079995856,0,0,1.8650830932617186,0,0,2.2203125000000004
2.1348782710001615,0,0,1.3718775512695311,0,0,1.378125
2.1365471970002545,0,0,0.9552864624023437,0,0,0.30625
2.1381975300000704,0,0,2.2457611572265623,0,0,2.8328125
2.139722828000231,0,0,2.3918074584960936,0,0,1.1484375
2.1413984939999864,0,0,1.0486603271484374,0,0,1.4546875000000001
2.143092733999765,0,0,0.7015010864257812,0,0,1.6078125
2.1446739009998055,0,0,0.7541735229492187,0,0,0.8421875000000001
2.146369307999521,0,0,2.214636535644531,0,0,1.378125
2.148172899000201,0,0,2.3678654418945313,0,0,1.378125
2.149780861999716,0,0,1.8842367065429686,0,0,0.6125
2.1513766409998425,0,0,0.258573779296875,0,0,-9.4171875
2.153368600000249,0,0,0.86191259765625,0,0,0.765625
2.1551217099995483,0,0,2.1308394775390624,0,0,1.53125
2.1567233579999083,0,0,2.4301146850585935,0,0,1.0718750000000001
2.1583990620001714,0,0,1.3551181396484375,0,0,1.8375000000000001
2.160084930999801,0,0,0.6200982299804687,0,0,0.765625
2.1619171889997233,0,0,1.1061211669921875,0,0,1.225
2.163713130999895,0,0,1.9584569580078124,0,0,0.0
2.1654031680000116,0,0,1.8315642700195311,0,0,0.22968750000000002
2.1671077599994533,0,0,1.455674609375,0,0,0.5359375000000001
2.1687521490002837,0,0,0.2705447875976562,0,0,0.0
2.170442888999787,0,0,1.438915197753906,0,0,0.765625
2.17220935000023,0,0,1.4772224243164063,0,0,0.30625
2.1739513490001627,0,0,1.3527239379882812,0,0,0.22968750000000002
2.1756240710001293,0,0,0.833182177734375,0,0,0.0
2.1773131079999075,0,0,1.675941162109375,0,0,1.3015625000000002
2.1795178980000856,0,0,2.310404602050781,0,0,1.4546875000000001
2.1810857689997647,0,0,2.2481553588867187,0,0,1.378125
2.1834430569997494,0,0,0.29448680419921874,0,0,-0.6125
2.1852853509999477,0,0,0.9888052856445312,0,0,-0.3828125
2.1870482759995866,0,0,2.0063409912109376,0,0,0.5359375000000001
2.1886378499993953,0,0,1.7693150268554687,0,0,0.8421875000000001
2.1904849040001864,0,0,0.718260498046875,0,0,1.1484375
2.1922081439997783,0,0,0.37828386230468747,0,0,0.153125
2.194030290000228,0,0,0.9552864624023437,0,0,0.0
2.19575680700018,0,0,2.231395947265625,0,0,0.9953125
2.1975686199994016,0,0,2.463633508300781,0,0,1.1484375
2.199154527999781,0,0,0.8355763793945312,0,0,1.0718750000000001
2.2010528959999647,0,0,0.201112939453125,0,0,0.45937500000000003
2.2026967100000547,0,0,1.7477672119140624,0,0,0.6125
2.204283932999715,0,0,1.7262193969726563,0,0,0.153125
2.2059890439995797,0,0,1.465251416015625,0,0,0.9187500000000001
2.2075552300002528,0,0,0.9074024291992187,0,0,0.22968750000000002
2.2090790829997786,0,0,0.7206546997070312,0,0,0.22968750000000002
2.210883451999507,0,0,1.5658078857421873,0,0,0.765625
2.212471619000098,0,0,1.9632453613281249,0,0,0.6890625
2.2141784509994977,0,0,1.1563994018554686,0,0,0.765625
2.2159240239998326,0,0,0.5746083984375,0,0,-0.6890625
2.217595579999397,0,0,1.5107412475585937,0,0,1.0718750000000001
2.219349596999564,0,0,1.8459294799804686,0,0,1.1484375
2.2211038730001746,0,0,1.4891934326171874,0,0,1.3015625000000002
2.2228266129995973,0,0,1.2042834350585936,0,0,1.1484375
2.2247634989998915,0,0,0.928950244140625,0,0,0.765625
2.226361203000124,0,0,2.3439234252929686,0,0,1.1484375
2.2278939640000317,0,0,2.1452046874999997,0,0,1.0718750000000001
2.229578667000169,0,0,1.6831237670898436,0,0,0.9187500000000001
2.2311787779999577,0,0,0.25139117431640623,0,0,0.0
2.2327062799995474,0,0,-0.04548983154296875,0,0,0.0765625
2.2343272239995713,0,0,1.6615759521484375,0,0,0.6125
2.235912594999718,0,0,1.848323681640625,0,0,1.378125
2.2374382819998573,0,0,1.8938135131835936,0,0,1.53125
2.239043153000239,0,0,1.2282254516601563,0,0,1.0718750000000001
2.2410659449997183,0,0,0.7637503295898437,0,0,0.153125
2.242658723000204,0,0,1.886630908203125,0,0,0.8421875000000001
2.244250445999569,0,0,2.2744915771484373,0,0,0.30625
2.245928463999917,0,0,2.1021090576171875,0,0,0.45937500000000003
2.2475399089998973,0,0,0.6943184814453125,0,0,0.153125
2.249344832999668,0,0,0.5410895751953124,0,0,0.153125
2.2510292209999534,0,0,0.93852705078125,0,0,1.1484375
2.252758442999948,0,0,1.5610194824218748,0,0,1.53125
2.254300388000047,0,0,1.5083470458984374,0,0,1.225
2.2558676110002125,0,0,0.7038952880859375,0,0,0.9953125
2.2575328699995225,0,0,1.8267758666992187,0,0,0.9953125
2.2590672790001918,0,0,2.24097275390625,0,0,1.225
2.260591188000035,0,0,2.1068974609374997,0,0,1.53125
2.2621684289997575,0,0,1.1468225952148436,0,0,-0.30625
2.2638703909997275,0,0,0.5985504150390625,0,0,-2.0671875
2.2654105780002283,0,0,0.8954314208984374,0,0,0.0
2.266975671000182,0,0,1.5873557006835937,0,0,0.8421875000000001
2.268588226999782,0,0,1.5777788940429687,0,0,1.0718750000000001
2.2702270609997868,0,0,0.8259995727539062,0,0,1.7609375
2.2719473189999917,0,0,0.33518823242187495,0,0,1.0718750000000001
2.273570356000164,0,0,1.5729904907226562,0,0,0.6890625
2.2753311139995276,0,0,2.602497204589844,0,0,0.9953125
2.2768763189997117,0,0,2.789244934082031,0,0,1.8375000000000001
2.2788342969997757,0,0,1.3575123413085937,0,0,0.8421875000000001
2.2805339810001897,0,0,-0.316034619140625,0,0,-0.6125
2.282164592999834,0,0,1.3527239379882812,0,0,-0.5359375000000001
2.2839121469996826,0,0,1.6615759521484375,0,0,0.153125
2.2856181090000973,0,0,1.6400281372070311,0,0,1.378125
2.2872109620002448,0,0,0.373495458984375,0,0,0.9953125
2.288969905000158,0,0,0.45489831542968745,0,0,-9.49375
2.2909806409998055,0,0,1.8435352783203125,0,0,0.9953125
2.292684881000241,0,0,2.597708801269531,0,0,1.378125
2.2944011580002552,0,0,1.426944189453125,0,0,2.6796875
2.2961647309994078,0,0,0.181959326171875,0,0,-0.22968750000000002
2.297838063999734,0,0,0.9193734375,0,0,0.6890625
2.2996761169997626,0,0,1.9536685546875,0,0,1.6843750000000002
2.3014064130002225,0,0,1.4820108276367188,0,0,1.6078125
2.3029624139999214,0,0,0.9361328491210937,0,0,1.225
2.3045363589999397,0,0,0.699106884765625,0,0,0.9953125
2.306300895000277,0,0,2.4349030883789062,0,0,1.3015625000000002
2.3079456169998593,0,0,2.47081611328125,0,0,1.225
2.3095749690000957,0,0,1.908178723144531,0,0,-8.881250000000001
2.3111950430002253,0,0,-0.0718260498046875,0,0,0.765625
2.312732452000091,0,0,-0.4429273071289062,0,0,-0.765625
2.314320340999984,0,0,1.7621324218749999,0,0,0.45937500000000003
2.31618802399953,0,0,2.4779987182617185,0,0,1.6843750000000002
2.317827042999852,0,0,2.0925322509765625,0,0,2.8328125
2.319650966000154,0,0,0.40222587890625,0,0,0.9187500000000001
2.321286133000285,0,0,1.5346832641601562,0,0,0.6125
2.3228946709996308,0,0,2.408566870117187,0,0,1.0718750000000001
2.3244283759995596,0,0,2.6886884643554687,0,0,2.0671875
2.3268078299997796,0,0,1.3383587280273437,0,0,0.6890625
2.328749307999715,0,0,-0.4285620971679687,0,0,0.6125
2.331849587999386,0,0,1.3646949462890625,0,0,0.9953125
2.3335061249999853,0,0,1.4915876342773438,0,0,2.2203125000000004
2.3352429759997904,0,0,0.8475473876953125,0,0,1.3015625000000002
2.336913956999524,0,0,1.8171990600585937,0,0,1.225
2.3385552529998677,0,0,2.408566870117187,0,0,1.990625
2.34029215999999,0,0,2.2194249389648437,0,0,1.6843750000000002
2.3422101569994993,0,0,0.9145850341796874,0,0,0.22968750000000002
2.3438103979997322,0,0,0.17238251953125,0,0,-1.6078125
2.3457525240000905,0,0,0.6296750366210937,0,0,0.0
2.3473713759995007,0,0,1.5203180541992187,0,0,1.4546875000000001
2.348915821999981,0,0,1.419761584472656,0,0,1.4546875000000001
2.3505448779997096,0,0,0.6488286499023437,0,0,1.225
2.3521927109995886,0,0,0.8475473876953125,0,0,0.45937500000000003
2.3537870820000535,0,0,1.8219874633789062,0,0,0.22968750000000002
2.355406099999527,0,0,2.7246014892578123,0,0,1.0718750000000001
2.3571543219995874,0,0,2.978386865234375,0,0,1.6078125
2.3587690630001816,0,0,1.2042834350585936,0,0,0.5359375000000001
2.3604381360000843,0,0,-0.32082302246093747,0,0,-1.225
2.362153469000077,0,0,0.8690952026367187,0,0,-0.22968750000000002
2.3638405980000243,0,0,1.8267758666992187,0,0,0.3828125
2.3654870609998397,0,0,1.2042834350585936,0,0,1.0718750000000001
2.3670560989994556,0,0,1.005564697265625,0,0,0.3828125
2.3687028579997786,0,0,0.45968671875,0,0,0.30625
2.3704365610001332,0,0,2.133233679199219,0,0,1.6078125
2.3722141700000066,0,0,2.6144682128906247,0,0,1.53125
2.3738601329996527,0,0,2.212242333984375,0,0,0.0
2.3754751709993798,0,0,0.47884033203125,0,0,0.0
2.3772417059999498,0,0,0.8643067993164062,0,0,0.45937500000000003
2.378818911000053,0,0,1.4820108276367188,0,0,1.0718750000000001
2.3808412210000824,0,0,1.4101847778320311,0,0,1.0718750000000001
2.3829508640001222,0,0,1.0462661254882812,0,0,1.53125
2.385176097999647,0,0,0.8092401611328125,0,0,0.45937500000000003
2.3870280959999945,0,0,2.4061726684570313,0,0,1.3015625000000002
2.3885549489996265,0,0,2.04943662109375,0,0,1.6843750000000002
2.3901165059996856,0,0,1.9297265380859374,0,0,0.9187500000000001
2.391919245000281,0,0,0.488417138671875,0,0,-0.765625
2.3936285769996175,0,0,0.8667010009765624,0,0,-0.3828125
2.3952483920002123,0,0,2.104503259277344,0,0,1.225
2.3968481519996203,0,0,2.3367408203125,0,0,1.6078125
2.3984738740000466,0,0,1.1707646118164061,0,0,1.225
2.4000735230001737,0,0,0.6607996582031249,0,0,0.765625
2.401872650999394,0,0,1.2593500732421874,0,0,1.3015625000000002
2.4035200950002036,0,0,2.243366955566406,0,0,-0.6125
2.4052864639998006,0,0,1.8171990600585937,0,0,0.5359375000000001
2.4068962789997386,0,0,1.3407529296874998,0,0,0.45937500000000003
2.4086153159996684,0,0,-0.14125789794921875,0,0,9.646875000000001
2.4103677220000463,0,0,1.0654197387695312,0,0,0.153125
2.412009054999544,0,0,1.2401964599609374,0,0,1.225
2.413586259999647,0,0,1.216254443359375,0,0,1.6843750000000002
2.415267721999953,0,0,0.5865794067382812,0,0,0.30625
2.4170228510001834,0,0,1.2210428466796874,0,0,1.3015625000000002
2.418711239000004,0,0,2.712630480957031,0,0,1.9140625000000002
2.4204731629997696,0,0,2.607285607910156,0,0,2.3734375
2.4222441439997056,0,0,1.180341418457031,0,0,0.153125
2.4237857930002065,0,0,0.354341845703125,0,0,-1.990625
2.42540105199987,0,0,0.82360537109375,0,0,-0.22968750000000002
2.4270128309999563,0,0,1.8100164550781248,0,0,0.9953125
2.428841291000026,0,0,1.446097802734375,0,0,1.53125
2.4305220129999725,0,0,0.5339069702148437,0,0,1.3015625000000002
2.4321600499997658,0,0,0.0909796630859375,0,0,0.6890625
2.433714439999676,0,0,1.3383587280273437,0,0,0.22968750000000002
2.435405477000131,0,0,2.7341782958984373,0,0,0.8421875000000001
2.4371366790001048,0,0,3.1962592163085937,0,0,1.378125
2.43870608799989,0,0,1.3718775512695311,0,0,1.0718750000000001
2.4402896619994863,0,0,-0.13646949462890623,0,0,-0.9187500000000001
2.4421191049996196,0,0,0.8738836059570312,0,0,0.153125
2.443704419999449,0,0,1.5370774658203123,0,0,0.765625
2.445284847000039,0,0,0.9983820922851562,0,0,1.378125
2.4469104769996193,0,0,1.0582371337890624,0,0,0.30625
2.4489867499996762,0,0,0.5530605834960938,0,0,0.9187500000000001
2.4510402999994767,0,0,2.403778466796875,0,0,1.53125
2.4527658739998515,0,0,2.5043349365234375,0,0,2.75625
2.4545313170001464,0,0,1.4437036010742186,0,0,2.0671875
2.4561427990001903,0,0,0.6488286499023437,0,0,-0.9187500000000001
2.4578253170002426,0,0,1.1563994018554686,0,0,0.153125
2.459491149999849,0,0,1.8148048583984373,0,0,0.30625
2.4610212990000946,0,0,1.6424223388671875,0,0,1.53125
2.4626975769997443,0,0,0.8044517578125,0,0,0.8421875000000001
2.4643855949998397,0,0,0.22026655273437498,0,0,0.3828125
2.4661071310001716,0,0,0.8020575561523438,0,0,1.8375000000000001
2.4677868339995257,0,0,2.427720483398437,0,0,1.53125
2.469349778999458,0,0,2.389413256835937,0,0,1.7609375
2.470994241999506,0,0,1.2593500732421874,0,0,1.3015625000000002
2.472566464999545,0,0,0.2059013427734375,0,0,0.5359375000000001
2.4745861649998915,0,0,1.7453730102539062,0,0,1.53125
2.476322792999781,0,0,2.003946789550781,0,0,0.9953125
2.4784282509999684,0,0,1.139639990234375,0,0,1.1484375
2.4802252489998864,0,0,0.6512228515624999,0,0,0.6125
2.481860045999383,0,0,1.0917559570312498,0,0,0.9187500000000001
2.4837880610002685,0,0,2.3726538452148436,0,0,0.3828125
2.4855336709997573,0,0,2.2577321655273437,0,0,0.6890625
2.4873863719994915,0,0,0.5913678100585937,0,0,-9.1875
2.4891171859999304,0,0,-0.23223756103515625,0,0,0.6890625
2.4907871300001716,0,0,1.2282254516601563,0,0,0.30625
2.492319908999889,0,0,1.5083470458984374,0,0,1.3015625000000002
2.4940773709995483,0,0,1.4149731811523436,0,0,1.6078125
2.495823776999714,0,0,0.5961562133789062,0,0,0.6890625
2.4974093889995856,0,0,1.6903063720703124,0,0,1.0718750000000001
2.4989512229994943,0,0,2.437297290039062,0,0,1.6843750000000002
2.500684851999722,0,0,2.142810485839844,0,0,1.8375000000000001
2.5022465749998446,0,0,1.1707646118164061,0,0,0.9187500000000001
2.50377285400009,0,0,0.49320554199218747,0,0,-1.990625
2.5053110959997866,0,0,1.1348515869140625,0,0,9.646875000000001
2.50725829699968,0,0,1.7932570434570312,0,0,1.4546875000000001
2.5089394629994786,0,0,1.2282254516601563,0,0,1.7609375
2.5106141659998684,0,0,0.718260498046875,0,0,1.378125
2.5121946849994856,0,0,0.16041151123046873,0,0,0.5359375000000001
2.513861684999938,0,0,1.3000515014648437,0,0,0.45937500000000003
2.5154418149995763,0,0,2.7581203125,0,0,1.0718750000000001
2.5169809279996116,0,0,2.8203695556640622,0,0,1.8375000000000001
2.518719611999586,0,0,1.3263877197265623,0,0,0.765625
2.5203747039995505,0,0,0.023942016601562498,0,0,-0.6890625
2.521916945999692,0,0,1.218648645019531,0,0,-0.3828125
2.5239827189998323,0,0,1.8148048583984373,0,0,9.5703125
2.525699273999635,0,0,1.3359645263671873,0,0,1.1484375
2.5272817559998657,0,0,0.1197100830078125,0,0,1.0718750000000001
2.5292380119999507,0,0,0.13646949462890623,0,0,0.8421875000000001
2.5308478269998886,0,0,1.8507178833007811,0,0,1.6843750000000002
2.5324351979998028,0,0,2.5378537597656248,0,0,1.8375000000000001
2.5340989569995145,0,0,2.2194249389648437,0,0,9.5703125
2.5357696789997135,0,0,0.948103857421875,0,0,0.30625
2.537348345999817,0,0,1.5442600708007812,0,0,0.765625
2.5389942909996535,0,0,1.5849614990234373,0,0,0.6125
2.5406656979994295,0,0,1.6735469604492186,0,0,0.765625
2.542341696999756,0,0,0.6655880615234374,0,0,0.765625
2.54402501200002,0,0,0.076614453125,0,0,-0.6125
2.5455867529999523,0,0,0.9265560424804687,0,0,0.765625
2.5472986599997967,0,0,2.3151930053710936,0,0,1.1484375
2.548935937999886,0,0,2.291250988769531,0,0,1.8375000000000001
2.5506053449998944,0,0,1.01514150390625,0,0,1.1484375
2.5523694180001257,0,0,0.13646949462890623,0,0,-0.3828125
2.5539969359997485,0,0,1.2785036865234374,0,0,-0.22968750000000002
2.555730138999934,0,0,2.300827795410156,0,0,1.8375000000000001
2.5573475649998727,0,0,1.8435352783203125,0,0,2.1437500000000003
2.558948621000127,0,0,1.0295067138671874,0,0,0.9187500000000001
2.56048730800012,0,0,0.15562310791015624,0,0,0.22968750000000002
2.562466655999742,0,0,2.3439234252929686,0,0,1.8375000000000001
2.5649179800002457,0,0,2.4660277099609376,0,0,1.4546875000000001
2.5667403299994476,0,0,1.1109095703125,0,0,1.4546875000000001
2.568320182000207,0,0,-0.1388636962890625,0,0,-0.8421875000000001
2.5699457009995967,0,0,1.0271125122070313,0,0,0.22968750000000002
2.571495461000268,0,0,1.905784521484375,0,0,1.53125
2.573038722000092,0,0,1.7812860351562498,0,0,2.9859375000000004
2.5750505329997395,0,0,1.1516109985351561,0,0,0.3828125
2.5767263649995584,0,0,0.8116343627929687,0,0,0.5359375000000001
2.578678046999812,0,0,2.4851813232421875,0,0,0.9953125
2.5812806849999106,0,0,1.8243816650390623,0,0,0.9953125
2.5830034239997985,0,0,0.7876923461914062,0,0,1.225
2.5846456279996346,0,0,-0.181959326171875,0,0,0.9953125
2.586469570999725,0,0,1.8555062866210936,0,0,0.45937500000000003
2.5880480899995746,0,0,2.1068974609374997,0,0,1.225
2.5897653479996734,0,0,1.2761094848632812,0,0,1.9140625000000002
2.591704141000264,0,0,0.3806780639648437,0,0,0.765625
2.593296344999544,0,0,1.8555062866210936,0,0,1.6843750000000002
2.595032510999772,0,0,2.77727392578125,0,0,0.9953125
2.596721435999825,0,0,2.93050283203125,0,0,1.9140625000000002
2.5985748040002363,0,0,0.8810662109374999,0,0,1.0718750000000001
2.6002254149998407,0,0,0.040701428222656245,0,0,-0.8421875000000001
2.601960359000259,0,0,0.9816226806640624,0,0,0.30625
2.603566377999414,0,0,1.8028338500976562,0,0,0.45937500000000003
2.605095805000019,0,0,1.5634136840820312,0,0,1.53125
2.606839433999994,0,0,1.1635820068359375,0,0,0.9953125
2.608505229999537,0,0,0.5363011718749999,0,0,0.8421875000000001
2.610053637999954,0,0,1.7166425903320313,0,0,1.7609375
2.611646119999932,0,0,2.39420166015625,0,0,1.7609375
2.613381008000033,0,0,1.8148048583984373,0,0,1.6843750000000002
2.615036451999913,0,0,0.9504980590820312,0,0,1.225
2.61657165699944,0,0,0.316034619140625,0,0,-0.30625
2.61815210199984,0,0,1.484405029296875,0,0,0.9187500000000001
2.619769509999969,0,0,2.1787235107421874,0,0,1.4546875000000001
2.6213226780000696,0,0,1.4101847778320311,0,0,2.0671875
2.622906845000216,0,0,0.82360537109375,0,0,0.9953125
2.6245633259995884,0,0,0.5698199951171875,0,0,0.6125
2.626216492999447,0,0,1.448492004394531,0,0,1.6078125
2.627788548999888,0,0,2.607285607910156,0,0,1.3015625000000002
2.629316087999541,0,0,1.68551796875,0,0,1.4546875000000001
2.6308994219998567,0,0,0.6248866333007812,0,0,0.8421875000000001
2.632601643000271,0,0,-0.41898529052734373,0,0,9.034375
2.6342194580001888,0,0,1.1755530151367186,0,0,9.034375
2.6358591809994323,0,0,2.442085693359375,0,0,1.9140625000000002
2.637788381000064,0,0,1.9321207397460936,0,0,2.1437500000000003
2.6394194369995603,0,0,0.258573779296875,0,0,2.1437500000000003
2.6411666949998107,0,0,0.2346317626953125,0,0,0.8421875000000001
2.6429290819996822,0,0,2.4013842651367185,0,0,0.9187500000000001
2.644681488999595,0,0,2.5234885498046875,0,0,1.990625
2.6464770610000414,0,0,1.1923124267578125,0,0,0.765625
2.648063562000061,0,0,-0.09337386474609374,0,0,-0.45937500000000003
2.6497799869994196,0,0,0.7254431030273437,0,0,-0.30625
2.651406912999846,0,0,1.8124106567382812,0,0,1.6843750000000002
2.6530925600000046,0,0,1.7381904052734374,0,0,2.8328125
2.6547065419999853,0,0,1.2138602416992186,0,0,1.990625
2.656314838999606,0,0,1.0295067138671874,0,0,1.378125
2.657956782999463,0,0,1.9105729248046874,0,0,1.990625
2.659621709000021,0,0,2.499546533203125,0,0,1.53125
2.661233097999684,0,0,2.4899697265625,0,0,1.3015625000000002
2.6627736370001003,0,0,1.0007762939453124,0,0,0.9953125
2.664295896999647,0,0,-0.16998831787109375,0,0,8.728125
2.666061339999942,0,0,0.8116343627929687,0,0,0.153125
2.6677538029998686,0,0,1.8243816650390623,0,0,1.3015625000000002
2.6694173759997284,0,0,1.4125789794921875,0,0,2.0671875
2.671069617000285,0,0,0.9097966308593749,0,0,1.378125
2.6727654679998523,0,0,0.7206546997070312,0,0,0.6125
2.674380968999685,0,0,2.5953145996093747,0,0,1.4546875000000001
2.676031635000072,0,0,2.6671406494140624,0,0,2.1437500000000003
2.6778144109994173,0,0,2.3774422485351563,0,0,0.6890625
2.6794265230000747,0,0,0.34237083740234375,0,0,0.153125
2.6809598390000247,0,0,-0.201112939453125,0,0,0.30625
2.6826521349994437,0,0,1.0462661254882812,0,0,0.30625
2.6842375979995268,0,0,1.5490484741210937,0,0,1.1484375
2.6857846729999437,0,0,1.2473790649414063,0,0,1.378125
2.6876598379994903,0,0,0.44532150878906246,0,0,1.0718750000000001
2.689358411000285,0,0,1.8124106567382812,0,0,0.9187500000000001
2.6909643369999685,0,0,2.4109610717773435,0,0,1.225
2.6927566499998647,0,0,2.3678654418945313,0,0,1.9140625000000002
2.694619591999981,0,0,1.2832920898437499,0,0,1.8375000000000001
2.6964169980001316,0,0,0.1771709228515625,0,0,-0.45937500000000003
2.698381272000006,0,0,1.4006079711914061,0,0,0.153125
2.701084444999651,0,0,1.3096283081054687,0,0,1.53125
2.7029238690001876,0,0,1.0007762939453124,0,0,1.7609375
2.7049354760001734,0,0,1.20667763671875,0,0,0.9953125
2.7068863429994963,0,0,2.6001030029296874,0,0,1.3015625000000002
2.7087358039998435,0,0,2.3127988037109373,0,0,1.6843750000000002
2.71050267299961,0,0,0.7900865478515624,0,0,0.6125
2.712229171999752,0,0,0.26815058593749996,0,0,-1.378125
2.713874134999969,0,0,0.6751648681640625,0,0,-0.6125
2.7156439299997146,0,0,1.7094599853515624,0,0,1.6078125
2.7173482250000234,0,0,1.4939818359375,0,0,2.296875
2.7191871300001367,0,0,0.9816226806640624,0,0,0.9953125
2.720902351999939,0,0,1.0271125122070313,0,0,1.0718750000000001
2.7226619799994296,0,0,2.4947581298828125,0,0,1.6843750000000002
2.724651827999878,0,0,2.398990063476562,0,0,1.990625
2.726218144000086,0,0,1.697488977050781,0,0,0.5359375000000001
2.7277468299998873,0,0,0.28012159423828126,0,0,-0.9187500000000001
2.729548440000144,0,0,0.8978256225585937,0,0,0.0
2.7312516609999875,0,0,1.2210428466796874,0,0,1.1484375
2.732857660999798,0,0,1.3359645263671873,0,0,1.990625
2.734669937000035,0,0,0.9121908325195311,0,0,1.1484375
2.736326993000148,0,0,1.43652099609375,0,0,1.1484375
2.737901826999405,0,0,2.1499930908203124,0,0,1.6843750000000002
2.7400357099995745,0,0,2.5905261962890624,0,0,1.53125
2.741763543000161,0,0,2.2026655273437497,0,0,0.8421875000000001
2.7434452830002556,0,0,0.12689268798828124,0,0,-8.957812500000001
2.7449865059998046,0,0,-0.28730419921875,0,0,0.0
2.7466072469997016,0,0,1.6543933471679686,0,0,-0.30625
2.7482053769999766,0,0,1.695094775390625,0,0,1.378125
2.749767414999951,0,0,1.2713210815429687,0,0,1.7609375
2.7513860819999536,0,0,0.2154781494140625,0,0,0.9953125
2.753034803999981,0,0,0.5961562133789062,0,0,1.53125
2.754635860000235,0,0,2.6982652709960937,0,0,2.296875
2.7562412309998763,0,0,2.683900061035156,0,0,2.1437500000000003
2.757879638999839,0,0,2.4157494750976563,0,0,0.9953125
2.7595875819997673,0,0,0.2753331909179687,0,0,0.0
2.7611533979998057,0,0,-0.17477672119140625,0,0,0.22968750000000002
2.762785860999429,0,0,1.438915197753906,0,0,0.45937500000000003
2.7644823049995466,0,0,1.8746598999023436,0,0,0.8421875000000001
2.766126878999785,0,0,1.3551181396484375,0,0,2.0671875
2.767743638999491,0,0,0.2561795776367187,0,0,0.9187500000000001
2.7692883990002883,0,0,0.6272808349609375,0,0,0.9953125
2.7710001949999423,0,0,2.3870190551757813,0,0,1.378125
2.7727200640001683,0,0,2.5139117431640625,0,0,2.296875
2.7743369529998745,0,0,1.1563994018554686,0,0,0.765625
2.7760778969995954,0,0,0.143652099609375,0,0,-0.9953125
2.777821746999507,0,0,1.235408056640625,0,0,0.22968750000000002
2.7795649499994397,0,0,1.8195932617187498,0,0,1.4546875000000001
2.781097672999749,0,0,1.235408056640625,0,0,1.6078125
2.7828080620001856,0,0,0.74699091796875,0,0,1.0718750000000001
2.7845059679993938,0,0,0.5434837768554687,0,0,0.6125
2.786099560999901,0,0,1.3096283081054687,0,0,1.53125
2.78794183699938,0,0,2.731784094238281,0,0,1.225
2.7897500019998915,0,0,2.3391350219726563,0,0,0.0
2.791438704999564,0,0,0.4381389038085937,0,0,-9.5703125
2.793367016999582,0,0,0.7302315063476562,0,0,0.22968750000000002
2.7951589409994995,0,0,1.446097802734375,0,0,0.8421875000000001
2.7968039589995897,0,0,1.7693150268554687,0,0,1.0718750000000001
2.798466403999555,0,0,0.7158662963867187,0,0,1.6078125
2.800013996999951,0,0,0.4429273071289062,0,0,1.0718750000000001
2.8018349769999986,0,0,1.9943699829101562,0,0,1.53125
2.803594752999743,0,0,2.528276953125,0,0,0.0765625
2.8055023979995894,0,0,2.224213342285156,0,0,0.6125
2.8073880439997083,0,0,0.3232172241210937,0,0,0.153125
2.8091446349999387,0,0,-0.04548983154296875,0,0,0.0765625
2.8109900029994606,0,0,1.3383587280273437,0,0,0.9187500000000001
2.812765871999545,0,0,1.1180921752929687,0,0,0.6890625
2.814414241999657,0,0,0.852335791015625,0,0,1.3015625000000002
2.8159851139998864,0,0,0.3184288208007812,0,0,1.7609375
2.8177075200001127,0,0,2.1116858642578125,0,0,1.990625
2.819309649999923,0,0,2.4875755249023435,0,0,1.1484375
2.820857392000107,0,0,2.327164013671875,0,0,1.8375000000000001
2.822542668999631,0,0,1.20667763671875,0,0,0.45937500000000003
2.8242420579999816,0,0,0.38786066894531246,0,0,-0.9187500000000001
2.8258411139995587,0,0,1.2114660400390624,0,0,0.3828125
2.827643333999731,0,0,1.5370774658203123,0,0,0.9953125
2.829590255999392,0,0,0.7829039428710937,0,0,1.7609375
2.8316842699996414,0,0,0.1580173095703125,0,0,0.6125
2.833887929999946,0,0,1.9728221679687499,0,0,0.6890625
2.835659687999396,0,0,2.829946362304687,0,0,1.6078125
2.837518407999596,0,0,2.288856787109375,0,0,1.378125
2.8393255539995153,0,0,1.2138602416992186,0,0,0.5359375000000001
2.8409608140000273,0,0,-0.06943184814453125,0,0,0.30625
2.8427129789997707,0,0,1.7094599853515624,0,0,0.5359375000000001
2.8444497189993854,0,0,1.467645617675781,0,0,0.6890625
2.8463433449996955,0,0,0.4644751220703125,0,0,1.4546875000000001
2.848201990999769,0,0,-0.10773907470703124,0,0,0.6125
2.8499932489994535,0,0,1.5873557006835937,0,0,1.6078125
2.8516498039998623,0,0,2.767697119140625,0,0,1.990625
2.853341062999789,0,0,2.8467057739257813,0,0,1.6843750000000002
2.855049783999675,0,0,1.180341418457031,0,0,0.9953125
2.8568085239994616,0,0,0.6368576416015624,0,0,9.646875000000001
2.8584958199999164,0,0,1.7238251953125,0,0,1.0718750000000001
2.8602225039994664,0,0,1.6352397338867186,0,0,0.6125
2.861931595999522,0,0,1.0079588989257813,0,0,1.225
2.8635886880001635,0,0,0.12689268798828124,0,0,0.9953125
2.8654709259999436,0,0,1.3144167114257812,0,0,0.5359375000000001
2.8671822219994283,0,0,2.370259643554687,0,0,1.4546875000000001
2.868860702999882,0,0,2.5450363647460934,0,0,1.378125
2.8705864799994742,0,0,1.0127473022460938,0,0,1.225
2.87219344299956,0,0,0.4477157104492187,0,0,-1.225
2.8739264979994914,0,0,1.3575123413085937,0,0,-1.378125
2.8756629039999098,0,0,2.080561242675781,0,0,1.7609375
2.877610511999592,0,0,1.3407529296874998,0,0,2.1437500000000003
2.8793078809994768,0,0,0.612915625,0,0,0.9187500000000001
2.881395968999641,0,0,1.2713210815429687,0,0,0.6125
2.8831270609998683,0,0,2.2026655273437497,0,0,2.0671875
2.884818708000239,0,0,2.612074011230469,0,0,2.296875
2.886621892000221,0,0,1.467645617675781,0,0,0.765625
2.88843644499957,0,0,-0.40222587890625,0,0,-0.9953125
2.8902124070000355,0,0,0.5985504150390625,0,0,0.0
2.8922916239998813,0,0,2.104503259277344,0,0,1.3015625000000002
2.8940467339998577,0,0,1.177947216796875,0,0,0.765625
2.8959017130000575,0,0,0.18914193115234373,0,0,0.9187500000000001
2.8976369900001373,0,0,1.438915197753906,0,0,0.6890625
2.8993461190002563,0,0,2.3487118286132813,0,0,1.7609375
2.901006877999862,0,0,2.281674182128906,0,0,1.6843750000000002
2.9034300539997275,0,0,0.44532150878906246,0,0,1.0718750000000001
2.9051796819994706,0,0,-0.16280571289062498,0,0,-1.990625
2.906881773999885,0,0,1.8028338500976562,0,0,0.0
2.908780493999984,0,0,2.032677209472656,0,0,1.4546875000000001
2.9106149729996105,0,0,0.6392518432617187,0,0,1.9140625000000002
2.912504543999603,0,0,0.2561795776367187,0,0,0.6125
2.9142710059995807,0,0,0.8547299926757812,0,0,0.5359375000000001
2.9162426689999847,0,0,2.6527754394531247,0,0,1.9140625000000002
2.917932409000059,0,0,2.427720483398437,0,0,2.3734375
2.919560835000084,0,0,1.1276689819335937,0,0,0.3828125
2.9211750209997263,0,0,0.3806780639648437,0,0,-0.30625
2.923186127999543,0,0,0.4860229370117187,0,0,1.225
2.924903256000107,0,0,2.0781670410156248,0,0,1.6078125
2.926716142999794,0,0,1.1755530151367186,0,0,0.6125
2.9282574779999777,0,0,0.8188169677734375,0,0,0.765625
2.9298080529997605,0,0,0.16280571289062498,0,0,0.9953125
2.9314201269999103,0,0,1.8818425048828125,0,0,0.8421875000000001
2.9330444239994904,0,0,2.8850130004882812,0,0,2.0671875
2.9350879189996704,0,0,2.147598889160156,0,0,1.378125
2.937159877999875,0,0,1.2832920898437499,0,0,0.0
2.9388211549994594,0,0,0.15562310791015624,0,0,-0.9187500000000001
2.9403850079997937,0,0,1.8243816650390623,0,0,0.5359375000000001
2.941912176000187,0,0,2.099714855957031,0,0,1.6078125
2.9435216020001462,0,0,0.9337386474609375,0,0,0.765625
2.9454276730002675,0,0,0.23702596435546874,0,0,0.0
2.94706924699949,0,0,0.43574470214843747,0,0,0.765625
2.94870482099941,0,0,1.4724340209960938,0,0,0.6125
2.9504552649996185,0,0,2.70065947265625,0,0,1.4546875000000001
2.952193893000185,0,0,2.0159177978515626,0,0,2.0671875
2.9539626699997825,0,0,0.9193734375,0,0,-0.8421875000000001
2.9557527790002496,0,0,0.277727392578125,0,0,9.034375
2.9586547829994743,0,0,2.3319524169921872,0,0,0.5359375000000001
2.9604338190001727,0,0,1.4963760375976562,0,0,1.4546875000000001
2.9626510719999715,0,0,0.469263525390625,0,0,0.9953125
2.9652454870001748,0,0,0.8116343627929687,0,0,-9.8
2.967409111000052,0,0,3.0454245117187497,0,0,1.990625
2.969386644000224,0,0,1.4963760375976562,0,0,1.6843750000000002
2.971440991000236,0,0,0.5458779785156249,0,0,0.30625
2.9731507129999954,0,0,0.17956512451171874,0,0,0.153125
2.9747607499994047,0,0,0.7996633544921875,0,0,0.0
2.976491507999526,0,0,2.5761609863281247,0,0,0.9953125
2.9783164319997013,0,0,2.068590234375,0,0,2.6031250000000004
2.9799117109996587,0,0,0.28490999755859375,0,0,1.1484375
2.981429155999649,0,0,0.63206923828125,0,0,-0.3828125
2.9830286750002415,0,0,1.0175357055664063,0,0,1.225
2.9848638769999525,0,0,2.592920397949219,0,0,2.2203125000000004
2.986812798999381,0,0,2.6216508178710938,0,0,1.53125
2.988439318000019,0,0,0.6536170532226562,0,0,0.9953125
2.990134057999967,0,0,0.20829554443359374,0,0,-0.765625
2.9918503720000444,0,0,0.584185205078125,0,0,-1.1484375
2.993849591000071,0,0,1.6711527587890624,0,0,1.4546875000000001
2.995906901000126,0,0,1.7645266235351562,0,0,2.9859375000000004
2.9975684929995623,0,0,0.2825157958984375,0,0,1.0718750000000001
2.999253807000059,0,0,0.3758896606445312,0,0,0.5359375000000001
3.0009393250002177,0,0,1.218648645019531,0,0,0.8421875000000001
3.00268799100013,0,0,2.300827795410156,0,0,1.1484375
3.004347267999947,0,0,3.0023288818359375,0,0,1.8375000000000001
3.0059946760002276,0,0,1.3838485595703125,0,0,1.4546875000000001
3.0077466189995903,0,0,0.5865794067382812,0,0,0.0
3.0095941720001065,0,0,0.5339069702148437,0,0,-0.153125
3.0112326720000056,0,0,0.7326257080078125,0,0,-0.153125
3.0129458009996597,0,0,1.6807295654296874,0,0,1.9140625000000002
3.0145656529994085,0,0,1.4628572143554686,0,0,2.5265625000000003
3.016145912999491,0,0,0.8954314208984374,0,0,1.1484375
3.0178300420002415,0,0,1.3000515014648437,0,0,1.0718750000000001
3.0195502639999177,0,0,1.6400281372070311,0,0,1.225
3.021169763999751,0,0,1.7860744384765623,0,0,0.9187500000000001
3.022825152999758,0,0,2.5426421630859375,0,0,2.1437500000000003
3.024430208999547,0,0,1.4891934326171874,0,0,1.9140625000000002
3.0261635970000498,0,0,0.7924807495117187,0,0,0.45937500000000003
3.028056631000254,0,0,0.7900865478515624,0,0,-0.6125
3.029781297000227,0,0,0.7110778930664062,0,0,0.22968750000000002
3.0314524260002145,0,0,1.47482822265625,0,0,1.4546875000000001
3.03317946199968,0,0,1.637633935546875,0,0,1.9140625000000002
3.0347546849998253,0,0,1.0558429321289062,0,0,1.6843750000000002
3.036481442999502,0,0,1.5322890624999999,0,0,1.6843750000000002
3.038208109000152,0,0,1.2378022583007813,0,0,0.3828125
3.039825480000218,0,0,1.5801730957031248,0,0,0.45937500000000003
3.041381220999938,0,0,1.7334020019531249,0,0,1.8375000000000001
3.043071850999695,0,0,2.0254946044921875,0,0,1.6843750000000002
3.044759423999494,0,0,0.9744400756835937,0,0,0.5359375000000001
3.046340998999767,0,0,0.7445967163085937,0,0,0.0
3.0479321109996818,0,0,0.612915625,0,0,0.153125
3.049598535999394,0,0,0.7134720947265625,0,0,-9.49375
3.051219981000031,0,0,1.0917559570312498,0,0,1.8375000000000001
3.0527818149994346,0,0,1.5658078857421873,0,0,1.8375000000000001
3.0543190569997023,0,0,1.2952630981445312,0,0,1.53125
3.055896058000144,0,0,0.9313444458007812,0,0,2.0671875
3.0576573339994866,0,0,1.5538368774414062,0,0,0.765625
3.0592455019996123,0,0,1.915361328125,0,0,1.378125
3.0608832979996805,0,0,2.142810485839844,0,0,1.53125
3.0625326310000673,0,0,1.68551796875,0,0,1.225
3.0641091319994302,0,0,1.1013327636718748,0,0,-0.153125
3.065762002000156,0,0,0.5674257934570313,0,0,0.3828125
3.067480316000001,0,0,0.7398083129882812,0,0,0.0
3.0690191879994018,0,0,0.7038952880859375,0,0,0.0765625
3.070650150999427,0,0,1.0630255371093749,0,0,0.765625
3.072313984000175,0,0,1.4628572143554686,0,0,0.9187500000000001
3.073897150999983,0,0,1.4317325927734375,0,0,1.3015625000000002
3.0754265039995516,0,0,0.8667010009765624,0,0,0.9187500000000001
3.0772663359994112,0,0,1.5969325073242187,0,0,0.22968750000000002
3.0788884839994353,0,0,2.1068974609374997,0,0,1.1484375
3.0804203190000408,0,0,2.070984436035156,0,0,1.53125
3.082657367000138,0,0,1.5801730957031248,0,0,1.53125
3.0845585500001107,0,0,0.33039982910156246,0,0,0.30625
3.0862194940000336,0,0,0.17477672119140625,0,0,0.153125
3.087763384000027,0,0,0.7876923461914062,0,0,0.3828125
3.08950791999996,0,0,0.833182177734375,0,0,0.0765625
3.091249252000125,0,0,0.8499415893554687,0,0,1.8375000000000001
3.0929782880002676,0,0,1.3742717529296875,0,0,1.6078125
3.094954191999932,0,0,1.3215993164062498,0,0,1.4546875000000001
3.0968308740002612,0,0,1.838746875,0,0,-8.192187500000001
3.098504855000101,0,0,1.8722656982421875,0,0,0.5359375000000001
3.1001313739998295,0,0,2.0757728393554684,0,0,1.225
3.10181963299965,0,0,2.0374656127929685,0,0,0.8421875000000001
3.103429077999863,0,0,1.5418658691406248,0,0,0.765625
3.1050114299996494,0,0,1.0773907470703123,0,0,-0.6890625
3.1070523150001463,0,0,0.6967126831054687,0,0,0.0
3.10881136900025,0,0,0.031124621582031248,0,0,9.5703125
3.110492238999541,0,0,1.0654197387695312,0,0,0.0
3.1125002899998435,0,0,1.2832920898437499,0,0,1.4546875000000001
3.114138308999827,0,0,1.6927005737304686,0,0,2.1437500000000003
3.1157075689998237,0,0,1.5538368774414062,0,0,2.45
3.117348699000104,0,0,1.2928688964843749,0,0,1.1484375
3.119047567999587,0,0,1.5490484741210937,0,0,0.6890625
3.1206058469997515,0,0,2.1835119140624997,0,0,1.225
3.122268680000161,0,0,2.185906115722656,0,0,0.0765625
3.123859829000139,0,0,1.924938134765625,0,0,0.153125
3.1258586579997427,0,0,0.8786720092773437,0,0,1.1484375
3.127509547000045,0,0,0.3232172241210937,0,0,0.0
3.1291438059997745,0,0,0.6464344482421874,0,0,-9.8
3.1309160639993934,0,0,0.8906430175781249,0,0,0.30625
3.1325359160000517,0,0,0.8571241943359375,0,0,0.3828125
3.1341530089994194,0,0,1.1085153686523437,0,0,1.9140625000000002
3.135835897999641,0,0,1.484405029296875,0,0,1.6843750000000002
3.137488397999732,0,0,1.4867992309570313,0,0,2.296875
3.1391301009998642,0,0,1.2808978881835937,0,0,1.0718750000000001
3.140888377999545,0,0,1.8028338500976562,0,0,0.5359375000000001
3.142497674999504,0,0,1.848323681640625,0,0,0.9187500000000001
3.144203748000109,0,0,1.675941162109375,0,0,0.9953125
3.1463986680000744,0,0,1.5490484741210937,0,0,1.225
3.148112036999919,0,0,0.7805097412109374,0,0,0.765625
3.1497948520000136,0,0,0.40940848388671874,0,0,0.0765625
3.151565219999611,0,0,1.0007762939453124,0,0,0.153125
3.153144443000201,0,0,1.2976572998046874,0,0,0.9187500000000001
3.1550053669998306,0,0,1.3000515014648437,0,0,1.1484375
3.156680736999988,0,0,1.608903515625,0,0,1.225
3.1583536070002083,0,0,1.5658078857421873,0,0,1.225
3.1601736599996,0,0,1.5251064575195312,0,0,0.9187500000000001
3.1617732169997907,0,0,1.2832920898437499,0,0,0.9187500000000001
3.16341753100005,0,0,2.01112939453125,0,0,0.30625
3.165192788999775,0,0,1.9105729248046874,0,0,0.765625
3.1669010659998094,0,0,1.6328455322265625,0,0,1.1484375
3.1684845109994058,0,0,1.3192051147460937,0,0,1.378125
3.1703787309998006,0,0,1.0510545288085937,0,0,1.4546875000000001
3.172391948999575,0,0,0.6081272216796875,0,0,0.0
3.174068373999944,0,0,1.3958195678710936,0,0,0.0
3.175719021999612,0,0,1.5203180541992187,0,0,1.0718750000000001
3.177639427000031,0,0,1.0630255371093749,0,0,1.0718750000000001
3.179281500999423,0,0,0.8212111694335937,0,0,1.0718750000000001
3.1808971119999114,0,0,1.3575123413085937,0,0,0.9187500000000001
3.182491741999911,0,0,1.467645617675781,0,0,1.1484375
3.1845766449996518,0,0,1.3239935180664062,0,0,1.1484375
3.1863314209995224,0,0,1.6615759521484375,0,0,0.8421875000000001
3.187886292999792,0,0,1.7286135986328124,0,0,0.6125
3.1895152560000497,0,0,1.4604630126953124,0,0,1.225
3.191144718999567,0,0,1.1540052001953125,0,0,1.378125
3.192779533999783,0,0,0.9121908325195311,0,0,0.6125
3.1944584590000886,0,0,1.0606313354492187,0,0,1.1484375
3.1962029400001484,0,0,0.9217676391601562,0,0,0.3828125
3.1978824019997774,0,0,1.5059528442382812,0,0,0.8421875000000001
3.1998541759994623,0,0,1.2521674682617188,0,0,0.6125
3.2014976579994254,0,0,0.5722141967773438,0,0,0.6890625
3.203101324999807,0,0,0.55545478515625,0,0,1.4546875000000001
3.2047264359998735,0,0,1.6472107421875,0,0,2.0671875
3.2064804159999767,0,0,1.8938135131835936,0,0,1.6843750000000002
3.2081412500001534,0,0,1.3120225097656248,0,0,0.765625
3.209757472000092,0,0,1.2378022583007813,0,0,0.9953125
3.2113440100001753,0,0,1.5586252807617187,0,0,0.8421875000000001
3.2129452879999008,0,0,1.9871873779296874,0,0,1.9140625000000002
3.2145525480000288,0,0,1.4820108276367188,0,0,1.378125
3.2160708080000404,0,0,1.1013327636718748,0,0,1.1484375
3.2180164350002087,0,0,1.1540052001953125,0,0,1.0718750000000001
3.2197200629998406,0,0,0.8475473876953125,0,0,0.153125
3.221648670999457,0,0,1.446097802734375,0,0,0.8421875000000001
3.2233712449997256,0,0,1.637633935546875,0,0,0.8421875000000001
3.225070298999526,0,0,1.209071838378906,0,0,0.8421875000000001
3.2268057430001136,0,0,0.8044517578125,0,0,0.5359375000000001
3.228650240999741,0,0,1.388636962890625,0,0,1.225
3.230425312999614,0,0,1.714248388671875,0,0,1.225
3.232065573,0,0,1.2856862915039062,0,0,0.9187500000000001
3.233817755999553,0,0,1.2282254516601563,0,0,-0.3828125
3.2354550899999595,0,0,1.7980454467773437,0,0,0.45937500000000003
3.237147496999569,0,0,2.2960393920898436,0,0,1.0718750000000001
3.2389185140000336,0,0,1.3407529296874998,0,0,1.3015625000000002
3.240536792000057,0,0,0.93852705078125,0,0,0.9187500000000001
3.243009486000119,0,0,1.3024457031249999,0,0,1.378125
3.244730855999478,0,0,1.3479355346679687,0,0,0.8421875000000001
3.2464131890001227,0,0,1.1875240234375,0,0,1.1484375
3.248235093999938,0,0,1.6639701538085936,0,0,0.153125
3.2498708160001115,0,0,0.948103857421875,0,0,0.765625
3.251818146000005,0,0,0.603338818359375,0,0,0.30625
3.253436775999944,0,0,0.6081272216796875,0,0,0.22968750000000002
3.255109719999382,0,0,1.7453730102539062,0,0,0.9187500000000001
3.256854960000055,0,0,1.8100164550781248,0,0,1.6078125
3.2591728970000986,0,0,0.8164227661132812,0,0,1.225
3.260917450999841,0,0,1.2473790649414063,0,0,0.765625
3.262523950999821,0,0,1.8028338500976562,0,0,0.6125
3.2642621909999434,0,0,1.7693150268554687,0,0,0.765625
3.265907301999505,0,0,1.0103531005859374,0,0,0.6890625
3.2675000809995254,0,0,1.1659762084960936,0,0,0.9953125
3.269115487999443,0,0,1.4987702392578124,0,0,0.9187500000000001
3.270999800000027,0,0,1.3192051147460937,0,0,0.9187500000000001
3.272971425999458,0,0,1.0893617553710937,0,0,1.378125
3.274600537999504,0,0,1.5753846923828123,0,0,1.8375000000000001
3.2762147419998655,0,0,1.3934253662109375,0,0,0.6890625
3.277930981999816,0,0,0.9074024291992187,0,0,0.3828125
3.279639665999639,0,0,0.5889736083984375,0,0,-0.22968750000000002
3.2813149619996693,0,0,1.024718310546875,0,0,1.4546875000000001
3.2829593879996537,0,0,1.6711527587890624,0,0,1.6843750000000002
3.2845952400002716,0,0,1.235408056640625,0,0,1.9140625000000002
3.286281517000134,0,0,0.8667010009765624,0,0,0.765625
3.2879427389998455,0,0,1.2641384765625,0,0,0.765625
3.2895633319994886,0,0,2.070984436035156,0,0,1.0718750000000001
3.291247461000239,0,0,1.8339584716796873,0,0,0.9953125
3.293137329000274,0,0,0.9504980590820312,0,0,2.3734375
3.2948464760002025,0,0,0.86191259765625,0,0,0.153125
3.2965447899996434,0,0,2.0829554443359375,0,0,0.8421875000000001
3.2984052319998227,0,0,1.7022773803710936,0,0,1.3015625000000002
3.3001888789995064,0,0,1.1635820068359375,0,0,0.8421875000000001
3.302190911999787,0,0,1.3144167114257812,0,0,0.45937500000000003
3.3039178369999718,0,0,1.4173673828125,0,0,0.0
3.3055575589996806,0,0,1.0438719238281249,0,0,0.30625
3.30720052200013,0,0,1.189918225097656,0,0,-0.30625
3.30885959599982,0,0,1.1875240234375,0,0,0.8421875000000001
3.3104701519996524,0,0,1.6208745239257811,0,0,1.4546875000000001
3.3124857769998926,0,0,1.199495031738281,0,0,1.4546875000000001
3.3141399440000896,0,0,0.948103857421875,0,0,0.45937500000000003
3.31572849999975,0,0,1.0702081420898437,0,0,0.22968750000000002
3.317415387999972,0,0,1.9871873779296874,0,0,1.225
3.319047610999405,0,0,1.8938135131835936,0,0,1.0718750000000001
3.3206352409997635,0,0,1.0295067138671874,0,0,1.3015625000000002
3.3222803520002344,0,0,0.7685387329101562,0,0,0.45937500000000003
3.323878018999494,0,0,0.8978256225585937,0,0,-0.765625
3.3255114639996464,0,0,1.917755529785156,0,0,0.6890625
3.3271828150000147,0,0,2.1404162841796874,0,0,1.1484375
3.32882103799966,0,0,0.9265560424804687,0,0,0.765625
3.330617646999599,0,0,1.0989385620117187,0,0,0.6125
3.3325972539996656,0,0,1.4820108276367188,0,0,0.9187500000000001
3.334954117000052,0,0,1.1635820068359375,0,0,0.0765625
3.337208850999559,0,0,0.8595183959960937,0,0,0.765625
3.339007552000112,0,0,1.5227122558593749,0,0,1.7609375
3.3406178859995634,0,0,1.8818425048828125,0,0,1.53125
3.342243959999905,0,0,1.6735469604492186,0,0,1.4546875000000001
3.3440673289996994,0,0,0.8020575561523438,0,0,0.153125
3.345787661000031,0,0,1.180341418457031,0,0,0.22968750000000002
3.347628900000018,0,0,1.3263877197265623,0,0,1.53125
3.349344473000201,0,0,1.5514426757812498,0,0,0.6125
3.351382468999873,0,0,1.5203180541992187,0,0,1.3015625000000002
3.3531867629999397,0,0,1.1228805786132812,0,0,0.9953125
3.3551272779995998,0,0,1.85790048828125,0,0,1.3015625000000002
3.3572218469998916,0,0,1.6400281372070311,0,0,0.8421875000000001
3.3591121409999687,0,0,0.49320554199218747,0,0,0.0
3.3610579340002005,0,0,1.446097802734375,0,0,0.3828125
3.362835950999397,0,0,2.195482922363281,0,0,1.53125
3.3645605049996448,0,0,1.2497732666015624,0,0,1.7609375
3.366619907999848,0,0,0.3687070556640625,0,0,0.0765625
3.3684913679999227,0,0,0.8834604125976562,0,0,0.8421875000000001
3.370484346000012,0,0,2.288856787109375,0,0,1.6078125
3.3722292339998603,0,0,2.530671154785156,0,0,1.6843750000000002
3.3739264369996818,0,0,0.9720458740234375,0,0,0.5359375000000001
3.375628009999673,0,0,0.411802685546875,0,0,-0.9187500000000001
3.3773109730000215,0,0,1.5897499023437498,0,0,0.0
3.378993156999968,0,0,2.398990063476562,0,0,0.765625
3.3806343059995925,0,0,1.5394716674804687,0,0,0.9187500000000001
3.3823543419994166,0,0,1.0079588989257813,0,0,0.6125
3.3840490450002108,0,0,0.20829554443359374,0,0,-1.1484375
3.3857407479999893,0,0,1.1324573852539062,0,0,-9.8
3.387485209999795,0,0,2.7581203125,0,0,1.1484375
3.3892965039995033,0,0,1.7286135986328124,0,0,1.378125
3.3909171159994003,0,0,0.7733271362304687,0,0,1.53125
3.392666965999524,0,0,1.1013327636718748,0,0,-9.264062500000001
3.394228966999435,0,0,0.9576806640625,0,0,0.0765625
3.3961433899994518,0,0,2.094926452636719,0,0,0.9953125
3.3977784090002388,0,0,1.5251064575195312,0,0,0.0765625
3.399848125999597,0,0,0.5770026000976562,0,0,-0.22968750000000002
3.4021963959994537,0,0,0.9552864624023437,0,0,0.30625
3.4038542849993974,0,0,1.7214309936523438,0,0,0.3828125
3.40565418999995,0,0,1.6136919189453125,0,0,0.0
3.4072884500001237,0,0,1.5394716674804687,0,0,0.3828125
3.4088188949999676,0,0,1.1707646118164061,0,0,-9.49375
3.4104439140000977,0,0,1.3335703247070312,0,0,-0.30625
3.4120485069997812,0,0,1.7669208251953124,0,0,0.6890625
3.4135809899999003,0,0,1.9608511596679685,0,0,0.6890625
3.4152011199994377,0,0,1.5394716674804687,0,0,-0.3828125
3.4169725809997544,0,0,0.9217676391601562,0,0,9.264062500000001
3.418514379000044,0,0,0.8906430175781249,0,0,0.0765625
3.4200546579995716,0,0,0.9840168823242187,0,0,0.0765625
3.4217779350001365,0,0,1.6232687255859375,0,0,0.0765625
3.423388176000117,0,0,1.8267758666992187,0,0,2.1437500000000003
3.424983787000201,0,0,1.446097802734375,0,0,1.1484375
3.4266069360000984,0,0,1.1827356201171875,0,0,0.6890625
3.428222046999508,0,0,1.0342951171875,0,0,0.9187500000000001
3.429772566999418,0,0,1.5227122558593749,0,0,0.9953125
3.432103596000161,0,0,1.8722656982421875,0,0,0.5359375000000001
3.4337319480000588,0,0,1.24498486328125,0,0,9.034375
3.4356904070000382,0,0,0.584185205078125,0,0,0.6125
3.437779791000139,0,0,0.8954314208984374,0,0,0.30625
3.439493752999624,0,0,1.43652099609375,0,0,0.8421875000000001
3.4412079749999975,0,0,1.5466542724609373,0,0,1.4546875000000001
3.443190840999705,0,0,1.3551181396484375,0,0,1.378125
3.44480811899939,0,0,1.0390835205078124,0,0,0.9187500000000001
3.4464004900000873,0,0,1.0342951171875,0,0,0.9187500000000001
3.448009842999454,0,0,1.3407529296874998,0,0,0.5359375000000001
3.4495461030001024,0,0,1.7381904052734374,0,0,1.0718750000000001
3.451164252000126,0,0,1.7405846069335937,0,0,0.8421875000000001
3.4528898429998662,0,0,1.1516109985351561,0,0,0.765625
3.4544897139994646,0,0,0.8547299926757812,0,0,0.765625
3.4561362329995973,0,0,0.8307879760742187,0,0,0.0765625
3.4577902880000693,0,0,1.3742717529296875,0,0,0.9187500000000001
3.4595067319996815,0,0,1.6831237670898436,0,0,0.765625
3.461180434999733,0,0,1.675941162109375,0,0,1.3015625000000002
3.4628412129995922,0,0,0.967257470703125,0,0,1.53125
3.4645689889994173,0,0,0.9648632690429687,0,0,0.6890625
3.466153231000135,0,0,1.1180921752929687,0,0,0.3828125
3.467678083999999,0,0,1.6831237670898436,0,0,0.8421875000000001
3.469284324999535,0,0,1.6998831787109374,0,0,0.9187500000000001
3.471546928999487,0,0,0.9959878906249999,0,0,0.6890625
3.473622073000115,0,0,0.7445967163085937,0,0,-0.6890625
3.475355219999983,0,0,0.8690952026367187,0,0,0.0
3.4769538869995813,0,0,1.6735469604492186,0,0,0.3828125
3.478547423999771,0,0,1.7525556152343749,0,0,1.1484375
3.4801689249998162,0,0,1.6304513305664061,0,0,1.225
3.4817604989993924,0,0,1.429338391113281,0,0,1.0718750000000001
3.4835582569994585,0,0,1.0319009155273438,0,0,-9.5703125
3.4852611269998306,0,0,1.1875240234375,0,0,1.6078125
3.486840423999638,0,0,1.879448303222656,0,0,0.45937500000000003
3.4883959429998868,0,0,1.6232687255859375,0,0,0.8421875000000001
3.490017629000249,0,0,1.419761584472656,0,0,0.9187500000000001
3.491707053999562,0,0,1.1755530151367186,0,0,1.0718750000000001
3.493326146999607,0,0,0.9935936889648437,0,0,1.6843750000000002
3.494994294999742,0,0,0.8499415893554687,0,0,0.0765625
3.4967054239996287,0,0,1.4700398193359374,0,0,0.6125
3.4985230699994645,0,0,1.7022773803710936,0,0,0.8421875000000001
3.5002489389999027,0,0,1.5298948608398437,0,0,1.3015625000000002
3.501983141999517,0,0,1.3096283081054687,0,0,0.8421875000000001
3.5038384729996324,0,0,1.2401964599609374,0,0,-0.22968750000000002
3.5054152329994395,0,0,1.235408056640625,0,0,0.5359375000000001
3.5070901029994275,0,0,1.62805712890625,0,0,0.45937500000000003
3.5087720840001566,0,0,1.4245499877929686,0,0,0.30625
3.510391379999419,0,0,1.24498486328125,0,0,0.9187500000000001
3.512075879999429,0,0,1.254561669921875,0,0,0.5359375000000001
3.513826712000082,0,0,1.3048399047851562,0,0,0.0
3.5154457489998094,0,0,1.3311761230468748,0,0,0.9187500000000001
3.5169826020000983,0,0,1.5251064575195312,0,0,0.6125
3.5185093069994764,0,0,1.2521674682617188,0,0,0.30625
3.5201249000001553,0,0,1.1635820068359375,0,0,-9.034375
3.521812621999743,0,0,1.3120225097656248,0,0,1.0718750000000001
3.5234000299997206,0,0,1.5011644409179687,0,0,1.53125
3.5250309189996187,0,0,1.4101847778320311,0,0,1.0718750000000001
3.526751991999845,0,0,1.3766659545898436,0,0,0.8421875000000001
3.528300197000135,0,0,0.9361328491210937,0,0,0.3828125
3.5298871790000703,0,0,1.1133037719726562,0,0,0.22968750000000002
3.5315759750001234,0,0,1.7788918334960937,0,0,0.6125
3.5331817529995533,0,0,1.5610194824218748,0,0,0.9187500000000001
3.5347928459996183,0,0,1.1324573852539062,0,0,0.8421875000000001
3.5365227530000993,0,0,1.235408056640625,0,0,1.0718750000000001
3.5381311969995295,0,0,1.0007762939453124,0,0,0.9187500000000001
3.5397059199995056,0,0,1.1755530151367186,0,0,0.5359375000000001
3.541411956999582,0,0,1.39821376953125,0,0,0.765625
3.543034624000029,0,0,1.4245499877929686,0,0,1.3015625000000002
3.5445909579993895,0,0,1.446097802734375,0,0,1.0718750000000001
3.5461225150002065,0,0,1.455674609375,0,0,0.9187500000000001
3.547826735999479,0,0,1.139639990234375,0,0,1.3015625000000002
3.549539179999556,0,0,1.1444283935546875,0,0,0.6890625
3.55119656900024,0,0,1.3551181396484375,0,0,0.153125
3.552831086999504,0,0,1.35990654296875,0,0,1.1484375
3.554470549999678,0,0,1.4101847778320311,0,0,0.9187500000000001
3.5560028109994164,0,0,1.5562310791015623,0,0,0.6890625
3.5576246629998423,0,0,1.180341418457031,0,0,-9.034375
3.5593248850000236,0,0,1.120486376953125,0,0,0.8421875000000001
3.5609322179998344,0,0,0.928950244140625,0,0,0.30625
3.562551699999858,0,0,1.1731588134765625,0,0,-9.1109375
3.5641460709994135,0,0,1.2856862915039062,0,0,0.3828125
3.565714479000235,0,0,1.5394716674804687,0,0,0.8421875000000001
3.5673683309996704,0,0,1.7549498168945312,0,0,1.0718750000000001
3.568932534999476,0,0,1.3072341064453123,0,0,0.3828125
3.5705063879995578,0,0,0.8978256225585937,0,0,0.6890625
3.572357793000265,0,0,1.0127473022460938,0,0,0.3828125
3.5740501820000645,0,0,1.39821376953125,0,0,0.5359375000000001
3.5755994049995934,0,0,1.5538368774414062,0,0,1.1484375
3.57725807099996,0,0,1.5346832641601562,0,0,0.8421875000000001
3.578981829999975,0,0,1.2832920898437499,0,0,0.9953125
3.5806294409994734,0,0,1.4030021728515625,0,0,0.9187500000000001
3.5825790110002345,0,0,1.5011644409179687,0,0,1.1484375
3.584770913000284,0,0,1.1611878051757811,0,0,0.0
3.5865501700000095,0,0,1.2306196533203124,0,0,0.22968750000000002
3.5881911890000993,0,0,1.0175357055664063,0,0,0.6890625
3.5900351129994306,0,0,1.3072341064453123,0,0,1.225
3.5938248849997763,0,0,1.4245499877929686,0,0,-0.153125
3.595584013000007,0,0,1.3431471313476562,0,0,0.8421875000000001
3.5972851229998923,0,0,1.6065093139648436,0,0,0.8421875000000001
3.598849717000121,0,0,1.22583125,0,0,0.765625
3.6010745809999207,0,0,1.1468225952148436,0,0,0.22968750000000002
3.602764320999995,0,0,1.0462661254882812,0,0,1.0718750000000001
3.604509226999653,0,0,1.3742717529296875,0,0,1.6843750000000002
3.606249800000114,0,0,1.39821376953125,0,0,1.1484375
3.6078850220001186,0,0,1.458068811035156,0,0,1.1484375
3.61034816099982,0,0,1.35990654296875,0,0,0.765625
3.6122491030000674,0,0,1.2808978881835937,0,0,0.3828125
3.6147031860000425,0,0,1.3168109130859373,0,0,0.5359375000000001
3.6165587770001366,0,0,1.438915197753906,0,0,0.5359375000000001
3.618751641000017,0,0,1.1635820068359375,0,0,0.5359375000000001
3.6204212149996238,0,0,0.9864110839843749,0,0,0.9187500000000001
3.622093529000267,0,0,1.1707646118164061,0,0,0.9187500000000001
3.6236687330001587,0,0,1.448492004394531,0,0,0.0
3.6252129200001946,0,0,1.5155296508789062,0,0,1.0718750000000001
3.627059268999801,0,0,1.7932570434570312,0,0,0.5359375000000001
3.6286991580000176,0,0,1.2808978881835937,0,0,0.6125
3.6302998249993834,0,0,1.0175357055664063,0,0,0.5359375000000001
3.6321282310000242,0,0,1.0845733520507812,0,0,0.22968750000000002
3.633753971999795,0,0,1.350329736328125,0,0,9.49375
3.635353749999922,0,0,1.4628572143554686,0,0,0.6890625
3.6373296539995863,0,0,1.5514426757812498,0,0,1.0718750000000001
3.639190187999702,0,0,1.24498486328125,0,0,1.0718750000000001
3.6408181879996846,0,0,1.3239935180664062,0,0,0.8421875000000001
3.6424588179997954,0,0,1.6543933471679686,0,0,0.3828125
3.6439944859994284,0,0,1.7525556152343749,0,0,0.0
3.645514727999398,0,0,1.3718775512695311,0,0,0.6890625
3.647112616999948,0,0,1.5418658691406248,0,0,0.45937500000000003
3.6491062619998047,0,0,1.0510545288085937,0,0,0.3828125
3.650704446999953,0,0,0.8954314208984374,0,0,0.22968750000000002
3.6522900039999513,0,0,1.0295067138671874,0,0,0.0
3.653916243999447,0,0,1.2569558715820313,0,0,0.45937500000000003
3.655608725000093,0,0,1.4508862060546874,0,0,1.0718750000000001
3.6571345599995766,0,0,1.8148048583984373,0,0,1.378125
3.658972798999457,0,0,1.5777788940429687,0,0,1.0718750000000001
3.660644112999762,0,0,1.5203180541992187,0,0,0.6125
3.6625335359995006,0,0,1.4772224243164063,0,0,0.153125
3.664266683000278,0,0,1.235408056640625,0,0,1.0718750000000001
3.666114976999779,0,0,1.2378022583007813,0,0,0.45937500000000003
3.667760274000102,0,0,0.9433154541015625,0,0,0.6890625
3.669395699999768,0,0,1.0031704956054688,0,0,0.6890625
3.6712073090002377,0,0,0.9528922607421875,0,0,0.765625
3.6728454019994388,0,0,1.1731588134765625,0,0,1.53125
3.6746179559995653,0,0,1.5251064575195312,0,0,1.53125
3.67660658099976,0,0,1.9033903198242186,0,0,1.3015625000000002
3.6781739709995236,0,0,1.6160861206054686,0,0,1.4546875000000001
3.6797606749996703,0,0,1.3718775512695311,0,0,0.6890625
3.6813501389997327,0,0,1.5107412475585937,0,0,0.6125
3.683169748000182,0,0,1.350329736328125,0,0,0.9187500000000001
3.684839691999514,0,0,1.2904746948242187,0,0,-0.22968750000000002
3.6867330779996337,0,0,1.2737152832031249,0,0,0.5359375000000001
3.6883022459996937,0,0,0.9792284790039062,0,0,0.45937500000000003
3.6898474139998143,0,0,0.8858546142578124,0,0,0.8421875000000001
3.6914636179999434,0,0,1.0127473022460938,0,0,1.0718750000000001
3.6934968169998683,0,0,1.3239935180664062,0,0,0.5359375000000001
3.6952645189994655,0,0,1.5777788940429687,0,0,0.5359375000000001
3.6969953890002216,0,0,1.8531120849609375,0,0,1.225
3.6989564039995457,0,0,1.5107412475585937,0,0,0.765625
3.7012227109999003,0,0,1.2401964599609374,0,0,0.9187500000000001
3.7029065810002066,0,0,1.254561669921875,0,0,1.0718750000000001
3.704479211999569,0,0,1.35990654296875,0,0,1.0718750000000001
3.706087452999782,0,0,1.3096283081054687,0,0,0.6890625
3.707747081999514,0,0,1.199495031738281,0,0,0.765625
3.7094558589997177,0,0,1.1133037719726562,0,0,0.6890625
3.7111023039997235,0,0,1.1037269653320312,0,0,0.5359375000000001
3.7126729530000375,0,0,1.2665326782226562,0,0,1.1484375
3.7144132479998007,0,0,1.3479355346679687,0,0,1.53125
3.7161500619995422,0,0,1.3072341064453123,0,0,0.8421875000000001
3.718019244000061,0,0,1.2569558715820313,0,0,1.1484375
3.719638040999598,0,0,1.1444283935546875,0,0,0.3828125
3.7213699100002486,0,0,1.199495031738281,0,0,0.6125
3.723126852999485,0,0,1.4173673828125,0,0,1.3015625000000002
3.724837574999583,0,0,1.4724340209960938,0,0,0.8421875000000001
3.7265986289994544,0,0,1.7645266235351562,0,0,1.225
3.7281843519995164,0,0,1.4963760375976562,0,0,0.8421875000000001
3.7297381859998495,0,0,1.0486603271484374,0,0,0.765625
3.7314683519998653,0,0,0.9504980590820312,0,0,0.45937500000000003
3.7331087040001876,0,0,1.22583125,0,0,1.4546875000000001
3.7346505750001597,0,0,1.4891934326171874,0,0,1.1484375
3.736309685999913,0,0,1.3000515014648437,0,0,0.6890625
3.7380107409999255,0,0,1.0462661254882812,0,0,1.0718750000000001
3.7397254629995587,0,0,1.01514150390625,0,0,0.765625
3.741364202999648,0,0,1.216254443359375,0,0,0.9187500000000001
3.7431717939998634,0,0,1.3742717529296875,0,0,0.765625
3.7448457009995764,0,0,1.3670891479492187,0,0,0.30625
3.7463953870001205,0,0,1.1228805786132812,0,0,0.6890625
3.7479328700001133,0,0,1.0869675537109373,0,0,0.5359375000000001
3.749659702999452,0,0,1.0797849487304687,0,0,0.45937500000000003
3.751361849999739,0,0,1.1875240234375,0,0,0.765625
3.7529932580000605,0,0,1.2378022583007813,0,0,1.6078125
3.7545454069995685,0,0,1.465251416015625,0,0,1.225
3.756162611000036,0,0,1.3575123413085937,0,0,0.8421875000000001
3.7578394249994744,0,0,1.2737152832031249,0,0,0.8421875000000001
3.759539517000121,0,0,1.2425906616210938,0,0,0.6890625
3.7611608509996586,0,0,1.3551181396484375,0,0,0.765625
3.762745480999911,0,0,1.35990654296875,0,0,1.0718750000000001
3.7643927589997475,0,0,1.3814543579101561,0,0,0.9187500000000001
3.7660114629998134,0,0,1.2569558715820313,0,0,0.9187500000000001
3.7675299269994866,0,0,1.189918225097656,0,0,0.6890625
3.7691106869997384,0,0,1.4053963745117186,0,0,0.9187500000000001
3.7708647409999685,0,0,1.2641384765625,0,0,0.6125
3.77247822299978,0,0,1.1516109985351561,0,0,0.5359375000000001
3.7740464649996284,0,0,1.3024457031249999,0,0,0.0
3.7756679280000753,0,0,1.3670891479492187,0,0,0.8421875000000001
3.777404870999817,0,0,1.5897499023437498,0,0,0.6125
3.7790837229995304,0,0,1.3431471313476562,0,0,0.765625
3.780718166999577,0,0,1.209071838378906,0,0,0.0765625
3.782377833999817,0,0,1.0845733520507812,0,0,0.0
3.7840794630001255,0,0,1.3479355346679687,0,0,0.6890625
3.7857302960001107,0,0,1.3527239379882812,0,0,0.9187500000000001
3.787320149000152,0,0,1.6112977172851561,0,0,0.9187500000000001
3.7890540729995337,0,0,1.20667763671875,0,0,0.9187500000000001
3.7906518330000836,0,0,1.3168109130859373,0,0,0.9187500000000001
3.792294073999983,0,0,1.3072341064453123,0,0,0.6125
3.7939223329995,0,0,1.4963760375976562,0,0,-0.3828125
3.7954646489997685,0,0,1.6639701538085936,0,0,0.22968750000000002
3.7969889659998444,0,0,1.5083470458984374,0,0,0.6125
3.7986112809994665,0,0,1.2808978881835937,0,0,0.6125
3.8001873739995062,0,0,1.197100830078125,0,0,0.8421875000000001
3.8019512060000125,0,0,1.2665326782226562,0,0,0.45937500000000003
3.803604871999596,0,0,1.3934253662109375,0,0,0.765625
3.8060109010002634,0,0,1.3670891479492187,0,0,0.6125
3.8078630840000187,0,0,1.2689268798828124,0,0,1.1484375
3.8096212310001647,0,0,1.177947216796875,0,0,0.5359375000000001
3.8113424889997987,0,0,1.4939818359375,0,0,0.765625
3.812905953000154,0,0,1.3383587280273437,0,0,1.378125
3.8146527849994527,0,0,1.2832920898437499,0,0,1.378125
3.8163249509998423,0,0,1.2018892333984375,0,0,0.6890625
3.818018766000023,0,0,1.3431471313476562,0,0,0.8421875000000001
3.8196359879993906,0,0,1.0773907470703123,0,0,0.6125
3.8214123010002368,0,0,1.0845733520507812,0,0,0.6890625
3.823234947999481,0,0,1.5155296508789062,0,0,1.3015625000000002
3.8249247619996822,0,0,1.2856862915039062,0,0,0.30625
3.82661890899999,0,0,1.3742717529296875,0,0,0.5359375000000001
3.8282416499996543,0,0,0.948103857421875,0,0,1.0718750000000001
3.829787077000219,0,0,1.2234370483398436,0,0,0.3828125
3.831399558999692,0,0,1.4963760375976562,0,0,0.9187500000000001
3.833082039999681,0,0,1.0678139404296874,0,0,0.9953125
3.8348280760001217,0,0,1.1540052001953125,0,0,0.45937500000000003
3.836665425999854,0,0,1.848323681640625,0,0,0.9953125
3.838357499000267,0,0,1.6208745239257811,0,0,1.225
3.8400647389998994,0,0,1.16837041015625,0,0,0.5359375000000001
3.8417333500001405,0,0,1.120486376953125,0,0,0.22968750000000002
3.843472126999586,0,0,1.0917559570312498,0,0,-0.3828125
3.845405956999457,0,0,1.2641384765625,0,0,0.765625
3.8470879189999323,0,0,1.9632453613281249,0,0,0.9953125
3.848964490999606,0,0,1.1324573852539062,0,0,0.9953125
3.8507517110001572,0,0,1.0390835205078124,0,0,0.8421875000000001
3.8524862100002792,0,0,1.2306196533203124,0,0,0.3828125
3.8542176539995125,0,0,1.7381904052734374,0,0,1.1484375
3.8559776160000183,0,0,1.7262193969726563,0,0,0.6890625
3.8578716679994614,0,0,1.0989385620117187,0,0,0.3828125
3.8595630939998955,0,0,0.7134720947265625,0,0,0.3828125
3.8613038519997644,0,0,0.9816226806640624,0,0,0.30625
3.862935481999557,0,0,1.22583125,0,0,1.4546875000000001
3.8648767750000843,0,0,1.2880804931640624,0,0,0.9953125
3.866856362999897,0,0,1.5849614990234373,0,0,1.3015625000000002
3.868553843999507,0,0,1.5155296508789062,0,0,1.225
3.8702792879994377,0,0,1.2904746948242187,0,0,0.9187500000000001
3.8719667870000194,0,0,1.5251064575195312,0,0,0.8421875000000001
3.87350275100016,0,0,1.4915876342773438,0,0,0.3828125
3.875032697000279,0,0,1.5753846923828123,0,0,0.3828125
3.8766505679996044,0,0,1.5394716674804687,0,0,0.765625
3.8784241960001964,0,0,1.1372457885742187,0,0,0.6890625
3.880049214999417,0,0,0.93852705078125,0,0,0.45937500000000003
3.881576808999853,0,0,1.1707646118164061,0,0,0.9187500000000001
3.883144605999405,0,0,1.3742717529296875,0,0,1.4546875000000001
3.8848402349995013,0,0,1.4820108276367188,0,0,1.3015625000000002
3.8864714569999705,0,0,1.5298948608398437,0,0,0.9187500000000001
3.8882893629997852,0,0,1.254561669921875,0,0,0.6890625
3.8900743980002517,0,0,1.254561669921875,0,0,0.3828125
3.8917056390000653,0,0,1.3215993164062498,0,0,0.45937500000000003
3.8935543589996087,0,0,1.350329736328125,0,0,-0.45937500000000003
3.8954665410001326,0,0,1.2401964599609374,0,0,0.30625
3.8974474449996706,0,0,1.6352397338867186,0,0,0.6125
3.899301163999553,0,0,1.4053963745117186,0,0,1.0718750000000001
3.9012581979995957,0,0,1.3455413330078123,0,0,0.6890625
3.9030679179995786,0,0,1.3862427612304686,0,0,2.45
3.9047596769996744,0,0,1.4030021728515625,0,0,0.765625
3.9064703799995186,0,0,1.659181750488281,0,0,0.9953125
3.908446542999627,0,0,1.22583125,0,0,1.225
3.910167246000128,0,0,1.0845733520507812,0,0,0.9953125
3.9121757040002194,0,0,1.254561669921875,0,0,0.45937500000000003
3.914104663999751,0,0,1.4125789794921875,0,0,0.765625
3.915789718999804,0,0,1.3646949462890625,0,0,0.9187500000000001
3.917948213999807,0,0,1.3120225097656248,0,0,-8.881250000000001
3.9198952289998488,0,0,1.2904746948242187,0,0,0.6890625
3.9219442980001986,0,0,1.3335703247070312,0,0,0.5359375000000001
3.923885184000028,0,0,1.5179238525390624,0,0,0.765625
