Time (s),Accel X1,Accel Y1,Accel Z1,Accel X2,Accel Y2,Accel Z2
0.00010222099990642164,0,0,1.2330138549804688,0,0,0.9953125
0.003503181000269251,0,0,1.2689268798828124,0,0,1.0718750000000001
0.0068533630001184065,0,0,1.3646949462890625,0,0,0.6890625
0.01020054499986145,0,0,1.448492004394531,0,0,0.8421875000000001
0.013500301999556541,0,0,1.3623007446289062,0,0,0.9187500000000001
0.01689048299977003,0,0,1.2593500732421874,0,0,0.153125
0.02022985100029473,0,0,1.3144167114257812,0,0,1.225
0.023603902999639104,0,0,1.3048399047851562,0,0,0.8421875000000001
0.026866530999541283,0,0,1.209071838378906,0,0,0.3828125
0.030121287999463675,0,0,1.4437036010742186,0,0,0.8421875000000001
0.03337356399970304,0,0,1.369483349609375,0,0,0.6890625
0.03662763600004837,0,0,1.4796166259765624,0,0,0.9187500000000001
0.03987913400032994,0,0,1.3814543579101561,0,0,1.4546875000000001
0.04313152099985018,0,0,1.158793603515625,0,0,0.9953125
0.046406481999838434,0,0,1.3575123413085937,0,0,0.9953125
0.04967949899946689,0,0,1.4508862060546874,0,0,1.0718750000000001
0.05300473700026487,0,0,1.22583125,0,0,0.8421875000000001
0.056324881999898935,0,0,1.2497732666015624,0,0,0.5359375000000001
0.05958245399961015,0,0,1.2569558715820313,0,0,1.1484375
0.06287715599955845,0,0,1.3479355346679687,0,0,0.30625
0.06613378299971373,0,0,1.2425906616210938,0,0,0.765625
0.06939759600027173,0,0,1.43652099609375,0,0,0.9187500000000001
0.07268026099973213,0,0,1.5538368774414062,0,0,0.765625
0.0759663319995525,0,0,1.24498486328125,0,0,0.8421875000000001
0.07926049700017757,0,0,1.3958195678710936,0,0,0.765625
0.0825947349994749,0,0,1.5921441040039062,0,0,0.765625
0.0859009360001437,0,0,1.2832920898437499,0,0,0.6890625
0.08920184099952166,0,0,1.4341267944335936,0,0,0.8421875000000001
0.09245452399954956,0,0,1.5227122558593749,0,0,0.765625
0.09582950200001505,0,0,1.235408056640625,0,0,1.0718750000000001
0.098799317999692,0,0,1.2665326782226562,0,0,0.5359375000000001
0.10171952400014561,0,0,1.3551181396484375,0,0,0.5359375000000001
0.10464163699998608,0,0,1.20667763671875,0,0,0.6890625
0.10761697199995979,0,0,1.5083470458984374,0,0,0.9187500000000001
0.11054117799994856,0,0,1.467645617675781,0,0,0.8421875000000001
0.11346325399972557,0,0,1.4030021728515625,0,0,0.6125
0.11638014500022109,0,0,1.3670891479492187,0,0,0.6125
0.11943208999946364,0,0,1.2904746948242187,0,0,0.8421875000000001
0.12292556699958368,0,0,1.6136919189453125,0,0,1.1484375
0.12587179099955392,0,0,1.350329736328125,0,0,0.8421875000000001
0.1288493659994856,0,0,1.2904746948242187,0,0,0.30625
0.1317739240002993,0,0,1.4772224243164063,0,0,0.45937500000000003
0.13468379699952493,0,0,1.3910311645507811,0,0,1.0718750000000001
0.1376324470002146,0,0,1.180341418457031,0,0,0.5359375000000001
0.14074466900001426,0,0,1.3862427612304686,0,0,0.5359375000000001
0.1436652820002564,0,0,1.47482822265625,0,0,0.8421875000000001
0.1465881359999912,0,0,1.3287819213867187,0,0,1.0718750000000001
0.14950373099964054,0,0,1.3479355346679687,0,0,0.22968750000000002
0.15243939900028636,0,0,1.426944189453125,0,0,0.6890625
0.15536273499947129,0,0,1.2976572998046874,0,0,0.9953125
0.15828544000032707,0,0,1.2330138549804688,0,0,0.8421875000000001
0.16120770199995604,0,0,1.5275006591796874,0,0,0.9953125
0.16418433299986646,0,0,1.5514426757812498,0,0,0.45937500000000003
0.16714540799966926,0,0,1.2521674682617188,0,0,0.765625
0.17011689099945215,0,0,1.2928688964843749,0,0,0.6125
0.17303691199958848,0,0,1.4532804077148436,0,0,0.8421875000000001
0.17593959999976505,0,0,1.2521674682617188,0,0,0.8421875000000001
0.17905250700005126,0,0,1.369483349609375,0,0,0.9187500000000001
0.1823874479996448,0,0,1.3814543579101561,0,0,0.765625
0.18621114300003683,0,0,1.3766659545898436,0,0,0.765625
0.1891557749995627,0,0,1.3311761230468748,0,0,1.378125
0.19207060999997339,0,0,1.419761584472656,0,0,1.225
0.1950971300002493,0,0,1.5179238525390624,0,0,0.5359375000000001
0.19812326000010216,0,0,1.3527239379882812,0,0,0.3828125
0.2013751839995166,0,0,1.2497732666015624,0,0,0.765625
0.20464083000024402,0,0,1.4724340209960938,0,0,0.6890625
0.2078912360002505,0,0,1.3551181396484375,0,0,0.3828125
0.21114067799953773,0,0,1.4820108276367188,0,0,0.22968750000000002
0.214388028999565,0,0,1.4173673828125,0,0,0.9187500000000001
0.2176570259998698,0,0,1.3383587280273437,0,0,0.8421875000000001
0.22099457900003472,0,0,1.5203180541992187,0,0,1.225
0.2242416509998293,0,0,1.4437036010742186,0,0,1.225
0.22749063099945488,0,0,1.3527239379882812,0,0,0.9187500000000001
0.23073933300020144,0,0,1.467645617675781,0,0,0.22968750000000002
0.23409018199981801,0,0,1.4125789794921875,0,0,1.3015625000000002
0.23768321300030948,0,0,1.2689268798828124,0,0,0.9187500000000001
0.24095985900021333,0,0,1.3670891479492187,0,0,0.8421875000000001
0.24421717199948034,0,0,1.458068811035156,0,0,1.0718750000000001
0.2474726139998893,0,0,1.2282254516601563,0,0,1.0718750000000001
0.2507108159998097,0,0,1.407790576171875,0,0,0.22968750000000002
0.25396931399973255,0,0,1.2785036865234374,0,0,0.6125
0.25722673800009943,0,0,1.2689268798828124,0,0,0.6125
0.26048218100004306,0,0,1.254561669921875,0,0,1.1484375
0.26376647500001127,0,0,1.388636962890625,0,0,0.9953125
0.26700602900018566,0,0,1.3048399047851562,0,0,0.8421875000000001
0.27055187499991007,0,0,1.2425906616210938,0,0,1.0718750000000001
0.27382789199964463,0,0,1.5155296508789062,0,0,0.8421875000000001
0.2770871669999906,0,0,1.3766659545898436,0,0,0.8421875000000001
0.2803372769994894,0,0,1.3024457031249999,0,0,0.765625
0.28357505300027697,0,0,1.484405029296875,0,0,0.8421875000000001
0.2868330319997767,0,0,1.6208745239257811,0,0,0.8421875000000001
0.2900859749997835,0,0,1.235408056640625,0,0,0.8421875000000001
0.29356663699945784,0,0,1.4413093994140624,0,0,0.6890625
0.2970689659996424,0,0,1.3311761230468748,0,0,1.4546875000000001
0.30046562899951823,0,0,1.2138602416992186,0,0,2.0671875
0.3037246639996738,0,0,1.3934253662109375,0,0,0.9953125
0.3069762539998919,0,0,1.407790576171875,0,0,1.1484375
0.3102129379994949,0,0,1.3072341064453123,0,0,0.9187500000000001
0.3134544360000291,0,0,1.467645617675781,0,0,0.22968750000000002
0.316701933999866,0,0,1.448492004394531,0,0,0.5359375000000001
0.3200077470000906,0,0,1.2976572998046874,0,0,0.6125
0.3232764109998243,0,0,1.4796166259765624,0,0,0.6125
0.3265780570000061,0,0,1.2497732666015624,0,0,0.6890625
0.3298130000002857,0,0,1.3239935180664062,0,0,0.6890625
0.33304616500026896,0,0,1.5155296508789062,0,0,1.1484375
0.33627262600020913,0,0,1.4963760375976562,0,0,1.0718750000000001
0.3395024209994517,0,0,1.388636962890625,0,0,0.9187500000000001
0.34277430800011643,0,0,1.35990654296875,0,0,0.45937500000000003
0.34618493400012085,0,0,1.4604630126953124,0,0,1.1484375
0.34944802399968466,0,0,1.2641384765625,0,0,1.1484375
0.35269146700011333,0,0,1.2282254516601563,0,0,0.30625
0.3559356320001825,0,0,1.5059528442382812,0,0,0.9953125
0.35918077800033643,0,0,1.2880804931640624,0,0,0.9187500000000001
0.36242416499953833,0,0,1.3623007446289062,0,0,0.3828125
0.3656740890000947,0,0,1.5298948608398437,0,0,0.6125
0.3689457720001883,0,0,1.2473790649414063,0,0,0.5359375000000001
0.3721886410003208,0,0,1.465251416015625,0,0,1.378125
0.37543299099979777,0,0,1.4604630126953124,0,0,1.1484375
0.3787477289997696,0,0,1.4772224243164063,0,0,0.765625
0.3820006159994591,0,0,1.3431471313476562,0,0,1.225
0.3852895210002316,0,0,1.419761584472656,0,0,0.9187500000000001
0.38862644500022725,0,0,1.4628572143554686,0,0,0.765625
0.39207527399958053,0,0,1.3048399047851562,0,0,0.765625
0.39592380199974286,0,0,1.4053963745117186,0,0,0.45937500000000003
0.3993437789995369,0,0,1.2737152832031249,0,0,0.9953125
0.402268689000266,0,0,1.3407529296874998,0,0,0.5359375000000001
0.40519441299966275,0,0,1.4628572143554686,0,0,0.6125
0.408113155999672,0,0,1.5610194824218748,0,0,0.6125
0.41103310200014676,0,0,1.20667763671875,0,0,1.1484375
0.4139556049995008,0,0,1.2473790649414063,0,0,0.0
0.4168936619998931,0,0,1.429338391113281,0,0,0.45937500000000003
0.41981618299996626,0,0,1.2785036865234374,0,0,1.0718750000000001
0.42273525899963715,0,0,1.2856862915039062,0,0,0.9953125
0.42565492799985805,0,0,1.5203180541992187,0,0,0.8421875000000001
0.4286175400002321,0,0,1.6160861206054686,0,0,0.9187500000000001
0.4315399500001149,0,0,1.2665326782226562,0,0,0.5359375000000001
0.4353836259997479,0,0,1.4796166259765624,0,0,0.0765625
0.4383757750001678,0,0,1.5610194824218748,0,0,0.6890625
0.4412922410001556,0,0,1.2425906616210938,0,0,0.6125
0.44420607600022777,0,0,1.3120225097656248,0,0,0.0
0.44727968699953635,0,0,1.4221557861328125,0,0,0.8421875000000001
0.45040442800018354,0,0,1.2880804931640624,0,0,0.6125
0.4533897809997143,0,0,1.3000515014648437,0,0,0.8421875000000001
0.4563054310001462,0,0,1.39821376953125,0,0,0.6125
0.4592217849994995,0,0,1.6041151123046875,0,0,0.5359375000000001
0.462138990999847,0,0,1.24498486328125,0,0,0.765625
0.4650679559999844,0,0,1.4006079711914061,0,0,0.3828125
0.4679997729999741,0,0,1.407790576171875,0,0,0.45937500000000003
0.47091466399979254,0,0,1.3766659545898436,0,0,0.5359375000000001
0.4738303879994419,0,0,1.2306196533203124,0,0,0.6890625
0.4767852420000054,0,0,1.5131354492187499,0,0,0.9187500000000001
0.4797004479996758,0,0,1.5825672973632812,0,0,0.765625
0.4827864290000434,0,0,1.3192051147460937,0,0,0.45937500000000003
0.48570208000001003,0,0,1.429338391113281,0,0,1.225
0.48867145199983497,0,0,1.3646949462890625,0,0,0.8421875000000001
0.4915883980002036,0,0,1.369483349609375,0,0,0.9187500000000001
0.49450478899962036,0,0,1.22583125,0,0,0.9187500000000001
0.49752106799951434,0,0,1.4317325927734375,0,0,0.765625
0.5119317290000254,0,0,1.2713210815429687,0,0,0.9187500000000001
0.5155114640001557,0,0,1.3192051147460937,0,0,0.5359375000000001
0.5187637580002047,0,0,1.5035586425781249,0,0,0.9953125
0.5220641449996037,0,0,1.3120225097656248,0,0,0.765625
0.525476271000116,0,0,1.3263877197265623,0,0,0.45937500000000003
0.5292114670000956,0,0,1.2473790649414063,0,0,1.0718750000000001
0.5324781500003155,0,0,1.3215993164062498,0,0,0.9953125
0.5357082959999389,0,0,1.3263877197265623,0,0,0.22968750000000002
0.5389386839997314,0,0,1.4724340209960938,0,0,1.225
0.5423738090003098,0,0,1.3383587280273437,0,0,0.8421875000000001
0.545665361999454,0,0,1.4891934326171874,0,0,0.30625
0.5489288609996947,0,0,1.388636962890625,0,0,0.6890625
0.5521770440000182,0,0,1.3551181396484375,0,0,0.9187500000000001
0.555512355999781,0,0,1.3192051147460937,0,0,0.5359375000000001
0.5587657609994494,0,0,1.4341267944335936,0,0,0.5359375000000001
0.5620180189998791,0,0,1.2952630981445312,0,0,0.6125
0.565307627999573,0,0,1.4125789794921875,0,0,1.4546875000000001
0.5686389949996737,0,0,1.4772224243164063,0,0,1.0718750000000001
0.5718738449995726,0,0,1.458068811035156,0,0,0.6890625
0.5753535260000717,0,0,1.47482822265625,0,0,1.3015625000000002
0.5787616890002028,0,0,1.484405029296875,0,0,0.765625
0.5821837220000816,0,0,1.2593500732421874,0,0,0.8421875000000001
0.5854402759996447,0,0,1.5131354492187499,0,0,1.0718750000000001
0.5886911259995031,0,0,1.4963760375976562,0,0,1.378125
0.591938976000165,0,0,1.47482822265625,0,0,1.0718750000000001
0.5953774720001093,0,0,1.3646949462890625,0,0,0.8421875000000001
0.5986715990002267,0,0,1.438915197753906,0,0,0.9953125
0.6015168060002907,0,0,1.5921441040039062,0,0,0.6890625
0.6041675329997815,0,0,1.3096283081054687,0,0,0.9187500000000001
0.6069741660003274,0,0,1.22583125,0,0,0.6125
0.609790114000134,0,0,1.3934253662109375,0,0,0.8421875000000001
0.6127363200002947,0,0,1.3623007446289062,0,0,1.225
0.6155748410001252,0,0,1.3575123413085937,0,0,0.0
0.6182443279994914,0,0,1.3455413330078123,0,0,1.4546875000000001
0.6209056480001891,0,0,1.3670891479492187,0,0,1.0718750000000001
0.6235615229998075,0,0,1.2785036865234374,0,0,0.5359375000000001
0.6262226769995323,0,0,1.3431471313476562,0,0,0.765625
0.6288820339996164,0,0,1.448492004394531,0,0,0.6890625
0.6315358169995307,0,0,1.3838485595703125,0,0,1.1484375
0.63418135899974,0,0,1.3215993164062498,0,0,0.6890625
0.6368332909996752,0,0,1.2713210815429687,0,0,0.765625
0.6394866479995471,0,0,1.4437036010742186,0,0,0.5359375000000001
0.6421391160001804,0,0,1.5442600708007812,0,0,1.1484375
0.644794324999566,0,0,1.350329736328125,0,0,0.9187500000000001
0.6475962360000267,0,0,1.4245499877929686,0,0,0.0
0.6503041289997782,0,0,1.4724340209960938,0,0,0.8421875000000001
0.6529637639996508,0,0,1.438915197753906,0,0,0.9187500000000001
0.6556179919998613,0,0,1.3623007446289062,0,0,0.45937500000000003
0.6584443279998595,0,0,1.429338391113281,0,0,0.6125
0.6610955189999004,0,0,1.3646949462890625,0,0,0.6125
0.6637668759994995,0,0,1.369483349609375,0,0,1.0718750000000001
0.6667251179997038,0,0,1.2497732666015624,0,0,0.8421875000000001
0.6694616229997337,0,0,1.5011644409179687,0,0,0.6890625
0.672114775999944,0,0,1.4508862060546874,0,0,0.9953125
0.6747642259997519,0,0,1.2378022583007813,0,0,0.6125
0.6774173049998353,0,0,1.3551181396484375,0,0,1.4546875000000001
0.6800626619997274,0,0,1.3838485595703125,0,0,0.45937500000000003
0.6827101310000216,0,0,1.4987702392578124,0,0,0.8421875000000001
0.6854079499998988,0,0,1.2617442749023438,0,0,1.378125
0.6881612320003114,0,0,1.3646949462890625,0,0,0.6890625
0.6908192749997397,0,0,1.455674609375,0,0,1.1484375
0.6934722240002884,0,0,1.4915876342773438,0,0,0.5359375000000001
0.6961210439994829,0,0,1.2617442749023438,0,0,0.8421875000000001
0.6988645120000001,0,0,1.2880804931640624,0,0,0.9187500000000001
0.701888974999747,0,0,1.4053963745117186,0,0,1.1484375
0.7051858989998436,0,0,1.24498486328125,0,0,0.9953125
0.7084318600000188,0,0,1.3048399047851562,0,0,0.3828125
0.7116732100002992,0,0,1.5251064575195312,0,0,0.6890625
0.7149487079996106,0,0,1.3479355346679687,0,0,0.6125
0.7182365019998542,0,0,1.5131354492187499,0,0,0.0
0.7219635319997906,0,0,1.4867992309570313,0,0,1.0718750000000001
0.7255905249994612,0,0,1.254561669921875,0,0,0.9187500000000001
0.7289720030003082,0,0,1.24498486328125,0,0,0.30625
0.732447387999855,0,0,1.2713210815429687,0,0,0.8421875000000001
0.7357082749995243,0,0,1.2952630981445312,0,0,0.8421875000000001
0.7389517359997626,0,0,1.4772224243164063,0,0,0.0
0.7422079190000659,0,0,1.4006079711914061,0,0,0.45937500000000003
0.7454620649996286,0,0,1.3670891479492187,0,0,0.9953125
0.7487194340001224,0,0,1.3048399047851562,0,0,0.765625
0.7519701359997271,0,0,1.455674609375,0,0,0.6125
0.7552410219996091,0,0,1.3431471313476562,0,0,0.5359375000000001
0.7585408899994945,0,0,1.3527239379882812,0,0,1.4546875000000001
0.7617968140002631,0,0,1.4437036010742186,0,0,0.9953125
0.7650927380000212,0,0,1.3527239379882812,0,0,1.0718750000000001
0.768438660999891,0,0,1.4939818359375,0,0,1.7609375
0.7716983069994967,0,0,1.3958195678710936,0,0,1.0718750000000001
0.774953602000096,0,0,1.39821376953125,0,0,1.225
0.778210599999511,0,0,1.2952630981445312,0,0,0.6125
0.7814941159995215,0,0,1.484405029296875,0,0,0.8421875000000001
0.7848167610000019,0,0,1.656787548828125,0,0,1.225
0.788071203999607,0,0,1.2497732666015624,0,0,0.6890625
0.7913253130000157,0,0,1.5131354492187499,0,0,0.45937500000000003
0.7945752929999799,0,0,1.5610194824218748,0,0,0.6890625
0.7978472719996716,0,0,1.3287819213867187,0,0,0.6125
0.8012155469996287,0,0,1.4317325927734375,0,0,0.9953125
0.8041791779996856,0,0,1.43652099609375,0,0,1.225
0.8070997360000547,0,0,1.2880804931640624,0,0,0.765625
0.8100184039994929,0,0,1.3215993164062498,0,0,-8.8046875
0.8129743869994854,0,0,1.4413093994140624,0,0,0.9187500000000001
0.815894223000214,0,0,1.4628572143554686,0,0,1.0718750000000001
0.8188120579998213,0,0,1.197100830078125,0,0,0.5359375000000001
0.8217323199996827,0,0,1.4101847778320311,0,0,1.0718750000000001
0.8246643590000531,0,0,1.3263877197265623,0,0,1.225
0.8275844909994703,0,0,1.3431471313476562,0,0,0.5359375000000001
0.8305328810001811,0,0,1.3168109130859373,0,0,0.9187500000000001
0.8334575870003391,0,0,1.5203180541992187,0,0,0.9953125
0.8363758850000522,0,0,1.2808978881835937,0,0,1.225
0.83933403500032,0,0,1.2473790649414063,0,0,0.6890625
0.842253036999864,0,0,1.4772224243164063,0,0,0.6125
0.8451788539996414,0,0,1.637633935546875,0,0,0.9953125
0.8481358930002898,0,0,1.2497732666015624,0,0,0.8421875000000001
0.8517971639994357,0,0,1.3024457031249999,0,0,0.9187500000000001
0.8547331290001239,0,0,1.2401964599609374,0,0,1.1484375
0.8577979439996852,0,0,1.3527239379882812,0,0,0.9187500000000001
0.8607230019997587,0,0,1.2282254516601563,0,0,1.1484375
0.8636461890000646,0,0,1.5346832641601562,0,0,0.9953125
0.8665678950001166,0,0,1.5298948608398437,0,0,1.1484375
0.8694890819997454,0,0,1.3431471313476562,0,0,0.765625
0.8724490280001191,0,0,1.2689268798828124,0,0,0.9187500000000001
0.8753714559998116,0,0,1.4317325927734375,0,0,1.378125
0.8782912730002863,0,0,1.3287819213867187,0,0,0.9187500000000001
0.8812643299997944,0,0,1.2832920898437499,0,0,1.1484375
0.884195980000186,0,0,1.5107412475585937,0,0,0.9953125
0.8871291489995201,0,0,1.2521674682617188,0,0,1.225
0.8900647989994468,0,0,1.35990654296875,0,0,0.6125
0.8929865419995622,0,0,1.7262193969726563,0,0,1.378125
0.8959066919996985,0,0,1.5777788940429687,0,0,0.9187500000000001
0.8988255829999616,0,0,1.3910311645507811,0,0,1.53125
0.9018391769996015,0,0,1.5658078857421873,0,0,0.0765625
0.9049847690002935,0,0,1.1659762084960936,0,0,0.5359375000000001
0.9082355629998347,0,0,1.889025109863281,0,0,1.225
0.9114845240001159,0,0,1.0941501586914062,0,0,0.0765625
0.9147329299994453,0,0,1.6735469604492186,0,0,0.6125
0.9180072799999834,0,0,1.4341267944335936,0,0,0.6125
0.921617162000075,0,0,1.2952630981445312,0,0,0.6125
0.9250843800000439,0,0,1.6328455322265625,0,0,0.9953125
0.9283497670003271,0,0,1.2785036865234374,0,0,0.9953125
0.9316000239996356,0,0,1.3910311645507811,0,0,1.4546875000000001
0.9348319489999994,0,0,1.5945383056640625,0,0,0.765625
0.938156039000205,0,0,1.254561669921875,0,0,0.3828125
0.9414687399994364,0,0,1.4030021728515625,0,0,1.53125
0.9449153280002065,0,0,1.37906015625,0,0,0.9953125
0.9483676569998352,0,0,1.3575123413085937,0,0,0.30625
0.9516667099996994,0,0,1.22583125,0,0,1.378125
0.9549381529996026,0,0,1.47482822265625,0,0,1.0718750000000001
0.9581963359996735,0,0,1.2952630981445312,0,0,1.0718750000000001
0.9614469819998703,0,0,1.3024457031249999,0,0,0.6890625
0.9647008319998349,0,0,1.2832920898437499,0,0,0.3828125
0.9679578119994403,0,0,1.5490484741210937,0,0,0.9187500000000001
0.9712139399998705,0,0,1.3623007446289062,0,0,0.6125
0.9744670119998773,0,0,1.6543933471679686,0,0,0.45937500000000003
0.977716454000074,0,0,1.7118541870117185,0,0,0.5359375000000001
0.9809674899997844,0,0,1.47482822265625,0,0,0.6125
0.984221099000024,0,0,1.4700398193359374,0,0,1.225
0.9875733179997042,0,0,1.608903515625,0,0,0.8421875000000001
0.9908193530000062,0,0,1.4413093994140624,0,0,0.6890625
0.9941199429995322,0,0,1.3407529296874998,0,0,1.0718750000000001
0.9973802750000687,0,0,1.4604630126953124,0,0,1.0718750000000001
1.000831862999803,0,0,1.24498486328125,0,0,0.6890625
1.0048227600000246,0,0,1.2904746948242187,0,0,1.378125
1.0079051669999899,0,0,1.39821376953125,0,0,1.0718750000000001
1.0109552610001629,0,0,1.4245499877929686,0,0,1.3015625000000002
1.0139718729997185,0,0,1.4149731811523436,0,0,0.5359375000000001
1.0170171139998274,0,0,1.7214309936523438,0,0,0.6890625
1.0200176890002695,0,0,1.235408056640625,0,0,0.8421875000000001
1.0230578009995952,0,0,1.2306196533203124,0,0,1.225
1.0260654499998054,0,0,1.3718775512695311,0,0,0.6125
1.0290662659999725,0,0,1.5203180541992187,0,0,0.6125
1.0320500079997146,0,0,1.3048399047851562,0,0,1.0718750000000001
1.03504056499969,0,0,1.3527239379882812,0,0,1.1484375
1.0379796409997653,0,0,1.5945383056640625,0,0,1.7609375
1.040931921000265,0,0,1.4341267944335936,0,0,0.5359375000000001
1.0442900660000305,0,0,1.4772224243164063,0,0,0.8421875000000001
1.0506803039997976,0,0,1.2018892333984375,0,0,0.765625
1.0537351189996116,0,0,1.3335703247070312,0,0,1.0718750000000001
1.056696601999647,0,0,1.6136919189453125,0,0,1.9140625000000002
1.0597199920002822,0,0,1.6112977172851561,0,0,1.1484375
1.0629876749999312,0,0,1.3670891479492187,0,0,0.5359375000000001
1.0659973249994437,0,0,1.2737152832031249,0,0,0.8421875000000001
1.069005862999802,0,0,1.2473790649414063,0,0,0.8421875000000001
1.0720296780000353,0,0,1.3192051147460937,0,0,0.9187500000000001
1.0751085299998522,0,0,1.2976572998046874,0,0,0.5359375000000001
1.0781937339997967,0,0,1.4796166259765624,0,0,0.9187500000000001
1.081203345999711,0,0,1.5466542724609373,0,0,0.765625
1.0841973850001523,0,0,1.4939818359375,0,0,0.8421875000000001
1.087283199999547,0,0,1.5203180541992187,0,0,0.6125
1.090342681999573,0,0,1.216254443359375,0,0,1.1484375
1.0933837189995756,0,0,1.1061211669921875,0,0,0.765625
1.0970944900000177,0,0,1.6256629272460936,0,0,2.2203125000000004
1.1001869159999842,0,0,1.7764976318359373,0,0,0.6890625
1.1031982690001314,0,0,1.446097802734375,0,0,0.765625
1.105478481999853,0,0,1.2904746948242187,0,0,0.8421875000000001
1.1076393080002163,0,0,1.235408056640625,0,0,0.9187500000000001
1.1097196170003372,0,0,1.1659762084960936,0,0,0.765625
1.1118423870002516,0,0,0.8283937744140625,0,0,1.1484375
1.113921750999907,0,0,1.158793603515625,0,0,1.4546875000000001
1.1160479479995047,0,0,1.5921441040039062,0,0,2.0671875
1.1181396450001557,0,0,1.9632453613281249,0,0,0.6890625
1.1202133609995144,0,0,1.8291700683593748,0,0,0.5359375000000001
1.1222940959996777,0,0,1.5322890624999999,0,0,0.6890625
1.1243622559995856,0,0,1.2665326782226562,0,0,0.3828125
1.1264463239995166,0,0,0.9696516723632812,0,0,0.9187500000000001
1.1285260770000605,0,0,1.0941501586914062,0,0,0.6125
1.1305913670003065,0,0,1.484405029296875,0,0,1.3015625000000002
1.1326958230001765,0,0,1.4796166259765624,0,0,1.3015625000000002
1.1347747609997896,0,0,1.6519991455078125,0,0,1.1484375
1.1368489400001636,0,0,1.678335363769531,0,0,0.30625
1.13891349000005,0,0,1.6639701538085936,0,0,0.6125
1.1409890570002972,0,0,1.4532804077148436,0,0,0.765625
1.1430670330000794,0,0,1.2737152832031249,0,0,0.9187500000000001
1.145141340999544,0,0,1.39821376953125,0,0,0.9187500000000001
1.1472063720002552,0,0,1.5394716674804687,0,0,0.6125
1.149307976000273,0,0,1.5322890624999999,0,0,1.378125
1.1514309699996375,0,0,1.7812860351562498,0,0,0.6125
1.1535107039999275,0,0,1.5203180541992187,0,0,0.45937500000000003
1.1555900490002387,0,0,1.149216796875,0,0,0.3828125
1.1576677470002323,0,0,0.9217676391601562,0,0,0.22968750000000002
1.1597438150001835,0,0,1.4700398193359374,0,0,1.4546875000000001
1.1618203819998598,0,0,1.6543933471679686,0,0,0.9953125
1.1639024870000867,0,0,1.3910311645507811,0,0,0.8421875000000001
1.165999703000125,0,0,1.3958195678710936,0,0,0.6890625
1.1681576210003186,0,0,1.62805712890625,0,0,0.765625
1.1702879659997052,0,0,1.3263877197265623,0,0,0.9187500000000001
1.1723699409994879,0,0,1.2737152832031249,0,0,0.45937500000000003
1.1744509159998415,0,0,1.2952630981445312,0,0,1.0718750000000001
1.1765305399994759,0,0,1.4891934326171874,0,0,0.9187500000000001
1.1786073849998502,0,0,1.5658078857421873,0,0,0.9953125
1.1806883789995481,0,0,1.6112977172851561,0,0,0.6125
1.182763984000303,0,0,1.2665326782226562,0,0,0.3828125
1.1848400330000004,0,0,1.0007762939453124,0,0,0.45937500000000003
1.1881697890003124,0,0,1.5251064575195312,0,0,0.30625
1.1902903379996133,0,0,1.438915197753906,0,0,1.1484375
1.1923707579999245,0,0,1.3359645263671873,0,0,0.765625
1.1944603809997716,0,0,1.2569558715820313,0,0,0.9187500000000001
1.196543262999512,0,0,1.5873557006835937,0,0,1.378125
1.1986212940000769,0,0,1.8219874633789062,0,0,0.765625
1.200701140000092,0,0,1.4891934326171874,0,0,0.765625
1.2028316699997958,0,0,1.5682020874023437,0,0,0.765625
1.2057047279995459,0,0,1.5203180541992187,0,0,0.6890625
1.208630156000254,0,0,0.9337386474609375,0,0,0.9187500000000001
1.2115531019999253,0,0,1.5897499023437498,0,0,1.378125
1.21451180799977,0,0,1.8291700683593748,0,0,1.225
1.217885156000193,0,0,1.446097802734375,0,0,0.22968750000000002
1.2208690469997237,0,0,1.5538368774414062,0,0,0.8421875000000001
1.2237924929995643,0,0,1.2689268798828124,0,0,0.6125
1.2267167540003356,0,0,1.1013327636718748,0,0,0.0765625
1.2296403119999013,0,0,1.5849614990234373,0,0,0.6890625
1.2325950539998303,0,0,1.5562310791015623,0,0,0.0765625
1.2355192420000094,0,0,0.9959878906249999,0,0,0.153125
1.2384445400002733,0,0,1.5131354492187499,0,0,0.6125
1.241368226999839,0,0,1.5131354492187499,0,0,1.378125
1.2442892849994678,0,0,1.429338391113281,0,0,0.6125
1.2472116389999428,0,0,1.4173673828125,0,0,0.153125
1.2501347340003122,0,0,1.7884686401367187,0,0,0.3828125
1.2530578099995182,0,0,1.5753846923828123,0,0,0.6890625
1.256022347999533,0,0,1.0989385620117187,0,0,0.8421875000000001
1.25895240599948,0,0,1.2737152832031249,0,0,0.45937500000000003
1.261875277999934,0,0,1.62805712890625,0,0,1.0718750000000001
1.2647974840001552,0,0,1.3838485595703125,0,0,0.8421875000000001
1.2677163569996992,0,0,1.2737152832031249,0,0,0.22968750000000002
1.2706433590001325,0,0,1.4006079711914061,0,0,0.6125
1.2735729719997835,0,0,1.5155296508789062,0,0,0.9187500000000001
1.2765228250000291,0,0,0.9026140258789062,0,0,1.225
1.27944249400025,0,0,1.235408056640625,0,0,1.225
1.2823636450002596,0,0,1.7693150268554687,0,0,2.45
1.2852907950000372,0,0,1.4101847778320311,0,0,1.4546875000000001
1.288224019000154,0,0,1.3838485595703125,0,0,1.0718750000000001
1.2911465770002906,0,0,1.6328455322265625,0,0,0.9953125
1.2940668559995174,0,0,1.5729904907226562,0,0,0.765625
1.2971915230000377,0,0,1.1228805786132812,0,0,0.0765625
1.300117413999942,0,0,1.5562310791015623,0,0,1.4546875000000001
1.3030501929997627,0,0,1.8507178833007811,0,0,1.225
1.3059610660002363,0,0,1.1444283935546875,0,0,0.0
1.3089442709997456,0,0,1.0941501586914062,0,0,0.5359375000000001
1.3118606070001988,0,0,1.707065783691406,0,0,1.1484375
1.3147748869996576,0,0,0.8882488159179687,0,0,0.6125
1.31769125899973,0,0,1.0031704956054688,0,0,0.9187500000000001
1.3206521679994694,0,0,2.0542250244140625,0,0,1.9140625000000002
1.3236284100003104,0,0,1.2976572998046874,0,0,0.9187500000000001
1.3265797449994352,0,0,1.484405029296875,0,0,0.6125
1.3295095989997208,0,0,1.886630908203125,0,0,1.225
1.332425861000047,0,0,0.9888052856445312,0,0,0.6125
1.3353385849995902,0,0,1.0845733520507812,0,0,1.378125
1.3382525689994509,0,0,2.01112939453125,0,0,1.4546875000000001
1.3411651819997132,0,0,1.43652099609375,0,0,0.5359375000000001
1.3440772209996794,0,0,1.350329736328125,0,0,0.8421875000000001
1.3469899829997303,0,0,1.695094775390625,0,0,1.1484375
1.3499043370002255,0,0,0.6607996582031249,0,0,-9.5703125
1.3528220799998962,0,0,1.216254443359375,0,0,1.4546875000000001
1.3557346369998413,0,0,2.020706201171875,0,0,2.1437500000000003
1.3586503059996176,0,0,0.86191259765625,0,0,0.30625
1.3617456029996902,0,0,1.8171990600585937,0,0,0.9953125
1.3646817529997861,0,0,1.898601916503906,0,0,0.765625
1.3679314920000252,0,0,0.5363011718749999,0,0,0.153125
1.3708638449998034,0,0,1.707065783691406,0,0,0.9187500000000001
1.3738015879998784,0,0,1.5514426757812498,0,0,0.6125
1.3767609229998925,0,0,0.8810662109374999,0,0,0.30625
1.379709443000138,0,0,1.9656395629882812,0,0,0.765625
1.382633944999725,0,0,0.814028564453125,0,0,0.0765625
1.3855607989999044,0,0,1.4125789794921875,0,0,1.1484375
1.3884863379998933,0,0,1.6304513305664061,0,0,1.53125
1.3913917299996683,0,0,1.1827356201171875,0,0,0.3828125
1.3943154170001435,0,0,2.104503259277344,0,0,1.1484375
1.3972394000002168,0,0,1.180341418457031,0,0,0.45937500000000003
1.4001589029994648,0,0,0.7709329345703124,0,0,1.378125
1.4031556439995256,0,0,2.04943662109375,0,0,1.3015625000000002
1.4060862950000228,0,0,1.426944189453125,0,0,0.6890625
1.4093473670000094,0,0,1.6472107421875,0,0,0.6125
1.4126281419994484,0,0,1.2617442749023438,0,0,0.5359375000000001
1.415893714000049,0,0,1.2665326782226562,0,0,1.1484375
1.4191646199997194,0,0,1.5370774658203123,0,0,0.8421875000000001
1.422453487999519,0,0,1.4317325927734375,0,0,1.0718750000000001
1.4257092640000337,0,0,2.0781670410156248,0,0,1.1484375
1.4289612800002942,0,0,0.8930372192382812,0,0,0.6125
1.4322119819998989,0,0,1.697488977050781,0,0,1.3015625000000002
1.4354754989999492,0,0,1.2952630981445312,0,0,0.153125
1.4391611029996056,0,0,1.4149731811523436,0,0,0.6125
1.442488914999558,0,0,0.9050082275390624,0,0,1.378125
1.4457834679997177,0,0,1.7310078002929687,0,0,1.53125
1.449031725000168,0,0,1.4125789794921875,0,0,0.765625
1.4522723350000888,0,0,1.8698714965820311,0,0,1.4546875000000001
1.4555479439995906,0,0,1.5131354492187499,0,0,1.4546875000000001
1.4587976829998297,0,0,1.5035586425781249,0,0,1.378125
1.462045661999582,0,0,1.419761584472656,0,0,0.22968750000000002
1.4652933269999266,0,0,1.39821376953125,0,0,832.8468750000001
1.4685378260001016,0,0,1.0319009155273438,0,0,0.5359375000000001
1.471781731000192,0,0,1.1827356201171875,0,0,1.1484375
1.475116746999447,0,0,1.7812860351562498,0,0,1.225
1.4783820780003225,0,0,1.8531120849609375,0,0,0.6890625
1.4816293169997152,0,0,1.659181750488281,0,0,1.3015625000000002
1.484892315000252,0,0,1.350329736328125,0,0,0.8421875000000001
1.488481512999897,0,0,1.0606313354492187,0,0,0.6890625
1.4920603410000695,0,0,1.446097802734375,0,0,1.378125
1.4953625420002936,0,0,1.0797849487304687,0,0,1.53125
1.4986257620003016,0,0,1.4221557861328125,0,0,1.1484375
1.502150311999685,0,0,1.350329736328125,0,0,0.8421875000000001
1.5054466060000777,0,0,1.9009961181640624,0,0,1.378125
1.5087435850000475,0,0,1.3215993164062498,0,0,0.6890625
1.5120003609999912,0,0,1.4987702392578124,0,0,1.3015625000000002
1.5152588410001044,0,0,1.7262193969726563,0,0,-8.881250000000001
1.5185135800002172,0,0,1.0366893188476562,0,0,0.765625
1.5217850039998666,0,0,1.16837041015625,0,0,1.225
1.5250351499998942,0,0,1.5586252807617187,0,0,0.6890625
1.5283296659999905,0,0,1.5753846923828123,0,0,0.9187500000000001
1.531592794000062,0,0,1.9033903198242186,0,0,1.990625
1.53483312499975,0,0,1.3670891479492187,0,0,0.6125
1.5380882529998416,0,0,1.6472107421875,0,0,0.5359375000000001
1.5413802690000011,0,0,1.2689268798828124,0,0,0.45937500000000003
1.5447156740001446,0,0,0.7589619262695312,0,0,1.3015625000000002
1.5480640779996975,0,0,1.7669208251953124,0,0,1.0718750000000001
1.551339224000003,0,0,1.0941501586914062,0,0,0.6125
1.5545934080000734,0,0,1.879448303222656,0,0,1.4546875000000001
1.557847146000313,0,0,1.6400281372070311,0,0,1.0718750000000001
1.5610974960000021,0,0,1.0582371337890624,0,0,0.5359375000000001
1.56434749500022,0,0,1.5729904907226562,0,0,1.225
1.5675976410002477,0,0,0.7565677246093749,0,0,1.1484375
1.5708475649998945,0,0,1.5035586425781249,0,0,1.3015625000000002
1.574097451999478,0,0,1.16837041015625,0,0,0.22968750000000002
1.5773490060000768,0,0,1.695094775390625,0,0,1.1484375
1.5806314669998756,0,0,1.695094775390625,0,0,1.0718750000000001
1.5839412969999103,0,0,1.005564697265625,0,0,0.3828125
1.5872014440001294,0,0,1.6998831787109374,0,0,0.6890625
1.590466274999926,0,0,0.6584054565429687,0,0,0.6890625
1.5937253649999548,0,0,1.3144167114257812,0,0,1.53125
1.5969905860001745,0,0,1.3862427612304686,0,0,1.3015625000000002
1.6002527869995902,0,0,1.5610194824218748,0,0,0.9187500000000001
1.6035325450002347,0,0,1.8315642700195311,0,0,1.4546875000000001
1.6067922459997135,0,0,1.3239935180664062,0,0,0.6125
1.6100429110001642,0,0,1.4915876342773438,0,0,0.765625
1.6132935569994515,0,0,1.39821376953125,0,0,1.4546875000000001
1.6165428699996482,0,0,1.5298948608398437,0,0,0.6125
1.6197935909995067,0,0,1.8842367065429686,0,0,0.9953125
1.6230437369995343,0,0,1.889025109863281,0,0,1.378125
1.626294919999964,0,0,1.1228805786132812,0,0,-852.8296875000001
1.6295492150002246,0,0,1.2593500732421874,0,0,0.0765625
1.6328293979995578,0,0,0.8259995727539062,0,0,1.8375000000000001
1.636082525999882,0,0,1.4173673828125,0,0,1.9140625000000002
1.639375263999682,0,0,1.8315642700195311,0,0,0.9953125
1.642628706999858,0,0,1.9536685546875,0,0,1.225
1.6458823339999071,0,0,1.9871873779296874,0,0,0.6890625
1.6491379809995124,0,0,0.7110778930664062,0,0,-853.1359375000001
1.6524246640001365,0,0,1.1611878051757811,0,0,0.9187500000000001
1.655809066999609,0,0,1.4508862060546874,0,0,2.0671875
1.6592272119996778,0,0,1.3024457031249999,0,0,1.378125
1.662491561999559,0,0,2.118868469238281,0,0,1.4546875000000001
1.665813206999701,0,0,2.059013427734375,0,0,0.45937500000000003
1.6691069640000933,0,0,1.0438719238281249,0,0,832.3109375
1.6723516659994857,0,0,0.8954314208984374,0,0,9.4171875
1.675619144999473,0,0,1.4413093994140624,0,0,1.6843750000000002
1.678873939999903,0,0,1.0510545288085937,0,0,0.9953125
1.6821304380000583,0,0,1.7118541870117185,0,0,0.6890625
1.6853777879996414,0,0,2.5234885498046875,0,0,2.45
1.688772192000215,0,0,1.0462661254882812,0,0,832.3109375
1.6923403339997094,0,0,0.8810662109374999,0,0,832.69375
1.6956555719998505,0,0,1.8363526733398436,0,0,2.3734375
1.6989020889996027,0,0,0.6967126831054687,0,0,0.6125
1.7021583280002233,0,0,1.8531120849609375,0,0,1.3015625000000002
1.7054080669995528,0,0,2.442085693359375,0,0,1.7609375
1.7086745090000477,0,0,0.9864110839843749,0,0,832.69375
1.7122077630001513,0,0,1.0702081420898437,0,0,0.9953125
1.7157643509999616,0,0,1.3335703247070312,0,0,1.378125
1.719021848999546,0,0,0.9433154541015625,0,0,1.6843750000000002
1.7222879949995331,0,0,2.205059729003906,0,0,1.53125
1.725967505999506,0,0,1.5490484741210937,0,0,0.5359375000000001
1.729332613999759,0,0,1.1133037719726562,0,0,0.9953125
1.734078669000155,0,0,1.3431471313476562,0,0,1.225
1.737358165999467,0,0,0.7900865478515624,0,0,0.45937500000000003
1.7406162569996013,0,0,2.1212626708984375,0,0,2.0671875
1.7438752919997569,0,0,2.003946789550781,0,0,1.0718750000000001
1.7471157899999525,0,0,0.8403647827148437,0,0,831.928125
1.7503985840003224,0,0,1.7836802368164062,0,0,1.6078125
1.7536564709998856,0,0,0.8547299926757812,0,0,1.0718750000000001
1.7568957849998696,0,0,0.9864110839843749,0,0,0.5359375000000001
1.7601293569996415,0,0,2.6503812377929687,0,0,1.53125
1.7634707429997434,0,0,1.1156979736328125,0,0,-852.8296875000001
1.7667433699998583,0,0,0.8643067993164062,0,0,1.225
1.7702100509995944,0,0,2.0278888061523435,0,0,0.5359375000000001
1.77347343800011,0,0,0.6536170532226562,0,0,0.765625
1.776732806999462,0,0,1.9488801513671874,0,0,2.5265625000000003
1.7799865639999553,0,0,2.384624853515625,0,0,1.378125
1.7832242469994526,0,0,0.9576806640625,0,0,832.0812500000001
1.7864810419996502,0,0,1.927332336425781,0,0,1.6078125
1.789758965999681,0,0,1.1827356201171875,0,0,0.6890625
1.7930136120003226,0,0,0.82360537109375,0,0,0.45937500000000003
1.7962862759995915,0,0,2.8993782104492185,0,0,1.9140625000000002
1.799541162999958,0,0,1.0295067138671874,0,0,0.0
1.802829494999969,0,0,0.7972691528320313,0,0,0.5359375000000001
1.80619187999946,0,0,2.085349645996094,0,0,1.0718750000000001
1.8093314719999398,0,0,0.19632453613281248,0,0,0.5359375000000001
1.8122345299998415,0,0,1.3910311645507811,0,0,1.6843750000000002
1.8151444579998497,0,0,2.3295582153320313,0,0,0.3828125
1.818110737999632,0,0,0.3327940307617187,0,0,832.8468750000001
1.8213800869998522,0,0,2.2553379638671873,0,0,1.990625
1.8243401629997607,0,0,1.2330138549804688,0,0,1.4546875000000001
1.8272649430000456,0,0,0.469263525390625,0,0,0.0765625
1.8301906859996961,0,0,2.2457611572265623,0,0,0.5359375000000001
1.8331078359997264,0,0,2.114080065917969,0,0,0.6890625
1.8360100419995433,0,0,-0.1484405029296875,0,0,1.0718750000000001
1.8389594139998735,0,0,1.7693150268554687,0,0,0.6890625
1.8418835269994815,0,0,1.7669208251953124,0,0,1.1484375
1.8448085479994916,0,0,1.1444283935546875,0,0,1.4546875000000001
1.8477281240002412,0,0,2.0254946044921875,0,0,0.9953125
1.8506410889995095,0,0,0.6751648681640625,0,0,832.3109375
1.853609423999842,0,0,1.1348515869140625,0,0,0.9953125
1.8565344259995982,0,0,1.608903515625,0,0,1.6843750000000002
1.8594957799996337,0,0,0.8762778076171874,0,0,0.765625
1.8624055780001072,0,0,2.398990063476562,0,0,0.6125
1.8653228949997356,0,0,1.867477294921875,0,0,0.5359375000000001
1.8682459339997877,0,0,0.8379705810546875,0,0,0.5359375000000001
1.8712525649998497,0,0,1.0486603271484374,0,0,0.5359375000000001
1.8745805990001827,0,0,1.1947066284179686,0,0,1.1484375
1.8779230039999675,0,0,1.5969325073242187,0,0,0.6890625
1.8808553580001899,0,0,2.0183119995117185,0,0,0.45937500000000003
1.883773896999628,0,0,0.8044517578125,0,0,0.45937500000000003
1.8866953440001453,0,0,1.5298948608398437,0,0,1.378125
1.8896234200001345,0,0,1.1252747802734375,0,0,0.6890625
1.892532052000206,0,0,1.0702081420898437,0,0,0.9953125
1.8954568680001103,0,0,2.2553379638671873,0,0,1.6078125
1.8983772780002255,0,0,0.8810662109374999,0,0,832.2343750000001
1.9013006499999392,0,0,0.0718260498046875,0,0,1.0718750000000001
1.9042190600002868,0,0,1.85790048828125,0,0,2.0671875
1.9071258769999986,0,0,0.6631938598632812,0,0,0.5359375000000001
1.910354097999516,0,0,2.7461493041992187,0,0,1.0718750000000001
1.9137392419997923,0,0,1.4700398193359374,0,0,0.22968750000000002
1.9170182769994426,0,0,-0.239420166015625,0,0,0.9953125
1.920269164000274,0,0,1.6160861206054686,0,0,1.6078125
1.9235561069999676,0,0,1.0007762939453124,0,0,1.225
1.9268478819994925,0,0,2.437297290039062,0,0,0.9953125
1.9301158609996492,0,0,1.599326708984375,0,0,-1.1484375
1.9336306160003005,0,0,1.1109095703125,0,0,1.0718750000000001
1.9368955580002876,0,0,1.2665326782226562,0,0,1.1484375
1.9415476140002284,0,0,2.1619640991210938,0,0,2.2203125000000004
1.944862426000327,0,0,2.068590234375,0,0,0.6125
1.948114312999678,0,0,0.7206546997070312,0,0,0.0
1.951367589000256,0,0,1.24498486328125,0,0,1.378125
1.9546260870001788,0,0,0.7445967163085937,0,0,1.225
1.9578824740001437,0,0,1.9584569580078124,0,0,1.3015625000000002
1.9611373609996008,0,0,2.24097275390625,0,0,0.0
1.9644243399998231,0,0,0.70868369140625,0,0,0.45937500000000003
1.9677678560001368,0,0,1.7908628417968748,0,0,0.9187500000000001
1.971080759999495,0,0,0.36391865234375,0,0,0.22968750000000002
1.9743370549995234,0,0,2.1404162841796874,0,0,1.225
1.9775904230000378,0,0,1.6112977172851561,0,0,0.22968750000000002
1.980844106999939,0,0,0.24181436767578124,0,0,0.8421875000000001
1.984224918000109,0,0,2.0183119995117185,0,0,1.225
1.9880911310001466,0,0,0.718260498046875,0,0,0.9187500000000001
1.9913974060000328,0,0,2.1452046874999997,0,0,0.0765625
1.9946487560000605,0,0,0.93852705078125,0,0,832.0046875
1.9978976619995592,0,0,1.0031704956054688,0,0,1.3015625000000002
2.0011488640002426,0,0,1.4532804077148436,0,0,1.378125
2.0044449910001276,0,0,1.3958195678710936,0,0,1.8375000000000001
2.007791709999765,0,0,2.1715409057617188,0,0,0.0765625
2.0109223580002435,0,0,0.7829039428710937,0,0,-1.1484375
2.0138417489997664,0,0,1.0869675537109373,0,0,1.1484375
2.016783418000159,0,0,1.3287819213867187,0,0,1.0718750000000001
2.0197456790001524,0,0,0.5099649536132812,0,0,0.6125
2.0226635139997597,0,0,2.597708801269531,0,0,1.225
2.0255818499999805,0,0,2.1787235107421874,0,0,1.1484375
2.0284997779999685,0,0,0.15083470458984374,0,0,0.0
2.031412557999829,0,0,1.0630255371093749,0,0,0.22968750000000002
2.034328374999859,0,0,0.6919242797851562,0,0,0.8421875000000001
2.03726865399949,0,0,1.5921441040039062,0,0,1.7609375
2.040298785000232,0,0,2.2744915771484373,0,0,0.153125
2.0433109149998927,0,0,1.3479355346679687,0,0,0.30625
2.046602432000327,0,0,1.5705962890624998,0,0,0.8421875000000001
2.0496129880002627,0,0,0.6272808349609375,0,0,0.765625
2.0526083039994774,0,0,0.9097966308593749,0,0,1.1484375
2.0555277140001635,0,0,2.1452046874999997,0,0,1.53125
2.0584699189994353,0,0,1.01514150390625,0,0,0.153125
2.0613826250000784,0,0,1.429338391113281,0,0,0.8421875000000001
2.065017173999877,0,0,1.7860744384765623,0,0,1.378125
2.068062526999711,0,0,0.8834604125976562,0,0,0.3828125
2.0709877879999112,0,0,1.7597382202148437,0,0,1.1484375
2.074004270999467,0,0,1.8507178833007811,0,0,0.22968750000000002
2.076932828000281,0,0,0.41419688720703124,0,0,0.6125
2.079854440999952,0,0,1.5658078857421873,0,0,1.6078125
2.0827744070002154,0,0,1.180341418457031,0,0,0.9953125
2.0857004829995276,0,0,1.6639701538085936,0,0,1.3015625000000002
2.088639040000089,0,0,2.4301146850585935,0,0,0.5359375000000001
2.0915698379994865,0,0,0.3064578125,0,0,-852.8296875000001
2.094494062999729,0,0,1.388636962890625,0,0,1.3015625000000002
2.0974187869996967,0,0,1.3862427612304686,0,0,1.4546875000000001
2.100337734000277,0,0,0.5961562133789062,0,0,1.6078125
2.1032569210001384,0,0,2.5617957763671875,0,0,2.0671875
2.106176070999936,0,0,2.04943662109375,0,0,-9.49375
2.109161647000292,0,0,0.062249243164062495,0,0,0.45937500000000003
2.112144740999611,0,0,1.8124106567382812,0,0,1.53125
2.115121593999902,0,0,0.8259995727539062,0,0,0.6890625
2.118125205999604,0,0,1.5298948608398437,0,0,1.3015625000000002
2.1211224290000246,0,0,2.446874096679687,0,0,1.378125
2.124533815000177,0,0,0.373495458984375,0,0,0.765625
2.127771775999463,0,0,1.8555062866210936,0,0,0.9187500000000001
2.130789683999865,0,0,0.8547299926757812,0,0,0.45937500000000003
2.1337924449999264,0,0,1.3862427612304686,0,0,1.4546875000000001
2.13786811799946,0,0,1.7764976318359373,0,0,0.6890625
2.1409052669996527,0,0,0.7589619262695312,0,0,1.1484375
2.143844010000066,0,0,2.0302830078125,0,0,1.6078125
2.146765770999991,0,0,0.8379705810546875,0,0,0.3828125
2.149672217999978,0,0,1.4030021728515625,0,0,1.1484375
2.1526694229996792,0,0,2.04943662109375,0,0,0.9953125
2.1555781839997508,0,0,0.239420166015625,0,0,0.3828125
2.1585305190001236,0,0,2.1619640991210938,0,0,1.1484375
2.1614351700000043,0,0,1.5346832641601562,0,0,0.9187500000000001
2.16433533899999,0,0,0.7445967163085937,0,0,0.8421875000000001
2.167275007000171,0,0,2.0470424194335934,0,0,0.9953125
2.1701939909999055,0,0,1.8052280517578123,0,0,0.6125
2.173099918999469,0,0,0.23223756103515625,0,0,0.6125
2.176002643999709,0,0,1.7549498168945312,0,0,1.0718750000000001
2.1789341639996564,0,0,1.209071838378906,0,0,1.0718750000000001
2.1818617959997937,0,0,1.695094775390625,0,0,1.8375000000000001
2.1847820570001204,0,0,2.2385785522460937,0,0,0.0
2.1876944850000655,0,0,0.19393033447265623,0,0,0.153125
2.1906853199998295,0,0,1.6831237670898436,0,0,1.378125
2.1936704139998255,0,0,1.209071838378906,0,0,0.9187500000000001
2.1965989339996668,0,0,0.8978256225585937,0,0,0.8421875000000001
2.1995188069995493,0,0,2.540247961425781,0,0,1.4546875000000001
2.2024429940001937,0,0,1.0414777221679687,0,0,0.9187500000000001
2.2053762180003105,0,0,0.3112462158203125,0,0,0.5359375000000001
2.2083290350001334,0,0,1.8435352783203125,0,0,1.0718750000000001
2.2112579439999536,0,0,1.0366893188476562,0,0,0.3828125
2.2140722260000985,0,0,1.448492004394531,0,0,0.8421875000000001
2.216737304999697,0,0,1.8818425048828125,0,0,0.8421875000000001
2.219421198999953,0,0,0.6631938598632812,0,0,0.0
2.2221701290000055,0,0,1.5251064575195312,0,0,1.0718750000000001
2.224875206999968,0,0,1.618480322265625,0,0,1.3015625000000002
2.227532138999777,0,0,0.7015010864257812,0,0,0.0
2.230177384999479,0,0,1.9680337646484374,0,0,0.3828125
2.2328521310000724,0,0,2.1021090576171875,0,0,1.225
2.2355079509998177,0,0,-0.26815058593749996,0,0,0.0765625
2.238165714999923,0,0,1.6160861206054686,0,0,1.7609375
2.240822627999478,0,0,2.3511060302734372,0,0,1.9140625000000002
2.243479781000133,0,0,0.59376201171875,0,0,0.6890625
2.246132712999497,0,0,1.2330138549804688,0,0,0.0
2.248811792000197,0,0,2.4947581298828125,0,0,0.5359375000000001
2.2514728520000062,0,0,0.16998831787109375,0,0,832.8468750000001
2.2541312280000056,0,0,0.7541735229492187,0,0,1.3015625000000002
2.2568099740001344,0,0,1.5418658691406248,0,0,2.0671875
2.25946470100007,0,0,0.7422025146484375,0,0,0.8421875000000001
2.2621187619997727,0,0,1.9608511596679685,0,0,1.9140625000000002
2.2647751189997507,0,0,2.157175695800781,0,0,0.0
2.267440087000068,0,0,0.3711012573242187,0,0,-0.45937500000000003
2.270096444999581,0,0,1.1372457885742187,0,0,1.4546875000000001
2.2727516909999395,0,0,1.5682020874023437,0,0,1.7609375
2.2754045109995786,0,0,0.29448680419921874,0,0,0.45937500000000003
2.2780573860000004,0,0,1.7836802368164062,0,0,0.9187500000000001
2.2808122240003286,0,0,2.8802245971679685,0,0,1.225
2.2834851179995894,0,0,0.22266075439453123,0,0,832.0046875
2.286146233999716,0,0,0.7661445312499999,0,0,1.1484375
2.2888021839999055,0,0,1.8818425048828125,0,0,2.2203125000000004
2.291454430000158,0,0,0.39743747558593745,0,0,0.6125
2.2941078980002203,0,0,1.446097802734375,0,0,1.378125
2.296778959000221,0,0,2.3678654418945313,0,0,1.1484375
2.29944220499965,0,0,0.469263525390625,0,0,832.69375
2.3021019139996497,0,0,1.35990654296875,0,0,1.53125
2.3047561410003254,0,0,1.7094599853515624,0,0,1.4546875000000001
2.3074337759999253,0,0,0.45489831542968745,0,0,-0.6125
2.310185798999555,0,0,1.8171990600585937,0,0,0.8421875000000001
2.313201650999872,0,0,2.042254016113281,0,0,0.5359375000000001
2.3164649459995417,0,0,-0.411802685546875,0,0,0.153125
2.3197537579999334,0,0,2.3319524169921872,0,0,2.2203125000000004
2.323024737999731,0,0,1.1420341918945311,0,0,0.6125
2.326290254000014,0,0,1.6543933471679686,0,0,1.378125
2.329535197000041,0,0,1.867477294921875,0,0,0.6890625
2.332877785999699,0,0,-0.040701428222656245,0,0,0.8421875000000001
2.3361388220000663,0,0,1.2617442749023438,0,0,2.5265625000000003
2.339399300999503,0,0,1.1228805786132812,0,0,1.0718750000000001
2.3426370959996348,0,0,2.6001030029296874,0,0,2.296875
2.34589057499943,0,0,1.6615759521484375,0,0,-1.3015625000000002
2.3491471480001564,0,0,-0.15083470458984374,0,0,0.6125
2.352428627000336,0,0,1.7262193969726563,0,0,1.3015625000000002
2.3556839399998353,0,0,0.4572925170898437,0,0,0.8421875000000001
2.358935289999863,0,0,2.5354595581054684,0,0,2.0671875
2.362186935999489,0,0,2.138022082519531,0,0,-0.9187500000000001
2.36544256399975,0,0,1.1061211669921875,0,0,0.765625
2.368702210000265,0,0,1.5490484741210937,0,0,1.6078125
2.3719709489996603,0,0,0.4740519287109375,0,0,1.1484375
2.375241112999902,0,0,2.288856787109375,0,0,1.8375000000000001
2.3784945190000144,0,0,0.8882488159179687,0,0,-0.5359375000000001
2.381813793999754,0,0,1.1085153686523437,0,0,0.9187500000000001
2.3850725330003115,0,0,1.5490484741210937,0,0,1.3015625000000002
2.388324956999895,0,0,0.6057330200195312,0,0,0.8421875000000001
2.3915950290002,0,0,2.3918074584960936,0,0,1.4546875000000001
2.3948470830000588,0,0,1.0127473022460938,0,0,-852.8296875000001
2.3981011360001503,0,0,1.1180921752929687,0,0,0.30625
2.4013539119996494,0,0,1.8243816650390623,0,0,0.9953125
2.4046313729995745,0,0,0.8762778076171874,0,0,1.225
2.407884666999962,0,0,2.166752502441406,0,0,0.9953125
2.411198312999659,0,0,1.0390835205078124,0,0,9.4171875
2.4144683849999637,0,0,1.1540052001953125,0,0,0.765625
2.4178035300001284,0,0,1.16837041015625,0,0,1.6843750000000002
2.4210718799995448,0,0,1.2425906616210938,0,0,2.0671875
2.424319267000101,0,0,3.201047619628906,0,0,0.765625
2.4275719139996,0,0,0.24899697265624998,0,0,832.8468750000001
2.4308077639998373,0,0,1.3311761230468748,0,0,0.6890625
2.4340590209994843,0,0,1.3072341064453123,0,0,0.9953125
2.4373105009999563,0,0,0.6823474731445313,0,0,1.378125
2.4406228319994625,0,0,2.683900061035156,0,0,0.9187500000000001
2.44401751300029,0,0,0.5482721801757812,0,0,0.5359375000000001
2.4472820849996424,0,0,1.3407529296874998,0,0,0.765625
2.4505350649997126,0,0,0.5386953735351562,0,0,0.0
2.453791803999593,0,0,2.205059729003906,0,0,1.1484375
2.457063357000152,0,0,2.3415292236328122,0,0,0.6890625
2.4603387249999287,0,0,0.2753331909179687,0,0,-9.8
2.463608111999747,0,0,2.0159177978515626,0,0,1.53125
2.4668604809994576,0,0,0.6679822631835937,0,0,1.1484375
2.4701112009997814,0,0,1.120486376953125,0,0,1.6078125
2.473362865999661,0,0,2.6001030029296874,0,0,1.4546875000000001
2.4766166049994354,0,0,0.4285620971679687,0,0,0.45937500000000003
2.4798657700002877,0,0,1.5801730957031248,0,0,1.6078125
2.483115897999596,0,0,1.0941501586914062,0,0,0.765625
2.486370136000005,0,0,1.5011644409179687,0,0,1.6078125
2.489633615999992,0,0,1.886630908203125,0,0,-0.3828125
2.492898743999831,0,0,0.25139117431640623,0,0,0.0765625
2.4961508340002183,0,0,1.6639701538085936,0,0,1.1484375
2.499424425000143,0,0,0.4213794921875,0,0,1.4546875000000001
2.502686996999728,0,0,2.4971523315429685,0,0,1.7609375
2.5060237899997446,0,0,1.8291700683593748,0,0,-1.6843750000000002
2.5093187140000737,0,0,0.3016694091796875,0,0,1.4546875000000001
2.512597748999724,0,0,1.6639701538085936,0,0,1.53125
2.5158544139994774,0,0,0.040701428222656245,0,0,1.1484375
2.519131410999762,0,0,2.224213342285156,0,0,1.7609375
2.5224158539995187,0,0,2.2936451904296873,0,0,-0.5359375000000001
2.525686776999464,0,0,1.4030021728515625,0,0,0.9953125
2.5289327390000835,0,0,1.3096283081054687,0,0,0.9187500000000001
2.532162884999707,0,0,0.04548983154296875,0,0,0.765625
2.5354529380001622,0,0,2.499546533203125,0,0,2.2203125000000004
2.5387262699996427,0,0,0.8978256225585937,0,0,-1.0718750000000001
2.5419815089999247,0,0,1.6543933471679686,0,0,0.765625
2.5452344140003333,0,0,1.8411410766601561,0,0,0.45937500000000003
2.5485135230001106,0,0,0.055066638183593745,0,0,0.6890625
2.5517980949998673,0,0,2.4109610717773435,0,0,1.4546875000000001
2.5551093329995638,0,0,1.01514150390625,0,0,0.22968750000000002
2.558371571999487,0,0,1.2880804931640624,0,0,0.9953125
2.5616244220000226,0,0,1.484405029296875,0,0,0.6125
2.564874902000156,0,0,0.8714894042968749,0,0,1.53125
2.5681405109999105,0,0,2.4396914916992185,0,0,0.6890625
2.571390805000192,0,0,0.6727706665039062,0,0,9.1875
2.5746434699995007,0,0,1.5682020874023437,0,0,1.225
2.577901615999508,0,0,1.2401964599609374,0,0,0.45937500000000003
2.581165966000299,0,0,0.8930372192382812,0,0,1.7609375
2.5844362970001384,0,0,2.3678654418945313,0,0,0.0
2.5877065909999146,0,0,-0.2561795776367187,0,0,0.0
2.5909606639997946,0,0,1.6136919189453125,0,0,1.4546875000000001
2.5942106060001606,0,0,1.3407529296874998,0,0,0.6890625
2.5975714739997784,0,0,1.9009961181640624,0,0,1.4546875000000001
2.600823193999531,0,0,2.588131994628906,0,0,0.8421875000000001
2.604072266000003,0,0,0.086191259765625,0,0,0.45937500000000003
2.6073491340002874,0,0,2.013523596191406,0,0,1.8375000000000001
2.6106410209995374,0,0,0.22744915771484372,0,0,1.8375000000000001
2.6138916669997343,0,0,2.0925322509765625,0,0,1.3015625000000002
2.617170757999702,0,0,2.729389892578125,0,0,1.378125
2.6204203480001524,0,0,-0.277727392578125,0,0,0.22968750000000002
2.6236840689998644,0,0,2.3870190551757813,0,0,1.3015625000000002
2.6269515479998518,0,0,1.189918225097656,0,0,832.8468750000001
2.6302140649995636,0,0,1.5275006591796874,0,0,-9.264062500000001
2.6334670070000357,0,0,1.6831237670898436,0,0,-8.728125
2.636721265000233,0,0,-0.0143652099609375,0,0,0.3828125
2.639974503999838,0,0,2.39420166015625,0,0,2.0671875
2.643222945999696,0,0,0.9696516723632812,0,0,0.8421875000000001
2.646471037000083,0,0,2.5953145996093747,0,0,1.0718750000000001
2.649725756999942,0,0,1.5586252807617187,0,0,0.3828125
2.6529761439996946,0,0,-0.3902548706054687,0,0,0.9187500000000001
2.656252902000233,0,0,2.001552587890625,0,0,1.1484375
2.6612318050001704,0,0,0.8930372192382812,0,0,1.0718750000000001
2.6644886730000508,0,0,2.7174188842773437,0,0,0.153125
2.6677593940003135,0,0,0.016759411621093748,0,0,9.340625000000001
2.671037262000027,0,0,1.0678139404296874,0,0,0.8421875000000001
2.6742946859994845,0,0,1.5490484741210937,0,0,0.8421875000000001
2.6775852760001726,0,0,1.867477294921875,0,0,0.765625
2.680857348000245,0,0,2.559401574707031,0,0,0.8421875000000001
2.6841100499996173,0,0,0.469263525390625,0,0,-852.8296875000001
2.6873661039999206,0,0,1.3048399047851562,0,0,1.6078125
2.6906155649994616,0,0,0.3112462158203125,0,0,0.45937500000000003
2.694207837000249,0,0,1.838746875,0,0,1.4546875000000001
2.697487204999561,0,0,1.9584569580078124,0,0,-9.264062500000001
2.7007470919998013,0,0,-0.2705447875976562,0,0,0.30625
2.7040041820000624,0,0,1.6998831787109374,0,0,1.7609375
2.7072576069995193,0,0,0.97683427734375,0,0,1.1484375
2.7105472149996785,0,0,2.061407629394531,0,0,1.0718750000000001
2.7137990840001294,0,0,1.7357962036132812,0,0,0.6890625
2.7171023410001,0,0,0.0047884033203125,0,0,1.990625
2.720377986999665,0,0,1.6256629272460936,0,0,1.9140625000000002
2.7236736320001,0,0,0.7134720947265625,0,0,0.6125
2.7270816840000407,0,0,2.6048914062499997,0,0,1.225
2.730484144000002,0,0,0.7038952880859375,0,0,-1.3015625000000002
2.733880972999941,0,0,1.0295067138671874,0,0,0.765625
2.737247858999581,0,0,1.5059528442382812,0,0,0.9187500000000001
2.7405078020001383,0,0,1.2737152832031249,0,0,1.4546875000000001
2.743743410999741,0,0,2.327164013671875,0,0,0.9953125
2.7469988169996213,0,0,1.2880804931640624,0,0,8.8046875
2.750253684999734,0,0,0.9217676391601562,0,0,0.8421875000000001
2.753509756999847,0,0,1.0007762939453124,0,0,1.53125
2.756763643999875,0,0,1.0319009155273438,0,0,1.9140625000000002
2.760017290000178,0,0,2.863465185546875,0,0,1.3015625000000002
2.763272121999762,0,0,0.9959878906249999,0,0,9.646875000000001
2.7665248240000437,0,0,1.4987702392578124,0,0,0.5359375000000001
2.7698054510001384,0,0,1.1324573852539062,0,0,0.8421875000000001
2.773059485999511,0,0,0.8379705810546875,0,0,1.6078125
2.776307187999919,0,0,2.5234885498046875,0,0,0.45937500000000003
2.77954609399967,0,0,0.42377369384765623,0,0,-852.8296875000001
2.782789462999972,0,0,1.5873557006835937,0,0,1.1484375
2.786030776000189,0,0,0.7972691528320313,0,0,0.6125
2.789313958999628,0,0,0.8092401611328125,0,0,1.225
2.7925530499996967,0,0,2.597708801269531,0,0,0.3828125
2.7959230830001616,0,0,0.21787235107421873,0,0,0.6890625
2.7992045809996853,0,0,1.43652099609375,0,0,1.378125
2.8024607639999886,0,0,0.6248866333007812,0,0,0.9953125
2.8057097999999314,0,0,2.221819140625,0,0,0.9953125
2.8089595940000436,0,0,2.5809493896484375,0,0,0.6890625
2.8123043509995114,0,0,-0.11252747802734374,0,0,-0.22968750000000002
2.815453739000077,0,0,1.7262193969726563,0,0,0.9187500000000001
2.8183985739997297,0,0,0.9696516723632812,0,0,1.0718750000000001
2.8213231689996974,0,0,1.0893617553710937,0,0,2.1437500000000003
2.824317243999758,0,0,2.5953145996093747,0,0,0.6125
2.8272393569995984,0,0,1.2210428466796874,0,0,-0.6890625
2.8301620069996716,0,0,1.4891934326171874,0,0,1.1484375
2.833082991000083,0,0,1.0534487304687499,0,0,1.53125
2.83600386299986,0,0,0.5746083984375,0,0,0.8421875000000001
2.8389103290001003,0,0,2.8993782104492185,0,0,2.2203125000000004
2.8418305349996444,0,0,1.3120225097656248,0,0,-9.8
2.844771498999762,0,0,0.4070142822265625,0,0,0.3828125
2.84769172399956,0,0,2.0829554443359375,0,0,1.4546875000000001
2.850615485000162,0,0,0.09337386474609374,0,0,0.3828125
2.853630042000077,0,0,2.2194249389648437,0,0,2.45
2.8566219690001162,0,0,2.750937707519531,0,0,0.0
2.859530638000251,0,0,-0.1484405029296875,0,0,-0.5359375000000001
2.8625254170001426,0,0,1.6017209106445311,0,0,0.9953125
2.8654484740000044,0,0,1.2330138549804688,0,0,1.1484375
2.868380050000269,0,0,-0.04548983154296875,0,0,0.9187500000000001
2.8713321260001976,0,0,2.6408044311523438,0,0,1.990625
2.874253146999763,0,0,2.051830822753906,0,0,-9.8
2.877181316000133,0,0,-0.22505495605468748,0,0,9.340625000000001
2.8801262990000396,0,0,2.133233679199219,0,0,1.378125
2.8830493939994994,0,0,0.5339069702148437,0,0,0.30625
2.8859703769994667,0,0,1.4796166259765624,0,0,1.378125
2.8888934159995188,0,0,2.750937707519531,0,0,0.5359375000000001
2.8918200669995713,0,0,0.4213794921875,0,0,8.881250000000001
2.894755346000238,0,0,1.7477672119140624,0,0,1.225
2.8976956070000597,0,0,0.8810662109374999,0,0,2.296875
2.900619646999985,0,0,0.49799394531249996,0,0,0.9953125
2.9035386119994655,0,0,2.4684219116210935,0,0,1.53125
2.906494799000029,0,0,1.1372457885742187,0,0,1.0718750000000001
2.9094167269995523,0,0,-0.2657563842773437,0,0,-9.8
2.9124291159996574,0,0,2.4349030883789062,0,0,0.9187500000000001
2.9154989500002557,0,0,0.4213794921875,0,0,0.0
2.9187990959999297,0,0,1.7118541870117185,0,0,0.9953125
2.9220965750000687,0,0,2.5067291381835934,0,0,0.3828125
2.9253590729995267,0,0,0.22266075439453123,0,0,0.0
2.9286625710001317,0,0,2.0733786376953125,0,0,0.765625
2.9319183830002657,0,0,0.9720458740234375,0,0,0.6125
2.935186103999513,0,0,1.0702081420898437,0,0,2.2203125000000004
2.938445675999901,0,0,2.422932080078125,0,0,1.53125
2.941709359000015,0,0,0.19153613281249998,0,0,-1.0718750000000001
2.9450701340001615,0,0,2.2290017456054687,0,0,2.0671875
2.948447075000331,0,0,0.7805097412109374,0,0,0.0
2.9517065540003387,0,0,0.852335791015625,0,0,1.378125
2.954997867000202,0,0,2.7629087158203123,0,0,1.990625
2.958272382999894,0,0,0.74699091796875,0,0,-1.225
2.961559639999905,0,0,1.9536685546875,0,0,1.53125
2.964820471999701,0,0,1.4820108276367188,0,0,2.0671875
2.968072710999877,0,0,0.1197100830078125,0,0,-0.8421875000000001
2.9713277829996514,0,0,3.1507693847656246,0,0,2.1437500000000003
2.974580113999764,0,0,0.9816226806640624,0,0,-1.8375000000000001
2.9778342789995804,0,0,0.14604630126953125,0,0,0.5359375000000001
2.981088722000095,0,0,2.427720483398437,0,0,2.296875
2.984339515999636,0,0,0.4908113403320312,0,0,0.5359375000000001
2.987622994999583,0,0,1.5897499023437498,0,0,1.9140625000000002
2.9908770860001823,0,0,2.4133552734375,0,0,0.0
2.9941295469998295,0,0,0.7134720947265625,0,0,-9.8
2.9973971009994784,0,0,0.41898529052734373,0,0,0.6890625
3.0006516359999296,0,0,1.1875240234375,0,0,2.2203125000000004
3.0039121709996834,0,0,1.3120225097656248,0,0,0.9953125
3.0074587399994925,0,0,2.023100402832031,0,0,1.6843750000000002
3.010736903999714,0,0,0.6488286499023437,0,0,8.881250000000001
3.014095826999437,0,0,0.5003881469726562,0,0,0.0
3.0172511969994957,0,0,1.5538368774414062,0,0,2.1437500000000003
3.0201972169998044,0,0,0.967257470703125,0,0,1.6078125
3.0231195710002794,0,0,1.5298948608398437,0,0,1.0718750000000001
3.026041981000162,0,0,2.3965958618164063,0,0,1.1484375
3.0289644829999816,0,0,1.2665326782226562,0,0,-9.646875000000001
3.0318872249999913,0,0,0.8738836059570312,0,0,0.5359375000000001
3.0348090420002336,0,0,0.8212111694335937,0,0,1.53125
3.0377298779994817,0,0,1.3646949462890625,0,0,0.9187500000000001
3.0406694349994723,0,0,1.3383587280273437,0,0,0.5359375000000001
3.0435908079998626,0,0,2.099714855957031,0,0,1.3015625000000002
3.0465319579998322,0,0,2.013523596191406,0,0,0.765625
3.049473107999802,0,0,0.7206546997070312,0,0,-0.5359375000000001
3.0524411280002823,0,0,0.7948749511718749,0,0,0.0
3.0554088150001917,0,0,1.599326708984375,0,0,1.990625
3.0583767420002914,0,0,1.218648645019531,0,0,1.0718750000000001
3.06130337400009,0,0,1.4341267944335936,0,0,1.225
3.0642059319998225,0,0,2.1906945190429687,0,0,1.53125
3.0671327299996847,0,0,1.7549498168945312,0,0,0.0
3.070054787999652,0,0,0.40940848388671874,0,0,-0.6125
3.0729789010001696,0,0,1.1851298217773436,0,0,0.9187500000000001
3.0758996439999464,0,0,1.5322890624999999,0,0,2.75625
3.078821052999956,0,0,0.8547299926757812,0,0,1.225
3.081744017999881,0,0,1.848323681640625,0,0,0.9187500000000001
3.084668483000314,0,0,2.379836450195312,0,0,1.3015625000000002
3.087600077999923,0,0,0.8762778076171874,0,0,9.5703125
3.0905244499999753,0,0,0.5602431884765625,0,0,-0.5359375000000001
3.093476322999777,0,0,1.1061211669921875,0,0,0.6890625
3.0964234909997685,0,0,1.3623007446289062,0,0,2.45
3.099347475000286,0,0,1.1755530151367186,0,0,1.1484375
3.102269105999767,0,0,1.936909143066406,0,0,1.0718750000000001
3.1051979969997774,0,0,2.1547814941406247,0,0,1.3015625000000002
3.108120629000041,0,0,1.2928688964843749,0,0,0.0765625
3.1110959079996974,0,0,0.5889736083984375,0,0,9.4171875
3.1141186309996556,0,0,1.1252747802734375,0,0,0.6125
3.117041577999771,0,0,1.120486376953125,0,0,1.7609375
3.1200775420002174,0,0,1.4125789794921875,0,0,1.378125
3.1233313359998647,0,0,1.6998831787109374,0,0,1.0718750000000001
3.1265975189999153,0,0,1.6472107421875,0,0,1.225
3.1298374799998783,0,0,1.0127473022460938,0,0,-0.22968750000000002
3.1330900160000965,0,0,0.7733271362304687,0,0,0.765625
3.13634195800023,0,0,1.3527239379882812,0,0,2.75625
3.139577938000002,0,0,1.3215993164062498,0,0,1.990625
3.1428337689994805,0,0,1.2880804931640624,0,0,0.45937500000000003
3.146074674999909,0,0,2.375048046875,0,0,0.5359375000000001
3.149321117999534,0,0,1.5753846923828123,0,0,1.6078125
3.1526205039999695,0,0,0.47644613037109373,0,0,0.22968750000000002
3.155874983999638,0,0,1.3575123413085937,0,0,0.9187500000000001
3.1591293709998354,0,0,1.0199299072265624,0,0,1.7609375
3.162384332000329,0,0,1.6304513305664061,0,0,1.8375000000000001
3.1656546080002954,0,0,1.448492004394531,0,0,0.9187500000000001
3.1689820310002688,0,0,1.9225439331054686,0,0,1.0718750000000001
3.172301898999649,0,0,1.1851298217773436,0,0,1.7609375
3.1755704890001653,0,0,0.7015010864257812,0,0,0.0
3.1788253209997492,0,0,1.4987702392578124,0,0,0.8421875000000001
3.182105410999611,0,0,0.9457096557617187,0,0,0.9187500000000001
3.1853607610000836,0,0,1.7214309936523438,0,0,1.3015625000000002
3.188614351999604,0,0,1.1516109985351561,0,0,0.3828125
3.1918667390000337,0,0,1.697488977050781,0,0,0.9187500000000001
3.195196218000092,0,0,1.3862427612304686,0,0,0.6890625
3.19851904799998,0,0,0.9744400756835937,0,0,-0.0765625
3.201776119999522,0,0,1.8291700683593748,0,0,1.1484375
3.205031173999487,0,0,1.0103531005859374,0,0,0.5359375000000001
3.208309578999433,0,0,1.1444283935546875,0,0,1.3015625000000002
3.211566169999969,0,0,1.5179238525390624,0,0,0.9187500000000001
3.2148812420000468,0,0,1.879448303222656,0,0,1.225
3.2181347770001594,0,0,1.7022773803710936,0,0,1.0718750000000001
3.2213957929998287,0,0,1.0223241088867188,0,0,0.30625
3.2246686990001763,0,0,1.2473790649414063,0,0,0.30625
3.227930973999719,0,0,1.3934253662109375,0,0,0.30625
3.231183269000212,0,0,0.5530605834960938,0,0,0.8421875000000001
3.234435081999436,0,0,1.8124106567382812,0,0,0.6890625
3.2376875429999927,0,0,1.3144167114257812,0,0,0.5359375000000001
3.24093744899983,0,0,1.7214309936523438,0,0,1.1484375
3.244188075999773,0,0,0.9624690673828125,0,0,0.6890625
3.247440389000076,0,0,1.446097802734375,0,0,0.5359375000000001
3.2507305540002562,0,0,1.5035586425781249,0,0,0.765625
3.2539841810003054,0,0,1.1540052001953125,0,0,0.45937500000000003
3.257236845999614,0,0,0.6248866333007812,0,0,1.53125
3.2605092519997925,0,0,1.7501614135742187,0,0,1.53125
3.26376049099963,0,0,0.9816226806640624,0,0,0.45937500000000003
3.267012452000017,0,0,1.7286135986328124,0,0,0.6125
3.2702633199996853,0,0,0.9816226806640624,0,0,0.45937500000000003
3.2735151699998823,0,0,1.4724340209960938,0,0,0.6890625
3.276795982999829,0,0,1.1180921752929687,0,0,0.6890625
3.2800488699995185,0,0,1.5179238525390624,0,0,0.22968750000000002
3.2833071830000335,0,0,0.63206923828125,0,0,0.9187500000000001
3.286568792000253,0,0,1.9584569580078124,0,0,1.4546875000000001
3.289838826999585,0,0,0.7206546997070312,0,0,0.45937500000000003
3.2930945469997823,0,0,1.867477294921875,0,0,1.4546875000000001
3.2963651749996643,0,0,1.6615759521484375,0,0,0.6125
3.2996449869997377,0,0,1.3072341064453123,0,0,1.1484375
3.3029079110001476,0,0,1.4173673828125,0,0,0.6890625
3.3061599279999427,0,0,1.4030021728515625,0,0,0.5359375000000001
3.3094147599995267,0,0,1.3407529296874998,0,0,0.22968750000000002
3.3126692579999144,0,0,1.3215993164062498,0,0,0.9187500000000001
3.315962552000201,0,0,1.4987702392578124,0,0,0.765625
3.3192339569995966,0,0,1.2282254516601563,0,0,0.45937500000000003
3.3224867139997514,0,0,2.123656872558594,0,0,0.3828125
3.325787785999637,0,0,0.7422025146484375,0,0,-0.153125
3.3290380059997915,0,0,2.1308394775390624,0,0,1.0718750000000001
3.3322776899995006,0,0,0.9409212524414062,0,0,-9.8
3.3355641139996806,0,0,1.177947216796875,0,0,0.6125
3.338809981999475,0,0,1.216254443359375,0,0,-9.4171875
3.3420641840002645,0,0,0.8882488159179687,0,0,1.8375000000000001
3.345309997000186,0,0,1.7621324218749999,0,0,0.6125
3.3485454769997887,0,0,1.180341418457031,0,0,0.6125
3.3517972709996684,0,0,2.1499930908203124,0,0,1.0718750000000001
3.3550313249998,0,0,0.6943184814453125,0,0,-0.153125
3.3582881199999974,0,0,1.4149731811523436,0,0,1.378125
3.3615408770001522,0,0,1.7453730102539062,0,0,0.45937500000000003
3.364823652999803,0,0,0.8259995727539062,0,0,1.0718750000000001
3.3680796689995987,0,0,1.70467158203125,0,0,0.5359375000000001
3.371345630000178,0,0,0.469263525390625,0,0,0.3828125
3.3745980730000156,0,0,1.3958195678710936,0,0,2.5265625000000003
3.3778488669995568,0,0,1.3551181396484375,0,0,0.6125
3.3810999950001133,0,0,1.3239935180664062,0,0,1.6843750000000002
3.3843547529995703,0,0,2.24097275390625,0,0,0.9187500000000001
3.3876415650001945,0,0,0.6368576416015624,0,0,-9.8
3.390918045000035,0,0,1.9728221679687499,0,0,1.378125
3.3941734689997247,0,0,1.2928688964843749,0,0,0.30625
3.397426651999922,0,0,0.833182177734375,0,0,0.6125
3.400682630999654,0,0,1.7381904052734374,0,0,0.30625
3.403936925999915,0,0,0.7134720947265625,0,0,0.0
3.4071900170001754,0,0,1.149216796875,0,0,1.6078125
3.4104415889996744,0,0,1.5753846923828123,0,0,0.765625
3.413693771999533,0,0,1.2210428466796874,0,0,1.0718750000000001
3.416999176999525,0,0,1.9728221679687499,0,0,1.4546875000000001
3.4202729159997034,0,0,1.0917559570312498,0,0,0.3828125
3.423532081000303,0,0,0.7996633544921875,0,0,0.6890625
3.426813338000102,0,0,1.7980454467773437,0,0,0.8421875000000001
3.430066687999897,0,0,0.9409212524414062,0,0,0.5359375000000001
3.4333179079994807,0,0,1.2330138549804688,0,0,1.0718750000000001
3.4365709430003335,0,0,1.7693150268554687,0,0,-9.8
3.4398330519998126,0,0,0.8786720092773437,0,0,0.153125
3.443135493999762,0,0,1.1180921752929687,0,0,1.3015625000000002
3.446531583000251,0,0,1.4149731811523436,0,0,-9.1875
3.449843469999905,0,0,1.3766659545898436,0,0,0.9187500000000001
3.453098967999722,0,0,1.6615759521484375,0,0,0.8421875000000001
3.456382076999944,0,0,1.407790576171875,0,0,0.765625
3.459669056000166,0,0,0.9816226806640624,0,0,0.765625
3.462918610000088,0,0,1.599326708984375,0,0,1.3015625000000002
3.4661688489995868,0,0,1.3431471313476562,0,0,1.0718750000000001
3.469431438999891,0,0,1.2042834350585936,0,0,0.6890625
3.472690067000258,0,0,1.6927005737304686,0,0,1.6078125
3.4759590459998435,0,0,0.8858546142578124,0,0,0.0
3.4792651549996663,0,0,0.7948749511718749,0,0,-9.1109375
3.4825505789995077,0,0,1.695094775390625,0,0,1.4546875000000001
3.4858018730001277,0,0,1.1156979736328125,0,0,0.22968750000000002
3.4890508529997533,0,0,1.1444283935546875,0,0,0.30625
3.4925402369999574,0,0,1.8698714965820311,0,0,0.8421875000000001
3.4958016059999864,0,0,1.0390835205078124,0,0,0.6890625
3.499051232999591,0,0,0.7733271362304687,0,0,0.153125
3.502572635999968,0,0,1.687912170410156,0,0,1.4546875000000001
3.5058298929998273,0,0,1.218648645019531,0,0,0.6125
3.5090830950002783,0,0,1.2593500732421874,0,0,0.5359375000000001
3.512494831999902,0,0,1.5107412475585937,0,0,0.45937500000000003
3.5163544150000234,0,0,0.9265560424804687,0,0,0.6125
3.519513489000019,0,0,1.0414777221679687,0,0,0.6125
3.52246552699944,0,0,1.448492004394531,0,0,0.6125
3.5253963630002545,0,0,1.3000515014648437,0,0,1.1484375
3.528315716999714,0,0,1.5849614990234373,0,0,0.6890625
3.531253125999683,0,0,1.216254443359375,0,0,0.30625
3.5341817759999685,0,0,1.3335703247070312,0,0,0.9187500000000001
3.537099223000041,0,0,1.467645617675781,0,0,0.9187500000000001
3.540016502999606,0,0,0.9959878906249999,0,0,0.6890625
3.5429365979998693,0,0,1.4963760375976562,0,0,0.6890625
3.545876025000325,0,0,1.4125789794921875,0,0,1.1484375
3.5488434899998538,0,0,1.3646949462890625,0,0,0.153125
3.552144283999951,0,0,1.3168109130859373,0,0,0.5359375000000001
3.55508278599973,0,0,1.0893617553710937,0,0,0.45937500000000003
3.5580038059997605,0,0,1.4437036010742186,0,0,0.6890625
3.5609249749995797,0,0,1.5083470458984374,0,0,0.45937500000000003
3.563841829000012,0,0,1.3551181396484375,0,0,0.9953125
3.5667609239999365,0,0,1.0486603271484374,0,0,0.8421875000000001
3.5696786299995438,0,0,1.3359645263671873,0,0,0.5359375000000001
3.572601558000315,0,0,1.5179238525390624,0,0,0.6125
3.5755210600000282,0,0,1.005564697265625,0,0,0.765625
3.5784433950002494,0,0,1.3048399047851562,0,0,0.8421875000000001
3.5813618789998145,0,0,1.4053963745117186,0,0,0.9187500000000001
3.5842803810000987,0,0,1.649604943847656,0,0,0.8421875000000001
3.587247235000177,0,0,1.4700398193359374,0,0,0.22968750000000002
3.5901763659994685,0,0,0.8475473876953125,0,0,0.3828125
3.593095553999774,0,0,1.369483349609375,0,0,0.9953125
3.596012592999614,0,0,1.2569558715820313,0,0,0.6890625
3.5989312989995597,0,0,1.3263877197265623,0,0,0.9953125
3.6018543379996117,0,0,1.5227122558593749,0,0,0.6125
3.604782692000299,0,0,1.2785036865234374,0,0,0.5359375000000001
3.607724378999592,0,0,1.0654197387695312,0,0,1.225
3.6106489920002787,0,0,1.3120225097656248,0,0,1.0718750000000001
3.6135795119998875,0,0,1.5705962890624998,0,0,0.765625
3.6166181059998053,0,0,1.3934253662109375,0,0,0.6125
3.6195405150001534,0,0,1.197100830078125,0,0,1.3015625000000002
3.622587607999776,0,0,1.3575123413085937,0,0,1.0718750000000001
3.625839328999973,0,0,1.3551181396484375,0,0,1.1484375
3.6290906229996835,0,0,1.455674609375,0,0,0.9187500000000001
3.632338213999901,0,0,1.5442600708007812,0,0,0.5359375000000001
3.635587527000098,0,0,1.1324573852539062,0,0,0.9187500000000001
3.6388603030000013,0,0,1.2737152832031249,0,0,0.9187500000000001
3.642112263999479,0,0,1.426944189453125,0,0,0.6125
3.6453625770000144,0,0,1.6065093139648436,0,0,0.3828125
3.648612518999471,0,0,1.4413093994140624,0,0,0.5359375000000001
3.65186588799952,0,0,1.1755530151367186,0,0,0.153125
3.6551252190001833,0,0,1.2210428466796874,0,0,1.0718750000000001
3.6598792919994594,0,0,1.4604630126953124,0,0,1.4546875000000001
3.663130863999868,0,0,1.5059528442382812,0,0,0.6890625
3.6667738579999423,0,0,1.4532804077148436,0,0,0.45937500000000003
3.6700480600002265,0,0,0.928950244140625,0,0,0.9187500000000001
3.673294872999577,0,0,1.1324573852539062,0,0,0.3828125
3.67652803799956,0,0,1.3958195678710936,0,0,1.6843750000000002
3.67977740599963,0,0,1.3838485595703125,0,0,2.1437500000000003
3.6830226269994455,0,0,1.7429788085937499,0,0,0.30625
3.6862702170001285,0,0,1.6711527587890624,0,0,0.45937500000000003
3.6895444559995667,0,0,1.0079588989257813,0,0,0.153125
3.692825305999577,0,0,1.0582371337890624,0,0,0.9187500000000001
3.6971227539997926,0,0,1.3958195678710936,0,0,1.4546875000000001
3.7004481040003157,0,0,1.2138602416992186,0,0,0.9953125
3.7037065829999847,0,0,1.5610194824218748,0,0,1.53125
3.7069623959996534,0,0,1.1659762084960936,0,0,0.8421875000000001
3.710262319999856,0,0,0.9313444458007812,0,0,0.9187500000000001
3.7135790020001878,0,0,1.446097802734375,0,0,0.765625
3.716912943999887,0,0,1.2617442749023438,0,0,0.6125
3.720190979000108,0,0,1.1516109985351561,0,0,0.8421875000000001
3.723461994999525,0,0,1.3718775512695311,0,0,0.765625
3.7271568950000074,0,0,1.4413093994140624,0,0,1.4546875000000001
3.730600799000058,0,0,1.3623007446289062,0,0,0.3828125
3.733931369999482,0,0,1.4891934326171874,0,0,0.6125
3.7372094229995128,0,0,1.6352397338867186,0,0,0.6125
3.7404481989997294,0,0,1.2018892333984375,0,0,0.30625
3.743681920000199,0,0,1.3431471313476562,0,0,0.6890625
3.7469171960001404,0,0,1.4101847778320311,0,0,0.8421875000000001
3.7502365270001974,0,0,1.0989385620117187,0,0,0.30625
3.753488635999929,0,0,1.2210428466796874,0,0,0.9187500000000001
3.7568081520003034,0,0,1.5107412475585937,0,0,0.9187500000000001
3.7600694459997612,0,0,1.3263877197265623,0,0,0.8421875000000001
3.7633313699998325,0,0,1.5179238525390624,0,0,1.1484375
3.7665927199996077,0,0,1.467645617675781,0,0,0.8421875000000001
3.7699653090003267,0,0,1.180341418457031,0,0,0.6890625
3.7732304000001022,0,0,1.35990654296875,0,0,0.0
3.776482880000003,0,0,1.3527239379882812,0,0,0.6890625
3.779738618999545,0,0,1.3551181396484375,0,0,0.9953125
3.782990912999594,0,0,1.0749965454101562,0,0,0.22968750000000002
3.786243595999622,0,0,1.2832920898437499,0,0,0.6890625
3.7894966320000094,0,0,1.20667763671875,0,0,0.6125
3.7927509629998895,0,0,1.177947216796875,0,0,1.0718750000000001
3.7960255540001526,0,0,1.4053963745117186,0,0,0.8421875000000001
3.799294829000246,0,0,1.4987702392578124,0,0,0.5359375000000001
3.8025982529998146,0,0,1.3311761230468748,0,0,0.8421875000000001
3.8059468049996212,0,0,1.4820108276367188,0,0,0.765625
3.809199952000199,0,0,1.3048399047851562,0,0,1.0718750000000001
3.812451578999571,0,0,1.3144167114257812,0,0,0.9953125
3.8161206469994795,0,0,1.5394716674804687,0,0,0.765625
3.8194139779998295,0,0,1.2521674682617188,0,0,1.225
3.822762808000334,0,0,1.1252747802734375,0,0,0.9187500000000001
3.8260781939998196,0,0,1.3862427612304686,0,0,1.0718750000000001
3.8293327660003342,0,0,1.3144167114257812,0,0,0.9187500000000001
3.832622060000176,0,0,1.2976572998046874,0,0,0.3828125
3.8358758730000773,0,0,1.4891934326171874,0,0,0.6125
3.8391270379997877,0,0,1.2832920898437499,0,0,1.225
3.8423767220001537,0,0,1.5083470458984374,0,0,0.6125
3.84568553400004,0,0,1.3455413330078123,0,0,0.0
3.848951568999837,0,0,1.675941162109375,0,0,0.9953125
3.8527486530001624,0,0,1.0390835205078124,0,0,0.6125
3.856111520000013,0,0,1.5155296508789062,0,0,1.1484375
3.859481775999484,0,0,2.013523596191406,0,0,0.5359375000000001
3.8627810150001096,0,0,0.7422025146484375,0,0,0.0
3.866037808999863,0,0,1.2497732666015624,0,0,0.5359375000000001
3.869303084999956,0,0,1.4796166259765624,0,0,1.0718750000000001
3.8726616559997638,0,0,1.4604630126953124,0,0,0.6125
3.8759303950000685,0,0,1.5322890624999999,0,0,0.8421875000000001
3.8791814850001174,0,0,1.5155296508789062,0,0,0.6125
3.8824317609996797,0,0,1.216254443359375,0,0,0.765625
3.8856825929997285,0,0,1.13006318359375,0,0,1.4546875000000001
3.8889347389995237,0,0,1.37906015625,0,0,0.765625
3.892184997000186,0,0,1.3551181396484375,0,0,0.8421875000000001
3.8954338100002133,0,0,1.3646949462890625,0,0,0.30625
3.8987256219998017,0,0,1.2928688964843749,0,0,0.765625
3.90197586100021,0,0,1.3192051147460937,0,0,0.6890625
3.9052293039994765,0,0,1.3383587280273437,0,0,0.6125
3.9084965049996754,0,0,1.6136919189453125,0,0,0.765625
3.911748892000105,0,0,1.4867992309570313,0,0,0.6125
3.9149972049999633,0,0,1.2856862915039062,0,0,0.30625
3.9185025520000636,0,0,1.4317325927734375,0,0,0.8421875000000001
3.921788290999757,0,0,1.3096283081054687,0,0,1.0718750000000001
3.9250419929994678,0,0,1.4173673828125,0,0,1.225
3.928319417000239,0,0,1.5275006591796874,0,0,0.9953125
3.9316093589995944,0,0,1.4604630126953124,0,0,1.1484375
3.9349953549999555,0,0,1.369483349609375,0,0,0.9187500000000001
3.938247113000216,0,0,1.4053963745117186,0,0,0.6125
3.941507943999568,0,0,1.6160861206054686,0,0,1.0718750000000001
3.944762553000146,0,0,1.0893617553710937,0,0,0.8421875000000001
3.949987897999563,0,0,1.5059528442382812,0,0,1.1484375
3.953248896000332,0,0,1.4987702392578124,0,0,0.8421875000000001
3.956602281999949,0,0,1.2282254516601563,0,0,0.45937500000000003
3.9598679649998303,0,0,1.426944189453125,0,0,0.9953125
3.9634033120000822,0,0,1.3718775512695311,0,0,0.6890625
3.9666549949997716,0,0,1.3551181396484375,0,0,0.30625
3.9699012339997353,0,0,1.4125789794921875,0,0,0.8421875000000001
3.9731485659995087,0,0,1.3934253662109375,0,0,0.5359375000000001
3.9765214700000797,0,0,1.2832920898437499,0,0,0.0765625
3.9798805600003107,0,0,1.3072341064453123,0,0,0.6890625
3.9831694829999833,0,0,1.3551181396484375,0,0,0.5359375000000001
3.9864228329997786,0,0,1.4891934326171874,0,0,0.6890625
3.9896964049994494,0,0,1.3934253662109375,0,0,0.765625
3.9929421629994977,0,0,1.1827356201171875,0,0,0.6125
3.9961887540002863,0,0,1.2425906616210938,0,0,1.1484375
3.9994468260001668,0,0,1.5155296508789062,0,0,1.6078125
4.002757749000011,0,0,1.37906015625,0,0,1.1484375
4.006006061999869,0,0,1.2832920898437499,0,0,0.6890625
4.009254857000087,0,0,1.47482822265625,0,0,0.8421875000000001
4.012499261999437,0,0,1.6017209106445311,0,0,1.1484375
4.015744371999972,0,0,1.2785036865234374,0,0,0.9187500000000001
4.01919101600015,0,0,1.39821376953125,0,0,0.45937500000000003
4.022359274000337,0,0,1.4245499877929686,0,0,0.3828125
4.025275832000261,0,0,1.2401964599609374,0,0,0.9187500000000001
4.028189277999445,0,0,1.0797849487304687,0,0,0.0765625
4.031103854999856,0,0,1.3838485595703125,0,0,0.5359375000000001
4.034039319999465,0,0,1.2593500732421874,0,0,0.765625
4.036956895999538,0,0,1.4796166259765624,0,0,1.1484375
4.039974933999474,0,0,1.4341267944335936,0,0,0.8421875000000001
4.0429145839998455,0,0,1.4317325927734375,0,0,0.765625
4.045911659000012,0,0,1.2928688964843749,0,0,0.6890625
4.048843382999621,0,0,1.5083470458984374,0,0,0.8421875000000001
4.051757940999778,0,0,1.3742717529296875,0,0,0.6890625
4.054671202999998,0,0,1.0917559570312498,0,0,0.3828125
4.057590426999923,0,0,1.3120225097656248,0,0,1.0718750000000001
4.060503300000164,0,0,1.5251064575195312,0,0,0.9953125
4.063449727000261,0,0,1.4173673828125,0,0,0.765625
4.0663662300003125,0,0,1.3215993164062498,0,0,0.8421875000000001
4.069299416999456,0,0,1.2689268798828124,0,0,1.225
4.072209992999888,0,0,1.2952630981445312,0,0,0.9187500000000001
4.075219641999865,0,0,1.4221557861328125,0,0,0.6890625
4.078143625999473,0,0,1.3407529296874998,0,0,0.9953125
4.08105564699963,0,0,1.5825672973632812,0,0,0.765625
4.083950760000334,0,0,1.47482822265625,0,0,0.8421875000000001
4.086890761999712,0,0,1.1755530151367186,0,0,0.3828125
4.089872892999665,0,0,1.3551181396484375,0,0,1.0718750000000001
4.092881061000298,0,0,1.4867992309570313,0,0,0.8421875000000001
4.095799488999546,0,0,1.2952630981445312,0,0,0.765625
4.098748546000024,0,0,1.2976572998046874,0,0,1.225
4.1016666409996105,0,0,1.4006079711914061,0,0,1.0718750000000001
4.1046140870003,0,0,1.47482822265625,0,0,1.225
4.107530477999717,0,0,1.1731588134765625,0,0,0.8421875000000001
4.110473275999539,0,0,1.3455413330078123,0,0,0.9953125
4.113391259999844,0,0,1.4437036010742186,0,0,0.8421875000000001
4.116304207000212,0,0,1.2737152832031249,0,0,0.765625
4.119221152999671,0,0,1.235408056640625,0,0,0.6125
4.122167655000339,0,0,1.5227122558593749,0,0,0.8421875000000001
4.125113786999464,0,0,1.2808978881835937,0,0,1.3015625000000002
4.128134620999845,0,0,1.2785036865234374,0,0,0.45937500000000003
4.131057566999516,0,0,1.235408056640625,0,0,0.6890625
4.133972607000032,0,0,1.4221557861328125,0,0,1.1484375
4.13688812700002,0,0,1.3335703247070312,0,0,0.9187500000000001
4.139844481000182,0,0,1.3287819213867187,0,0,0.6125
4.142772315999537,0,0,1.4532804077148436,0,0,1.225
4.1457163550003315,0,0,1.4532804077148436,0,0,0.8421875000000001
4.148640042999432,0,0,1.2976572998046874,0,0,1.8375000000000001
4.151537914999608,0,0,1.407790576171875,0,0,0.5359375000000001
4.154499453999961,0,0,1.3934253662109375,0,0,0.6890625
4.157415474999652,0,0,1.4006079711914061,0,0,0.765625
4.160329477000232,0,0,1.254561669921875,0,0,0.0765625
4.16324303500005,0,0,1.2282254516601563,0,0,0.765625
4.166171332999511,0,0,1.2378022583007813,0,0,0.9953125
4.169097427999986,0,0,1.4604630126953124,0,0,0.6125
4.172012910999911,0,0,1.446097802734375,0,0,0.45937500000000003
4.17492983899956,0,0,1.5514426757812498,0,0,0.5359375000000001
4.177844267999717,0,0,1.3215993164062498,0,0,1.0718750000000001
4.180892767999467,0,0,1.3646949462890625,0,0,0.153125
4.183856992000074,0,0,1.3958195678710936,0,0,0.8421875000000001
4.186776030999681,0,0,1.2689268798828124,0,0,0.8421875000000001
4.189691606999986,0,0,1.2569558715820313,0,0,0.6890625
4.192606312999487,0,0,1.3575123413085937,0,0,0.30625
4.195502222999494,0,0,1.4891934326171874,0,0,0.6125
4.2004397009995955,0,0,1.2378022583007813,0,0,0.9953125
4.203407314000287,0,0,1.5083470458984374,0,0,0.9953125
4.206346019000193,0,0,1.3934253662109375,0,0,0.765625
4.209280244000183,0,0,1.1611878051757811,0,0,0.3828125
4.212199263999537,0,0,1.5275006591796874,0,0,1.0718750000000001
4.2151206919998,0,0,1.4245499877929686,0,0,0.9187500000000001
4.218041527999958,0,0,1.4245499877929686,0,0,0.765625
4.2209884929998225,0,0,1.2713210815429687,0,0,1.225
4.223908568999832,0,0,1.350329736328125,0,0,0.8421875000000001
4.22682892299963,0,0,1.3311761230468748,0,0,0.8421875000000001
4.229748388000189,0,0,1.1635820068359375,0,0,0.765625
4.2326715199997125,0,0,1.3623007446289062,0,0,0.9187500000000001
4.235599132999596,0,0,1.2569558715820313,0,0,0.6890625
4.238534283000263,0,0,1.3551181396484375,0,0,0.9953125
4.241455377999955,0,0,1.24498486328125,0,0,1.225
4.244373360999816,0,0,1.4030021728515625,0,0,0.8421875000000001
4.247298104000038,0,0,1.5227122558593749,0,0,0.6890625
4.250222253999709,0,0,1.3742717529296875,0,0,1.3015625000000002
4.253178349000336,0,0,1.4413093994140624,0,0,0.6125
4.256105424999987,0,0,1.5897499023437498,0,0,0.6125
4.259038278999469,0,0,1.3623007446289062,0,0,0.765625
4.261960355000156,0,0,1.2665326782226562,0,0,0.153125
4.264882485999806,0,0,1.4221557861328125,0,0,0.5359375000000001
4.267800044000069,0,0,1.438915197753906,0,0,1.225
4.270722119999846,0,0,1.1755530151367186,0,0,0.5359375000000001
4.273643456000173,0,0,1.419761584472656,0,0,0.5359375000000001
4.276598532000207,0,0,1.5203180541992187,0,0,0.9953125
4.279518459999963,0,0,1.2425906616210938,0,0,1.0718750000000001
4.2824388319995705,0,0,1.2114660400390624,0,0,0.153125
4.285359000999961,0,0,1.47482822265625,0,0,0.6890625
4.288289354999506,0,0,1.3120225097656248,0,0,1.225
4.291227357000025,0,0,1.2785036865234374,0,0,0.45937500000000003
4.294154950999655,0,0,1.4772224243164063,0,0,0.5359375000000001
4.297189081999932,0,0,1.4796166259765624,0,0,0.8421875000000001
4.300116751000132,0,0,1.2976572998046874,0,0,0.9187500000000001
4.303037752999444,0,0,1.2473790649414063,0,0,0.0765625
4.305991551000261,0,0,1.2401964599609374,0,0,0.9187500000000001
4.309512748999623,0,0,1.369483349609375,0,0,0.5359375000000001
4.312531417000173,0,0,1.2737152832031249,0,0,1.225
4.31549299299968,0,0,1.4891934326171874,0,0,0.9187500000000001
4.318412716999774,0,0,1.4724340209960938,0,0,1.3015625000000002
4.321425459000238,0,0,1.1707646118164061,0,0,0.45937500000000003
4.324479644999883,0,0,1.429338391113281,0,0,0.9953125
4.327740439000081,0,0,1.254561669921875,0,0,0.765625
4.330987696000193,0,0,1.2928688964843749,0,0,0.45937500000000003
4.33423687999948,0,0,1.2713210815429687,0,0,0.765625
4.337483471000269,0,0,1.4030021728515625,0,0,0.8421875000000001
4.340729079999619,0,0,1.3072341064453123,0,0,0.9953125
4.344114057999832,0,0,1.3551181396484375,0,0,0.9187500000000001
4.347418925999591,0,0,1.4245499877929686,0,0,0.8421875000000001
4.350672257000042,0,0,1.5035586425781249,0,0,0.9187500000000001
4.353919792999477,0,0,1.2689268798828124,0,0,0.765625
4.357167846000266,0,0,1.4101847778320311,0,0,1.0718750000000001
4.3604390479995345,0,0,1.2952630981445312,0,0,0.8421875000000001
4.363700287000029,0,0,1.2856862915039062,0,0,0.22968750000000002
4.367175800999576,0,0,1.2976572998046874,0,0,0.8421875000000001
4.370484612999462,0,0,1.2713210815429687,0,0,0.3828125
4.373774722000235,0,0,1.2689268798828124,0,0,0.3828125
4.377015349999965,0,0,1.4700398193359374,0,0,0.765625
4.380237274000137,0,0,1.2378022583007813,0,0,0.45937500000000003
4.383519993999471,0,0,1.2785036865234374,0,0,1.6078125
4.38676949299952,0,0,1.3910311645507811,0,0,0.5359375000000001
4.390016305999779,0,0,1.1276689819335937,0,0,0.8421875000000001
4.393264471000293,0,0,1.2521674682617188,0,0,1.378125
4.3966297819997635,0,0,1.4987702392578124,0,0,-8.881250000000001
4.399941335000221,0,0,1.3287819213867187,0,0,1.3015625000000002
4.403174389000014,0,0,1.2808978881835937,0,0,0.8421875000000001
4.4064188689999355,0,0,1.5059528442382812,0,0,0.9953125
4.409698903999924,0,0,1.4532804077148436,0,0,1.1484375
4.41305777100024,0,0,1.24498486328125,0,0,0.9953125
4.416668801999549,0,0,1.4700398193359374,0,0,0.9187500000000001
4.419944854999812,0,0,1.4101847778320311,0,0,1.0718750000000001
4.423311167000065,0,0,1.2832920898437499,0,0,0.45937500000000003
4.426453574000334,0,0,1.2641384765625,0,0,0.6890625
4.429373686999497,0,0,1.4604630126953124,0,0,-9.1875
4.432299096999486,0,0,1.2521674682617188,0,0,0.9187500000000001
4.435222412999792,0,0,1.3670891479492187,0,0,0.30625
4.438143100999696,0,0,1.3359645263671873,0,0,0.9187500000000001
4.441059120999853,0,0,1.2569558715820313,0,0,0.9953125
4.443958050000219,0,0,1.3263877197265623,0,0,0.6125
4.44690123700002,0,0,1.4437036010742186,0,0,0.45937500000000003
4.449991069999669,0,0,1.6208745239257811,0,0,0.9953125
4.452961756999684,0,0,1.177947216796875,0,0,0.9187500000000001
4.455863610999586,0,0,1.3623007446289062,0,0,0.0
4.458803853999598,0,0,1.6304513305664061,0,0,0.6890625
4.461723503999565,0,0,1.3575123413085937,0,0,0.9187500000000001
4.464645283999744,0,0,1.2042834350585936,0,0,1.0718750000000001
4.467567341999711,0,0,1.5179238525390624,0,0,0.6890625
4.470528046999789,0,0,1.6017209106445311,0,0,0.6890625
4.473456789999545,0,0,1.2952630981445312,0,0,0.6125
4.476376272999914,0,0,1.254561669921875,0,0,0.765625
4.479344663999655,0,0,1.2952630981445312,0,0,0.765625
4.482428923000043,0,0,1.3431471313476562,0,0,0.765625
4.485598571000082,0,0,1.2832920898437499,0,0,1.0718750000000001
4.488527591000093,0,0,1.4101847778320311,0,0,1.225
4.4914511489996585,0,0,1.4317325927734375,0,0,1.1484375
4.494372483999541,0,0,1.1827356201171875,0,0,0.6125
4.497301356999742,0,0,1.2665326782226562,0,0,1.3015625000000002
