Time,AccelX1,AccelY1,AccelZ1,AccelX2,AccelY2,AccelZ2
5.000001692678779e-06,0,0,1.3239935180664062,0,0,0.9187500000000001
0.0028527680005936418,0,0,1.2497732666015624,0,0,0.8421875000000001
0.00555798200002755,0,0,1.4341267944335936,0,0,0.9187500000000001
0.008547490000637481,0,0,1.5179238525390624,0,0,1.0718750000000001
0.011383943001419539,0,0,1.3551181396484375,0,0,0.765625
0.014186786000209395,0,0,1.369483349609375,0,0,0.6890625
0.016934518000198295,0,0,1.3934253662109375,0,0,0.45937500000000003
0.02017274600075325,0,0,1.3670891479492187,0,0,0.6890625
0.023613860001205467,0,0,1.2952630981445312,0,0,0.8421875000000001
0.02697338300276897,0,0,1.4101847778320311,0,0,0.765625
0.030404201002966147,0,0,1.3575123413085937,0,0,0.765625
0.03375485300057335,0,0,1.3646949462890625,0,0,0.6890625
0.037169634000747465,0,0,1.4149731811523436,0,0,0.765625
0.040718877000472276,0,0,1.3670891479492187,0,0,0.9187500000000001
0.044267694000154734,0,0,1.2904746948242187,0,0,0.6890625
0.04783464100182755,0,0,1.5083470458984374,0,0,0.8421875000000001
0.05132094000146026,0,0,1.618480322265625,0,0,0.6125
0.054802776001452,0,0,1.2497732666015624,0,0,0.5359375000000001
0.05825202000050922,0,0,1.4724340209960938,0,0,0.6125
0.061707374999969034,0,0,1.3551181396484375,0,0,0.765625
0.06572526099989773,0,0,1.2521674682617188,0,0,0.765625
0.06930781900155125,0,0,1.2761094848632812,0,0,0.8421875000000001
0.07398460600234102,0,0,1.5634136840820312,0,0,0.6890625
0.07748666400220827,0,0,1.3623007446289062,0,0,0.765625
0.08144547700067051,0,0,1.5011644409179687,0,0,0.8421875000000001
0.08523919900108012,0,0,1.3311761230468748,0,0,0.6125
0.08906086500064703,0,0,1.458068811035156,0,0,0.9187500000000001
0.09369469000012032,0,0,1.5083470458984374,0,0,0.3828125
0.09770778000165592,0,0,1.369483349609375,0,0,0.9953125
0.10215599600269343,0,0,1.2665326782226562,0,0,0.6890625
0.10596525500295684,0,0,1.3431471313476562,0,0,0.8421875000000001
0.10974343999987468,0,0,1.2282254516601563,0,0,0.5359375000000001
0.11409308200018131,0,0,1.3838485595703125,0,0,1.0718750000000001
0.11856064899984631,0,0,1.3215993164062498,0,0,0.9187500000000001
0.12136052900314098,0,0,1.3335703247070312,0,0,0.45937500000000003
0.1241168540000217,0,0,1.47482822265625,0,0,0.9187500000000001
0.12652410800001235,0,0,1.2617442749023438,0,0,0.765625
0.128864030000841,0,0,1.4604630126953124,0,0,0.8421875000000001
0.13146302300083335,0,0,1.455674609375,0,0,0.9953125
0.13393023900061962,0,0,1.2473790649414063,0,0,0.6125
0.13632540100297774,0,0,1.4413093994140624,0,0,0.5359375000000001
0.13866124800188118,0,0,1.2832920898437499,0,0,0.45937500000000003
0.14105596500303363,0,0,1.3455413330078123,0,0,0.9187500000000001
0.1433449060023122,0,0,1.2330138549804688,0,0,0.9953125
0.14586767700166092,0,0,1.2593500732421874,0,0,1.0718750000000001
0.14822445000027074,0,0,1.4125789794921875,0,0,0.8421875000000001
0.1505541130027268,0,0,1.3000515014648437,0,0,0.6125
0.15267509200202767,0,0,1.3287819213867187,0,0,0.8421875000000001
0.15488327400089474,0,0,1.2856862915039062,0,0,0.765625
0.1574080270002014,0,0,1.3862427612304686,0,0,1.990625
0.1596742820001964,0,0,1.4053963745117186,0,0,1.0718750000000001
0.16205424000145285,0,0,1.3000515014648437,0,0,0.8421875000000001
0.16507604400248965,0,0,1.2952630981445312,0,0,0.9187500000000001
0.16733279999971273,0,0,1.4125789794921875,0,0,1.0718750000000001
0.16944066799987922,0,0,1.419761584472656,0,0,0.6890625
0.17234141700100736,0,0,1.4508862060546874,0,0,0.6125
0.1745339139997668,0,0,1.3024457031249999,0,0,0.6125
0.1767794480001612,0,0,1.3287819213867187,0,0,0.5359375000000001
0.17935595900053158,0,0,1.5059528442382812,0,0,0.6890625
0.18265029699978186,0,0,1.39821376953125,0,0,0.765625
0.18487494200235233,0,0,1.2641384765625,0,0,1.1484375
0.18697782900198945,0,0,1.458068811035156,0,0,0.9953125
0.18918732600286603,0,0,1.2234370483398436,0,0,0.765625
0.19143408099989756,0,0,1.429338391113281,0,0,0.9187500000000001
0.19355502300095395,0,0,1.3192051147460937,0,0,0.6125
0.1957790760025091,0,0,1.4532804077148436,0,0,0.5359375000000001
0.19798038700173493,0,0,1.3359645263671873,0,0,0.9187500000000001
0.20008362600128748,0,0,1.2617442749023438,0,0,1.0718750000000001
0.20258680500046466,0,0,1.3862427612304686,0,0,0.8421875000000001
0.20480691299962928,0,0,1.43652099609375,0,0,0.8421875000000001
0.20692154000062146,0,0,1.3527239379882812,0,0,0.9187500000000001
0.20910863000244717,0,0,1.3335703247070312,0,0,0.9187500000000001
0.21146664400293957,0,0,1.2665326782226562,0,0,1.0718750000000001
0.21377376900272793,0,0,1.3838485595703125,0,0,1.0718750000000001
0.21610111700283596,0,0,1.4724340209960938,0,0,0.6890625
0.2183133730031841,0,0,1.3000515014648437,0,0,0.5359375000000001
0.22112116000062088,0,0,1.3910311645507811,0,0,0.5359375000000001
0.22375606000059634,0,0,1.4508862060546874,0,0,0.45937500000000003
0.2264375340018887,0,0,1.2880804931640624,0,0,0.6890625
0.22910161900290404,0,0,1.3862427612304686,0,0,0.765625
0.23174192599981325,0,0,1.254561669921875,0,0,0.9953125
0.23421551300270949,0,0,1.407790576171875,0,0,0.6125
0.23678085800202098,0,0,1.3096283081054687,0,0,1.0718750000000001
0.23935537000215845,0,0,1.3168109130859373,0,0,0.765625
0.24199021400272613,0,0,1.2330138549804688,0,0,0.8421875000000001
0.2445552070021222,0,0,1.2713210815429687,0,0,1.225
0.2470482010030537,0,0,1.43652099609375,0,0,0.9187500000000001
0.2496157690002292,0,0,1.5227122558593749,0,0,0.8421875000000001
0.2521004299997003,0,0,1.3407529296874998,0,0,0.8421875000000001
0.2546585900017817,0,0,1.5131354492187499,0,0,0.45937500000000003
0.25712319500235026,0,0,1.4532804077148436,0,0,0.5359375000000001
0.25983020500279963,0,0,1.4341267944335936,0,0,0.45937500000000003
0.2625354570009222,0,0,1.3455413330078123,0,0,0.6890625
0.26533472500159405,0,0,1.2856862915039062,0,0,0.9187500000000001
0.2678802930022357,0,0,1.407790576171875,0,0,0.5359375000000001
0.2703321760018298,0,0,1.4413093994140624,0,0,0.45937500000000003
0.2730473900010111,0,0,1.3120225097656248,0,0,0.9187500000000001
0.27569810500062886,0,0,1.3742717529296875,0,0,0.5359375000000001
0.2783620600021095,0,0,1.4820108276367188,0,0,0.6125
0.2809169610009121,0,0,1.3048399047851562,0,0,0.9187500000000001
0.2836128240014659,0,0,1.3335703247070312,0,0,0.9187500000000001
0.2861606500009657,0,0,1.24498486328125,0,0,1.0718750000000001
0.2888005320019147,0,0,1.3192051147460937,0,0,0.6125
0.29138737700122874,0,0,1.37906015625,0,0,0.9187500000000001
0.29395435200058273,0,0,1.4341267944335936,0,0,0.8421875000000001
0.29656165900087217,0,0,1.2569558715820313,0,0,0.9187500000000001
0.299955589001911,0,0,1.2761094848632812,0,0,1.7609375
0.30256702600308927,0,0,1.2569558715820313,0,0,0.9187500000000001
0.3055426820028515,0,0,1.3527239379882812,0,0,0.8421875000000001
0.3082676000012725,0,0,1.2737152832031249,0,0,0.9187500000000001
0.31077503800042905,0,0,1.4891934326171874,0,0,0.5359375000000001
0.3142291889998887,0,0,1.3551181396484375,0,0,0.6890625
0.317141031002393,0,0,1.3048399047851562,0,0,0.6125
0.319857819002209,0,0,1.2928688964843749,0,0,0.45937500000000003
0.3223241100022278,0,0,1.4053963745117186,0,0,0.6125
0.32549104200006695,0,0,1.419761584472656,0,0,0.45937500000000003
0.3280222390021663,0,0,1.3335703247070312,0,0,0.765625
0.33069093500307645,0,0,1.2282254516601563,0,0,0.8421875000000001
0.3331695960005163,0,0,1.4053963745117186,0,0,0.6125
0.33589951300018583,0,0,1.4628572143554686,0,0,0.8421875000000001
0.338371822002955,0,0,1.2808978881835937,0,0,0.9953125
0.3411942760030797,0,0,1.1923124267578125,0,0,0.765625
0.34378371400089236,0,0,1.3144167114257812,0,0,0.765625
0.34642570600044564,0,0,1.5275006591796874,0,0,1.3015625000000002
0.349115160999645,0,0,1.3527239379882812,0,0,0.9953125
0.3517898200007039,0,0,1.3718775512695311,0,0,0.6890625
0.35445786800119095,0,0,1.3072341064453123,0,0,0.9187500000000001
0.35695041800136096,0,0,1.5275006591796874,0,0,1.0718750000000001
0.35958272500283783,0,0,1.3934253662109375,0,0,0.765625
0.36215523700229824,0,0,1.2976572998046874,0,0,0.9187500000000001
0.36478937799984124,0,0,1.3215993164062498,0,0,0.9187500000000001
0.36748503600028926,0,0,1.5203180541992187,0,0,0.765625
0.37009793700053706,0,0,1.3168109130859373,0,0,1.225
0.3727070780005306,0,0,1.3144167114257812,0,0,0.6125
0.37545919900003355,0,0,1.2880804931640624,0,0,0.6125
0.377954748000775,0,0,1.4867992309570313,0,0,0.6890625
0.38060192600096343,0,0,1.4532804077148436,0,0,0.6890625
0.383121568000206,0,0,1.4125789794921875,0,0,0.5359375000000001
0.38578337500075577,0,0,1.3407529296874998,0,0,0.5359375000000001
0.3882645539997611,0,0,1.4532804077148436,0,0,0.30625
0.3908863620017655,0,0,1.446097802734375,0,0,0.9187500000000001
0.3934207439997408,0,0,1.2330138549804688,0,0,0.9187500000000001
0.396003200999985,0,0,1.3287819213867187,0,0,0.9187500000000001
0.39864369300266844,0,0,1.3527239379882812,0,0,0.9953125
0.4011485570008517,0,0,1.3096283081054687,0,0,0.9187500000000001
0.4038013650024368,0,0,1.467645617675781,0,0,0.765625
0.40629458100011107,0,0,1.5227122558593749,0,0,0.9187500000000001
0.4089803690003464,0,0,1.3000515014648437,0,0,1.1484375
0.411658269000327,0,0,1.5155296508789062,0,0,0.8421875000000001
0.41433329800202046,0,0,1.4173673828125,0,0,0.22968750000000002
0.41682394000235945,0,0,1.3575123413085937,0,0,0.6890625
0.41943580400038627,0,0,1.3144167114257812,0,0,0.6125
0.4217377070017392,0,0,1.43652099609375,0,0,0.6125
0.42421286800163216,0,0,1.37906015625,0,0,0.6890625
0.42653664099998423,0,0,1.1420341918945311,0,0,0.8421875000000001
0.4290099870013364,0,0,1.2234370483398436,0,0,0.765625
0.4316429430000426,0,0,1.2832920898437499,0,0,0.9953125
0.4340370680001797,0,0,1.455674609375,0,0,1.1484375
0.43631610100055696,0,0,1.43652099609375,0,0,1.0718750000000001
0.438699225000164,0,0,1.3287819213867187,0,0,0.9187500000000001
0.4409825360016839,0,0,1.4963760375976562,0,0,0.765625
0.4436544730015157,0,0,1.4053963745117186,0,0,0.765625
0.44620615200256,0,0,1.43652099609375,0,0,0.765625
0.44859481300227344,0,0,1.3168109130859373,0,0,0.765625
0.4509902340032568,0,0,1.2689268798828124,0,0,0.765625
0.4532660270015185,0,0,1.3455413330078123,0,0,0.9187500000000001
0.4556638180001755,0,0,1.5083470458984374,0,0,0.9187500000000001
0.45795661000011023,0,0,1.4891934326171874,0,0,0.6890625
0.46040990100300405,0,0,1.3263877197265623,0,0,0.6890625
0.46293115400112583,0,0,1.3048399047851562,0,0,0.45937500000000003
0.46529931600161945,0,0,1.5059528442382812,0,0,0.30625
0.46776401399984024,0,0,1.4724340209960938,0,0,1.225
0.47022300800017547,0,0,1.2785036865234374,0,0,0.9953125
0.47266600300281425,0,0,1.2880804931640624,0,0,0.8421875000000001
0.47499427600268973,0,0,1.3263877197265623,0,0,0.8421875000000001
0.47738775300240377,0,0,1.4030021728515625,0,0,0.45937500000000003
0.4798130070012121,0,0,1.3910311645507811,0,0,0.6890625
0.48209679900173796,0,0,1.3096283081054687,0,0,0.6890625
0.48437814700082527,0,0,1.2473790649414063,0,0,0.6890625
0.4867604940009187,0,0,1.3551181396484375,0,0,0.5359375000000001
0.4890523050016782,0,0,1.37906015625,0,0,0.9187500000000001
0.49155424300261075,0,0,1.5131354492187499,0,0,0.765625
0.4938756650008145,0,0,1.3407529296874998,0,0,0.8421875000000001
0.4961417350023112,0,0,1.3934253662109375,0,0,0.5359375000000001
0.49864509899998666,0,0,1.5011644409179687,0,0,0.8421875000000001
0.5011589450004976,0,0,1.407790576171875,0,0,0.765625
0.5105980370026373,0,0,1.2808978881835937,0,0,0.9187500000000001
0.5131799560003856,0,0,1.407790576171875,0,0,0.765625
0.5156501540004683,0,0,1.2808978881835937,0,0,0.8421875000000001
0.5180307050031843,0,0,1.3718775512695311,0,0,0.6125
0.5204681440009153,0,0,1.407790576171875,0,0,0.5359375000000001
0.5230646370000613,0,0,1.4532804077148436,0,0,0.765625
0.525580057001207,0,0,1.3383587280273437,0,0,0.45937500000000003
0.5285135459998855,0,0,1.2521674682617188,0,0,0.45937500000000003
0.5310572810012673,0,0,1.4173673828125,0,0,0.6125
0.5336152190029679,0,0,1.2976572998046874,0,0,0.9187500000000001
0.5362813410029048,0,0,1.2401964599609374,0,0,0.765625
0.538765298002545,0,0,1.2832920898437499,0,0,0.8421875000000001
0.5414580670003488,0,0,1.3431471313476562,0,0,0.6125
0.5443000580016815,0,0,1.2928688964843749,0,0,0.6890625
0.5469836610027414,0,0,1.3168109130859373,0,0,0.8421875000000001
0.5494611740032269,0,0,1.4891934326171874,0,0,0.9953125
0.552064221999899,0,0,1.3096283081054687,0,0,0.9187500000000001
0.5545507910028391,0,0,1.5418658691406248,0,0,0.765625
0.5572657270022319,0,0,1.37906015625,0,0,0.765625
0.5598889419998159,0,0,1.3311761230468748,0,0,0.6125
0.5626421740016667,0,0,1.369483349609375,0,0,0.8421875000000001
0.5651531490002526,0,0,1.369483349609375,0,0,0.5359375000000001
0.5679402150017268,0,0,1.5203180541992187,0,0,0.9187500000000001
0.5704917080001906,0,0,1.3431471313476562,0,0,0.6125
0.5732175520024612,0,0,1.3263877197265623,0,0,0.5359375000000001
0.5757578970005852,0,0,1.448492004394531,0,0,0.6890625
0.578726423002081,0,0,1.5682020874023437,0,0,0.6890625
0.5813299900000857,0,0,1.3670891479492187,0,0,0.8421875000000001
0.5839768160003587,0,0,1.2569558715820313,0,0,0.6890625
0.5865957910027646,0,0,1.3838485595703125,0,0,0.45937500000000003
0.5893688560026931,0,0,1.43652099609375,0,0,0.6890625
0.5918694419997337,0,0,1.5275006591796874,0,0,0.6125
0.5944809720022022,0,0,1.2856862915039062,0,0,0.8421875000000001
0.5971880010001769,0,0,1.5035586425781249,0,0,0.6890625
0.5999647700009518,0,0,1.2856862915039062,0,0,0.6890625
0.6024293200025568,0,0,1.2593500732421874,0,0,0.6890625
0.6053213660015899,0,0,1.3623007446289062,0,0,0.9187500000000001
0.60793908100095,0,0,1.3407529296874998,0,0,0.5359375000000001
0.6105883510026615,0,0,1.3718775512695311,0,0,0.8421875000000001
0.6139570400009688,0,0,1.3072341064453123,0,0,0.8421875000000001
0.6167861050016654,0,0,1.2665326782226562,0,0,0.5359375000000001
0.6196088920005423,0,0,1.3958195678710936,0,0,0.45937500000000003
0.6221870700028376,0,0,1.4604630126953124,0,0,0.6890625
0.6251316340021731,0,0,1.3263877197265623,0,0,0.6125
0.6277653300021484,0,0,1.2401964599609374,0,0,0.765625
0.630232714000158,0,0,1.4532804077148436,0,0,0.6890625
0.6328699840014451,0,0,1.467645617675781,0,0,0.8421875000000001
0.635405200002424,0,0,1.2952630981445312,0,0,0.6890625
0.6382647460013686,0,0,1.3910311645507811,0,0,0.22968750000000002
0.6407987580023473,0,0,1.2473790649414063,0,0,0.30625
0.6437507660011761,0,0,1.2904746948242187,0,0,0.8421875000000001
0.6462414080015151,0,0,1.3144167114257812,0,0,0.9187500000000001
0.6488303639998776,0,0,1.3144167114257812,0,0,0.6890625
0.6513011550014198,0,0,1.2761094848632812,0,0,0.6125
0.6539144620001025,0,0,1.4245499877929686,0,0,0.9187500000000001
0.6566627320025873,0,0,1.5298948608398437,0,0,0.8421875000000001
0.659399594002025,0,0,1.3024457031249999,0,0,0.8421875000000001
0.6618781060024048,0,0,1.2282254516601563,0,0,0.9953125
0.6643319900031202,0,0,1.5035586425781249,0,0,0.9187500000000001
0.6672939600030077,0,0,1.3551181396484375,0,0,0.8421875000000001
0.6700957290013321,0,0,1.2713210815429687,0,0,0.8421875000000001
0.6726837960013654,0,0,1.3479355346679687,0,0,1.1484375
0.6760308560005797,0,0,1.426944189453125,0,0,0.9187500000000001
0.6787004220022936,0,0,1.4173673828125,0,0,0.5359375000000001
0.6812674339998921,0,0,1.254561669921875,0,0,0.6125
0.6838782049999281,0,0,1.2737152832031249,0,0,1.0718750000000001
0.6865120490001573,0,0,1.4245499877929686,0,0,0.8421875000000001
0.6890406910024467,0,0,1.3742717529296875,0,0,0.6890625
0.691754387000401,0,0,1.3335703247070312,0,0,0.9953125
0.6942259550014569,0,0,1.2641384765625,0,0,0.9187500000000001
0.6969222799998533,0,0,1.4963760375976562,0,0,0.765625
0.6995270879997406,0,0,1.4125789794921875,0,0,0.8421875000000001
0.7022100249996583,0,0,1.3168109130859373,0,0,0.9187500000000001
0.7047163150018605,0,0,1.2569558715820313,0,0,0.5359375000000001
0.7073768070004007,0,0,1.5083470458984374,0,0,0.6890625
0.7099280600014026,0,0,1.5251064575195312,0,0,0.6890625
0.712522183002875,0,0,1.2473790649414063,0,0,0.9187500000000001
0.7153698030015221,0,0,1.2856862915039062,0,0,0.765625
0.7182111820002319,0,0,1.3838485595703125,0,0,0.6890625
0.7210431910025363,0,0,1.4891934326171874,0,0,0.6890625
0.724042718000419,0,0,1.3479355346679687,0,0,0.9187500000000001
0.7269806149997748,0,0,1.3072341064453123,0,0,0.8421875000000001
0.7299460670001281,0,0,1.4604630126953124,0,0,0.9953125
0.73306479600069,0,0,1.37906015625,0,0,0.6890625
0.7360581180000736,0,0,1.3359645263671873,0,0,0.6890625
0.7389930340032151,0,0,1.3575123413085937,0,0,0.8421875000000001
0.7419218940012797,0,0,1.484405029296875,0,0,1.1484375
0.7451356400015356,0,0,1.2641384765625,0,0,0.6890625
0.7492928770006984,0,0,1.3718775512695311,0,0,0.8421875000000001
0.7534601140032464,0,0,1.4724340209960938,0,0,0.765625
0.7571110589997261,0,0,1.3527239379882812,0,0,1.1484375
0.7602549360017292,0,0,1.2282254516601563,0,0,0.6125
0.7629618170030881,0,0,1.448492004394531,0,0,0.6890625
0.7658608250021643,0,0,1.4053963745117186,0,0,0.765625
0.7687558520010498,0,0,1.3000515014648437,0,0,0.8421875000000001
0.7720017460014788,0,0,1.3623007446289062,0,0,0.9187500000000001
0.7754170650005108,0,0,1.4987702392578124,0,0,1.0718750000000001
0.7784076280004228,0,0,1.3575123413085937,0,0,0.5359375000000001
0.7813426540014916,0,0,1.3096283081054687,0,0,0.3828125
0.7843720140008372,0,0,1.429338391113281,0,0,0.8421875000000001
0.7874698910018196,0,0,1.4700398193359374,0,0,0.8421875000000001
0.7904687870031921,0,0,1.2378022583007813,0,0,0.9187500000000001
0.7933899990021018,0,0,1.3575123413085937,0,0,1.0718750000000001
0.796214805002819,0,0,1.35990654296875,0,0,1.1484375
0.7990508140028396,0,0,1.3910311645507811,0,0,0.0
0.8019482480012812,0,0,1.3168109130859373,0,0,0.765625
0.8048062570014736,0,0,1.5275006591796874,0,0,0.9953125
0.8075228600027913,0,0,1.5107412475585937,0,0,0.9953125
0.810895642000105,0,0,1.2976572998046874,0,0,0.5359375000000001
0.8143422009998176,0,0,1.2904746948242187,0,0,0.6890625
0.8171897650026949,0,0,1.419761584472656,0,0,0.6125
0.8200438849999045,0,0,1.3934253662109375,0,0,0.6890625
0.8229990780018852,0,0,1.2856862915039062,0,0,0.765625
0.8255467199996929,0,0,1.3024457031249999,0,0,0.5359375000000001
0.828228100999695,0,0,1.5107412475585937,0,0,0.6125
0.830764521000674,0,0,1.3048399047851562,0,0,0.45937500000000003
0.8334046800009673,0,0,1.3407529296874998,0,0,0.9187500000000001
0.8362767260005057,0,0,1.388636962890625,0,0,0.5359375000000001
0.8388857560021279,0,0,1.4987702392578124,0,0,0.6125
0.8414939710019098,0,0,1.2593500732421874,0,0,0.765625
0.8441327780019492,0,0,1.37906015625,0,0,0.9187500000000001
0.8466147720027948,0,0,1.3479355346679687,0,0,0.8421875000000001
0.8490718780012685,0,0,1.3479355346679687,0,0,0.5359375000000001
0.8523233090018039,0,0,1.2641384765625,0,0,0.9187500000000001
0.8549483390015666,0,0,1.3048399047851562,0,0,0.9187500000000001
0.8576976630029094,0,0,1.3359645263671873,0,0,0.765625
0.8602245270012645,0,0,1.3814543579101561,0,0,0.6890625
0.8633242750001955,0,0,1.2689268798828124,0,0,0.765625
0.8660626740020234,0,0,1.3144167114257812,0,0,0.9187500000000001
0.8710782360030862,0,0,1.3335703247070312,0,0,1.1484375
0.8737045620000572,0,0,1.6903063720703124,0,0,1.6843750000000002
0.8762079630032531,0,0,2.3367408203125,0,0,2.0671875
0.8788868070005265,0,0,2.2744915771484373,0,0,1.8375000000000001
0.8813471900029981,0,0,2.6384102294921874,0,0,1.6078125
0.8848324150021654,0,0,2.1356278808593747,0,0,1.4546875000000001
0.887437741002941,0,0,1.3814543579101561,0,0,0.9187500000000001
0.8904731750008068,0,0,1.35990654296875,0,0,1.1484375
0.8930057050019968,0,0,1.608903515625,0,0,1.4546875000000001
0.8956883270002436,0,0,1.9033903198242186,0,0,1.7609375
0.8981560620013624,0,0,2.142810485839844,0,0,1.6078125
0.901196995000646,0,0,1.9488801513671874,0,0,1.4546875000000001
0.9038226360025874,0,0,1.70467158203125,0,0,0.8421875000000001
0.906453240000701,0,0,1.9991583862304687,0,0,1.0718750000000001
0.9089908440000727,0,0,1.9608511596679685,0,0,2.45
0.9117088920029346,0,0,1.7573440185546874,0,0,1.6078125
0.9143893100008427,0,0,1.905784521484375,0,0,1.53125
0.9169889700024214,0,0,2.185906115722656,0,0,1.4546875000000001
0.919635221001954,0,0,2.001552587890625,0,0,1.378125
0.9221965850010747,0,0,1.5490484741210937,0,0,0.765625
0.924504655002238,0,0,1.5155296508789062,0,0,0.765625
0.9269280020016595,0,0,2.0470424194335934,0,0,1.1484375
0.9292397750032251,0,0,1.7022773803710936,0,0,1.1484375
0.931530901001679,0,0,1.5801730957031248,0,0,1.4546875000000001
0.9340234320006857,0,0,2.0973206542968748,0,0,1.4546875000000001
0.936407279001287,0,0,1.9105729248046874,0,0,1.0718750000000001
0.938676330002636,0,0,2.308010400390625,0,0,1.53125
0.9410312700019858,0,0,2.114080065917969,0,0,1.3015625000000002
0.9434013950012741,0,0,1.7453730102539062,0,0,1.1484375
0.9459562960000767,0,0,1.5801730957031248,0,0,0.5359375000000001
0.9484666600001219,0,0,2.123656872558594,0,0,0.9953125
0.950801434002642,0,0,1.4820108276367188,0,0,0.765625
0.9530832630007353,0,0,2.023100402832031,0,0,1.4546875000000001
0.9555831830002717,0,0,1.9704279663085937,0,0,1.53125
0.95803651100141,0,0,2.2577321655273437,0,0,1.6078125
0.9604237650019058,0,0,1.85790048828125,0,0,0.6890625
0.9628682960028527,0,0,2.04943662109375,0,0,1.225
0.965231884001696,0,0,1.889025109863281,0,0,1.1484375
0.9677615079999669,0,0,1.4724340209960938,0,0,0.3828125
0.9703515380024328,0,0,1.8746598999023436,0,0,1.8375000000000001
0.9728326060030668,0,0,2.2266075439453124,0,0,2.296875
0.9753015630012669,0,0,1.5729904907226562,0,0,1.3015625000000002
0.9778582420003659,0,0,1.9225439331054686,0,0,0.3828125
0.9804150130003109,0,0,2.454056701660156,0,0,0.765625
0.982979932003218,0,0,1.388636962890625,0,0,0.765625
0.9853845569996338,0,0,1.1659762084960936,0,0,0.6125
0.9877293300014571,0,0,2.157175695800781,0,0,2.0671875
0.9901568060013233,0,0,1.7238251953125,0,0,2.0671875
0.9927603360010835,0,0,1.889025109863281,0,0,1.4546875000000001
0.99526362600227,0,0,2.099714855957031,0,0,0.5359375000000001
0.9975502150009561,0,0,1.7621324218749999,0,0,0.9953125
0.9998634330004279,0,0,1.5346832641601562,0,0,2.1437500000000003
1.0022465760011983,0,0,1.6400281372070311,0,0,2.9859375000000004
1.0048655690006854,0,0,1.7501614135742187,0,0,2.1437500000000003
1.0073798590019578,0,0,1.7836802368164062,0,0,1.6078125
1.0099335010017967,0,0,1.656787548828125,0,0,2.2203125000000004
1.0124201430007815,0,0,2.1308394775390624,0,0,1.53125
1.014878359001159,0,0,1.6328455322265625,0,0,-9.646875000000001
1.0174978520008153,0,0,2.0877438476562498,0,0,0.765625
1.0200711230027082,0,0,2.231395947265625,0,0,1.6843750000000002
1.0224081560008926,0,0,2.4779987182617185,0,0,2.1437500000000003
1.0247734100012167,0,0,1.915361328125,0,0,0.0
1.027090980001958,0,0,1.9225439331054686,0,0,8.421875
1.0292808290032553,0,0,2.3151930053710936,0,0,0.22968750000000002
1.0316215279999597,0,0,1.9105729248046874,0,0,3.0625
1.0340024489996722,0,0,1.7621324218749999,0,0,3.215625
1.0362545940006385,0,0,0.7302315063476562,0,0,1.1484375
1.0385630160017172,0,0,1.2401964599609374,0,0,0.45937500000000003
1.0408429560011427,0,0,2.3439234252929686,0,0,3.3687500000000004
1.0432330990006449,0,0,2.5617957763671875,0,0,2.6031250000000004
1.0456263350024528,0,0,0.296881005859375,0,0,832.0046875
1.0479314050026005,0,0,0.3136404174804687,0,0,831.7750000000001
1.0502828630014847,0,0,3.9791631591796874,0,0,2.5265625000000003
1.0526731550016848,0,0,3.2058360229492187,0,0,2.8328125
1.0550662980022025,0,0,0.35673604736328124,0,0,0.153125
1.0573640340007842,0,0,0.6679822631835937,0,0,0.765625
1.0596350680025353,0,0,4.826710546875,0,0,3.7515625000000004
1.0621386540005915,0,0,1.8914193115234375,0,0,1.990625
1.064542871001322,0,0,-0.6631938598632812,0,0,-1.0718750000000001
1.066933385001903,0,0,0.6248866333007812,0,0,0.22968750000000002
1.0693266950001998,0,0,3.2609026611328122,0,0,2.0671875
1.0715720990010595,0,0,0.718260498046875,0,0,0.22968750000000002
1.0739239270005783,0,0,-1.4317325927734375,0,0,-0.153125
1.0761935530026676,0,0,2.9041666137695312,0,0,1.6843750000000002
1.078745972001343,0,0,2.5139117431640625,0,0,1.53125
1.0811245790027897,0,0,-0.737414111328125,0,0,0.0
1.0834711300012714,0,0,2.5953145996093747,0,0,1.6843750000000002
1.0857316630026617,0,0,3.5793314819335937,0,0,2.2203125000000004
1.0880656770023052,0,0,1.2306196533203124,0,0,-9.8
1.0903390620005666,0,0,-0.7829039428710937,0,0,-0.5359375000000001
1.0924890040005266,0,0,3.0526071166992184,0,0,2.1437500000000003
1.095075164001173,0,0,2.8131869506835936,0,0,2.45
1.0972805500023242,0,0,-1.0989385620117187,0,0,0.0
1.0997864320015651,0,0,1.5251064575195312,0,0,1.3015625000000002
1.1021316500009561,0,0,3.229778039550781,0,0,1.6078125
1.104668144002062,0,0,0.737414111328125,0,0,-0.45937500000000003
1.1069685840011516,0,0,-0.316034619140625,0,0,0.0
1.1095225220014981,0,0,2.2385785522460937,0,0,1.378125
1.1118196660027024,0,0,1.4820108276367188,0,0,1.1484375
1.1139094790014497,0,0,-0.430956298828125,0,0,0.9953125
1.1162493629999517,0,0,3.057395520019531,0,0,2.0671875
1.119024095001805,0,0,2.4349030883789062,0,0,1.225
1.1213687199997366,0,0,-0.277727392578125,0,0,832.69375
1.1233749410021119,0,0,1.6807295654296874,0,0,0.45937500000000003
1.1249587960010103,0,0,1.9919757812499999,0,0,1.53125
1.126432745000784,0,0,1.9393033447265624,0,0,0.30625
1.1279594890002045,0,0,1.388636962890625,0,0,0.9953125
1.1295419550006045,0,0,-0.39983167724609375,0,0,-853.4421875
1.131067903002986,0,0,0.12210428466796874,0,0,0.6125
1.132670702001633,0,0,1.8698714965820311,0,0,2.0671875
1.1342960750007478,0,0,2.3295582153320313,0,0,1.7609375
1.1357995230027882,0,0,1.8770541015625,0,0,1.990625
1.1372578050031734,0,0,-0.12689268798828124,0,0,-853.7484375
1.1388020670019614,0,0,0.2154781494140625,0,0,0.0
1.1403467190029914,0,0,2.308010400390625,0,0,1.0718750000000001
1.1418194819998462,0,0,2.6096798095703124,0,0,1.6843750000000002
1.1432847270007187,0,0,1.9201497314453124,0,0,1.0718750000000001
1.1448268970016215,0,0,0.8499415893554687,0,0,0.0
1.1463794560004317,0,0,-0.354341845703125,0,0,0.22968750000000002
1.1478569230021094,0,0,1.0606313354492187,0,0,0.0
1.149312446003023,0,0,2.2098481323242187,0,0,0.9953125
1.150941744002921,0,0,2.0374656127929685,0,0,2.0671875
1.1525750060027349,0,0,1.2401964599609374,0,0,1.8375000000000001
1.1541179720006767,0,0,0.5674257934570313,0,0,0.153125
1.1557095120006124,0,0,1.5610194824218748,0,0,1.3015625000000002
1.1573908850004955,0,0,2.142810485839844,0,0,0.9953125
1.1589439440031128,0,0,1.9871873779296874,0,0,0.5359375000000001
1.1604893540024932,0,0,1.467645617675781,0,0,0.8421875000000001
1.1621589679998579,0,0,0.612915625,0,0,0.22968750000000002
1.1637920630018925,0,0,1.7645266235351562,0,0,1.0718750000000001
1.1653518620005343,0,0,1.9704279663085937,0,0,1.225
1.1670639380026842,0,0,1.2737152832031249,0,0,0.765625
1.1687064400030067,0,0,0.181959326171875,0,0,0.3828125
1.1702992760001507,0,0,0.47644613037109373,0,0,0.0
1.1718863530004455,0,0,2.291250988769531,0,0,1.7609375
1.1734801530001278,0,0,2.863465185546875,0,0,1.8375000000000001
1.175349412002106,0,0,1.7405846069335937,0,0,2.2203125000000004
1.1769487670026137,0,0,1.189918225097656,0,0,0.6890625
1.1784868810027547,0,0,0.25139117431640623,0,0,0.153125
1.1801249390009616,0,0,2.3822306518554686,0,0,0.9187500000000001
1.1817776450006932,0,0,2.568978381347656,0,0,0.9187500000000001
1.1833244629997353,0,0,1.5682020874023437,0,0,0.6125
1.1849475770031859,0,0,0.8571241943359375,0,0,-0.30625
1.1867933180001273,0,0,0.18435352783203124,0,0,0.153125
1.1883006550015125,0,0,1.5586252807617187,0,0,1.3015625000000002
1.1898548620010843,0,0,1.6065093139648436,0,0,0.8421875000000001
1.1915771970016067,0,0,1.2904746948242187,0,0,1.3015625000000002
1.1931663670002308,0,0,0.5626373901367188,0,0,0.0
1.194756425000378,0,0,1.2593500732421874,0,0,1.0718750000000001
1.1971468640003877,0,0,2.482787121582031,0,0,2.0671875
1.1987740889999259,0,0,1.6831237670898436,0,0,0.5359375000000001
1.2003887580031005,0,0,0.48123453369140623,0,0,0.30625
1.2018658180022612,0,0,0.02633621826171875,0,0,0.30625
1.2033267300030275,0,0,2.607285607910156,0,0,0.3828125
1.204823011001281,0,0,2.4588451049804685,0,0,2.1437500000000003
1.2063722550010425,0,0,0.7038952880859375,0,0,0.6125
1.2078450190019794,0,0,-0.13646949462890623,0,0,1.1484375
1.209610612000688,0,0,-0.5746083984375,0,0,-0.6125
1.2113063730030262,0,0,2.7629087158203123,0,0,0.3828125
1.2131510590006656,0,0,3.1483751831054687,0,0,1.990625
1.2147247290013183,0,0,1.927332336425781,0,0,0.6125
1.216248954002367,0,0,0.7948749511718749,0,0,1.225
1.2181554360031441,0,0,0.35673604736328124,0,0,0.765625
1.2197023830012768,0,0,1.3934253662109375,0,0,1.0718750000000001
1.2211649430028046,0,0,2.6719290527343746,0,0,0.8421875000000001
1.2226199840006302,0,0,1.5610194824218748,0,0,0.22968750000000002
1.224122266001359,0,0,0.45489831542968745,0,0,0.0
1.2260418580008263,0,0,-0.1484405029296875,0,0,1.0718750000000001
1.2277145270018082,0,0,2.0566192260742184,0,0,2.2203125000000004
1.2292638270009775,0,0,2.346317626953125,0,0,2.0671875
1.2308052190019225,0,0,1.1276689819335937,0,0,0.30625
1.2322970929999428,0,0,0.29448680419921874,0,0,0.153125
1.233755930999905,0,0,0.20350714111328125,0,0,0.0
1.2352464530013094,0,0,3.0933085449218747,0,0,1.53125
1.236776159999863,0,0,3.296815686035156,0,0,2.45
1.2385171060013818,0,0,0.8212111694335937,0,0,1.0718750000000001
1.2400734610018844,0,0,-0.0143652099609375,0,0,0.0765625
1.241644483001437,0,0,-0.6943184814453125,0,0,-0.6125
1.2432029860028706,0,0,2.935291235351562,0,0,0.0
1.2449711350018333,0,0,3.42849677734375,0,0,2.1437500000000003
1.2465793230003328,0,0,1.2880804931640624,0,0,1.225
1.2482266960032575,0,0,-0.6153098266601562,0,0,832.69375
1.2500895290031622,0,0,-1.024718310546875,0,0,0.5359375000000001
1.2517654020011832,0,0,2.6815058593749996,0,0,1.9140625000000002
1.2534519780019764,0,0,3.689464758300781,0,0,2.3734375
1.2550692210024863,0,0,2.109291662597656,0,0,2.0671875
1.2566117060014221,0,0,-0.17956512451171874,0,0,-0.22968750000000002
1.2589233870021417,0,0,0.19393033447265623,0,0,-0.3828125
1.2606399440010136,0,0,3.404554760742187,0,0,1.8375000000000001
1.2622772240029008,0,0,2.1906945190429687,0,0,1.6078125
1.2638959860014438,0,0,1.1109095703125,0,0,1.378125
1.265434823002579,0,0,-1.177947216796875,0,0,-0.6890625
1.2669731230016623,0,0,0.07900865478515624,0,0,832.69375
1.2691401379997842,0,0,2.9759926635742184,0,0,0.6890625
1.2709564169999794,0,0,2.0925322509765625,0,0,1.0718750000000001
1.2728124730019772,0,0,0.3327940307617187,0,0,0.0
1.274413679002464,0,0,0.7829039428710937,0,0,0.6890625
1.2765205100004096,0,0,2.8658593872070313,0,0,2.45
1.2781656420011132,0,0,1.6519991455078125,0,0,1.3015625000000002
1.2798006820012233,0,0,1.2330138549804688,0,0,1.1484375
1.2818247920004069,0,0,-0.47644613037109373,0,0,-852.8296875000001
1.2834809420019155,0,0,2.2744915771484373,0,0,1.225
1.2850752970007306,0,0,3.172317199707031,0,0,2.2203125000000004
1.2866993730021932,0,0,1.7812860351562498,0,0,1.378125
1.288558781001484,0,0,-0.6584054565429687,0,0,0.0765625
1.2901983940028003,0,0,-0.03591302490234375,0,0,-0.765625
1.29184376700141,0,0,2.085349645996094,0,0,1.0718750000000001
1.2940488940002979,0,0,3.7301661865234372,0,0,2.45
1.2958289870002773,0,0,1.8243816650390623,0,0,2.45
1.2980248730018502,0,0,-1.7741034301757812,0,0,-853.4421875
1.2998461330025748,0,0,1.1420341918945311,0,0,0.3828125
1.301310711001861,0,0,3.7708676147460936,0,0,1.0718750000000001
1.302899325000908,0,0,3.124433166503906,0,0,0.8421875000000001
1.3044847350029158,0,0,0.6272808349609375,0,0,0.9187500000000001
1.3064229570009047,0,0,-0.29927520751953124,0,0,-852.8296875000001
1.3081571990005614,0,0,1.8124106567382812,0,0,1.7609375
1.309751924000011,0,0,2.442085693359375,0,0,1.378125
1.3117431829996349,0,0,1.7908628417968748,0,0,1.1484375
1.3135043880029116,0,0,0.062249243164062495,0,0,-9.646875000000001
1.3151121500013687,0,0,0.6607996582031249,0,0,0.9953125
1.316827448001277,0,0,2.741360900878906,0,0,1.7609375
1.3184825050011568,0,0,2.1164742675781247,0,0,1.378125
1.3200300090029486,0,0,1.7956512451171873,0,0,1.4546875000000001
1.3215660310015664,0,0,-0.21787235107421873,0,0,832.2343750000001
1.323254402999737,0,0,1.7286135986328124,0,0,0.153125
1.324834961000306,0,0,2.3343466186523436,0,0,1.6078125
1.326370113001758,0,0,1.8698714965820311,0,0,1.6843750000000002
1.327991912003199,0,0,1.4173673828125,0,0,1.53125
1.3296555250017263,0,0,-0.9121908325195311,0,0,-0.765625
1.331275917000312,0,0,1.3192051147460937,0,0,-0.22968750000000002
1.332922845002031,0,0,2.29843359375,0,0,1.6078125
1.3346413090002898,0,0,2.5905261962890624,0,0,1.9140625000000002
1.336246201000904,0,0,0.8307879760742187,0,0,1.0718750000000001
1.338416958002199,0,0,-0.028730419921875,0,0,-0.5359375000000001
1.340102256002865,0,0,1.1827356201171875,0,0,1.3015625000000002
1.3417411660011567,0,0,2.9472622436523435,0,0,1.378125
1.3433921490031935,0,0,2.128445275878906,0,0,1.6078125
1.3455541650000669,0,0,-0.45968671875,0,0,0.22968750000000002
1.3478737719997298,0,0,1.0630255371093749,0,0,0.9187500000000001
1.3497544020028727,0,0,2.6096798095703124,0,0,1.6843750000000002
1.3520467310008826,0,0,1.924938134765625,0,0,2.0671875
1.3542371350013127,0,0,0.6105214233398437,0,0,0.8421875000000001
1.3561864130024333,0,0,2.4516625,0,0,1.9140625000000002
1.3584815009999147,0,0,1.6136919189453125,0,0,1.0718750000000001
1.3605740550010523,0,0,0.7302315063476562,0,0,0.6125
1.3624247770021611,0,0,0.6751648681640625,0,0,0.0765625
1.365058196002792,0,0,2.3223756103515623,0,0,1.6078125
1.3668824560008943,0,0,1.5490484741210937,0,0,1.3015625000000002
1.36933743100235,0,0,-0.18914193115234373,0,0,-0.45937500000000003
1.3713206900029036,0,0,2.1499930908203124,0,0,0.22968750000000002
1.3729866180001409,0,0,2.858676782226562,0,0,1.3015625000000002
1.374829618001968,0,0,1.9967641845703124,0,0,1.378125
1.3764805829996476,0,0,0.5746083984375,0,0,1.225
1.3780614570023317,0,0,-0.17956512451171874,0,0,832.6171875000001
1.3795407020006678,0,0,1.5897499023437498,0,0,0.0765625
1.3810066870028095,0,0,2.5354595581054684,0,0,0.6125
1.3827203560031194,0,0,2.1068974609374997,0,0,0.45937500000000003
1.3843346169996948,0,0,0.9313444458007812,0,0,1.4546875000000001
1.3858301770014805,0,0,0.19393033447265623,0,0,0.22968750000000002
1.3873026620021847,0,0,1.5203180541992187,0,0,0.9187500000000001
1.3890304230008041,0,0,1.9416975463867185,0,0,0.8421875000000001
1.3905939260002924,0,0,1.4772224243164063,0,0,1.4546875000000001
1.3920689300030062,0,0,1.4628572143554686,0,0,1.6078125
1.3936490070009313,0,0,1.0558429321289062,0,0,0.45937500000000003
1.3953009360011492,0,0,2.070984436035156,0,0,0.5359375000000001
1.3968201060015417,0,0,2.042254016113281,0,0,0.6125
1.3982905730008497,0,0,0.9935936889648437,0,0,0.45937500000000003
1.3998432240005059,0,0,0.8355763793945312,0,0,0.30625
1.401383746000647,0,0,0.6272808349609375,0,0,-0.6125
1.4028563430001668,0,0,1.1755530151367186,0,0,1.0718750000000001
1.4043803090025904,0,0,2.3870190551757813,0,0,1.9140625000000002
1.4060235710021516,0,0,1.9680337646484374,0,0,1.4546875000000001
1.4075965930023813,0,0,0.35673604736328124,0,0,0.765625
1.4090714670019224,0,0,0.15083470458984374,0,0,0.6890625
1.4106209700003092,0,0,1.0342951171875,0,0,0.6125
1.4122176400014723,0,0,3.526659045410156,0,0,2.1437500000000003
1.413886234000529,0,0,3.3494881225585935,0,0,1.9140625000000002
1.4154609040015202,0,0,1.005564697265625,0,0,1.225
1.4170471110010112,0,0,-0.20350714111328125,0,0,832.5406250000001
1.4186280030007765,0,0,0.0526724365234375,0,0,832.5406250000001
1.4200956550012052,0,0,1.8507178833007811,0,0,1.378125
1.4216986950013961,0,0,3.0023288818359375,0,0,1.3015625000000002
1.4233007900002121,0,0,1.3383587280273437,0,0,1.1484375
1.4248639600009483,0,0,0.1005564697265625,0,0,-9.646875000000001
1.4264501290017506,0,0,0.24181436767578124,0,0,0.6890625
1.4280464290022792,0,0,1.9680337646484374,0,0,1.378125
1.4295828210015316,0,0,2.8993782104492185,0,0,1.225
1.4310519360005856,0,0,1.886630908203125,0,0,0.8421875000000001
1.4326442910023616,0,0,0.4429273071289062,0,0,0.0
1.4342666640004609,0,0,1.2713210815429687,0,0,0.9187500000000001
1.4358140190015547,0,0,2.920926025390625,0,0,1.53125
1.4372830970023642,0,0,2.39420166015625,0,0,0.765625
1.4389340440029628,0,0,1.2665326782226562,0,0,832.6171875000001
1.4406012500003271,0,0,-0.4908113403320312,0,0,832.8468750000001
1.44207434600321,0,0,-0.44532150878906246,0,0,0.0765625
1.4436409980007738,0,0,2.422932080078125,0,0,0.8421875000000001
1.4451813530031359,0,0,2.6623522460937497,0,0,1.7609375
1.446753467000235,0,0,1.199495031738281,0,0,1.1484375
1.4483283219997247,0,0,-0.5793968017578125,0,0,0.9953125
1.4500223980030569,0,0,-0.6368576416015624,0,0,0.0765625
1.4516351410020434,0,0,3.0166940917968748,0,0,1.1484375
1.4532509220007341,0,0,3.825934252929687,0,0,1.990625
1.4548727580004197,0,0,2.1643583007812497,0,0,1.9140625000000002
1.456422557002952,0,0,-0.8379705810546875,0,0,1.1484375
1.457890061003127,0,0,-1.7357962036132812,0,0,8.498437500000001
1.4595334149998962,0,0,2.592920397949219,0,0,0.3828125
1.4611427890013147,0,0,4.242525341796875,0,0,1.378125
1.4626587740021932,0,0,2.3391350219726563,0,0,1.7609375
1.4641475919997902,0,0,0.8810662109374999,0,0,1.53125
1.4658484460014733,0,0,-1.618480322265625,0,0,-853.1359375000001
1.4675053560022207,0,0,1.3575123413085937,0,0,0.0
1.4690501740005857,0,0,2.6384102294921874,0,0,0.6890625
1.470680843001901,0,0,2.6096798095703124,0,0,1.378125
1.4724194549999083,0,0,0.5506663818359374,0,0,1.9140625000000002
1.4740120880014729,0,0,-0.4955997436523437,0,0,0.30625
1.4755658130015945,0,0,1.6424223388671875,0,0,0.6890625
1.4772767780013965,0,0,2.7916391357421872,0,0,0.9953125
1.4788979100012511,0,0,2.2457611572265623,0,0,0.9953125
1.4804457280006318,0,0,0.45968671875,0,0,0.9187500000000001
1.4820466390010552,0,0,-0.3950432739257812,0,0,0.30625
1.4837314920005156,0,0,1.8531120849609375,0,0,0.9953125
1.4854368090018397,0,0,3.189076611328125,0,0,0.9953125
1.4871216999999888,0,0,2.2744915771484373,0,0,0.765625
1.488853201000893,0,0,-0.105344873046875,0,0,0.0
1.4904084820009302,0,0,-0.5051765502929687,0,0,-0.3828125
1.4920190220000222,0,0,1.3096283081054687,0,0,1.1484375
1.4936461170000257,0,0,3.2034418212890623,0,0,1.1484375
1.4953453600028297,0,0,2.24097275390625,0,0,1.8375000000000001
1.496996621001017,0,0,0.8906430175781249,0,0,832.8468750000001
1.4986574009999458,0,0,-0.8547299926757812,0,0,-9.8
1.5003138850006508,0,0,3.0813375366210938,0,0,1.9140625000000002
1.5020043680015078,0,0,3.5697546752929687,0,0,1.3015625000000002
1.5036835370010522,0,0,1.8818425048828125,0,0,1.4546875000000001
1.5052298180016805,0,0,-0.8714894042968749,0,0,-0.5359375000000001
1.5068362840029295,0,0,-0.3806780639648437,0,0,-0.5359375000000001
1.508502712000336,0,0,1.7884686401367187,0,0,1.3015625000000002
1.5101031780031917,0,0,2.4396914916992185,0,0,1.225
1.5118039570006658,0,0,2.1883003173828124,0,0,2.2203125000000004
1.5135993660005624,0,0,-0.09816226806640624,0,0,9.264062500000001
1.5152968670008704,0,0,1.9105729248046874,0,0,0.6125
1.5169604620023165,0,0,2.7557261108398436,0,0,1.4546875000000001
1.5186148160028097,0,0,1.6735469604492186,0,0,0.9187500000000001
1.520221004000632,0,0,0.584185205078125,0,0,1.225
1.5217824520004797,0,0,-0.74699091796875,0,0,832.6171875000001
1.5235095269999874,0,0,1.898601916503906,0,0,0.0
1.525146511001367,0,0,2.8802245971679685,0,0,1.0718750000000001
1.5267019590028212,0,0,2.133233679199219,0,0,1.225
1.5282515180006158,0,0,0.40222587890625,0,0,1.6078125
1.5299492230005853,0,0,-1.0414777221679687,0,0,832.8468750000001
1.5315913370031922,0,0,1.5251064575195312,0,0,0.3828125
1.5331364510020649,0,0,2.748543505859375,0,0,1.6843750000000002
1.5347329540018109,0,0,2.6719290527343746,0,0,1.6078125
1.5363960300019244,0,0,0.82360537109375,0,0,2.0671875
1.5382652530024643,0,0,-0.4836287353515625,0,0,-0.3828125
1.539937033001479,0,0,0.9050082275390624,0,0,0.22968750000000002
1.541557961001672,0,0,2.91134921875,0,0,1.1484375
1.5431044830002065,0,0,2.427720483398437,0,0,1.1484375
1.5446852450004371,0,0,0.967257470703125,0,0,-9.5703125
1.546869241999957,0,0,-0.49799394531249996,0,0,-853.4421875
1.5484580420015845,0,0,2.1068974609374997,0,0,0.8421875000000001
1.5504054850025568,0,0,2.664746447753906,0,0,1.990625
1.5520812280010432,0,0,2.521094348144531,0,0,3.0625
1.5536339540012705,0,0,0.4070142822265625,0,0,0.153125
1.5552032530031283,0,0,0.8978256225585937,0,0,0.22968750000000002
1.5571178270001838,0,0,1.0773907470703123,0,0,832.5406250000001
1.5588659759996517,0,0,1.8243816650390623,0,0,832.69375
1.5603822020020743,0,0,1.6519991455078125,0,0,1.6843750000000002
1.5619229830008408,0,0,0.22026655273437498,0,0,1.225
1.5637330770005065,0,0,1.1109095703125,0,0,1.53125
1.5653563200030476,0,0,1.5155296508789062,0,0,0.9953125
1.5669032120022166,0,0,1.3766659545898436,0,0,0.45937500000000003
1.5684560860026977,0,0,1.2042834350585936,0,0,0.8421875000000001
1.5699397930002306,0,0,0.6296750366210937,0,0,0.22968750000000002
1.5716180730014457,0,0,2.6671406494140624,0,0,1.378125
1.5732186500026728,0,0,2.5761609863281247,0,0,1.3015625000000002
1.5748248560012144,0,0,1.3862427612304686,0,0,0.6890625
1.5766464500011352,0,0,0.11013327636718749,0,0,0.0
1.5781016020009702,0,0,-0.7422025146484375,0,0,832.5406250000001
1.5796844010001223,0,0,2.2936451904296873,0,0,0.9187500000000001
1.5813936619997548,0,0,2.858676782226562,0,0,1.378125
1.5829123880030238,0,0,1.388636962890625,0,0,1.378125
1.5844295770002645,0,0,-0.08379705810546874,0,0,1.1484375
1.5859891540021636,0,0,-0.7422025146484375,0,0,0.6890625
1.5878828759996395,0,0,2.221819140625,0,0,1.225
1.5895238049997715,0,0,2.89219560546875,0,0,0.9953125
1.5910959000029834,0,0,1.8171990600585937,0,0,1.225
1.5927073290004046,0,0,0.5889736083984375,0,0,0.3828125
1.5941692590022285,0,0,-0.1292868896484375,0,0,0.6890625
1.5956312080015778,0,0,2.2170307373046874,0,0,0.8421875000000001
1.597126508000656,0,0,2.779668127441406,0,0,0.6890625
1.5987489550025202,0,0,1.0678139404296874,0,0,0.6125
1.600225144000433,0,0,0.09576806640624999,0,0,1.53125
1.6016843150027853,0,0,-0.17238251953125,0,0,832.0812500000001
1.6036993880006776,0,0,2.5617957763671875,0,0,1.225
1.6053814639999473,0,0,2.35589443359375,0,0,1.378125
1.6068711710031494,0,0,1.0989385620117187,0,0,-8.8046875
1.6083481940004276,0,0,-0.105344873046875,0,0,-0.6125
1.6103149709997524,0,0,1.1827356201171875,0,0,0.5359375000000001
1.611908103001042,0,0,2.6384102294921874,0,0,1.378125
1.6134258290003345,0,0,2.9759926635742184,0,0,1.6843750000000002
1.614968943002168,0,0,1.68551796875,0,0,0.8421875000000001
1.6181943560004584,0,0,0.00718260498046875,0,0,-0.30625
1.6198969690012746,0,0,2.2553379638671873,0,0,1.0718750000000001
1.621539527001005,0,0,3.670311145019531,0,0,2.3734375
1.623360842000693,0,0,1.158793603515625,0,0,2.2203125000000004
1.6249899930007814,0,0,-0.44053310546874996,0,0,-0.9953125
1.6265158860005613,0,0,0.19871873779296872,0,0,0.30625
1.6279872230006731,0,0,1.8076222534179687,0,0,1.990625
1.6299203150010726,0,0,3.517082238769531,0,0,2.0671875
1.6317939820000902,0,0,1.3527239379882812,0,0,1.6843750000000002
1.6334758539996983,0,0,-1.0582371337890624,0,0,832.0812500000001
1.635240800002066,0,0,2.224213342285156,0,0,0.0765625
1.636937265000597,0,0,3.727771984863281,0,0,1.7609375
1.6385664520021237,0,0,1.3048399047851562,0,0,2.0671875
1.6400762150005903,0,0,0.3280056274414062,0,0,1.6843750000000002
1.6417189950007014,0,0,-1.3120225097656248,0,0,832.0812500000001
1.6432978869997896,0,0,2.693476867675781,0,0,0.0
1.64476511400062,0,0,4.1563340820312495,0,0,1.990625
1.646400857000117,0,0,2.3056161987304686,0,0,2.3734375
1.6480053970008157,0,0,1.3120225097656248,0,0,2.45
1.6495331410005747,0,0,-1.8650830932617186,0,0,831.7750000000001
1.6510086080015753,0,0,-0.0383072265625,0,0,-853.4421875
1.652517500002432,0,0,3.725377783203125,0,0,2.1437500000000003
1.6540945030028524,0,0,3.5506010620117183,0,0,1.7609375
1.6556223400002636,0,0,1.89620771484375,0,0,1.8375000000000001
1.6570900850019825,0,0,-0.023942016601562498,0,0,-1.4546875000000001
1.6587025510016247,0,0,-0.45968671875,0,0,-0.6125
1.6603003870004613,0,0,3.2920272827148436,0,0,2.0671875
1.661769558002561,0,0,3.4668040039062498,0,0,1.6078125
1.6632330620013818,0,0,1.5179238525390624,0,0,1.7609375
1.664814824001951,0,0,-0.3327940307617187,0,0,-0.765625
1.6663704750026227,0,0,-0.6105214233398437,0,0,-0.45937500000000003
1.667839924000873,0,0,1.5011644409179687,0,0,0.3828125
1.6693460759997834,0,0,3.83072265625,0,0,0.6125
1.670929227002489,0,0,2.767697119140625,0,0,2.0671875
1.6724634150014026,0,0,0.229843359375,0,0,2.0671875
1.673925920000329,0,0,-1.2928688964843749,0,0,0.0
1.6754928299997118,0,0,1.4413093994140624,0,0,9.1875
1.6770555550028803,0,0,3.404554760742187,0,0,1.9140625000000002
1.678578874001687,0,0,2.5139117431640625,0,0,1.6078125
1.6800447300011,0,0,1.8626888916015625,0,0,2.6031250000000004
1.6815487340027175,0,0,-1.0103531005859374,0,0,-1.6843750000000002
1.683159958000033,0,0,-0.6009446166992187,0,0,832.0812500000001
1.684717776002799,0,0,2.935291235351562,0,0,2.3734375
1.6861832810027408,0,0,3.3255461059570313,0,0,1.8375000000000001
1.6877935060001619,0,0,1.7645266235351562,0,0,2.75625
1.6894462860000203,0,0,-1.8555062866210936,0,0,8.0390625
1.6911798239998461,0,0,-0.8164227661132812,0,0,-1.225
1.692792271001963,0,0,3.986345764160156,0,0,2.296875
1.6943975150024926,0,0,2.877830395507812,0,0,2.5265625000000003
1.695875684999919,0,0,1.905784521484375,0,0,3.1390625
1.697422892000759,0,0,-2.3343466186523436,0,0,-1.225
1.6990021359997627,0,0,-1.39821376953125,0,0,-1.3015625000000002
1.7005596210001386,0,0,3.3111808959960936,0,0,1.990625
1.702029569001752,0,0,3.9815573608398434,0,0,1.8375000000000001
1.7035367580028833,0,0,2.3726538452148436,0,0,2.6031250000000004
1.705116242999793,0,0,0.2657563842773437,0,0,-0.153125
1.7066500239998277,0,0,-1.3000515014648437,0,0,-0.765625
1.7081277320030495,0,0,0.967257470703125,0,0,1.0718750000000001
1.7097271970014845,0,0,4.015076184082031,0,0,1.53125
1.711257460003253,0,0,2.722207287597656,0,0,1.3015625000000002
1.7127738340022916,0,0,0.9624690673828125,0,0,0.6125
1.7144656689997646,0,0,-0.8858546142578124,0,0,-1.225
1.7160423020031885,0,0,0.7661445312499999,0,0,0.22968750000000002
1.717514010000741,0,0,3.1316157714843746,0,0,0.6125
1.7189742360023956,0,0,2.7174188842773437,0,0,2.3734375
1.7204789070019615,0,0,0.7230489013671875,0,0,2.1437500000000003
1.7220505390032486,0,0,-0.9720458740234375,0,0,-0.30625
1.723753245001717,0,0,0.9959878906249999,0,0,0.0765625
1.7252412859998003,0,0,2.683900061035156,0,0,0.153125
1.7268494550007745,0,0,2.3247698120117186,0,0,1.378125
1.7285854560032021,0,0,0.8882488159179687,0,0,2.1437500000000003
1.7301844590001565,0,0,-0.4285620971679687,0,0,0.6890625
1.7317875730004744,0,0,1.467645617675781,0,0,0.45937500000000003
1.7333188539996627,0,0,2.9951462768554684,0,0,0.45937500000000003
1.7347825990000274,0,0,2.518700146484375,0,0,1.9140625000000002
1.7362905840018357,0,0,0.9528922607421875,0,0,2.296875
1.7378679020002892,0,0,-0.4644751220703125,0,0,0.22968750000000002
1.7393886650024797,0,0,0.928950244140625,0,0,-0.8421875000000001
1.7408608540026762,0,0,2.0183119995117185,0,0,1.3015625000000002
1.742371099000593,0,0,2.128445275878906,0,0,2.2203125000000004
1.7440611380006885,0,0,2.1404162841796874,0,0,2.5265625000000003
1.7457615650018852,0,0,-0.258573779296875,0,0,0.0765625
1.7473299949997454,0,0,1.2282254516601563,0,0,-0.8421875000000001
1.7489213860026211,0,0,2.6623522460937497,0,0,1.3015625000000002
1.7504640190018108,0,0,2.935291235351562,0,0,2.45
1.7519304680026835,0,0,2.195482922363281,0,0,2.45
1.7534464710006432,0,0,-0.5267243652343749,0,0,-0.9187500000000001
1.7550086970004486,0,0,-0.7254431030273437,0,0,-0.9187500000000001
1.75662310700136,0,0,2.4756045166015626,0,0,1.225
1.7582601089998207,0,0,2.099714855957031,0,0,2.0671875
1.7598755010003515,0,0,1.7405846069335937,0,0,2.45
1.7614168750005774,0,0,-0.565031591796875,0,0,-0.6125
1.763050451001618,0,0,-0.5889736083984375,0,0,-0.30625
1.7647116380030639,0,0,2.530671154785156,0,0,1.4546875000000001
1.7663078450023022,0,0,2.291250988769531,0,0,1.53125
1.7678082750026078,0,0,2.099714855957031,0,0,1.8375000000000001
1.7693346490013937,0,0,0.1388636962890625,0,0,-0.765625
1.7710416870031622,0,0,0.3016694091796875,0,0,0.153125
1.7725271730014356,0,0,2.2553379638671873,0,0,1.6843750000000002
1.7740073620007024,0,0,2.0973206542968748,0,0,1.0718750000000001
1.7756239020018256,0,0,1.3958195678710936,0,0,0.9187500000000001
1.7772394040002837,0,0,-0.41419688720703124,0,0,-1.225
1.7787739080013125,0,0,0.373495458984375,0,0,0.0
1.780244023000705,0,0,3.1938650146484373,0,0,2.3734375
1.7818718400012585,0,0,2.389413256835937,0,0,1.8375000000000001
1.783460010003182,0,0,1.139639990234375,0,0,0.8421875000000001
1.7849289770019823,0,0,0.24660277099609373,0,0,-0.153125
1.7864415550029662,0,0,0.17956512451171874,0,0,0.30625
1.7881247229997825,0,0,2.327164013671875,0,0,2.2203125000000004
1.7898068920003425,0,0,2.8323405639648436,0,0,1.6078125
1.7914587830018718,0,0,2.0063409912109376,0,0,0.6890625
1.7931368780009507,0,0,0.6296750366210937,0,0,-9.723437500000001
1.7947436950016709,0,0,-0.04548983154296875,0,0,0.5359375000000001
1.7962258290026512,0,0,2.418143676757812,0,0,1.378125
1.797696055000415,0,0,2.1404162841796874,0,0,0.0
1.7992784840025706,0,0,1.6639701538085936,0,0,9.646875000000001
1.8008933010023611,0,0,0.7565677246093749,0,0,0.3828125
1.802431157000683,0,0,0.2537853759765625,0,0,0.9953125
1.8039498640027887,0,0,1.618480322265625,0,0,1.9140625000000002
1.8057197540001653,0,0,2.0278888061523435,0,0,0.9187500000000001
1.8073174980017939,0,0,1.5658078857421873,0,0,1.225
1.8087817240011645,0,0,0.6631938598632812,0,0,-7.885937500000001
1.8102455799999007,0,0,1.01514150390625,0,0,0.9187500000000001
1.8119145080017915,0,0,2.839523168945312,0,0,0.9187500000000001
1.8135012890015787,0,0,2.7820623291015623,0,0,0.153125
1.8149732000019867,0,0,1.5897499023437498,0,0,1.1484375
1.8164990180011955,0,0,-0.09337386474609374,0,0,0.0
1.8182127979998768,0,0,0.031124621582031248,0,0,0.45937500000000003
1.819745190001413,0,0,2.1787235107421874,0,0,0.0765625
1.821213028000784,0,0,3.1675287963867187,0,0,0.765625
1.8227938080017339,0,0,1.3934253662109375,0,0,1.3015625000000002
1.824330182000267,0,0,-0.3112462158203125,0,0,2.3734375
1.8258013900012884,0,0,-1.3048399047851562,0,0,-0.45937500000000003
1.8273208749997139,0,0,2.3822306518554686,0,0,-0.765625
1.8289310630025284,0,0,3.902548706054687,0,0,1.6078125
1.8304428070005088,0,0,2.7820623291015623,0,0,2.6796875
1.8319525700026134,0,0,1.6232687255859375,0,0,2.8328125
1.8335576099998434,0,0,-1.66636435546875,0,0,-1.4546875000000001
1.83524048199979,0,0,2.1356278808593747,0,0,-1.1484375
1.836785449002491,0,0,3.718195178222656,0,0,1.6843750000000002
1.8382538969999587,0,0,2.2385785522460937,0,0,1.9140625000000002
1.83988552899973,0,0,1.158793603515625,0,0,2.5265625000000003
1.8415877530023863,0,0,-1.7788918334960937,0,0,-1.378125
1.8432454590001726,0,0,2.080561242675781,0,0,-1.225
1.84485596200102,0,0,3.7110125732421873,0,0,1.378125
1.8464666310028406,0,0,2.7150246826171873,0,0,2.45
1.8479873390024295,0,0,1.4700398193359374,0,0,3.1390625
1.8494949160012766,0,0,-1.2665326782226562,0,0,0.0
1.8512143620027928,0,0,1.9800047729492187,0,0,-0.765625
1.8527149030014698,0,0,3.9336733276367184,0,0,1.8375000000000001
1.8541783330001635,0,0,4.390965844726562,0,0,1.990625
1.8558316870003182,0,0,1.7238251953125,0,0,2.75625
1.8573628760022984,0,0,-1.7381904052734374,0,0,-1.6078125
1.8589360090008995,0,0,-1.1348515869140625,0,0,-1.378125
1.8605142710002838,0,0,3.526659045410156,0,0,1.53125
1.8620871439998155,0,0,3.246537451171875,0,0,1.990625
1.8636409630016715,0,0,1.5682020874023437,0,0,1.8375000000000001
1.8651112630032003,0,0,-0.16998831787109375,0,0,8.421875
1.8667338400009612,0,0,-1.707065783691406,0,0,8.26875
1.8683468790004554,0,0,3.375824340820312,0,0,1.6843750000000002
1.8700837700016564,0,0,3.787627026367187,0,0,2.296875
1.8717934010019235,0,0,1.5969325073242187,0,0,1.1484375
1.8734607550031797,0,0,-1.0797849487304687,0,0,-1.9140625000000002
1.875386329000321,0,0,0.9911994873046874,0,0,-0.765625
1.8770536640004138,0,0,0.5219359619140624,0,0,-8.498437500000001
1.878649778002,0,0,1.8028338500976562,0,0,1.1484375
1.8801297630016052,0,0,2.013523596191406,0,0,-0.30625
1.8817223590012873,0,0,-1.37906015625,0,0,-2.5265625000000003
1.8833323060025577,0,0,0.7445967163085937,0,0,0.6890625
1.8849298269997234,0,0,1.6112977172851561,0,0,2.1437500000000003
1.886693477001245,0,0,1.6448165405273436,0,0,0.22968750000000002
1.8882148690026952,0,0,0.9935936889648437,0,0,1.1484375
1.8897621870019066,0,0,-0.086191259765625,0,0,4.823437500000001
1.891301135001413,0,0,-0.5770026000976562,0,0,6.890625000000001
1.892894045002322,0,0,2.133233679199219,0,0,0.0
1.8944501600017247,0,0,3.9791631591796874,0,0,3.6750000000000003
1.8960595700009435,0,0,2.683900061035156,0,0,-0.30625
1.8975561110019044,0,0,-0.35673604736328124,0,0,-8.8046875
1.8990475780010456,0,0,-2.205059729003906,0,0,-0.153125
1.9006023030015058,0,0,-1.5227122558593749,0,0,-3.3687500000000004
1.9021447140003147,0,0,1.1827356201171875,0,0,1.0718750000000001
1.9037261060002493,0,0,2.6096798095703124,0,0,3.4453125000000004
1.9052594420027162,0,0,0.4165910888671875,0,0,0.765625
1.9068180009999196,0,0,0.08140285644531249,0,0,3.3687500000000004
1.9083482820024074,0,0,-1.2617442749023438,0,0,0.0
1.9098179720022017,0,0,0.12689268798828124,0,0,-1.990625
1.9113351050000347,0,0,3.4763808105468748,0,0,1.9140625000000002
1.9128954040024837,0,0,4.410119458007812,0,0,-0.153125
1.914383205003105,0,0,2.5641899780273434,0,0,5.206250000000001
1.9158462270024756,0,0,-0.033518823242187495,0,0,9.646875000000001
1.917574303002766,0,0,-1.4772224243164063,0,0,-1.6843750000000002
1.9192380640015472,0,0,0.4333505004882812,0,0,-0.5359375000000001
1.9208050859997456,0,0,1.484405029296875,0,0,-2.5265625000000003
1.9224473850008508,0,0,3.047818713378906,0,0,2.2203125000000004
1.924183756000275,0,0,2.023100402832031,0,0,1.8375000000000001
1.9256779450006434,0,0,-0.2609679809570312,0,0,2.0671875
1.9271705230021325,0,0,-1.5203180541992187,0,0,0.0
1.9287922850016912,0,0,-0.0383072265625,0,0,-1.1484375
1.9304816580006445,0,0,2.5570073730468748,0,0,-0.30625
1.9320161420000659,0,0,2.6192566162109374,0,0,0.765625
1.9335267759997805,0,0,1.7573440185546874,0,0,1.53125
1.935183722001966,0,0,0.9959878906249999,0,0,0.5359375000000001
1.9366660410014447,0,0,-0.4285620971679687,0,0,0.0765625
1.9381533970008604,0,0,-0.3902548706054687,0,0,-0.5359375000000001
1.9397121410002,0,0,0.4860229370117187,0,0,0.22968750000000002
1.941770269000699,0,0,1.3910311645507811,0,0,0.9187500000000001
1.9433450310025364,0,0,1.0031704956054688,0,0,0.153125
1.944903757001157,0,0,0.9074024291992187,0,0,0.6125
1.9464230010016763,0,0,0.7661445312499999,0,0,0.0
1.9478826900012791,0,0,1.0031704956054688,0,0,1.378125
1.9493310460020439,0,0,1.5658078857421873,0,0,0.45937500000000003
1.9513406190017122,0,0,1.0845733520507812,0,0,0.6125
1.9529338070024096,0,0,0.584185205078125,0,0,-9.8
1.95442129300136,0,0,0.24660277099609373,0,0,8.3453125
1.9560706470001605,0,0,0.6392518432617187,0,0,0.45937500000000003
1.957600095000089,0,0,1.2593500732421874,0,0,832.69375
1.9590700059998198,0,0,1.197100830078125,0,0,0.45937500000000003
1.960613565002859,0,0,0.5889736083984375,0,0,-9.264062500000001
1.962533287001861,0,0,0.0143652099609375,0,0,0.5359375000000001
1.9641332339997462,0,0,-0.16759411621093748,0,0,0.45937500000000003
1.9656344050017651,0,0,0.814028564453125,0,0,832.8468750000001
1.9672175740015518,0,0,1.3192051147460937,0,0,0.8421875000000001
1.9687125039999955,0,0,1.946485949707031,0,0,0.6890625
1.9704176720006217,0,0,1.7166425903320313,0,0,0.5359375000000001
1.972004620001826,0,0,1.1324573852539062,0,0,1.3015625000000002
1.9735371970018605,0,0,-0.18914193115234373,0,0,832.0046875
1.9753771610012336,0,0,0.8978256225585937,0,0,832.0812500000001
1.9770077190005395,0,0,1.2808978881835937,0,0,0.45937500000000003
1.9784984450016054,0,0,0.8212111694335937,0,0,0.6125
1.9799660600001516,0,0,1.3814543579101561,0,0,0.5359375000000001
1.9816276180026762,0,0,0.9648632690429687,0,0,1.4546875000000001
1.9832498430005217,0,0,0.3447650390625,0,0,0.6890625
1.9847228470025584,0,0,1.1276689819335937,0,0,0.0
1.9863211830015643,0,0,1.2904746948242187,0,0,0.45937500000000003
1.9879684630031988,0,0,1.350329736328125,0,0,0.45937500000000003
1.9895145400005276,0,0,1.6017209106445311,0,0,0.0
1.9909741190022032,0,0,0.7158662963867187,0,0,832.69375
1.9928559330001008,0,0,-0.59376201171875,0,0,8.26875
1.9944135850018938,0,0,0.9145850341796874,0,0,832.2343750000001
1.9958938480012876,0,0,0.9409212524414062,0,0,0.0
1.9973465190014394,0,0,0.5602431884765625,0,0,1.1484375
1.9991767790015729,0,0,0.6967126831054687,0,0,0.153125
2.0007501340005547,0,0,1.43652099609375,0,0,0.9953125
2.002237471002445,0,0,1.5131354492187499,0,0,1.53125
2.003785937002249,0,0,1.0223241088867188,0,0,0.22968750000000002
2.005554346000281,0,0,0.7613561279296874,0,0,832.8468750000001
2.0070697379997,0,0,1.0869675537109373,0,0,0.6890625
2.0086748890025774,0,0,1.465251416015625,0,0,0.0765625
2.0102092440029082,0,0,0.8403647827148437,0,0,832.69375
2.011946375001571,0,0,0.36152445068359373,0,0,-0.6125
2.0138400980031292,0,0,0.47884033203125,0,0,0.0765625
2.015488933000597,0,0,1.455674609375,0,0,0.5359375000000001
2.017049436002708,0,0,1.2138602416992186,0,0,0.30625
2.0185626990023593,0,0,0.24181436767578124,0,0,0.3828125
2.0201253320010437,0,0,0.19871873779296872,0,0,-852.8296875000001
2.021815130003233,0,0,1.199495031738281,0,0,0.5359375000000001
2.0233983370017086,0,0,1.43652099609375,0,0,0.6125
2.0250574320016312,0,0,1.1348515869140625,0,0,0.5359375000000001
2.0266928970013396,0,0,0.584185205078125,0,0,0.0765625
2.0282520670007216,0,0,0.5961562133789062,0,0,0.0
2.0298212180023256,0,0,0.9097966308593749,0,0,0.45937500000000003
2.031384257999889,0,0,1.216254443359375,0,0,0.5359375000000001
2.032849207000254,0,0,0.9600748657226562,0,0,0.9187500000000001
2.03446287600309,0,0,0.6967126831054687,0,0,-9.8
2.036097175001487,0,0,0.35673604736328124,0,0,0.0
2.037579216001177,0,0,0.7350199096679687,0,0,0.0
2.03903596100281,0,0,0.9145850341796874,0,0,0.0
2.040497336001863,0,0,0.97683427734375,0,0,0.5359375000000001
2.0420070800028043,0,0,0.9504980590820312,0,0,0.153125
2.043593600999884,0,0,0.9792284790039062,0,0,0.6890625
2.0451130120018206,0,0,0.9121908325195311,0,0,0.9187500000000001
2.046663831002661,0,0,0.6871358764648438,0,0,0.3828125
2.0483533320002607,0,0,0.9983820922851562,0,0,0.22968750000000002
2.0498694660018373,0,0,1.0630255371093749,0,0,0.6125
2.0513399330011453,0,0,1.0079588989257813,0,0,0.0
2.0529910280019976,0,0,0.9361328491210937,0,0,832.5406250000001
2.0546394740013056,0,0,0.7230489013671875,0,0,0.22968750000000002
2.056169237002905,0,0,0.6272808349609375,0,0,0.0
2.057846220999636,0,0,0.6679822631835937,0,0,0.0
2.059420890000183,0,0,0.6153098266601562,0,0,0.22968750000000002
2.060901061002369,0,0,0.5722141967773438,0,0,0.22968750000000002
2.0624279900002875,0,0,1.3479355346679687,0,0,1.225
2.0641871580010047,0,0,1.446097802734375,0,0,0.30625
2.065744513001846,0,0,0.7876923461914062,0,0,0.3828125
2.067231721001008,0,0,0.718260498046875,0,0,0.153125
2.06877622400134,0,0,1.1707646118164061,0,0,0.765625
2.0704975219996413,0,0,1.5705962890624998,0,0,1.0718750000000001
2.0720773770008236,0,0,1.2689268798828124,0,0,0.9953125
2.073639695001475,0,0,0.9409212524414062,0,0,0.6125
2.0751935690022947,0,0,1.0223241088867188,0,0,0.5359375000000001
2.0766702760010958,0,0,1.4125789794921875,0,0,1.0718750000000001
2.078131836002285,0,0,1.8339584716796873,0,0,1.0718750000000001
2.079683339001349,0,0,1.68551796875,0,0,0.9953125
2.0813185639999574,0,0,1.3263877197265623,0,0,0.8421875000000001
2.082870363999973,0,0,1.3192051147460937,0,0,0.8421875000000001
2.08461101300054,0,0,1.2928688964843749,0,0,0.6125
2.086473328003194,0,0,1.5035586425781249,0,0,0.30625
2.0881117190001532,0,0,1.618480322265625,0,0,1.0718750000000001
2.0900077559999772,0,0,1.3814543579101561,0,0,0.9953125
2.0918608310021227,0,0,1.2617442749023438,0,0,0.765625
2.095523369000148,0,0,1.20667763671875,0,0,0.8421875000000001
2.0972384820015577,0,0,1.3431471313476562,0,0,0.30625
2.098949705999985,0,0,1.426944189453125,0,0,0.765625
2.1006280410001636,0,0,1.5251064575195312,0,0,0.9187500000000001
2.1022634510009084,0,0,1.2952630981445312,0,0,0.765625
2.1042608940006176,0,0,1.218648645019531,0,0,0.8421875000000001
2.105870600000344,0,0,1.3431471313476562,0,0,0.3828125
2.10748017700098,0,0,1.4700398193359374,0,0,0.8421875000000001
2.1090477170000668,0,0,1.5107412475585937,0,0,0.765625
2.110595480000484,0,0,1.4891934326171874,0,0,0.9953125
2.1121200760026113,0,0,1.37906015625,0,0,0.9187500000000001
2.1135778770003526,0,0,1.4317325927734375,0,0,0.9187500000000001
2.1150298989996372,0,0,1.3096283081054687,0,0,0.9187500000000001
2.1167239940004947,0,0,1.3311761230468748,0,0,0.6890625
2.118313349001255,0,0,1.4963760375976562,0,0,0.9187500000000001
2.1199064810025448,0,0,1.47482822265625,0,0,0.5359375000000001
2.1216814079998585,0,0,1.429338391113281,0,0,0.8421875000000001
2.1234839640019345,0,0,1.3192051147460937,0,0,0.6125
2.1251169110000774,0,0,1.3455413330078123,0,0,0.5359375000000001
2.126927097000589,0,0,1.1013327636718748,0,0,0.8421875000000001
2.128569526001229,0,0,1.3144167114257812,0,0,0.6125
2.1302115649996267,0,0,1.6065093139648436,0,0,0.45937500000000003
2.13173177200224,0,0,1.5466542724609373,0,0,0.8421875000000001
2.133686827000929,0,0,1.4006079711914061,0,0,1.0718750000000001
2.135347940002248,0,0,1.3407529296874998,0,0,0.6890625
2.1369275170000037,0,0,1.2282254516601563,0,0,0.9953125
2.1386167600030603,0,0,1.2928688964843749,0,0,0.6890625
2.140107634000742,0,0,1.3455413330078123,0,0,0.6125
2.141606323002634,0,0,1.4987702392578124,0,0,0.5359375000000001
2.1431637150017195,0,0,1.4604630126953124,0,0,1.1484375
2.1446467010027845,0,0,1.4772224243164063,0,0,0.5359375000000001
2.1462083340011304,0,0,1.2785036865234374,0,0,0.765625
2.147937132001971,0,0,1.2425906616210938,0,0,0.6890625
2.149606467002741,0,0,1.3311761230468748,0,0,0.5359375000000001
2.1510683230008,0,0,1.369483349609375,0,0,0.9187500000000001
2.152525494002475,0,0,1.465251416015625,0,0,0.45937500000000003
2.1540645340028277,0,0,1.4915876342773438,0,0,0.9187500000000001
2.155583445000957,0,0,1.4987702392578124,0,0,0.6890625
2.1574535190011375,0,0,1.22583125,0,0,1.225
2.1590242450001824,0,0,1.2904746948242187,0,0,0.9187500000000001
2.160554211000999,0,0,1.2378022583007813,0,0,0.30625
2.162433248002344,0,0,1.465251416015625,0,0,1.0718750000000001
2.1640866020024987,0,0,1.4628572143554686,0,0,0.6890625
2.1655588840003475,0,0,1.4341267944335936,0,0,0.9187500000000001
2.167013277001388,0,0,1.37906015625,0,0,0.765625
2.1685268740002357,0,0,1.2665326782226562,0,0,0.9953125
2.170208987001388,0,0,1.4915876342773438,0,0,0.8421875000000001
2.1717906379999476,0,0,1.3646949462890625,0,0,0.6125
2.1732633090032323,0,0,1.458068811035156,0,0,0.8421875000000001
2.1752160670002922,0,0,1.4317325927734375,0,0,0.9953125
2.1768144220004615,0,0,1.3766659545898436,0,0,1.3015625000000002
2.178397814001073,0,0,1.3718775512695311,0,0,0.9187500000000001
2.1800517230003607,0,0,1.2401964599609374,0,0,0.765625
2.1816315970027063,0,0,1.2737152832031249,0,0,0.6125
2.1831904700011364,0,0,1.3144167114257812,0,0,0.6890625
2.184860880002816,0,0,1.5227122558593749,0,0,0.765625
2.186976600001799,0,0,1.3910311645507811,0,0,0.6890625
2.1886622680030996,0,0,1.5251064575195312,0,0,0.6890625
2.1902967340029136,0,0,1.24498486328125,0,0,0.765625
2.192105715999787,0,0,1.3000515014648437,0,0,0.8421875000000001
2.193811810000625,0,0,1.35990654296875,0,0,0.5359375000000001
2.1954772940007388,0,0,1.4772224243164063,0,0,0.765625
2.1970182790028048,0,0,1.4604630126953124,0,0,0.9187500000000001
2.199027055001352,0,0,1.4700398193359374,0,0,0.9953125
2.2007055200010655,0,0,1.3479355346679687,0,0,0.9953125
2.202282838003157,0,0,1.3910311645507811,0,0,0.5359375000000001
2.20382480400076,0,0,1.2928688964843749,0,0,1.0718750000000001
2.2057120820027194,0,0,1.2952630981445312,0,0,0.6890625
2.2074424540005566,0,0,1.446097802734375,0,0,0.765625
2.2089925310028775,0,0,1.4915876342773438,0,0,0.8421875000000001
2.2105255349997606,0,0,1.4532804077148436,0,0,0.765625
2.212519330001669,0,0,1.180341418457031,0,0,0.765625
2.21428207200006,0,0,1.2689268798828124,0,0,0.6890625
2.215889834002155,0,0,1.3287819213867187,0,0,0.5359375000000001
2.217521596001461,0,0,1.4867992309570313,0,0,0.9187500000000001
2.2190599140012637,0,0,1.4796166259765624,0,0,0.5359375000000001
2.2206084540011943,0,0,1.3742717529296875,0,0,0.9187500000000001
2.222556306001934,0,0,1.2832920898437499,0,0,0.8421875000000001
2.2241708820001804,0,0,1.3072341064453123,0,0,0.5359375000000001
2.2257702000024437,0,0,1.2473790649414063,0,0,0.765625
2.2274073130029137,0,0,1.350329736328125,0,0,0.5359375000000001
2.228950150001765,0,0,1.5011644409179687,0,0,0.765625
2.2304819130004034,0,0,1.4987702392578124,0,0,0.6890625
2.2322841360000893,0,0,1.4724340209960938,0,0,0.8421875000000001
2.234314246001304,0,0,1.2665326782226562,0,0,0.6125
2.236243449002359,0,0,1.3431471313476562,0,0,0.6890625
2.237914784000168,0,0,1.2593500732421874,0,0,0.6890625
2.2406070540018845,0,0,1.438915197753906,0,0,0.5359375000000001
2.2429629010002827,0,0,1.4125789794921875,0,0,0.6125
2.2448023830002057,0,0,1.2569558715820313,0,0,0.5359375000000001
2.2463116649996664,0,0,1.254561669921875,0,0,0.765625
2.248353107999719,0,0,1.3431471313476562,0,0,0.9953125
2.2500274990015896,0,0,1.3096283081054687,0,0,0.9953125
2.2526452689999132,0,0,1.4053963745117186,0,0,0.765625
2.254638361002435,0,0,1.4820108276367188,0,0,0.8421875000000001
2.2565170460002264,0,0,1.2832920898437499,0,0,0.9187500000000001
2.258063364002737,0,0,1.3096283081054687,0,0,0.8421875000000001
2.259599053002603,0,0,1.3575123413085937,0,0,0.5359375000000001
2.2614053870020143,0,0,1.4724340209960938,0,0,0.8421875000000001
2.2632861460006097,0,0,1.467645617675781,0,0,0.8421875000000001
2.264881649000017,0,0,1.3000515014648437,0,0,0.8421875000000001
2.2665097810022417,0,0,1.3551181396484375,0,0,0.765625
2.267995266000071,0,0,1.2473790649414063,0,0,1.0718750000000001
2.269470844999887,0,0,1.2641384765625,0,0,0.6125
2.271014533002017,0,0,1.3263877197265623,0,0,0.9187500000000001
2.272553222002898,0,0,1.4508862060546874,0,0,0.9953125
2.274207872000261,0,0,1.4867992309570313,0,0,0.6125
2.2758869110002706,0,0,1.4700398193359374,0,0,0.8421875000000001
2.277782263001427,0,0,1.3838485595703125,0,0,0.9187500000000001
2.279726243999903,0,0,1.3479355346679687,0,0,0.8421875000000001
2.2817753350027488,0,0,1.3024457031249999,0,0,0.8421875000000001
2.283423485001549,0,0,1.3766659545898436,0,0,0.6125
2.2849589329998707,0,0,1.5179238525390624,0,0,0.45937500000000003
2.2864634370016574,0,0,1.3551181396484375,0,0,1.225
2.2881280870024057,0,0,1.4700398193359374,0,0,0.6890625
2.2898228300000483,0,0,1.218648645019531,0,0,1.1484375
2.2913333700016665,0,0,1.199495031738281,0,0,0.6125
2.2927949120021367,0,0,1.2378022583007813,0,0,0.5359375000000001
2.2943740810005693,0,0,1.3431471313476562,0,0,0.9187500000000001
2.296420042999671,0,0,1.3431471313476562,0,0,0.6125
2.297951861000911,0,0,1.2785036865234374,0,0,0.8421875000000001
2.2994443280003907,0,0,1.3335703247070312,0,0,1.0718750000000001
2.301455975000863,0,0,1.3000515014648437,0,0,0.6890625
2.303156828002102,0,0,1.3215993164062498,0,0,0.9187500000000001
2.3047065720020328,0,0,1.2880804931640624,0,0,0.6890625
2.3062462790003337,0,0,1.2473790649414063,0,0,0.9187500000000001
2.308076428002096,0,0,1.3623007446289062,0,0,0.9187500000000001
2.3096763200010173,0,0,1.4532804077148436,0,0,0.6890625
2.3111741009997786,0,0,1.2306196533203124,0,0,0.8421875000000001
2.312884233000659,0,0,1.24498486328125,0,0,0.765625
2.3144234950013924,0,0,1.2880804931640624,0,0,0.8421875000000001
2.315913296002691,0,0,1.3359645263671873,0,0,0.6125
2.3174263180007983,0,0,1.3910311645507811,0,0,0.9187500000000001
2.3189932650020637,0,0,1.5298948608398437,0,0,0.8421875000000001
2.3205148610031756,0,0,1.446097802734375,0,0,0.9187500000000001
2.3219801990017004,0,0,1.2808978881835937,0,0,0.8421875000000001
2.323488628000632,0,0,1.369483349609375,0,0,0.6125
2.3250651500020467,0,0,1.2761094848632812,0,0,0.8421875000000001
2.3265858570011915,0,0,1.2928688964843749,0,0,0.6890625
2.3280671760003315,0,0,1.3527239379882812,0,0,0.765625
2.3296465310013446,0,0,1.5370774658203123,0,0,0.9953125
2.3312077190021228,0,0,1.4125789794921875,0,0,0.9187500000000001
2.3326803900017694,0,0,1.2952630981445312,0,0,0.765625
2.334139579001203,0,0,1.3024457031249999,0,0,0.9187500000000001
2.3357306010002503,0,0,1.2904746948242187,0,0,0.8421875000000001
2.337277400001767,0,0,1.4030021728515625,0,0,0.765625
2.338745793000271,0,0,1.4245499877929686,0,0,0.8421875000000001
2.340291389002232,0,0,1.5035586425781249,0,0,0.5359375000000001
2.3418732440004533,0,0,1.455674609375,0,0,0.765625
2.3433956549997674,0,0,1.3862427612304686,0,0,0.45937500000000003
2.3448602330026915,0,0,1.2808978881835937,0,0,0.6890625
2.346372515003168,0,0,1.2713210815429687,0,0,0.765625
2.347958832000586,0,0,1.3718775512695311,0,0,0.6890625
2.3494743180017394,0,0,1.4508862060546874,0,0,0.765625
2.3510778570016555,0,0,1.4101847778320311,0,0,0.45937500000000003
2.3527026560004742,0,0,1.3096283081054687,0,0,0.6125
2.3542454369999177,0,0,1.4532804077148436,0,0,0.5359375000000001
2.355850088002626,0,0,1.3000515014648437,0,0,0.9187500000000001
2.357336037002824,0,0,1.2737152832031249,0,0,0.6890625
2.3589243730020826,0,0,1.3287819213867187,0,0,0.9187500000000001
2.3604871910029033,0,0,1.3144167114257812,0,0,0.6125
2.3619540840008995,0,0,1.455674609375,0,0,0.6125
2.3634716430024127,0,0,1.3958195678710936,0,0,0.6890625
2.3650527390018397,0,0,1.4341267944335936,0,0,0.6890625
2.3665690570014704,0,0,1.2641384765625,0,0,0.9953125
2.3680384310027875,0,0,1.2401964599609374,0,0,0.6125
2.3696330270031467,0,0,1.2713210815429687,0,0,0.6890625
2.3720248919998994,0,0,1.4700398193359374,0,0,1.1484375
2.3735417850002705,0,0,1.419761584472656,0,0,0.45937500000000003
2.375014381002984,0,0,1.5011644409179687,0,0,0.9187500000000001
2.376542848000099,0,0,1.3623007446289062,0,0,0.765625
2.3781500540026173,0,0,1.3239935180664062,0,0,0.765625
2.3796525210018444,0,0,1.3239935180664062,0,0,0.6890625
2.381545576001372,0,0,1.3407529296874998,0,0,0.6125
2.383319096003106,0,0,1.446097802734375,0,0,0.9187500000000001
2.385093153003254,0,0,1.4030021728515625,0,0,0.765625
2.386808840001322,0,0,1.5298948608398437,0,0,0.765625
2.38843100899976,0,0,1.2665326782226562,0,0,0.9953125
2.3903567119996296,0,0,1.2976572998046874,0,0,0.8421875000000001
2.392108010000811,0,0,1.3742717529296875,0,0,0.5359375000000001
2.3937610120010504,0,0,1.4221557861328125,0,0,0.9187500000000001
2.395419625001523,0,0,1.3670891479492187,0,0,0.6890625
2.39700896100112,0,0,1.2641384765625,0,0,0.765625
2.398708426000667,0,0,1.43652099609375,0,0,0.45937500000000003
2.4002949109999463,0,0,1.3000515014648437,0,0,0.765625
2.4017655630013905,0,0,1.3239935180664062,0,0,0.5359375000000001
2.40322712300258,0,0,1.2737152832031249,0,0,0.6890625
2.404785329999868,0,0,1.3431471313476562,0,0,0.6890625
2.4062993330007885,0,0,1.4317325927734375,0,0,-852.8296875000001
2.4077884850012197,0,0,1.4604630126953124,0,0,1.0718750000000001
2.4097330770018743,0,0,1.3766659545898436,0,0,0.6890625
2.411403561000043,0,0,1.3527239379882812,0,0,1.0718750000000001
2.412877546001255,0,0,1.2521674682617188,0,0,0.6125
2.414332699001534,0,0,1.2617442749023438,0,0,0.6125
2.4159235160004755,0,0,1.3527239379882812,0,0,0.9187500000000001
2.417572611000651,0,0,1.4939818359375,0,0,0.5359375000000001
2.4194694260004326,0,0,1.455674609375,0,0,0.765625
2.421079373001703,0,0,1.5275006591796874,0,0,0.6890625
2.4226307650023955,0,0,1.20667763671875,0,0,0.9187500000000001
2.424106214002677,0,0,1.2665326782226562,0,0,0.6890625
2.4255674030027876,0,0,1.350329736328125,0,0,0.6125
2.4270712030011055,0,0,1.3718775512695311,0,0,0.765625
2.4287994820006134,0,0,1.4245499877929686,0,0,0.6125
2.430482188003225,0,0,1.43652099609375,0,0,0.765625
2.4322661149999476,0,0,1.3910311645507811,0,0,0.9187500000000001
2.434440742003062,0,0,1.2497732666015624,0,0,0.6890625
2.436084540000593,0,0,1.1851298217773436,0,0,0.6890625
2.4378092270017078,0,0,1.3958195678710936,0,0,0.765625
2.439466933003132,0,0,1.4867992309570313,0,0,0.30625
2.4410862130025635,0,0,1.5203180541992187,0,0,1.1484375
2.4427136049998808,0,0,1.4317325927734375,0,0,0.6890625
2.444472606002819,0,0,1.22583125,0,0,0.8421875000000001
2.445957592000923,0,0,1.3000515014648437,0,0,0.6125
2.447419929001626,0,0,1.3168109130859373,0,0,0.765625
2.4493953730016074,0,0,1.4245499877929686,0,0,0.8421875000000001
2.451009801003238,0,0,1.4413093994140624,0,0,0.9187500000000001
2.4525415820025955,0,0,1.4532804077148436,0,0,0.9187500000000001
2.454101586001343,0,0,1.3072341064453123,0,0,0.45937500000000003
2.455584664003254,0,0,1.3383587280273437,0,0,0.6125
2.457035501000064,0,0,1.2521674682617188,0,0,0.765625
2.458952908000356,0,0,1.3431471313476562,0,0,0.3828125
2.4605497630000173,0,0,1.5035586425781249,0,0,1.1484375
2.462021952000214,0,0,1.5227122558593749,0,0,0.9187500000000001
2.4634847340021224,0,0,1.4437036010742186,0,0,1.0718750000000001
2.465020108000317,0,0,1.467645617675781,0,0,0.6890625
2.4665331120013434,0,0,1.3168109130859373,0,0,0.9187500000000001
2.4680011160016875,0,0,1.2401964599609374,0,0,0.765625
2.4694958420004696,0,0,1.3024457031249999,0,0,0.5359375000000001
2.4713565460006066,0,0,1.4006079711914061,0,0,0.9187500000000001
2.472958919002849,0,0,1.465251416015625,0,0,0.5359375000000001
2.4744645150021825,0,0,1.4508862060546874,0,0,0.9187500000000001
2.476405755001906,0,0,1.2785036865234374,0,0,0.6125
2.4781019420006487,0,0,1.3335703247070312,0,0,0.6125
2.4796764270031417,0,0,1.2808978881835937,0,0,0.8421875000000001
2.4818789980017755,0,0,1.2928688964843749,0,0,0.765625
2.4834061120018305,0,0,1.4820108276367188,0,0,0.3828125
2.484865839000122,0,0,1.448492004394531,0,0,0.6890625
2.4863721760011686,0,0,1.3623007446289062,0,0,0.9953125
2.487956179000321,0,0,1.4987702392578124,0,0,0.8421875000000001
2.489484571000503,0,0,1.3383587280273437,0,0,0.5359375000000001
2.491459922002832,0,0,1.3359645263671873,0,0,0.765625
2.493119812999794,0,0,1.3623007446289062,0,0,0.9187500000000001
2.4946535020026204,0,0,1.446097802734375,0,0,0.5359375000000001
2.4961228760002996,0,0,1.3934253662109375,0,0,0.9187500000000001
2.498223615002644,0,0,1.3479355346679687,0,0,0.9187500000000001
2.4998121919998084,0,0,1.254561669921875,0,0,0.6125
2.5013345290026336,0,0,1.2425906616210938,0,0,0.5359375000000001
2.502876403003029,0,0,1.2785036865234374,0,0,0.3828125
2.504437350002263,0,0,1.4245499877929686,0,0,0.6125
2.5058989099998144,0,0,1.5610194824218748,0,0,0.5359375000000001
2.5074068770009035,0,0,1.3934253662109375,0,0,1.1484375
2.5090437310027482,0,0,1.429338391113281,0,0,0.6125
2.510614789000101,0,0,1.3096283081054687,0,0,0.9187500000000001
2.5121799040025508,0,0,1.2665326782226562,0,0,0.8421875000000001
2.514157736000925,0,0,1.3407529296874998,0,0,0.30625
2.5162629750011547,0,0,1.5107412475585937,0,0,0.765625
2.517893477001053,0,0,1.4173673828125,0,0,1.0718750000000001
2.5195982750010444,0,0,1.4604630126953124,0,0,0.765625
2.5210772050013475,0,0,1.3479355346679687,0,0,0.765625
2.522532080001838,0,0,1.3024457031249999,0,0,0.5359375000000001
2.524027121002291,0,0,1.3072341064453123,0,0,0.8421875000000001
2.5256819750029535,0,0,1.2641384765625,0,0,0.6890625
2.5272572740032047,0,0,1.4006079711914061,0,0,0.5359375000000001
2.528721778002364,0,0,1.458068811035156,0,0,0.765625
2.5302193560019077,0,0,1.407790576171875,0,0,0.6890625
2.531814840000152,0,0,1.2521674682617188,0,0,0.765625
2.5338743570027873,0,0,1.2976572998046874,0,0,0.6890625
2.535534489001293,0,0,1.3287819213867187,0,0,0.5359375000000001
2.5371147700025176,0,0,1.3287819213867187,0,0,0.8421875000000001
2.538749123999878,0,0,1.4891934326171874,0,0,0.5359375000000001
2.5402164610022737,0,0,1.3215993164062498,0,0,1.0718750000000001
2.5417701309997938,0,0,1.4341267944335936,0,0,0.5359375000000001
2.5438307220028946,0,0,1.3431471313476562,0,0,0.8421875000000001
2.545396077002806,0,0,1.2569558715820313,0,0,0.6890625
2.546934821002651,0,0,1.2378022583007813,0,0,0.9187500000000001
2.548452843002451,0,0,1.4628572143554686,0,0,0.8421875000000001
2.5506661550025456,0,0,1.4006079711914061,0,0,0.6125
2.5522462320004706,0,0,1.467645617675781,0,0,0.9187500000000001
2.554264268001134,0,0,1.2785036865234374,0,0,0.6125
2.5558509370021056,0,0,1.3575123413085937,0,0,0.8421875000000001
2.557427607000136,0,0,1.2665326782226562,0,0,0.6125
2.5589470740014804,0,0,1.3311761230468748,0,0,0.6125
2.560429467001086,0,0,1.4772224243164063,0,0,0.5359375000000001
2.5624986500006344,0,0,1.2856862915039062,0,0,0.9953125
2.564064023001265,0,0,1.5035586425781249,0,0,0.3828125
2.5655246570022427,0,0,1.3383587280273437,0,0,0.9953125
2.567445379001583,0,0,1.2785036865234374,0,0,0.9187500000000001
2.569471118000365,0,0,1.2952630981445312,0,0,0.22968750000000002
2.571052770003007,0,0,1.5155296508789062,0,0,1.0718750000000001
2.572559866002848,0,0,1.4820108276367188,0,0,0.6890625
2.5740114440013713,0,0,1.47482822265625,0,0,0.9187500000000001
2.576038054001401,0,0,1.3168109130859373,0,0,0.9953125
2.5775867980009934,0,0,1.2856862915039062,0,0,0.8421875000000001
2.5790485800025635,0,0,1.3359645263671873,0,0,0.6125
2.5805042880019755,0,0,1.3934253662109375,0,0,0.5359375000000001
2.5820558840023295,0,0,1.419761584472656,0,0,0.6890625
2.583995031000086,0,0,1.465251416015625,0,0,1.0718750000000001
2.5855861820018617,0,0,1.4915876342773438,0,0,0.30625
2.587276035999821,0,0,1.4796166259765624,0,0,0.8421875000000001
2.589176869001676,0,0,1.3144167114257812,0,0,0.6890625
2.5907609830028377,0,0,1.3646949462890625,0,0,1.0718750000000001
2.5923333749997255,0,0,1.43652099609375,0,0,0.9187500000000001
2.5939306560030673,0,0,1.426944189453125,0,0,0.765625
2.596106097000302,0,0,1.4245499877929686,0,0,0.8421875000000001
2.5978818950025016,0,0,1.2952630981445312,0,0,0.9953125
2.599408639001922,0,0,1.2713210815429687,0,0,0.6890625
2.6008694770025613,0,0,1.3000515014648437,0,0,0.5359375000000001
2.602378851002868,0,0,1.3670891479492187,0,0,0.45937500000000003
2.6039086320015485,0,0,1.4101847778320311,0,0,1.0718750000000001
2.605377210002189,0,0,1.4006079711914061,0,0,0.6890625
2.607395635001012,0,0,1.5203180541992187,0,0,0.45937500000000003
2.6090047670004424,0,0,1.2952630981445312,0,0,0.9953125
2.610547807002149,0,0,1.254561669921875,0,0,0.8421875000000001
2.612028645002283,0,0,1.2330138549804688,0,0,0.9187500000000001
2.6144117880030535,0,0,1.4915876342773438,0,0,0.8421875000000001
2.61597355000049,0,0,1.4101847778320311,0,0,0.8421875000000001
2.6176384040008998,0,0,1.5251064575195312,0,0,1.0718750000000001
2.619240981002804,0,0,1.675941162109375,0,0,0.9187500000000001
2.6213840900018113,0,0,1.3623007446289062,0,0,0.6890625
2.6229856300014944,0,0,1.3048399047851562,0,0,0.765625
2.624594540000544,0,0,1.3144167114257812,0,0,0.5359375000000001
2.6261707650010067,0,0,1.4987702392578124,0,0,0.5359375000000001
2.6276969170030497,0,0,1.4030021728515625,0,0,0.9953125
2.629164068999671,0,0,1.4891934326171874,0,0,0.6890625
2.6307070170005318,0,0,1.3527239379882812,0,0,0.9187500000000001
2.6324372590024723,0,0,1.3168109130859373,0,0,0.5359375000000001
2.634037002000696,0,0,1.2880804931640624,0,0,0.5359375000000001
2.635647487000824,0,0,1.3000515014648437,0,0,0.5359375000000001
2.6372023229996557,0,0,1.5179238525390624,0,0,0.6890625
2.6386696610024956,0,0,1.4221557861328125,0,0,1.0718750000000001
2.6401341279997723,0,0,1.465251416015625,0,0,0.6125
2.641808796000987,0,0,1.3096283081054687,0,0,0.9187500000000001
2.6434129660010512,0,0,1.3455413330078123,0,0,0.5359375000000001
2.6448833590002323,0,0,1.3455413330078123,0,0,0.6125
2.646542231002968,0,0,1.2856862915039062,0,0,0.765625
2.648244437001267,0,0,1.4149731811523436,0,0,0.9187500000000001
2.6497953290017904,0,0,1.4772224243164063,0,0,0.765625
2.6512661850028962,0,0,1.5203180541992187,0,0,0.765625
2.6528487620016676,0,0,1.4149731811523436,0,0,0.8421875000000001
2.6547325030005595,0,0,1.2378022583007813,0,0,0.8421875000000001
2.656335117000708,0,0,1.3287819213867187,0,0,0.9953125
2.657913527000346,0,0,1.3287819213867187,0,0,0.5359375000000001
2.6594551790003607,0,0,1.455674609375,0,0,0.3828125
2.6610819960005756,0,0,1.3814543579101561,0,0,0.765625
2.6627301650005393,0,0,1.465251416015625,0,0,0.8421875000000001
2.664351612002065,0,0,1.2808978881835937,0,0,0.6890625
2.6658312830004434,0,0,1.2928688964843749,0,0,0.765625
2.6673962300010317,0,0,1.2785036865234374,0,0,1.0718750000000001
2.6689625480030372,0,0,1.2689268798828124,0,0,0.6125
2.6706585310021183,0,0,1.484405029296875,0,0,0.5359375000000001
2.6722434050025186,0,0,1.5131354492187499,0,0,1.0718750000000001
2.674030443002266,0,0,1.5179238525390624,0,0,0.765625
2.675789740002074,0,0,1.1875240234375,0,0,0.6890625
2.6774214650031354,0,0,1.35990654296875,0,0,0.6125
2.678981098000804,0,0,1.3096283081054687,0,0,0.5359375000000001
2.680478194000898,0,0,1.4532804077148436,0,0,0.9187500000000001
2.682214770000428,0,0,1.458068811035156,0,0,0.5359375000000001
2.6838886240002466,0,0,1.3383587280273437,0,0,0.9187500000000001
2.685462738001661,0,0,1.2832920898437499,0,0,0.8421875000000001
2.6869507970004634,0,0,1.3096283081054687,0,0,1.0718750000000001
2.6887604650000867,0,0,1.3359645263671873,0,0,0.6890625
2.6904028370008746,0,0,1.216254443359375,0,0,0.6125
2.6918847120032297,0,0,1.3383587280273437,0,0,1.6078125
2.693345327003044,0,0,1.4245499877929686,0,0,0.8421875000000001
2.6948921820003306,0,0,1.2761094848632812,0,0,1.1484375
2.696664942002826,0,0,1.3000515014648437,0,0,0.765625
2.6983216300031927,0,0,1.2952630981445312,0,0,0.8421875000000001
2.699882355002046,0,0,1.2832920898437499,0,0,0.9953125
2.7018162990025303,0,0,1.3335703247070312,0,0,0.5359375000000001
2.703600708002341,0,0,1.484405029296875,0,0,0.765625
2.7051671920016815,0,0,1.2521674682617188,0,0,0.765625
2.706701585000701,0,0,1.5753846923828123,0,0,1.1484375
2.708310550002352,0,0,1.5179238525390624,0,0,0.9187500000000001
2.709911904999899,0,0,1.2976572998046874,0,0,0.6125
2.7114518160014995,0,0,1.3144167114257812,0,0,0.9953125
2.7129180600022664,0,0,1.2569558715820313,0,0,0.6890625
2.7146160250013054,0,0,1.5322890624999999,0,0,0.3828125
2.7161722510027175,0,0,1.3958195678710936,0,0,0.9187500000000001
2.7177592540028854,0,0,1.4915876342773438,0,0,0.9953125
2.7192423500018776,0,0,1.3120225097656248,0,0,0.8421875000000001
2.7207901870024216,0,0,1.2713210815429687,0,0,0.6890625
2.7223227270005737,0,0,1.0989385620117187,0,0,0.8421875000000001
2.7237899909996486,0,0,1.2808978881835937,0,0,0.6125
2.7257581379999465,0,0,1.5346832641601562,0,0,0.5359375000000001
2.727666990002035,0,0,1.429338391113281,0,0,1.1484375
2.7293428810007754,0,0,1.3623007446289062,0,0,0.5359375000000001
2.730898347002949,0,0,1.0773907470703123,0,0,0.765625
2.7325927000019874,0,0,1.3287819213867187,0,0,0.6125
2.7340610930004914,0,0,1.216254443359375,0,0,0.6890625
2.735690503002843,0,0,1.3910311645507811,0,0,0.9187500000000001
2.7373286170004576,0,0,1.5969325073242187,0,0,0.9187500000000001
2.7388053620015853,0,0,1.5083470458984374,0,0,0.9187500000000001
2.7402605140014202,0,0,1.5107412475585937,0,0,0.8421875000000001
2.741875517000153,0,0,1.2641384765625,0,0,0.765625
2.7434327240007406,0,0,1.3096283081054687,0,0,0.6890625
2.7448916350003856,0,0,1.3096283081054687,0,0,0.765625
2.7464278420011397,0,0,1.4413093994140624,0,0,0.9187500000000001
2.748282102002122,0,0,1.4317325927734375,0,0,0.45937500000000003
2.7497949940006947,0,0,1.350329736328125,0,0,0.765625
2.7513057390024187,0,0,1.5179238525390624,0,0,0.9187500000000001
2.7533039410009224,0,0,1.3383587280273437,0,0,0.9187500000000001
2.7548665370013623,0,0,1.3335703247070312,0,0,0.6125
2.7563615040016884,0,0,1.3000515014648437,0,0,0.9187500000000001
2.757907489001809,0,0,1.5011644409179687,0,0,0.8421875000000001
2.7594339180031966,0,0,1.3766659545898436,0,0,0.30625
2.7608950330031803,0,0,1.3838485595703125,0,0,0.9953125
2.7624078520020703,0,0,1.3623007446289062,0,0,-9.1875
2.7643204260020866,0,0,1.3144167114257812,0,0,0.8421875000000001
2.7658808730011515,0,0,1.3527239379882812,0,0,0.8421875000000001
2.767357044001983,0,0,1.2976572998046874,0,0,0.6125
2.7689643619996787,0,0,1.4245499877929686,0,0,1.0718750000000001
2.7705501790005655,0,0,1.4317325927734375,0,0,0.765625
2.772215941000468,0,0,1.3814543579101561,0,0,0.8421875000000001
2.7738271660018654,0,0,1.4173673828125,0,0,0.765625
2.7754244650022883,0,0,1.2521674682617188,0,0,0.9187500000000001
2.776962727002683,0,0,1.3335703247070312,0,0,0.9187500000000001
2.7784617870020156,0,0,1.3431471313476562,0,0,0.5359375000000001
2.7800420120001945,0,0,1.3431471313476562,0,0,1.0718750000000001
2.781566200999805,0,0,1.3623007446289062,0,0,0.8421875000000001
2.783062760001485,0,0,1.3551181396484375,0,0,1.8375000000000001
2.784723799002677,0,0,1.3359645263671873,0,0,0.6890625
2.7863055240013637,0,0,1.3359645263671873,0,0,0.765625
2.787774268999783,0,0,1.3168109130859373,0,0,0.6890625
2.7896471950007253,0,0,1.149216796875,0,0,0.45937500000000003
2.7913972890019068,0,0,1.4772224243164063,0,0,0.9187500000000001
2.7930360320024192,0,0,1.4437036010742186,0,0,0.6890625
2.794699923000735,0,0,1.438915197753906,0,0,0.9187500000000001
2.796483795002132,0,0,1.3335703247070312,0,0,0.9187500000000001
2.7981030010014365,0,0,1.3575123413085937,0,0,0.6890625
2.7996673750021728,0,0,1.3120225097656248,0,0,0.765625
2.8013017660014157,0,0,1.3646949462890625,0,0,0.6125
2.802816603001702,0,0,1.5322890624999999,0,0,0.6890625
2.8043332180022844,0,0,1.3623007446289062,0,0,0.8421875000000001
2.8060546270025952,0,0,1.484405029296875,0,0,0.9187500000000001
2.8076338520004356,0,0,1.2521674682617188,0,0,1.0718750000000001
2.8091137450028327,0,0,1.158793603515625,0,0,0.6125
2.810713470000337,0,0,1.3311761230468748,0,0,0.8421875000000001
2.8123584170025424,0,0,1.3239935180664062,0,0,0.765625
2.813899790002324,0,0,1.3910311645507811,0,0,0.6125
2.8154037200001767,0,0,1.3335703247070312,0,0,1.1484375
2.8169701490005536,0,0,1.467645617675781,0,0,0.9953125
2.8185246710017964,0,0,1.235408056640625,0,0,0.9187500000000001
2.820001564003178,0,0,1.3407529296874998,0,0,0.765625
2.821490715999971,0,0,1.3144167114257812,0,0,0.765625
2.8231534770020517,0,0,1.3910311645507811,0,0,-9.264062500000001
2.824882201002765,0,0,1.5634136840820312,0,0,0.8421875000000001
2.826384649000829,0,0,1.37906015625,0,0,0.6890625
2.8278519490013423,0,0,1.4030021728515625,0,0,0.765625
2.829369620001671,0,0,1.3239935180664062,0,0,0.9187500000000001
2.8309343450018787,0,0,1.3096283081054687,0,0,0.6890625
2.8324490150007477,0,0,1.2928688964843749,0,0,0.6890625
2.833918149000965,0,0,1.2689268798828124,0,0,0.22968750000000002
2.8355190960028267,0,0,1.5059528442382812,0,0,0.765625
2.837104710000858,0,0,1.4628572143554686,0,0,0.6125
2.8385912510020717,0,0,1.5322890624999999,0,0,0.8421875000000001
2.8400565150004695,0,0,1.2521674682617188,0,0,0.765625
2.8416204070017557,0,0,1.2952630981445312,0,0,0.765625
2.843300001000898,0,0,1.3742717529296875,0,0,0.765625
2.8448388570031966,0,0,1.4101847778320311,0,0,0.45937500000000003
2.846402063001733,0,0,1.47482822265625,0,0,0.9187500000000001
2.8480184550026024,0,0,1.4532804077148436,0,0,0.6125
2.849555570002849,0,0,1.5083470458984374,0,0,0.765625
2.8510228140003164,0,0,1.4891934326171874,0,0,0.8421875000000001
2.852549781000562,0,0,1.37906015625,0,0,0.6890625
2.854220820001501,0,0,1.3000515014648437,0,0,1.0718750000000001
2.855737138001132,0,0,1.2952630981445312,0,0,0.30625
2.857205624000926,0,0,1.3192051147460937,0,0,0.765625
2.858879496001464,0,0,1.5011644409179687,0,0,0.8421875000000001
2.8604802030022256,0,0,1.4891934326171874,0,0,0.9953125
2.861950059002993,0,0,1.3551181396484375,0,0,0.6890625
2.8634586920015863,0,0,1.3335703247070312,0,0,0.765625
2.864999899000395,0,0,1.3000515014648437,0,0,0.8421875000000001
2.866479922002327,0,0,1.3287819213867187,0,0,0.3828125
2.8679442780012323,0,0,1.3958195678710936,0,0,1.225
2.86945396700321,0,0,1.3910311645507811,0,0,0.5359375000000001
2.871062599002471,0,0,1.5059528442382812,0,0,0.765625
2.872643954000523,0,0,1.4173673828125,0,0,0.9187500000000001
2.874220290002995,0,0,1.2785036865234374,0,0,0.9187500000000001
2.8757959230024426,0,0,1.3383587280273437,0,0,0.6890625
2.8774224070002674,0,0,1.2497732666015624,0,0,0.6890625
2.8789316330003203,0,0,1.3742717529296875,0,0,0.8421875000000001
2.880422840000392,0,0,1.426944189453125,0,0,0.6125
2.882095657001628,0,0,1.4341267944335936,0,0,1.0718750000000001
2.883726141000807,0,0,1.4125789794921875,0,0,0.6125
2.8852490520002902,0,0,1.2952630981445312,0,0,0.6125
2.8867280560007202,0,0,1.3383587280273437,0,0,0.9187500000000001
2.888374225000007,0,0,1.3407529296874998,0,0,0.6125
2.889987339000072,0,0,1.43652099609375,0,0,0.9953125
2.891520119999768,0,0,1.429338391113281,0,0,0.45937500000000003
2.8929860690004716,0,0,1.4149731811523436,0,0,0.6890625
2.8945654790004482,0,0,1.4437036010742186,0,0,1.1484375
2.8961558520022663,0,0,1.3431471313476562,0,0,0.9187500000000001
2.897764040000766,0,0,1.2952630981445312,0,0,0.45937500000000003
2.8993683210028394,0,0,1.3479355346679687,0,0,0.6890625
2.9010030640019977,0,0,1.3096283081054687,0,0,1.1484375
2.902591289002885,0,0,1.4724340209960938,0,0,0.3828125
2.904068608000671,0,0,1.4628572143554686,0,0,0.9187500000000001
2.9055352970026433,0,0,1.3024457031249999,0,0,0.8421875000000001
2.9072973910006112,0,0,1.1252747802734375,0,0,0.6125
2.9089443190023303,0,0,1.2617442749023438,0,0,0.8421875000000001
2.9104616380027437,0,0,1.2808978881835937,0,0,0.9187500000000001
2.9119312340008037,0,0,1.3742717529296875,0,0,0.8421875000000001
2.913436738002929,0,0,1.3742717529296875,0,0,0.5359375000000001
2.9150053520024812,0,0,1.3551181396484375,0,0,1.0718750000000001
2.9165397260003374,0,0,1.465251416015625,0,0,-9.034375
2.9180108230029873,0,0,1.3120225097656248,0,0,0.9187500000000001
2.919520845000079,0,0,1.3239935180664062,0,0,0.6890625
2.9211769579997053,0,0,1.4101847778320311,0,0,0.6125
2.9228002760028176,0,0,1.3742717529296875,0,0,0.765625
2.924291613002424,0,0,1.465251416015625,0,0,0.6890625
2.9258778380026342,0,0,1.2928688964843749,0,0,0.9953125
2.927475526001217,0,0,1.465251416015625,0,0,0.8421875000000001
2.9290464730001986,0,0,1.2904746948242187,0,0,1.0718750000000001
2.9306267909996677,0,0,1.24498486328125,0,0,0.765625
2.9322062020000885,0,0,1.2521674682617188,0,0,0.6125
2.933682075999968,0,0,1.2665326782226562,0,0,1.1484375
2.9351596910018998,0,0,1.426944189453125,0,0,0.6890625
2.9368270640006813,0,0,1.369483349609375,0,0,0.8421875000000001
2.9384121220027737,0,0,1.465251416015625,0,0,0.765625
2.939888441000221,0,0,1.3024457031249999,0,0,0.9953125
2.941404148001311,0,0,1.2785036865234374,0,0,0.6125
2.9430430210013583,0,0,1.2521674682617188,0,0,0.8421875000000001
2.9446504870029457,0,0,1.3670891479492187,0,0,0.9187500000000001
2.946139786999993,0,0,1.465251416015625,0,0,0.6125
2.9477394560017274,0,0,1.3407529296874998,0,0,0.45937500000000003
2.949403181002708,0,0,1.407790576171875,0,0,0.9187500000000001
2.9509867760025372,0,0,1.2785036865234374,0,0,1.1484375
2.9526716120017227,0,0,1.3120225097656248,0,0,0.8421875000000001
2.954298225002276,0,0,1.2713210815429687,0,0,0.765625
2.9558378210022056,0,0,1.2785036865234374,0,0,0.8421875000000001
2.957406195000658,0,0,1.4173673828125,0,0,0.45937500000000003
2.959049364002567,0,0,1.3072341064453123,0,0,0.9953125
2.960651291999966,0,0,1.2521674682617188,0,0,0.6125
2.9621321110025747,0,0,1.350329736328125,0,0,0.765625
2.9637210220025736,0,0,1.2617442749023438,0,0,0.6890625
2.9652564140014874,0,0,1.3072341064453123,0,0,0.765625
2.9667643620014132,0,0,1.407790576171875,0,0,1.1484375
2.9682756809997954,0,0,1.5155296508789062,0,0,0.5359375000000001
2.969916830999864,0,0,1.4532804077148436,0,0,0.9953125
2.9715434259996982,0,0,1.407790576171875,0,0,0.8421875000000001
2.973016523003025,0,0,1.369483349609375,0,0,0.9187500000000001
2.974516582002252,0,0,1.2330138549804688,0,0,0.45937500000000003
2.9761111780026113,0,0,1.3623007446289062,0,0,0.765625
2.9776423110015457,0,0,1.3646949462890625,0,0,0.8421875000000001
2.9791077219997533,0,0,1.467645617675781,0,0,0.5359375000000001
2.9806760589999612,0,0,1.3862427612304686,0,0,0.6890625
2.9822802650014637,0,0,1.3814543579101561,0,0,0.8421875000000001
2.983848713000043,0,0,1.3263877197265623,0,0,0.6890625
2.9853681420026987,0,0,1.2880804931640624,0,0,0.9187500000000001
2.9871873280026193,0,0,1.2785036865234374,0,0,0.5359375000000001
2.9888159230031306,0,0,1.2808978881835937,0,0,0.9953125
2.9903309080000327,0,0,1.4867992309570313,0,0,0.22968750000000002
2.9918825780005136,0,0,1.446097802734375,0,0,1.0718750000000001
2.9935976910019235,0,0,1.3575123413085937,0,0,0.5359375000000001
2.99521902700144,0,0,1.2737152832031249,0,0,0.6890625
2.996725975001027,0,0,1.2425906616210938,0,0,0.6125
2.9984797540018917,0,0,1.3168109130859373,0,0,0.6125
2.999951851001242,0,0,1.5275006591796874,0,0,0.765625
3.0014421140003833,0,0,1.4341267944335936,0,0,0.765625
3.0029816730020684,0,0,1.2665326782226562,0,0,0.9187500000000001
3.004540953999822,0,0,1.467645617675781,0,0,0.9187500000000001
3.006124622999778,0,0,1.2832920898437499,0,0,1.0718750000000001
3.0077177560015116,0,0,1.350329736328125,0,0,0.8421875000000001
3.0093533510007546,0,0,1.2880804931640624,0,0,0.45937500000000003
3.011690087001625,0,0,1.4820108276367188,0,0,0.45937500000000003
3.0136624940023466,0,0,1.3575123413085937,0,0,1.0718750000000001
3.0154079210005875,0,0,1.4341267944335936,0,0,0.45937500000000003
3.016882332001842,0,0,1.3335703247070312,0,0,1.0718750000000001
3.018560594002338,0,0,1.3431471313476562,0,0,0.8421875000000001
3.0203097430021444,0,0,1.3000515014648437,0,0,0.6890625
3.021920264000073,0,0,1.3718775512695311,0,0,0.765625
3.0235219150017656,0,0,1.5251064575195312,0,0,0.6890625
3.0255827470027725,0,0,1.3575123413085937,0,0,0.765625
3.0272425270013628,0,0,1.2306196533203124,0,0,0.6890625
3.0288346960005583,0,0,1.2234370483398436,0,0,0.5359375000000001
3.030471310001303,0,0,1.2497732666015624,0,0,0.6125
3.0320253130012134,0,0,1.2473790649414063,0,0,0.45937500000000003
3.033598816000449,0,0,1.5155296508789062,0,0,0.8421875000000001
3.0351591530015867,0,0,1.5011644409179687,0,0,0.8421875000000001
3.036625435001042,0,0,1.448492004394531,0,0,0.765625
3.038100846002635,0,0,1.47482822265625,0,0,0.765625
3.039630516002944,0,0,1.2617442749023438,0,0,0.6890625
3.0411279830004787,0,0,1.3359645263671873,0,0,0.6125
3.042860910001764,0,0,1.3383587280273437,0,0,0.45937500000000003
3.044375987999956,0,0,1.4963760375976562,0,0,1.0718750000000001
3.0459208990032494,0,0,1.5203180541992187,0,0,0.8421875000000001
3.04773815900262,0,0,1.458068811035156,0,0,0.6125
3.0494511050019355,0,0,1.3168109130859373,0,0,0.8421875000000001
3.051189940000768,0,0,1.2952630981445312,0,0,0.6125
3.0527455170013127,0,0,1.2018892333984375,0,0,0.6125
3.0543202980006754,0,0,1.3383587280273437,0,0,0.9187500000000001
3.055840820001322,0,0,1.438915197753906,0,0,0.9187500000000001
3.057353898002475,0,0,1.3311761230468748,0,0,0.9187500000000001
3.0590572330002033,0,0,1.4820108276367188,0,0,0.8421875000000001
3.0605842180011678,0,0,1.3096283081054687,0,0,0.9187500000000001
3.0620428520014684,0,0,1.4915876342773438,0,0,0.8421875000000001
3.063539855000272,0,0,1.2497732666015624,0,0,0.6125
3.0652360980020603,0,0,1.2282254516601563,0,0,0.6890625
3.0668031570021412,0,0,1.4053963745117186,0,0,0.8421875000000001
3.0682722160017875,0,0,1.5251064575195312,0,0,0.8421875000000001
3.06982105300267,0,0,1.4053963745117186,0,0,0.765625
3.071362112001225,0,0,1.2330138549804688,0,0,0.9953125
3.072822616002668,0,0,1.2904746948242187,0,0,1.1484375
3.0743604710005457,0,0,1.2473790649414063,0,0,0.9187500000000001
3.0761953239998547,0,0,1.2761094848632812,0,0,0.153125
3.0777503270001034,0,0,1.446097802734375,0,0,0.8421875000000001
3.0792230530023517,0,0,1.446097802734375,0,0,0.765625
3.0807823530012683,0,0,1.467645617675781,0,0,0.765625
3.0822820230023353,0,0,1.3670891479492187,0,0,0.8421875000000001
3.0837506570023834,0,0,1.3024457031249999,0,0,0.8421875000000001
3.0852445310010808,0,0,1.4796166259765624,0,0,0.6890625
3.087161642000865,0,0,1.3527239379882812,0,0,1.990625
3.0887484410013712,0,0,1.4772224243164063,0,0,1.0718750000000001
3.0902556300025026,0,0,1.5251064575195312,0,0,0.45937500000000003
3.0922232960001566,0,0,1.47482822265625,0,0,0.8421875000000001
3.093850965000456,0,0,1.2713210815429687,0,0,0.9187500000000001
3.0953542650022428,0,0,1.2378022583007813,0,0,0.8421875000000001
3.0968922680003743,0,0,1.2641384765625,0,0,0.6125
3.0988444710019394,0,0,1.3527239379882812,0,0,0.6890625
3.100371623000683,0,0,1.4963760375976562,0,0,0.6125
3.101875756001391,0,0,1.4053963745117186,0,0,0.9953125
3.103417686001194,0,0,1.4149731811523436,0,0,0.6125
3.104885616001411,0,0,1.3359645263671873,0,0,0.8421875000000001
3.1065601730006165,0,0,1.3407529296874998,0,0,0.8421875000000001
3.1081246950016066,0,0,1.3144167114257812,0,0,0.45937500000000003
3.1100449719997414,0,0,1.350329736328125,0,0,0.9953125
3.1115992720006034,0,0,1.388636962890625,0,0,0.6890625
3.1131750340027793,0,0,1.4604630126953124,0,0,0.9953125
3.1147664449999866,0,0,1.3958195678710936,0,0,0.6125
3.1162327820020437,0,0,1.2856862915039062,0,0,1.0718750000000001
3.117766377999942,0,0,1.216254443359375,0,0,0.5359375000000001
3.1195083980019263,0,0,1.2880804931640624,0,0,0.6890625
3.121815709000657,0,0,1.4101847778320311,0,0,1.0718750000000001
3.123459692000324,0,0,1.3862427612304686,0,0,0.9187500000000001
3.125104047001514,0,0,1.3000515014648437,0,0,0.9187500000000001
3.126682216003246,0,0,1.254561669921875,0,0,0.9187500000000001
3.1284483470008126,0,0,1.2832920898437499,0,0,0.6890625
3.1300551090025692,0,0,1.2785036865234374,0,0,0.8421875000000001
3.131598649000807,0,0,1.2928688964843749,0,0,0.6125
3.1330837269997573,0,0,1.429338391113281,0,0,0.6890625
3.134991598002671,0,0,1.2785036865234374,0,0,0.9187500000000001
3.136804543002654,0,0,1.419761584472656,0,0,0.765625
3.1384011010013637,0,0,1.235408056640625,0,0,0.6890625
3.1399338640003407,0,0,1.2617442749023438,0,0,0.6125
3.141475349002576,0,0,1.3407529296874998,0,0,0.6890625
3.1429441860018414,0,0,1.3742717529296875,0,0,0.8421875000000001
3.1447217610002554,0,0,1.4820108276367188,0,0,0.22968750000000002
3.1463274490015465,0,0,1.448492004394531,0,0,0.9187500000000001
3.147875489001308,0,0,1.448492004394531,0,0,0.3828125
3.149353679000342,0,0,1.3096283081054687,0,0,0.765625
3.150850497000647,0,0,1.2737152832031249,0,0,0.8421875000000001
3.152393075000873,0,0,1.22583125,0,0,0.6125
3.1538564860020415,0,0,1.3814543579101561,0,0,0.6125
3.1553732860011223,0,0,1.37906015625,0,0,0.30625
3.156910567002342,0,0,1.448492004394531,0,0,0.9187500000000001
3.1586148839996895,0,0,1.4341267944335936,0,0,0.765625
3.1601388689996384,0,0,1.3120225097656248,0,0,1.0718750000000001
3.1616844830023183,0,0,1.2976572998046874,0,0,-9.034375
3.1635219100026006,0,0,1.3168109130859373,0,0,0.6890625
3.165140949000488,0,0,1.4604630126953124,0,0,1.0718750000000001
3.166693638002471,0,0,1.4508862060546874,0,0,0.45937500000000003
3.16828147400156,0,0,1.467645617675781,0,0,0.9187500000000001
3.1697707000021182,0,0,1.438915197753906,0,0,0.6125
3.1713444250017346,0,0,1.3742717529296875,0,0,1.0718750000000001
3.172926040002494,0,0,1.3359645263671873,0,0,0.6125
3.1744409689999884,0,0,1.2856862915039062,0,0,0.6890625
3.1759399170005054,0,0,1.3215993164062498,0,0,0.5359375000000001
3.17755386400313,0,0,1.5155296508789062,0,0,0.6125
3.1791960150003433,0,0,1.2282254516601563,0,0,1.0718750000000001
3.1807368520021555,0,0,1.3766659545898436,0,0,0.6890625
3.1822094670023944,0,0,1.2569558715820313,0,0,0.8421875000000001
3.1838075990017387,0,0,1.2713210815429687,0,0,0.6125
3.185360084000422,0,0,1.2952630981445312,0,0,0.765625
3.186858940000093,0,0,1.3934253662109375,0,0,0.6125
3.1883715910007595,0,0,1.5586252807617187,0,0,0.6125
3.1899194840007112,0,0,1.3168109130859373,0,0,1.0718750000000001
3.191398247003235,0,0,1.3551181396484375,0,0,0.9187500000000001
3.192860158000258,0,0,1.254561669921875,0,0,1.0718750000000001
3.1944620320027752,0,0,1.2330138549804688,0,0,1.1484375
3.1960291460018198,0,0,1.3431471313476562,0,0,0.9187500000000001
3.197498298002756,0,0,1.3431471313476562,0,0,0.5359375000000001
3.1990760230000888,0,0,1.4939818359375,0,0,0.5359375000000001
3.2006655820005108,0,0,1.3934253662109375,0,0,0.6890625
3.202185863003251,0,0,1.3862427612304686,0,0,0.6890625
3.203651682000782,0,0,1.2737152832031249,0,0,0.765625
3.2052401660002943,0,0,1.2904746948242187,0,0,0.765625
3.2068177809996996,0,0,1.2306196533203124,0,0,0.6890625
3.208292451003217,0,0,1.24498486328125,0,0,0.6125
3.209749344001466,0,0,1.4149731811523436,0,0,0.8421875000000001
3.211306199002138,0,0,1.5179238525390624,0,0,0.5359375000000001
3.2130669780017342,0,0,1.37906015625,0,0,0.9187500000000001
3.214602426000056,0,0,1.2713210815429687,0,0,0.9953125
3.2160746340014157,0,0,1.3766659545898436,0,0,0.6125
3.217646989000059,0,0,1.2641384765625,0,0,0.8421875000000001
3.219286158000614,0,0,1.3287819213867187,0,0,0.765625
3.220816069002467,0,0,1.4987702392578124,0,0,0.8421875000000001
3.2223342950019287,0,0,1.5011644409179687,0,0,0.765625
3.22399511200274,0,0,1.4245499877929686,0,0,0.6125
3.2255803549996926,0,0,1.20667763671875,0,0,1.0718750000000001
3.227110674000869,0,0,1.3048399047851562,0,0,0.6125
3.228658677002386,0,0,1.254561669921875,0,0,0.8421875000000001
3.230397253002593,0,0,1.4508862060546874,0,0,0.30625
3.2320832920013345,0,0,1.4963760375976562,0,0,0.765625
3.2336361650013714,0,0,1.4317325927734375,0,0,0.9187500000000001
3.235405981002259,0,0,1.4604630126953124,0,0,0.6125
3.2369612990005407,0,0,1.2689268798828124,0,0,0.6890625
3.238455247003003,0,0,1.2378022583007813,0,0,0.6890625
3.2400133250012004,0,0,1.2569558715820313,0,0,0.765625
3.241539754002588,0,0,1.3359645263671873,0,0,0.8421875000000001
3.2433650320017477,0,0,1.3958195678710936,0,0,0.45937500000000003
3.244989072001772,0,0,1.2378022583007813,0,0,0.9187500000000001
3.2465259460004745,0,0,1.3407529296874998,0,0,0.6890625
3.2479979500021727,0,0,1.3168109130859373,0,0,0.6890625
3.2499563750025118,0,0,1.3024457031249999,0,0,0.45937500000000003
3.251571304001118,0,0,1.2952630981445312,0,0,0.8421875000000001
3.2530549190014426,0,0,1.3527239379882812,0,0,0.9953125
3.2545144780015107,0,0,1.5035586425781249,0,0,0.6890625
3.2560796670004493,0,0,1.3670891479492187,0,0,1.1484375
3.2575633190026565,0,0,1.4437036010742186,0,0,0.6890625
3.2590209709997,0,0,1.4891934326171874,0,0,0.9953125
3.26097160000063,0,0,1.2952630981445312,0,0,0.765625
3.262538400002086,0,0,1.2952630981445312,0,0,0.6125
3.264015181001014,0,0,1.3048399047851562,0,0,0.9953125
3.265475852000236,0,0,1.5107412475585937,0,0,0.6890625
3.267231965000974,0,0,1.458068811035156,0,0,0.9187500000000001
3.2687813570009894,0,0,1.5059528442382812,0,0,0.8421875000000001
3.270327656002337,0,0,1.2976572998046874,0,0,0.9187500000000001
3.271880382002564,0,0,1.2808978881835937,0,0,0.765625
3.2734690880024573,0,0,1.3407529296874998,0,0,0.6125
3.274951111001428,0,0,1.3144167114257812,0,0,0.6890625
3.276475948001462,0,0,1.4724340209960938,0,0,0.22968750000000002
3.2780917279997084,0,0,1.3000515014648437,0,0,1.0718750000000001
3.2796326210009283,0,0,1.4341267944335936,0,0,0.9187500000000001
3.2811140320009144,0,0,1.2832920898437499,0,0,0.765625
3.2826518500005477,0,0,1.3718775512695311,0,0,0.6125
3.2841627610032447,0,0,1.2928688964843749,0,0,0.45937500000000003
3.285618562000309,0,0,1.3910311645507811,0,0,0.5359375000000001
3.287107158001163,0,0,1.5059528442382812,0,0,0.6890625
3.2886592730028497,0,0,1.2330138549804688,0,0,0.9953125
3.290153221001674,0,0,1.3072341064453123,0,0,0.9187500000000001
3.2916097620000073,0,0,1.2785036865234374,0,0,0.8421875000000001
3.2930976180032303,0,0,1.3455413330078123,0,0,0.6125
3.2946941950031032,0,0,1.2689268798828124,0,0,0.5359375000000001
3.2962175690008735,0,0,1.2928688964843749,0,0,0.45937500000000003
3.2977171460006502,0,0,1.4221557861328125,0,0,0.8421875000000001
3.2994802400025947,0,0,1.3814543579101561,0,0,0.9187500000000001
3.300983207001991,0,0,1.4915876342773438,0,0,0.8421875000000001
3.302442915002757,0,0,1.189918225097656,0,0,0.9187500000000001
3.303979178002919,0,0,1.180341418457031,0,0,0.8421875000000001
3.305483959000412,0,0,1.2856862915039062,0,0,0.765625
3.3069391480021295,0,0,1.3215993164062498,0,0,0.45937500000000003
3.3086659649998182,0,0,1.448492004394531,0,0,0.8421875000000001
3.310412114002247,0,0,1.5011644409179687,0,0,0.8421875000000001
3.3118980810031644,0,0,1.5011644409179687,0,0,1.0718750000000001
3.313357678001921,0,0,1.5059528442382812,0,0,0.765625
3.314899996003078,0,0,1.3096283081054687,0,0,0.765625
3.316604202002054,0,0,1.235408056640625,0,0,1.1484375
3.3180976870025916,0,0,1.3359645263671873,0,0,0.8421875000000001
3.3197039300030156,0,0,1.438915197753906,0,0,0.765625
3.3212677110022923,0,0,1.4820108276367188,0,0,0.6890625
3.3227309930007323,0,0,1.4724340209960938,0,0,0.9953125
3.3242548490015906,0,0,1.37906015625,0,0,0.6125
3.325790371000039,0,0,1.209071838378906,0,0,1.8375000000000001
3.327744092002831,0,0,1.2856862915039062,0,0,0.9187500000000001
3.3298941450011625,0,0,1.3814543579101561,0,0,0.9187500000000001
3.3320782900009362,0,0,1.407790576171875,0,0,0.8421875000000001
3.3339713090026635,0,0,1.4006079711914061,0,0,0.8421875000000001
3.3360783620009897,0,0,1.4125789794921875,0,0,0.9953125
3.338177767000161,0,0,1.3670891479492187,0,0,0.45937500000000003
3.3400731750007253,0,0,1.3335703247070312,0,0,0.5359375000000001
3.3420400810027786,0,0,1.458068811035156,0,0,0.30625
3.343908230002853,0,0,1.4149731811523436,0,0,0.765625
3.3453739370015683,0,0,1.4987702392578124,0,0,0.6890625
3.3468784970027627,0,0,1.2952630981445312,0,0,0.765625
3.3492209739997634,0,0,1.3048399047851562,0,0,0.9187500000000001
3.352627811000275,0,0,1.407790576171875,0,0,0.6890625
3.3542796460023965,0,0,1.5107412475585937,0,0,0.6125
3.3557932050025556,0,0,1.4125789794921875,0,0,0.9187500000000001
3.357257728002878,0,0,1.426944189453125,0,0,0.765625
3.3588048609999532,0,0,1.2785036865234374,0,0,0.9187500000000001
3.360340809002082,0,0,1.2737152832031249,0,0,0.9187500000000001
3.3618038310014526,0,0,1.3575123413085937,0,0,0.6890625
3.3633185390026483,0,0,1.4700398193359374,0,0,0.6890625
3.3649065230019914,0,0,1.3958195678710936,0,0,0.5359375000000001
3.3663831379999465,0,0,1.2641384765625,0,0,1.0718750000000001
3.367883568000252,0,0,1.4173673828125,0,0,0.6125
3.369395831003203,0,0,1.3623007446289062,0,0,0.8421875000000001
3.371007408000878,0,0,1.3239935180664062,0,0,0.8421875000000001
3.372598818001279,0,0,1.3958195678710936,0,0,0.6890625
3.37419133900039,0,0,1.3239935180664062,0,0,0.8421875000000001
3.375750417002564,0,0,1.446097802734375,0,0,0.3828125
3.377296105001733,0,0,1.2761094848632812,0,0,0.9187500000000001
3.378754943001695,0,0,1.4053963745117186,0,0,0.3828125
3.3802543910023815,0,0,1.3048399047851562,0,0,0.9953125
3.3818145420009387,0,0,1.2976572998046874,0,0,0.765625
3.383464026002912,0,0,1.388636962890625,0,0,0.6125
3.3850645840029756,0,0,1.24498486328125,0,0,0.9953125
3.386746309002774,0,0,1.5705962890624998,0,0,0.6125
3.3883141630030877,0,0,1.458068811035156,0,0,0.9187500000000001
3.3898405370018736,0,0,1.5155296508789062,0,0,0.8421875000000001
3.3913816890017188,0,0,1.2808978881835937,0,0,0.9187500000000001
3.3930309130009846,0,0,1.3311761230468748,0,0,0.5359375000000001
3.3945747320030932,0,0,1.4125789794921875,0,0,0.6890625
3.396036494999862,0,0,1.4604630126953124,0,0,0.765625
3.3976163680017635,0,0,1.5418658691406248,0,0,0.30625
3.399252945000626,0,0,1.3910311645507811,0,0,1.1484375
3.400778874001844,0,0,1.4125789794921875,0,0,0.6125
3.402271415001451,0,0,1.2808978881835937,0,0,0.9187500000000001
3.404256081001222,0,0,1.2761094848632812,0,0,0.765625
3.405881306000083,0,0,1.3239935180664062,0,0,0.45937500000000003
3.40735951300303,0,0,1.3670891479492187,0,0,1.0718750000000001
3.4089045350010565,0,0,1.4221557861328125,0,0,0.765625
3.4104314830001385,0,0,1.2593500732421874,0,0,0.8421875000000001
3.411924820000422,0,0,1.3766659545898436,0,0,1.0718750000000001
3.413442193999799,0,0,1.2521674682617188,0,0,0.9187500000000001
3.4150307340023573,0,0,1.3431471313476562,0,0,0.8421875000000001
3.4165031090014963,0,0,1.199495031738281,0,0,0.5359375000000001
3.418100704002427,0,0,1.3551181396484375,0,0,0.765625
3.419667133002804,0,0,1.4772224243164063,0,0,0.6125
3.4212839320025523,0,0,1.4245499877929686,0,0,1.0718750000000001
3.4228540460026124,0,0,1.4341267944335936,0,0,0.6125
3.424337087002641,0,0,1.35990654296875,0,0,0.8421875000000001
3.425877683002909,0,0,1.2689268798828124,0,0,0.6890625
3.427416242000618,0,0,1.2737152832031249,0,0,0.765625
3.428878431001067,0,0,1.3407529296874998,0,0,0.6890625
3.430417250001483,0,0,1.4891934326171874,0,0,0.30625
3.4321036220026144,0,0,1.43652099609375,0,0,0.8421875000000001
3.4335910890004016,0,0,1.3359645263671873,0,0,0.765625
3.4350506860027963,0,0,1.1372457885742187,0,0,0.9187500000000001
3.4366699480015086,0,0,1.2713210815429687,0,0,0.6890625
3.4382539500002167,0,0,1.2665326782226562,0,0,0.6890625
3.439863546002016,0,0,1.3838485595703125,0,0,0.6125
3.4414112710001064,0,0,1.5131354492187499,0,0,1.990625
3.4429688490017725,0,0,1.3383587280273437,0,0,0.6890625
3.44455233300323,0,0,1.3527239379882812,0,0,0.765625
3.4460223560017766,0,0,1.235408056640625,0,0,0.765625
3.447831227000279,0,0,1.2665326782226562,0,0,0.6890625
3.449501544000668,0,0,1.37906015625,0,0,0.5359375000000001
3.4510248620026687,0,0,1.3144167114257812,0,0,0.9953125
3.4526578830009385,0,0,1.4772224243164063,0,0,0.5359375000000001
3.4545787530005327,0,0,1.4437036010742186,0,0,0.6890625
3.456118238002091,0,0,1.6112977172851561,0,0,0.9953125
3.457969127000979,0,0,1.3383587280273437,0,0,0.9187500000000001
3.459572351999668,0,0,1.2617442749023438,0,0,0.8421875000000001
3.4610422639998433,0,0,1.3742717529296875,0,0,0.45937500000000003
3.4626046370030963,0,0,1.4891934326171874,0,0,0.9187500000000001
3.464347990000533,0,0,1.446097802734375,0,0,0.8421875000000001
3.4661515280022286,0,0,1.3239935180664062,0,0,0.765625
3.4677944380018744,0,0,1.2401964599609374,0,0,0.8421875000000001
3.469333719000133,0,0,1.22583125,0,0,0.9187500000000001
3.470902130000468,0,0,1.2330138549804688,0,0,0.8421875000000001
3.472646075002558,0,0,1.3670891479492187,0,0,0.765625
3.4743120029997954,0,0,1.419761584472656,0,0,0.5359375000000001
3.4758549880025384,0,0,1.3383587280273437,0,0,0.6890625
3.477368103001936,0,0,1.426944189453125,0,0,0.6890625
3.478947606003203,0,0,1.2282254516601563,0,0,0.8421875000000001
3.480593979002151,0,0,1.3168109130859373,0,0,0.765625
3.4821630740007095,0,0,1.2617442749023438,0,0,0.6125
3.4838099290027458,0,0,1.2976572998046874,0,0,0.8421875000000001
3.4854000430023007,0,0,1.4628572143554686,0,0,0.45937500000000003
3.486870862001524,0,0,1.4604630126953124,0,0,0.6125
3.4883925690010074,0,0,1.3814543579101561,0,0,0.9953125
3.489944701999775,0,0,1.1875240234375,0,0,1.1484375
3.4915505930002837,0,0,1.3000515014648437,0,0,0.6125
3.49308611500237,0,0,1.2713210815429687,0,0,0.9187500000000001
3.494674452002073,0,0,1.2976572998046874,0,0,0.6125
3.4962127880025946,0,0,1.419761584472656,0,0,0.45937500000000003
3.497680348002177,0,0,1.369483349609375,0,0,1.1484375
3.4992131290018733,0,0,1.2952630981445312,0,0,0.30625
3.5007918540031824,0,0,1.2665326782226562,0,0,0.9953125
3.502312284002983,0,0,1.2737152832031249,0,0,0.6125
3.5039864530008344,0,0,1.2425906616210938,0,0,0.765625
3.5056422510024277,0,0,1.4245499877929686,0,0,0.8421875000000001
3.507228884001961,0,0,1.4006079711914061,0,0,0.6125
3.5087042400009523,0,0,1.3335703247070312,0,0,0.765625
3.5101643550005974,0,0,1.429338391113281,0,0,0.6125
3.5117546540022886,0,0,1.2306196533203124,0,0,0.8421875000000001
3.513276121000672,0,0,1.3239935180664062,0,0,0.9953125
3.5147645870019915,0,0,1.2713210815429687,0,0,0.765625
3.5162723690009443,0,0,1.3479355346679687,0,0,0.45937500000000003
3.5178932230010105,0,0,1.5131354492187499,0,0,0.9187500000000001
3.5194563750010275,0,0,1.5298948608398437,0,0,0.9187500000000001
3.5210301370025263,0,0,1.438915197753906,0,0,0.6890625
3.5226158250006847,0,0,1.2210428466796874,0,0,0.9187500000000001
3.5241839950031135,0,0,1.2856862915039062,0,0,0.6125
3.5256524060023366,0,0,1.2330138549804688,0,0,0.9187500000000001
3.5271097069999087,0,0,1.2425906616210938,0,0,0.45937500000000003
3.5286556920000294,0,0,1.446097802734375,0,0,0.8421875000000001
3.5302909160018316,0,0,1.426944189453125,0,0,1.0718750000000001
3.5320295470010024,0,0,1.4724340209960938,0,0,0.6890625
3.5335561060019245,0,0,1.2880804931640624,0,0,0.9187500000000001
3.535252126999694,0,0,1.3239935180664062,0,0,0.6890625
3.536732242002472,0,0,1.2497732666015624,0,0,0.9187500000000001
3.538191783001821,0,0,1.2425906616210938,0,0,0.6890625
3.539889118001156,0,0,1.5059528442382812,0,0,1.1484375
3.541495584002405,0,0,1.39821376953125,0,0,0.8421875000000001
3.5429742920023273,0,0,1.4891934326171874,0,0,0.765625
3.5445234430007986,0,0,1.2713210815429687,0,0,0.8421875000000001
3.546136168002704,0,0,1.2904746948242187,0,0,0.8421875000000001
3.547704264001368,0,0,1.2976572998046874,0,0,0.8421875000000001
3.5492335630005982,0,0,1.3575123413085937,0,0,0.5359375000000001
3.5508165110004484,0,0,1.465251416015625,0,0,1.0718750000000001
3.552345570002217,0,0,1.4820108276367188,0,0,0.6890625
3.5538542030008102,0,0,1.438915197753906,0,0,0.765625
3.555867572002171,0,0,1.2330138549804688,0,0,0.765625
3.5575176300008025,0,0,1.3407529296874998,0,0,0.8421875000000001
3.558992042002501,0,0,1.2593500732421874,0,0,0.6890625
3.5615623310004594,0,0,1.3958195678710936,0,0,0.9953125
3.5630726870003855,0,0,1.3814543579101561,0,0,0.6890625
3.5645533019996947,0,0,1.4700398193359374,0,0,0.8421875000000001
3.566143453001132,0,0,1.4173673828125,0,0,0.9187500000000001
3.5682844130024023,0,0,1.2904746948242187,0,0,0.6890625
3.5697584730005474,0,0,1.2593500732421874,0,0,0.8421875000000001
3.571239847002289,0,0,1.2665326782226562,0,0,0.6890625
3.5727937950032356,0,0,1.458068811035156,0,0,0.9953125
3.5745954619997065,0,0,1.4173673828125,0,0,1.0718750000000001
3.57615131700004,0,0,1.458068811035156,0,0,0.9953125
3.577640303003136,0,0,1.189918225097656,0,0,0.9187500000000001
3.579223972003092,0,0,1.2880804931640624,0,0,0.6890625
3.580699310001364,0,0,1.2617442749023438,0,0,0.765625
3.582149183999718,0,0,1.3575123413085937,0,0,0.5359375000000001
3.583699910002906,0,0,1.5538368774414062,0,0,0.765625
3.5852098210016266,0,0,1.5083470458984374,0,0,1.1484375
3.586670751003112,0,0,1.3192051147460937,0,0,0.9187500000000001
3.5882087360005244,0,0,1.4413093994140624,0,0,0.45937500000000003
3.589748425001744,0,0,1.3359645263671873,0,0,0.8421875000000001
3.5912218730009045,0,0,1.2808978881835937,0,0,0.6890625
3.592703469999833,0,0,1.3383587280273437,0,0,0.6125
3.594202436001069,0,0,1.2904746948242187,0,0,0.8421875000000001
3.595777217000432,0,0,1.458068811035156,0,0,0.6125
3.5972630540018145,0,0,1.3359645263671873,0,0,1.1484375
3.598773928002629,0,0,1.5203180541992187,0,0,0.765625
3.6002870430020266,0,0,1.2928688964843749,0,0,0.9953125
3.601828935003141,0,0,1.3215993164062498,0,0,0.9187500000000001
3.603908766999666,0,0,1.35990654296875,0,0,0.9187500000000001
3.6054638440000417,0,0,1.3072341064453123,0,0,0.6890625
3.6070180330025323,0,0,1.5059528442382812,0,0,0.6125
3.6085575360011717,0,0,1.3048399047851562,0,0,0.8421875000000001
3.610021910000796,0,0,1.4173673828125,0,0,0.45937500000000003
3.6114810070030217,0,0,1.3215993164062498,0,0,0.9187500000000001
3.6134020250028698,0,0,1.254561669921875,0,0,0.9953125
3.6148810110025806,0,0,1.2473790649414063,0,0,0.6890625
3.6163421450000897,0,0,1.2880804931640624,0,0,0.9953125
3.617929259002267,0,0,1.484405029296875,0,0,0.6890625
3.619447021999804,0,0,1.429338391113281,0,0,0.765625
3.6209910430006857,0,0,1.3934253662109375,0,0,0.9187500000000001
3.6227772300007928,0,0,1.3215993164062498,0,0,0.8421875000000001
3.624650156001735,0,0,1.2617442749023438,0,0,0.8421875000000001
3.6263020469996263,0,0,1.5035586425781249,0,0,0.45937500000000003
3.627885068002797,0,0,1.4915876342773438,0,0,1.0718750000000001
3.6294632380013354,0,0,1.3862427612304686,0,0,0.6890625
3.6309937780024484,0,0,1.4006079711914061,0,0,0.6890625
3.632463820002158,0,0,1.3575123413085937,0,0,0.9187500000000001
3.6341291179996915,0,0,1.3431471313476562,0,0,0.5359375000000001
3.6357111020006414,0,0,1.3000515014648437,0,0,1.1484375
3.6372799199998553,0,0,1.2928688964843749,0,0,0.3828125
3.638903738003137,0,0,1.4628572143554686,0,0,0.9187500000000001
3.64057979500285,0,0,1.3934253662109375,0,0,0.45937500000000003
3.6421809650018986,0,0,1.2713210815429687,0,0,1.0718750000000001
3.6437293010021676,0,0,1.2952630981445312,0,0,0.9187500000000001
3.6453189519997977,0,0,1.3431471313476562,0,0,0.765625
3.6469747700029984,0,0,1.2641384765625,0,0,0.765625
3.648513162002928,0,0,1.3575123413085937,0,0,0.6125
3.6501026280020596,0,0,1.4867992309570313,0,0,0.9187500000000001
3.651681390001613,0,0,1.4030021728515625,0,0,0.765625
3.6532947630003036,0,0,1.3838485595703125,0,0,0.45937500000000003
3.6548098040002515,0,0,1.254561669921875,0,0,0.9187500000000001
3.65634382600183,0,0,1.3000515014648437,0,0,0.765625
3.657906588003243,0,0,1.1875240234375,0,0,1.1484375
3.659446831999958,0,0,1.3407529296874998,0,0,0.765625
3.6610205760007375,0,0,1.446097802734375,0,0,0.8421875000000001
3.6626019310024276,0,0,1.3670891479492187,0,0,0.6890625
3.664146527000412,0,0,1.4437036010742186,0,0,0.8421875000000001
3.665709789001994,0,0,1.3048399047851562,0,0,0.9187500000000001
3.6672726630022225,0,0,1.2928688964843749,0,0,0.5359375000000001
3.6688627770017774,0,0,1.3144167114257812,0,0,0.8421875000000001
3.670442909002304,0,0,1.3024457031249999,0,0,0.6125
3.6721025970000483,0,0,1.4030021728515625,0,0,0.9187500000000001
3.673737451001216,0,0,1.446097802734375,0,0,0.9187500000000001
3.675352065001789,0,0,1.5298948608398437,0,0,0.5359375000000001
3.6770335670007626,0,0,1.2928688964843749,0,0,0.9187500000000001
