Time (s),Accel X,Accel Y,Accel Z,Gyro X,Gyro Y,Gyro Z,Temperature (C)
0.0087464039970655,-0.7876923461914062,-9.634267480468749,1.2282254516601563,0,0,0,0
0.010519381001358852,-0.7852981445312499,-9.6917283203125,1.3168109130859373,0,0,0,0
0.012111748990719207,-0.8164227661132812,-9.64623848876953,1.3335703247070312,0,0,0,0
0.013421064999420196,-0.9002198242187499,-9.636661682128906,1.3048399047851562,0,0,0,0
0.014545624988386407,-0.8762778076171874,-9.603142858886718,1.3383587280273437,0,0,0,0
0.015661035999073647,-0.8954314208984374,-9.588777648925781,1.3479355346679687,0,0,0,0
0.016840946991578676,-0.8690952026367187,-9.595960253906249,1.2952630981445312,0,0,0,0
0.018073782994179055,-0.8595183959960937,-9.567229833984374,1.2617442749023438,0,0,0,0
0.01931332200183533,-0.7493851196289062,-9.595960253906249,1.2737152832031249,0,0,0,0
0.02055086099426262,-0.7565677246093749,-9.643844287109374,1.3096283081054687,0,0,0,0
0.021742641998571344,-0.7948749511718749,-9.593566052246093,1.2904746948242187,0,0,0,0
0.023074291995726526,-0.8116343627929687,-9.694122521972655,1.2952630981445312,0,0,0,0
0.024309535001521,-0.8283937744140625,-9.658209497070311,1.3575123413085937,0,0,0,0
0.025401519989827648,-0.8714894042968749,-9.629479077148437,1.350329736328125,0,0,0,0
0.02647450599761214,-0.9457096557617187,-9.617508068847656,1.4053963745117186,0,0,0,0
0.027546825993340462,-0.8786720092773437,-9.600748657226562,1.465251416015625,0,0,0,0
0.028735883999615908,-0.8044517578125,-9.622296472167967,1.3072341064453123,0,0,0,0
0.029960330997710116,-0.8212111694335937,-9.643844287109374,1.3575123413085937,0,0,0,0
0.031129463997785933,-0.7948749511718749,-9.576806640625,1.3096283081054687,0,0,0,0
0.03223830199567601,-0.7709329345703124,-9.636661682128906,1.20667763671875,0,0,0,0
0.033310194994555786,-0.7852981445312499,-9.696516723632811,1.2713210815429687,0,0,0,0
0.034383143996819854,-0.833182177734375,-9.720458740234374,1.3215993164062498,0,0,0,0
0.03558086899283808,-0.8595183959960937,-9.665392102050781,1.2808978881835937,0,0,0,0
0.03672727999219205,-0.82360537109375,-9.689334118652344,1.3215993164062498,0,0,0,0
0.037812302995007485,-0.8188169677734375,-9.648632690429688,1.3311761230468748,0,0,0,0
0.038881640997715294,-0.8643067993164062,-9.579200842285156,1.3431471313476562,0,0,0,0
0.03996512699814048,-0.8954314208984374,-9.545682019042967,1.37906015625,0,0,0,0
0.04114477799157612,-0.8690952026367187,-9.593566052246093,1.2880804931640624,0,0,0,0
0.04237450299842749,-0.8164227661132812,-9.564835632324218,1.2641384765625,0,0,0,0
0.04353032099606935,-0.7924807495117187,-9.574412438964844,1.2808978881835937,0,0,0,0
0.04468225099844858,-0.7948749511718749,-9.605537060546874,1.3000515014648437,0,0,0,0
0.04575532898888923,-0.8044517578125,-9.643844287109374,1.3120225097656248,0,0,0,0
0.04684716698830016,-0.8164227661132812,-9.643844287109374,1.3311761230468748,0,0,0,0
0.04803017000085674,-0.8810662109374999,-9.655815295410155,1.3263877197265623,0,0,0,0
0.049208450989681296,-0.8906430175781249,-9.64623848876953,1.3024457031249999,0,0,0,0
0.05031121399952099,-0.9050082275390624,-9.634267480468749,1.4221557861328125,0,0,0,0
0.05141045899654273,-0.8044517578125,-9.576806640625,1.4221557861328125,0,0,0,0
0.05252387099608313,-0.8116343627929687,-9.588777648925781,1.3287819213867187,0,0,0,0
0.053704428995843045,-0.8212111694335937,-9.564835632324218,1.3024457031249999,0,0,0,0
0.05490072899556253,-0.82360537109375,-9.643844287109374,1.2521674682617188,0,0,0,0
0.05603673199948389,-0.82360537109375,-9.670180505371093,1.2713210815429687,0,0,0,0
0.05712093999318313,-0.7517793212890624,-9.677363110351562,1.2497732666015624,0,0,0,0
0.05820224099443294,-0.8092401611328125,-9.710881933593749,1.3096283081054687,0,0,0,0
0.0592838570009917,-0.8714894042968749,-9.65342109375,1.3766659545898436,0,0,0,0
0.060506543988594785,-0.9074024291992187,-9.651026892089844,1.3335703247070312,0,0,0,0
0.06172471398895141,-0.9121908325195311,-9.598354455566406,1.2425906616210938,0,0,0,0
0.06287397599953692,-0.8690952026367187,-9.588777648925781,1.3311761230468748,0,0,0,0
0.06396618399594445,-0.8044517578125,-9.543287817382812,1.2880804931640624,0,0,0,0
0.06505142999230884,-0.8667010009765624,-9.545682019042967,1.3096283081054687,0,0,0,0
0.06626456198864616,-0.8044517578125,-9.591171850585937,1.2808978881835937,0,0,0,0
0.06754595298843924,-0.7350199096679687,-9.603142858886718,1.3000515014648437,0,0,0,0
0.06874501099810004,-0.7613561279296874,-9.634267480468749,1.3000515014648437,0,0,0,0
0.06989866300136782,-0.8116343627929687,-9.775525378417969,1.3096283081054687,0,0,0,0
0.07109009199484717,-0.8188169677734375,-9.598354455566406,1.3383587280273437,0,0,0,0
0.07222098400234245,-0.8882488159179687,-9.629479077148437,1.3407529296874998,0,0,0,0
0.07341041299514472,-0.8978256225585937,-9.674968908691406,1.2713210815429687,0,0,0,0
0.07463682298839558,-0.8762778076171874,-9.574412438964844,1.2282254516601563,0,0,0,0
0.07643007799924817,-0.7733271362304687,-9.583989245605467,1.3646949462890625,0,0,0,0
0.07783874399319757,-0.814028564453125,-9.495403784179686,1.3814543579101561,0,0,0,0
0.07895154500147328,-0.8451531860351562,-9.622296472167967,1.35990654296875,0,0,0,0
0.08005008599138819,-0.7134720947265625,-9.629479077148437,1.3383587280273437,0,0,0,0
0.08152680700004566,-0.814028564453125,-9.619902270507811,1.3431471313476562,0,0,0,0
0.08285014198918361,-0.9074024291992187,-9.509768994140625,1.3263877197265623,0,0,0,0
0.08416814298834652,-1.0654197387695312,-9.651026892089844,1.3144167114257812,0,0,0,0
0.0854425339930458,-0.8882488159179687,-9.60793126220703,1.3239935180664062,0,0,0,0
0.08653979799419176,-0.8786720092773437,-9.548076220703125,1.3623007446289062,0,0,0,0
0.08792968699708581,-0.8667010009765624,-9.6151138671875,1.2976572998046874,0,0,0,0
0.08940681599779055,-0.852335791015625,-9.572018237304688,1.254561669921875,0,0,0,0
0.0905243379966123,-0.7685387329101562,-9.631873278808593,1.2976572998046874,0,0,0,0
0.09163471299689263,-0.7709329345703124,-9.65342109375,1.3623007446289062,0,0,0,0
0.09272258699638769,-0.8188169677734375,-9.672574707031249,1.3120225097656248,0,0,0,0
0.09428789999219589,-0.852335791015625,-9.624690673828125,1.3670891479492187,0,0,0,0
0.09609780299069826,-0.8954314208984374,-9.605537060546874,1.3742717529296875,0,0,0,0
0.09723423200193793,-0.8810662109374999,-9.574412438964844,1.3215993164062498,0,0,0,0
0.09832466299121734,-0.8978256225585937,-9.572018237304688,1.3311761230468748,0,0,0,0
0.10036328400019556,-0.8643067993164062,-9.516951599121093,1.3407529296874998,0,0,0,0
0.10174154400010593,-0.8283937744140625,-9.622296472167967,1.2928688964843749,0,0,0,0
0.10284445498837158,-0.833182177734375,-9.591171850585937,1.407790576171875,0,0,0,0
0.10397329299303237,-0.7972691528320313,-9.70369932861328,1.3910311645507811,0,0,0,0
0.10583715699613094,-0.852335791015625,-9.672574707031249,1.369483349609375,0,0,0,0
0.10708747399621643,-0.8786720092773437,-9.605537060546874,1.3263877197265623,0,0,0,0
0.10818855199613608,-0.86191259765625,-9.619902270507811,1.3335703247070312,0,0,0,0
0.10928013100055978,-0.852335791015625,-9.586383447265625,1.350329736328125,0,0,0,0
0.1104640409903368,-0.7852981445312499,-9.557653027343749,1.3407529296874998,0,0,0,0
0.11179337599605788,-0.8547299926757812,-9.567229833984374,1.3120225097656248,0,0,0,0
0.11288604699075222,-0.7948749511718749,-9.612719665527344,1.3096283081054687,0,0,0,0
0.11397630999272224,-0.8116343627929687,-9.627084875488281,1.3646949462890625,0,0,0,0
0.11515223998867441,-0.7757213378906249,-9.64623848876953,1.3311761230468748,0,0,0,0
0.11694901199371088,-0.814028564453125,-9.622296472167967,1.3239935180664062,0,0,0,0
0.11815138599195052,-0.8978256225585937,-9.595960253906249,1.3096283081054687,0,0,0,0
0.11932864799746312,-0.8906430175781249,-9.622296472167967,1.3144167114257812,0,0,0,0
0.12053052100236528,-0.8786720092773437,-9.588777648925781,1.3455413330078123,0,0,0,0
0.12180876400088891,-0.8499415893554687,-9.574412438964844,1.3646949462890625,0,0,0,0
0.12290434198803268,-0.8379705810546875,-9.56962403564453,1.3838485595703125,0,0,0,0
0.12399364299199078,-0.8714894042968749,-9.564835632324218,1.3527239379882812,0,0,0,0
0.12526710800011642,-0.7900865478515624,-9.639055883789062,1.3479355346679687,0,0,0,0
0.12651181399996858,-0.833182177734375,-9.641450085449218,1.2665326782226562,0,0,0,0
0.12791773999924771,-0.8212111694335937,-9.516951599121093,1.2928688964843749,0,0,0,0
0.1291028169944184,-0.9026140258789062,-9.631873278808593,1.3215993164062498,0,0,0,0
0.13071240700082853,-0.8738836059570312,-9.64623848876953,1.369483349609375,0,0,0,0
0.13208561099600047,-0.8283937744140625,-9.56962403564453,1.4341267944335936,0,0,0,0
0.1334387050010264,-0.7781155395507812,-9.581595043945311,1.4173673828125,0,0,0,0
0.13453893100086134,-0.82360537109375,-9.545682019042967,1.3407529296874998,0,0,0,0
0.13565321300120559,-0.8307879760742187,-9.562441430664062,1.4173673828125,0,0,0,0
0.13736296899151057,-0.8020575561523438,-9.588777648925781,1.3215993164062498,0,0,0,0
0.13877322799817193,-0.7972691528320313,-9.636661682128906,1.3718775512695311,0,0,0,0
0.13987960199301597,-0.8786720092773437,-9.667786303710937,1.3215993164062498,0,0,0,0
0.14096679199428763,-0.8738836059570312,-9.770736975097655,1.2808978881835937,0,0,0,0
0.14205296299769543,-0.8643067993164062,-9.572018237304688,1.3072341064453123,0,0,0,0
0.1431413559912471,-0.8714894042968749,-9.605537060546874,1.4125789794921875,0,0,0,0
0.14508466399274766,-0.7757213378906249,-9.593566052246093,1.2904746948242187,0,0,0,0
0.14629012999648694,-0.8379705810546875,-9.583989245605467,1.2808978881835937,0,0,0,0
0.14738578199467156,-0.8283937744140625,-9.545682019042967,1.2928688964843749,0,0,0,0
0.1484841749916086,-0.82360537109375,-9.624690673828125,1.2832920898437499,0,0,0,0
0.14966073399409652,-0.833182177734375,-9.643844287109374,1.4221557861328125,0,0,0,0
0.15153115399880335,-0.8283937744140625,-9.68454571533203,1.2832920898437499,0,0,0,0
0.1526948239916237,-0.8547299926757812,-9.634267480468749,1.2521674682617188,0,0,0,0
0.15383240199298598,-0.8667010009765624,-9.627084875488281,1.35990654296875,0,0,0,0
0.15500721998978406,-0.8810662109374999,-9.60793126220703,1.419761584472656,0,0,0,0
0.15617463098897133,-0.8595183959960937,-9.557653027343749,1.3646949462890625,0,0,0,0
0.15730917199107353,-0.852335791015625,-9.552864624023437,1.3479355346679687,0,0,0,0
0.15891376198851503,-0.8930372192382812,-9.552864624023437,1.2641384765625,0,0,0,0
0.16012800499447621,-0.8667010009765624,-9.603142858886718,1.2785036865234374,0,0,0,0
0.1613304339989554,-0.8068459594726562,-9.670180505371093,1.3263877197265623,0,0,0,0
0.16276652600208763,-0.8451531860351562,-9.708487731933593,1.3431471313476562,0,0,0,0
0.16432365399668925,-0.8858546142578124,-9.639055883789062,1.3048399047851562,0,0,0,0
0.16551536098995712,-0.8451531860351562,-9.622296472167967,1.2425906616210938,0,0,0,0
0.1666872339992551,-0.8882488159179687,-9.617508068847656,1.3263877197265623,0,0,0,0
0.16794755098817404,-0.8834604125976562,-9.545682019042967,1.3096283081054687,0,0,0,0
0.16904522199183702,-0.8954314208984374,-9.557653027343749,1.2737152832031249,0,0,0,0
0.1706812189950142,-0.7733271362304687,-9.56962403564453,1.2425906616210938,0,0,0,0
0.17193974000110757,-0.8092401611328125,-9.658209497070311,1.2473790649414063,0,0,0,0
0.17311742799938656,-0.8403647827148437,-9.60793126220703,1.35990654296875,0,0,0,0
0.174390077998396,-0.8571241943359375,-9.677363110351562,1.2473790649414063,0,0,0,0
0.17611029699037317,-0.9050082275390624,-9.674968908691406,1.2378022583007813,0,0,0,0
0.17734057699271943,-0.9217676391601562,-9.612719665527344,1.369483349609375,0,0,0,0
0.17854809798882343,-0.9002198242187499,-9.6151138671875,1.3646949462890625,0,0,0,0
0.17984241498925257,-0.8667010009765624,-9.612719665527344,1.2665326782226562,0,0,0,0
0.18159579898929223,-0.8355763793945312,-9.605537060546874,1.2856862915039062,0,0,0,0
0.18285811599344015,-0.7876923461914062,-9.662997900390625,1.2832920898437499,0,0,0,0
0.1841914690012345,-0.7254431030273437,-9.662997900390625,1.3000515014648437,0,0,0,0
0.18537236099655274,-0.7757213378906249,-9.667786303710937,1.3048399047851562,0,0,0,0
0.1867199359985534,-0.8212111694335937,-9.655815295410155,1.3527239379882812,0,0,0,0
0.18786962499143556,-0.9026140258789062,-9.629479077148437,1.2832920898437499,0,0,0,0
0.18896453699562699,-0.8762778076171874,-9.557653027343749,1.3048399047851562,0,0,0,0
0.19027933399775065,-0.9193734375,-9.588777648925781,1.3670891479492187,0,0,0,0
0.1914063750009518,-0.8451531860351562,-9.564835632324218,1.3575123413085937,0,0,0,0
0.19248599099228159,-0.7709329345703124,-9.5384994140625,1.3120225097656248,0,0,0,0
0.1938435100018978,-0.8212111694335937,-9.540893615722656,1.2593500732421874,0,0,0,0
0.19564102399453986,-0.8379705810546875,-9.5384994140625,1.3311761230468748,0,0,0,0
0.19682750799984206,-0.7589619262695312,-9.629479077148437,1.3215993164062498,0,0,0,0
0.19791990099474788,-0.8307879760742187,-9.53131680908203,1.2234370483398436,0,0,0,0
0.19900918399798684,-0.7757213378906249,-9.670180505371093,1.3215993164062498,0,0,0,0
0.20078614199883305,-0.9050082275390624,-9.658209497070311,1.4053963745117186,0,0,0,0
0.20203092199517414,-0.8499415893554687,-9.605537060546874,1.407790576171875,0,0,0,0
0.2031251849984983,-0.8882488159179687,-9.593566052246093,1.3383587280273437,0,0,0,0
0.2042190789943561,-0.852335791015625,-9.610325463867188,1.2856862915039062,0,0,0,0
0.20611033200111706,-0.8403647827148437,-9.536105212402344,1.3072341064453123,0,0,0,0
0.2074152220011456,-0.8092401611328125,-9.605537060546874,1.3239935180664062,0,0,0,0
0.20856602198909968,-0.7661445312499999,-9.658209497070311,1.2952630981445312,0,0,0,0
0.2097463949903613,-0.8667010009765624,-9.672574707031249,1.3239935180664062,0,0,0,0
0.2110504709999077,-0.8834604125976562,-9.629479077148437,1.3383587280273437,0,0,0,0
0.2121533269964857,-0.8188169677734375,-9.634267480468749,1.2689268798828124,0,0,0,0
0.2132397199893603,-0.8547299926757812,-9.579200842285156,1.2761094848632812,0,0,0,0
0.2143314839922823,-0.814028564453125,-9.579200842285156,1.2378022583007813,0,0,0,0
0.2155130979954265,-0.7805097412109374,-9.636661682128906,1.0749965454101562,0,0,0,0
0.2168041179975262,-0.8020575561523438,-9.540893615722656,1.2569558715820313,0,0,0,0
0.2188944800000172,-0.7422025146484375,-9.698910925292969,1.2832920898437499,0,0,0,0
0.22231854598794598,-0.8499415893554687,-9.694122521972655,1.3718775512695311,0,0,0,0
0.22485631000017747,-0.852335791015625,-9.574412438964844,1.3263877197265623,0,0,0,0
0.22608905300148763,-0.7924807495117187,-9.550470422363281,1.3311761230468748,0,0,0,0
0.22730136998870876,-0.7829039428710937,-9.524134204101562,1.3479355346679687,0,0,0,0
0.22849167000094894,-0.7613561279296874,-9.53131680908203,1.3048399047851562,0,0,0,0
0.22958430399012286,-0.7924807495117187,-9.567229833984374,1.3215993164062498,0,0,0,0
0.23076388100162148,-0.7948749511718749,-9.631873278808593,1.3431471313476562,0,0,0,0
0.2319076619896805,-0.8116343627929687,-9.622296472167967,1.350329736328125,0,0,0,0
0.2330952949996572,-0.8307879760742187,-9.64623848876953,1.2952630981445312,0,0,0,0
0.2342633539956296,-0.9002198242187499,-9.643844287109374,1.3168109130859373,0,0,0,0
0.23535561699827667,-0.8978256225585937,-9.68454571533203,1.3646949462890625,0,0,0,0
0.23645741799555253,-0.8834604125976562,-9.545682019042967,1.4173673828125,0,0,0,0
0.23780775199702475,-0.8547299926757812,-9.576806640625,1.3551181396484375,0,0,0,0
0.23915441999270115,-0.86191259765625,-9.557653027343749,1.3287819213867187,0,0,0,0
0.24057851199177094,-0.8643067993164062,-9.521740002441407,1.3263877197265623,0,0,0,0
0.24175512600049842,-0.8044517578125,-9.555258825683593,1.2808978881835937,0,0,0,0
0.24301633199502248,-0.7852981445312499,-9.639055883789062,1.3096283081054687,0,0,0,0
0.24432074099604506,-0.842758984375,-9.679757312011718,1.2952630981445312,0,0,0,0
0.24547437399451155,-0.8499415893554687,-9.694122521972655,1.2665326782226562,0,0,0,0
0.2469116519932868,-0.8403647827148437,-9.665392102050781,1.2617442749023438,0,0,0,0
0.2483292069955496,-0.8882488159179687,-9.610325463867188,1.3766659545898436,0,0,0,0
0.24944576699635945,-0.8954314208984374,-9.564835632324218,1.369483349609375,0,0,0,0
0.2505389930011006,-0.814028564453125,-9.581595043945311,1.2641384765625,0,0,0,0
0.2519268829928478,-0.8858546142578124,-9.533711010742186,1.37906015625,0,0,0,0
0.25332808699749876,-0.8379705810546875,-9.528922607421874,1.3120225097656248,0,0,0,0
0.2546883280010661,-0.7948749511718749,-9.579200842285156,1.3383587280273437,0,0,0,0
0.255867349987966,-0.7206546997070312,-9.641450085449218,1.3024457031249999,0,0,0,0
0.2571112969890237,-0.8571241943359375,-9.667786303710937,1.3431471313476562,0,0,0,0
0.25829979999980424,-0.8930372192382812,-9.701305126953125,1.3024457031249999,0,0,0,0
0.2596915219910443,-0.8978256225585937,-9.629479077148437,1.3311761230468748,0,0,0,0
0.26103726399014704,-0.8810662109374999,-9.564835632324218,1.3287819213867187,0,0,0,0
0.26231541400193237,-0.8283937744140625,-9.516951599121093,1.3192051147460937,0,0,0,0
0.263573878997704,-0.8116343627929687,-9.5384994140625,1.3383587280273437,0,0,0,0
0.2649358979979297,-0.7637503295898437,-9.631873278808593,1.3766659545898436,0,0,0,0
0.26628836199233774,-0.7948749511718749,-9.631873278808593,1.369483349609375,0,0,0,0
0.2678601559891831,-0.7829039428710937,-9.792284790039062,1.2737152832031249,0,0,0,0
0.26915982499485835,-0.8403647827148437,-9.641450085449218,1.2641384765625,0,0,0,0
0.2706874709983822,-0.8930372192382812,-9.655815295410155,1.2617442749023438,0,0,0,0
0.2720745650003664,-0.9074024291992187,-9.622296472167967,1.2976572998046874,0,0,0,0
0.2732574569963617,-0.86191259765625,-9.540893615722656,1.3168109130859373,0,0,0,0
0.2747205670020776,-0.9026140258789062,-9.552864624023437,1.3168109130859373,0,0,0,0
0.2762551399937365,-0.7852981445312499,-9.552864624023437,1.35990654296875,0,0,0,0
0.2775043639994692,-0.8044517578125,-9.612719665527344,1.3335703247070312,0,0,0,0
0.2786778489971766,-0.7781155395507812,-9.564835632324218,1.3168109130859373,0,0,0,0
0.2798557219939539,-0.8834604125976562,-9.516951599121093,1.2713210815429687,0,0,0,0
0.28112546500051394,-0.8930372192382812,-9.639055883789062,1.3024457031249999,0,0,0,0
0.28259394600172527,-0.8499415893554687,-9.65342109375,1.2737152832031249,0,0,0,0
0.2838933179882588,-0.8690952026367187,-9.641450085449218,1.3479355346679687,0,0,0,0
0.28519400500226766,-0.852335791015625,-9.576806640625,1.3527239379882812,0,0,0,0
0.28646137699251994,-0.8547299926757812,-9.552864624023437,1.5227122558593749,0,0,0,0
0.28786987699277233,-0.82360537109375,-9.394847314453125,1.3168109130859373,0,0,0,0
0.289053120999597,-0.8403647827148437,-9.639055883789062,1.2737152832031249,0,0,0,0
0.2902300689893309,-0.7924807495117187,-9.662997900390625,1.2713210815429687,0,0,0,0
0.29149632999906316,-0.7996633544921875,-9.619902270507811,1.37906015625,0,0,0,0
0.29291721899062395,-0.8762778076171874,-9.658209497070311,1.3527239379882812,0,0,0,0
0.2944214769959217,-0.8451531860351562,-9.629479077148437,1.3479355346679687,0,0,0,0
0.29591627199260984,-0.8786720092773437,-9.593566052246093,1.37906015625,0,0,0,0
0.2978082109912066,-0.833182177734375,-9.579200842285156,1.3335703247070312,0,0,0,0
0.299077915988164,-0.8259995727539062,-9.581595043945311,1.3359645263671873,0,0,0,0
0.3002629929978866,-0.8379705810546875,-9.622296472167967,1.2832920898437499,0,0,0,0
0.30143647799559403,-0.8020575561523438,-9.598354455566406,1.3335703247070312,0,0,0,0
0.3028000709891785,-0.7900865478515624,-9.715670336914062,1.3958195678710936,0,0,0,0
0.3040635729994392,-0.9145850341796874,-9.679757312011718,1.3407529296874998,0,0,0,0
0.3052261879929574,-0.8906430175781249,-9.658209497070311,1.3431471313476562,0,0,0,0
0.30670577999262605,-0.9169792358398436,-9.655815295410155,1.3838485595703125,0,0,0,0
0.30805640999460593,-0.8834604125976562,-9.583989245605467,1.3287819213867187,0,0,0,0
0.3093530420010211,-0.8595183959960937,-9.564835632324218,1.24498486328125,0,0,0,0
0.3105371189885773,-0.7805097412109374,-9.548076220703125,1.2808978881835937,0,0,0,0
0.31205252499785274,-0.6847416748046875,-9.583989245605467,1.3431471313476562,0,0,0,0
0.31334730399248656,-0.7829039428710937,-9.557653027343749,1.3239935180664062,0,0,0,0
0.3146076209959574,-0.8547299926757812,-9.617508068847656,1.3335703247070312,0,0,0,0
0.31582056799379643,-0.8595183959960937,-9.696516723632811,1.3527239379882812,0,0,0,0
0.31726943799003493,-0.8595183959960937,-9.698910925292969,1.3718775512695311,0,0,0,0
0.3186270869919099,-0.852335791015625,-9.643844287109374,1.3263877197265623,0,0,0,0
0.31991668199771084,-0.9145850341796874,-9.581595043945311,1.3407529296874998,0,0,0,0
0.3210931109933881,-0.8786720092773437,-9.598354455566406,1.2018892333984375,0,0,0,0
0.3222607810021145,-0.8092401611328125,-9.627084875488281,1.3000515014648437,0,0,0,0
0.32391192599607166,-0.8475473876953125,-9.6151138671875,1.3646949462890625,0,0,0,0
0.32588406700233463,-0.842758984375,-9.679757312011718,1.3838485595703125,0,0,0,0
0.32764726599270944,-0.8475473876953125,-9.746794958496093,1.3527239379882812,0,0,0,0
0.3296780169912381,-0.9074024291992187,-9.610325463867188,1.199495031738281,0,0,0,0
0.3308785760018509,-0.9265560424804687,-9.605537060546874,1.3096283081054687,0,0,0,0
0.3320380419900175,-0.82360537109375,-9.545682019042967,1.3670891479492187,0,0,0,0
0.333331913992879,-0.833182177734375,-9.557653027343749,1.3311761230468748,0,0,0,0
0.3346837110002525,-0.8355763793945312,-9.5384994140625,1.2617442749023438,0,0,0,0
0.33590100999572314,-0.852335791015625,-9.641450085449218,1.2904746948242187,0,0,0,0
0.336992514989106,-0.8092401611328125,-9.658209497070311,1.3527239379882812,0,0,0,0
0.33849044000089634,-0.8307879760742187,-9.68454571533203,1.2282254516601563,0,0,0,0
0.33980744099244475,-0.8978256225585937,-9.674968908691406,1.2665326782226562,0,0,0,0
0.34105964699119795,-0.7733271362304687,-9.572018237304688,1.3048399047851562,0,0,0,0
0.34216098400065675,-0.8690952026367187,-9.588777648925781,1.2665326782226562,0,0,0,0
0.34325091500068083,-0.8092401611328125,-9.56962403564453,1.2569558715820313,0,0,0,0
0.3444573250017129,-0.814028564453125,-9.581595043945311,1.3072341064453123,0,0,0,0
0.3456082909979159,-0.8379705810546875,-9.540893615722656,1.3958195678710936,0,0,0,0
0.346710591998999,-0.8188169677734375,-9.53131680908203,1.3239935180664062,0,0,0,0
0.34780153998872265,-0.7709329345703124,-9.509768994140625,1.3575123413085937,0,0,0,0
0.34888917399803177,-0.7948749511718749,-9.648632690429688,1.2378022583007813,0,0,0,0
0.3500615109951468,-0.8571241943359375,-9.674968908691406,1.2713210815429687,0,0,0,0
0.3512193659989862,-0.86191259765625,-9.634267480468749,1.3263877197265623,0,0,0,0
0.3523240559879923,-0.8092401611328125,-9.672574707031249,1.3383587280273437,0,0,0,0
0.3534607629990205,-0.82360537109375,-9.605537060546874,1.3431471313476562,0,0,0,0
0.3548799849959323,-0.8403647827148437,-9.600748657226562,1.3359645263671873,0,0,0,0
0.3562747260002652,-0.8068459594726562,-9.574412438964844,1.3479355346679687,0,0,0,0
0.35753774699696805,-0.7685387329101562,-9.600748657226562,1.3096283081054687,0,0,0,0
0.35883741499856114,-0.8212111694335937,-9.622296472167967,1.2665326782226562,0,0,0,0
0.3600201399967773,-0.8212111694335937,-9.612719665527344,1.2904746948242187,0,0,0,0
0.3618117649893975,-0.8451531860351562,-9.658209497070311,1.3096283081054687,0,0,0,0
0.36313428499852307,-0.8882488159179687,-9.65342109375,1.3527239379882812,0,0,0,0
0.36431317699316423,-0.9528922607421875,-9.662997900390625,1.2401964599609374,0,0,0,0
0.3654574949905509,-0.9026140258789062,-9.636661682128906,1.2401964599609374,0,0,0,0
0.366739534001681,-0.8858546142578124,-9.562441430664062,1.37906015625,0,0,0,0
0.36856562198954634,-0.8355763793945312,-9.634267480468749,1.2497732666015624,0,0,0,0
0.36992697398818564,-0.8188169677734375,-9.60793126220703,1.4030021728515625,0,0,0,0
0.3710169969999697,-0.8116343627929687,-9.634267480468749,1.4053963745117186,0,0,0,0
0.3721081869880436,-0.7541735229492187,-9.660603698730467,1.446097802734375,0,0,0,0
0.3732829489890719,-0.8379705810546875,-9.667786303710937,1.2689268798828124,0,0,0,0
0.37512564699864015,-0.9528922607421875,-9.670180505371093,1.3407529296874998,0,0,0,0
0.37638277899532113,-0.9217676391601562,-9.655815295410155,1.3144167114257812,0,0,0,0
0.3779846659890609,-0.8930372192382812,-9.612719665527344,1.2785036865234374,0,0,0,0
0.37932244400144555,-0.86191259765625,-9.564835632324218,1.2904746948242187,0,0,0,0
0.3805853169906186,-0.8643067993164062,-9.550470422363281,1.2761094848632812,0,0,0,0
0.38178170900209807,-0.7733271362304687,-9.574412438964844,1.199495031738281,0,0,0,0
0.38287954599945806,-0.7900865478515624,-9.600748657226562,1.2856862915039062,0,0,0,0
0.3847876509971684,-0.7445967163085937,-9.533711010742186,1.2042834350585936,0,0,0,0
0.3859387099946616,-0.8044517578125,-9.658209497070311,1.3096283081054687,0,0,0,0
0.3871235650003655,-0.8906430175781249,-9.629479077148437,1.2952630981445312,0,0,0,0
0.38861982298840303,-0.86191259765625,-9.583989245605467,1.3335703247070312,0,0,0,0
0.3898346039932221,-0.8714894042968749,-9.603142858886718,1.3623007446289062,0,0,0,0
0.39101858799404,-0.7948749511718749,-9.588777648925781,1.3527239379882812,0,0,0,0
0.3921146479988238,-0.8164227661132812,-9.564835632324218,1.3144167114257812,0,0,0,0
0.39334100199630484,-0.8595183959960937,-9.564835632324218,1.3335703247070312,0,0,0,0
0.3947934829920996,-0.8068459594726562,-9.593566052246093,1.3718775512695311,0,0,0,0
0.39600667099875864,-0.8930372192382812,-9.64623848876953,1.4341267944335936,0,0,0,0
0.3973530239891261,-0.8571241943359375,-9.696516723632811,1.2665326782226562,0,0,0,0
0.39868358099192847,-0.8212111694335937,-9.588777648925781,1.2761094848632812,0,0,0,0
0.4003049489983823,-0.8762778076171874,-9.6151138671875,1.2976572998046874,0,0,0,0
0.4015803209913429,-0.842758984375,-9.667786303710937,1.3670891479492187,0,0,0,0
0.40279148999252357,-0.8355763793945312,-9.586383447265625,1.3168109130859373,0,0,0,0
0.40404858499823604,-0.8092401611328125,-9.550470422363281,1.3359645263671873,0,0,0,0
0.40525577298831195,-0.7589619262695312,-9.540893615722656,1.3646949462890625,0,0,0,0
0.4063534070010064,-0.7972691528320313,-9.524134204101562,1.3168109130859373,0,0,0,0
0.407445299992105,-0.7972691528320313,-9.631873278808593,1.2808978881835937,0,0,0,0
0.4085360819881316,-0.8164227661132812,-9.622296472167967,1.2401964599609374,0,0,0,0
0.40979191799124237,-0.8403647827148437,-9.64623848876953,1.2832920898437499,0,0,0,0
0.4109724759910023,-0.8762778076171874,-9.667786303710937,1.3215993164062498,0,0,0,0
0.4124658270011423,-0.8810662109374999,-9.617508068847656,1.3575123413085937,0,0,0,0
0.41363029400235973,-0.9169792358398436,-9.516951599121093,1.429338391113281,0,0,0,0
0.4148814989894163,-0.9050082275390624,-9.576806640625,1.3383587280273437,0,0,0,0
0.41608405800070614,-0.7685387329101562,-9.526528405761718,1.2880804931640624,0,0,0,0
0.41718587699870113,-0.7948749511718749,-9.581595043945311,1.3646949462890625,0,0,0,0
0.4185845070023788,-0.7805097412109374,-9.581595043945311,1.3000515014648437,0,0,0,0
0.41982580500189215,-0.814028564453125,-9.674968908691406,1.3024457031249999,0,0,0,0
0.4210322899889434,-0.8810662109374999,-9.629479077148437,1.3910311645507811,0,0,0,0
0.4221299979981268,-0.9097966308593749,-9.636661682128906,1.37906015625,0,0,0,0
0.4236304590012878,-0.8714894042968749,-9.603142858886718,1.3000515014648437,0,0,0,0
0.4249427569884574,-0.833182177734375,-9.579200842285156,1.2976572998046874,0,0,0,0
0.42617248199530877,-0.852335791015625,-9.545682019042967,1.3383587280273437,0,0,0,0
0.42726905999006703,-0.8283937744140625,-9.572018237304688,1.467645617675781,0,0,0,0
0.42836369399446994,-0.7924807495117187,-9.5384994140625,1.3958195678710936,0,0,0,0
0.4294561610004166,-0.8068459594726562,-9.579200842285156,1.1923124267578125,0,0,0,0
0.4307518109999364,-0.7876923461914062,-9.53131680908203,1.3646949462890625,0,0,0,0
0.4319424249988515,-0.8283937744140625,-9.6917283203125,1.3814543579101561,0,0,0,0
0.4330487440020079,-0.8762778076171874,-9.677363110351562,1.3670891479492187,0,0,0,0
0.4341344339918578,-0.928950244140625,-9.660603698730467,1.3048399047851562,0,0,0,0
0.43522741900233086,-0.8451531860351562,-9.60793126220703,1.3455413330078123,0,0,0,0
0.4364993659983156,-0.86191259765625,-9.600748657226562,1.2952630981445312,0,0,0,0
0.43768546100181993,-0.8547299926757812,-9.560047229003906,1.254561669921875,0,0,0,0
0.4387860209972132,-0.8451531860351562,-9.56962403564453,1.3263877197265623,0,0,0,0
0.43988502499996684,-0.8355763793945312,-9.564835632324218,1.2808978881835937,0,0,0,0
0.44115274999057874,-0.7900865478515624,-9.56962403564453,1.2521674682617188,0,0,0,0
0.44249519499135204,-0.7302315063476562,-9.591171850585937,1.3646949462890625,0,0,0,0
0.4437669009930687,-0.7326257080078125,-9.519345800781249,1.35990654296875,0,0,0,0
0.4448857569950633,-0.8259995727539062,-9.634267480468749,1.3407529296874998,0,0,0,0
0.44622877599613275,-0.8954314208984374,-9.617508068847656,1.3527239379882812,0,0,0,0
0.4478982540022116,-0.9002198242187499,-9.588777648925781,1.2473790649414063,0,0,0,0
0.44930173599277623,-0.8355763793945312,-9.605537060546874,1.2713210815429687,0,0,0,0
0.4505999599932693,-0.7972691528320313,-9.598354455566406,1.3072341064453123,0,0,0,0
0.45205505199555773,-0.7517793212890624,-9.526528405761718,1.2856862915039062,0,0,0,0
0.4533141839929158,-0.8044517578125,-9.543287817382812,1.24498486328125,0,0,0,0
0.45469418399443384,-0.7781155395507812,-9.636661682128906,1.3551181396484375,0,0,0,0
0.4560491669981275,-0.8068459594726562,-9.662997900390625,1.3551181396484375,0,0,0,0
0.45770444099616725,-0.8547299926757812,-9.785102185058593,1.2785036865234374,0,0,0,0
0.45898340598796494,-1.0486603271484374,-9.634267480468749,1.3287819213867187,0,0,0,0
0.4604100360011216,-0.8667010009765624,-9.528922607421874,1.2904746948242187,0,0,0,0
0.46187203499721363,-0.8714894042968749,-9.588777648925781,1.3168109130859373,0,0,0,0
0.4631972959905397,-0.7924807495117187,-9.583989245605467,1.3670891479492187,0,0,0,0
0.4645379079884151,-0.7876923461914062,-9.619902270507811,1.2425906616210938,0,0,0,0
0.4660145369998645,-0.8307879760742187,-9.658209497070311,1.3096283081054687,0,0,0,0
0.4673542969976552,-0.8930372192382812,-9.734823950195311,1.2785036865234374,0,0,0,0
0.4685874290007632,-0.8762778076171874,-9.670180505371093,1.3407529296874998,0,0,0,0
0.4699759289942449,-0.8906430175781249,-9.667786303710937,1.3551181396484375,0,0,0,0
0.4714789099962218,-0.8379705810546875,-9.603142858886718,1.3575123413085937,0,0,0,0
0.4730102969915606,-0.8738836059570312,-9.591171850585937,1.350329736328125,0,0,0,0
0.47419767099199817,-0.8020575561523438,-9.588777648925781,1.3383587280273437,0,0,0,0
0.47534261900000274,-0.7829039428710937,-9.504980590820312,1.3718775512695311,0,0,0,0
0.47704226299538277,-0.7278373046875,-9.619902270507811,1.2569558715820313,0,0,0,0
0.4784468009893317,-0.82360537109375,-9.682151513671874,1.3096283081054687,0,0,0,0
0.48015612999734003,-0.9409212524414062,-9.593566052246093,1.3359645263671873,0,0,0,0
0.48134478100109845,-0.9026140258789062,-9.660603698730467,1.3742717529296875,0,0,0,0
0.4830964249995304,-0.8810662109374999,-9.579200842285156,1.2976572998046874,0,0,0,0
0.48453653599426616,-0.86191259765625,-9.600748657226562,1.3096283081054687,0,0,0,0
0.48596248000103515,-0.8379705810546875,-9.600748657226562,1.3646949462890625,0,0,0,0
0.487190168001689,-0.7948749511718749,-9.595960253906249,1.3144167114257812,0,0,0,0
0.4885826870013261,-0.8451531860351562,-9.658209497070311,1.3407529296874998,0,0,0,0
0.489939854000113,-0.8116343627929687,-9.751583361816406,1.4006079711914061,0,0,0,0
0.4913938169920584,-0.7613561279296874,-9.713276135253906,1.4413093994140624,0,0,0,0
0.49264080099237617,-0.82360537109375,-9.612719665527344,1.2952630981445312,0,0,0,0
0.4937596189993201,-0.8643067993164062,-9.567229833984374,1.2521674682617188,0,0,0,0
0.4948396419931669,-0.9265560424804687,-9.5384994140625,1.3359645263671873,0,0,0,0
0.49607527400075924,-0.9313444458007812,-9.60793126220703,1.3551181396484375,0,0,0,0
0.49741790498956107,-0.8882488159179687,-9.576806640625,1.3144167114257812,0,0,0,0
0.4985375389951514,-0.8259995727539062,-9.543287817382812,1.2904746948242187,0,0,0,0
0.4996436169894878,-0.8667010009765624,-9.622296472167967,1.3311761230468748,0,0,0,0
0.5008797859918559,-0.7709329345703124,-9.651026892089844,1.35990654296875,0,0,0,0
0.5021368619927671,-0.8355763793945312,-9.732429748535155,1.3359645263671873,0,0,0,0
0.5033898639958352,-0.9121908325195311,-9.68454571533203,1.3311761230468748,0,0,0,0
0.5045459419925464,-0.8762778076171874,-9.634267480468749,1.2952630981445312,0,0,0,0
0.5057726109953364,-0.8403647827148437,-9.562441430664062,1.39821376953125,0,0,0,0
0.5071600369992666,-0.8858546142578124,-9.598354455566406,1.235408056640625,0,0,0,0
0.5082545229961397,-0.8355763793945312,-9.562441430664062,1.2234370483398436,0,0,0,0
0.5093295279948507,-0.8403647827148437,-9.540893615722656,1.3263877197265623,0,0,0,0
0.5104023099993356,-0.8068459594726562,-9.567229833984374,1.37906015625,0,0,0,0
0.5114520929928403,-0.8259995727539062,-9.634267480468749,1.2928688964843749,0,0,0,0
0.5127170949999709,-0.737414111328125,-9.550470422363281,1.3215993164062498,0,0,0,0
0.5139805969956797,-0.6775590698242188,-9.694122521972655,1.3407529296874998,0,0,0,0
0.5154045410017716,-0.9121908325195311,-9.739612353515625,1.3024457031249999,0,0,0,0
0.5166362469899468,-0.9145850341796874,-9.679757312011718,1.2569558715820313,0,0,0,0
0.5179661000001943,-0.8978256225585937,-9.610325463867188,1.3096283081054687,0,0,0,0
0.5192416019999655,-0.8571241943359375,-9.619902270507811,1.3215993164062498,0,0,0,0
0.5204729940014658,-0.842758984375,-9.557653027343749,1.2737152832031249,0,0,0,0
0.5217071259976365,-0.82360537109375,-9.560047229003906,1.2689268798828124,0,0,0,0
0.5229321469960269,-0.842758984375,-9.598354455566406,1.2665326782226562,0,0,0,0
0.5244723669893574,-0.8403647827148437,-9.651026892089844,1.3575123413085937,0,0,0,0
0.5259116819943301,-0.814028564453125,-9.689334118652344,1.2808978881835937,0,0,0,0
0.52713362898794,-0.8164227661132812,-9.636661682128906,1.2689268798828124,0,0,0,0
0.5283515019982588,-0.8954314208984374,-9.662997900390625,1.3838485595703125,0,0,0,0
0.5295655599911697,-0.8714894042968749,-9.639055883789062,1.4030021728515625,0,0,0,0
0.5308641729934607,-0.8690952026367187,-9.56962403564453,1.4149731811523436,0,0,0,0
0.5321878959948663,-0.8810662109374999,-9.56962403564453,1.369483349609375,0,0,0,0
0.5334364909940632,-0.7948749511718749,-9.548076220703125,1.2569558715820313,0,0,0,0
0.5346622340002796,-0.8259995727539062,-9.533711010742186,1.2641384765625,0,0,0,0
0.5359060149930883,-0.8283937744140625,-9.679757312011718,1.3000515014648437,0,0,0,0
0.5371903869963717,-0.8451531860351562,-9.639055883789062,1.2737152832031249,0,0,0,0
0.5384876479947707,-0.8667010009765624,-9.686939916992188,1.2904746948242187,0,0,0,0
0.5397888709994731,-0.8762778076171874,-9.567229833984374,1.4006079711914061,0,0,0,0
0.5409877819911344,-0.8667010009765624,-9.576806640625,1.429338391113281,0,0,0,0
0.5422354319889564,-0.8475473876953125,-9.576806640625,1.419761584472656,0,0,0,0
0.543466767994687,-0.8690952026367187,-9.586383447265625,1.3239935180664062,0,0,0,0
0.5448046579986112,-0.86191259765625,-9.524134204101562,1.3670891479492187,0,0,0,0
0.5461553249915596,-0.7924807495117187,-9.658209497070311,1.3623007446289062,0,0,0,0
0.5476387319940841,-0.7948749511718749,-9.627084875488281,1.3144167114257812,0,0,0,0
0.549053416994866,-0.7924807495117187,-9.662997900390625,1.3575123413085937,0,0,0,0
0.5504360100021586,-0.833182177734375,-9.598354455566406,1.2665326782226562,0,0,0,0
0.5518169369897805,-0.9002198242187499,-9.591171850585937,1.2593500732421874,0,0,0,0
0.5531105129921343,-0.8667010009765624,-9.588777648925781,1.2856862915039062,0,0,0,0
0.5543730329954997,-0.8499415893554687,-9.564835632324218,1.3479355346679687,0,0,0,0
0.555672552989563,-0.8307879760742187,-9.557653027343749,1.4149731811523436,0,0,0,0
0.5570693129993742,-0.7852981445312499,-9.521740002441407,1.4221557861328125,0,0,0,0
0.5583828879898647,-0.7924807495117187,-9.6151138671875,1.4963760375976562,0,0,0,0
0.5596633899986045,-0.8044517578125,-9.502586389160156,1.2976572998046874,0,0,0,0
0.5609059849957703,-0.7709329345703124,-9.677363110351562,1.369483349609375,0,0,0,0
0.5622132089920342,-0.8571241943359375,-9.622296472167967,1.3383587280273437,0,0,0,0
0.563463710990618,-0.8595183959960937,-9.629479077148437,1.3455413330078123,0,0,0,0
0.5646562319889199,-0.8595183959960937,-9.60793126220703,1.2904746948242187,0,0,0,0
0.565785976999905,-0.9121908325195311,-9.598354455566406,1.3000515014648437,0,0,0,0
0.5670325349929044,-0.8355763793945312,-9.557653027343749,1.3766659545898436,0,0,0,0
0.5682430000015302,-0.7924807495117187,-9.557653027343749,1.407790576171875,0,0,0,0
0.5693483009963529,-0.8212111694335937,-9.586383447265625,1.3072341064453123,0,0,0,0
0.570438490001834,-0.7805097412109374,-9.600748657226562,1.3670891479492187,0,0,0,0
0.5715253649977967,-0.7781155395507812,-9.624690673828125,1.3814543579101561,0,0,0,0
0.5727935519971652,-0.8571241943359375,-9.674968908691406,1.3024457031249999,0,0,0,0
0.5740552209899761,-0.8738836059570312,-9.636661682128906,1.2880804931640624,0,0,0,0
0.5752269279910251,-0.8762778076171874,-9.598354455566406,1.3000515014648437,0,0,0,0
0.5763573209987953,-0.8475473876953125,-9.631873278808593,1.2785036865234374,0,0,0,0
0.5774495289952029,-0.8283937744140625,-9.579200842285156,1.3215993164062498,0,0,0,0
0.5787073639949085,-0.8499415893554687,-9.502586389160156,1.3000515014648437,0,0,0,0
0.5799352739995811,-0.7781155395507812,-9.548076220703125,1.3646949462890625,0,0,0,0
0.5810282780003035,-0.8355763793945312,-9.562441430664062,1.369483349609375,0,0,0,0
0.582264872995438,-0.7661445312499999,-9.6151138671875,1.3048399047851562,0,0,0,0
0.5835590789938578,-0.8164227661132812,-9.631873278808593,1.235408056640625,0,0,0,0
0.5847986549924826,-0.8044517578125,-9.634267480468749,1.2042834350585936,0,0,0,0
0.5859852689900436,-0.8355763793945312,-9.622296472167967,1.2737152832031249,0,0,0,0
0.5871876789897215,-0.9002198242187499,-9.631873278808593,1.3048399047851562,0,0,0,0
0.5883608309959527,-0.9193734375,-9.579200842285156,1.3192051147460937,0,0,0,0
0.5894589090021327,-0.8403647827148437,-9.572018237304688,1.5131354492187499,0,0,0,0
0.5907206699921517,-0.8116343627929687,-9.579200842285156,1.3048399047851562,0,0,0,0
0.59192924699164,-0.82360537109375,-9.550470422363281,1.2737152832031249,0,0,0,0
0.5930281589971855,-0.8451531860351562,-9.643844287109374,1.2425906616210938,0,0,0,0
0.5941518850013381,-0.8667010009765624,-9.64623848876953,1.3335703247070312,0,0,0,0
0.595422812999459,-0.9097966308593749,-9.706093530273437,1.3335703247070312,0,0,0,0
0.5967671659891494,-0.8571241943359375,-9.588777648925781,1.3623007446289062,0,0,0,0
0.5979873909964226,-0.9097966308593749,-9.627084875488281,1.3646949462890625,0,0,0,0
0.5991538939997554,-0.9241618408203125,-9.631873278808593,1.37906015625,0,0,0,0
0.6003413779981202,-0.8690952026367187,-9.60793126220703,1.3718775512695311,0,0,0,0
0.6014776599913603,-0.7996633544921875,-9.593566052246093,1.2952630981445312,0,0,0,0
0.6027418659941759,-0.8714894042968749,-9.536105212402344,1.2880804931640624,0,0,0,0
0.6039709789911285,-0.8547299926757812,-9.634267480468749,1.3311761230468748,0,0,0,0
0.6052692769881105,-0.8547299926757812,-9.612719665527344,1.2976572998046874,0,0,0,0
0.6065153539966559,-0.8283937744140625,-9.634267480468749,1.2832920898437499,0,0,0,0
0.6077982439892367,-0.8571241943359375,-9.639055883789062,1.2856862915039062,0,0,0,0
0.6089335259894142,-0.8906430175781249,-9.674968908691406,1.2737152832031249,0,0,0,0
0.6101073989993893,-0.9193734375,-9.655815295410155,1.3263877197265623,0,0,0,0
0.6114253080013441,-0.9002198242187499,-9.624690673828125,1.3958195678710936,0,0,0,0
0.6127587349910755,-0.8643067993164062,-9.545682019042967,1.3742717529296875,0,0,0,0
0.6141299209994031,-0.8259995727539062,-9.528922607421874,1.3718775512695311,0,0,0,0
0.6153863859944977,-0.82360537109375,-9.507374792480467,1.2976572998046874,0,0,0,0
0.6166617209964897,-0.8283937744140625,-9.64623848876953,1.2497732666015624,0,0,0,0
0.6178993159992388,-0.8978256225585937,-9.651026892089844,1.3479355346679687,0,0,0,0
0.6192890940001234,-0.7996633544921875,-9.732429748535155,1.3527239379882812,0,0,0,0
0.6206653729896061,-0.8379705810546875,-9.674968908691406,1.3479355346679687,0,0,0,0
0.6219520599988755,-0.9002198242187499,-9.583989245605467,1.35990654296875,0,0,0,0
0.6232836159906583,-0.8762778076171874,-9.610325463867188,1.3742717529296875,0,0,0,0
0.6246502470021369,-0.842758984375,-9.502586389160156,1.2952630981445312,0,0,0,0
0.6259422479924979,-0.8571241943359375,-9.533711010742186,1.3000515014648437,0,0,0,0
0.6274077659909381,-0.8834604125976562,-9.536105212402344,1.3120225097656248,0,0,0,0
0.6287048789963592,-0.842758984375,-9.595960253906249,1.3383587280273437,0,0,0,0
0.6299030859954655,-0.8020575561523438,-9.670180505371093,1.3215993164062498,0,0,0,0
0.6312618090014439,-0.7829039428710937,-9.677363110351562,1.3910311645507811,0,0,0,0
0.6324370709917275,-0.8092401611328125,-9.801861596679688,1.3766659545898436,0,0,0,0
0.6337893869931577,-0.8499415893554687,-9.540893615722656,1.4149731811523436,0,0,0,0
0.6348897059942828,-0.8547299926757812,-9.564835632324218,1.3814543579101561,0,0,0,0
0.6362409290013602,-0.8283937744140625,-9.548076220703125,1.4053963745117186,0,0,0,0
0.6375364119885489,-0.8643067993164062,-9.552864624023437,1.3455413330078123,0,0,0,0
0.6387880069960374,-0.8499415893554687,-9.509768994140625,1.3192051147460937,0,0,0,0
0.6400312679907074,-0.8283937744140625,-9.660603698730467,1.3814543579101561,0,0,0,0
0.6412131599936401,-0.86191259765625,-9.667786303710937,1.3168109130859373,0,0,0,0
0.6425125509995269,-0.8834604125976562,-9.68454571533203,1.3048399047851562,0,0,0,0
0.643978865002282,-0.8571241943359375,-9.636661682128906,1.2808978881835937,0,0,0,0
0.6454617720009992,-0.8667010009765624,-9.605537060546874,1.3383587280273437,0,0,0,0
0.6466887739952654,-0.8595183959960937,-9.552864624023437,1.4221557861328125,0,0,0,0
0.647872813991853,-0.8355763793945312,-9.617508068847656,1.350329736328125,0,0,0,0
0.6490600029937923,-0.8403647827148437,-9.576806640625,1.3192051147460937,0,0,0,0
0.6502372469985858,-0.7996633544921875,-9.516951599121093,1.3479355346679687,0,0,0,0
0.6513385469879722,-0.7805097412109374,-9.564835632324218,1.35990654296875,0,0,0,0
0.652444902996649,-0.7900865478515624,-9.622296472167967,1.2928688964843749,0,0,0,0
0.6536264249880332,-0.8020575561523438,-9.686939916992188,1.3263877197265623,0,0,0,0
0.6548307049961295,-0.852335791015625,-9.725247143554688,1.3096283081054687,0,0,0,0
0.6560175049962709,-0.9097966308593749,-9.629479077148437,1.2785036865234374,0,0,0,0
0.6572605249966728,-0.8571241943359375,-9.624690673828125,1.2617442749023438,0,0,0,0
0.6584688989969436,-0.8762778076171874,-9.622296472167967,1.3215993164062498,0,0,0,0
0.6596464390022447,-0.8930372192382812,-9.564835632324218,1.3192051147460937,0,0,0,0
0.6608358489902457,-0.9026140258789062,-9.555258825683593,1.2425906616210938,0,0,0,0
0.6620130929950392,-0.8044517578125,-9.516951599121093,1.3168109130859373,0,0,0,0
0.6631096899945987,-0.7493851196289062,-9.581595043945311,1.3048399047851562,0,0,0,0
0.66419828699145,-0.7661445312499999,-9.631873278808593,1.3431471313476562,0,0,0,0
0.6652853279956616,-0.8092401611328125,-9.667786303710937,1.3670891479492187,0,0,0,0
0.666480182990199,-0.7924807495117187,-9.686939916992188,1.3168109130859373,0,0,0,0
0.6676637420023326,-0.8882488159179687,-9.782707983398437,1.3431471313476562,0,0,0,0
0.668760967993876,-0.8954314208984374,-9.579200842285156,1.448492004394531,0,0,0,0
0.6698473239957821,-0.86191259765625,-9.619902270507811,1.3287819213867187,0,0,0,0
0.6710219199885614,-0.8068459594726562,-9.617508068847656,1.2593500732421874,0,0,0,0
0.6721967749908799,-0.7709329345703124,-9.593566052246093,1.3311761230468748,0,0,0,0
0.6732933530001901,-0.7900865478515624,-9.572018237304688,1.3527239379882812,0,0,0,0
0.6743721359962365,-0.7996633544921875,-9.555258825683593,1.3838485595703125,0,0,0,0
0.6759485969960224,-0.8092401611328125,-9.674968908691406,1.2617442749023438,0,0,0,0
0.6771449329971801,-0.814028564453125,-9.648632690429688,1.2569558715820313,0,0,0,0
0.6783481759921415,-0.8475473876953125,-9.698910925292969,1.3263877197265623,0,0,0,0
0.6794514770008391,-0.8643067993164062,-9.720458740234374,1.35990654296875,0,0,0,0
0.6805371109949192,-0.9026140258789062,-9.660603698730467,1.3862427612304686,0,0,0,0
0.6816239670006325,-0.8403647827148437,-9.579200842285156,1.3958195678710936,0,0,0,0
0.6827998039952945,-0.8547299926757812,-9.562441430664062,1.2976572998046874,0,0,0,0
0.6839784549956676,-0.8283937744140625,-9.557653027343749,1.2952630981445312,0,0,0,0
0.6850738299981458,-0.8068459594726562,-9.560047229003906,1.2976572998046874,0,0,0,0
0.6861604449950391,-0.737414111328125,-9.636661682128906,1.3407529296874998,0,0,0,0
0.687251634997665,-0.7254431030273437,-9.617508068847656,1.3335703247070312,0,0,0,0
0.688461321988143,-0.7852981445312499,-9.686939916992188,1.2952630981445312,0,0,0,0
0.6896120669989614,-0.8259995727539062,-9.672574707031249,1.209071838378906,0,0,0,0
0.6907043489918578,-0.8762778076171874,-9.751583361816406,1.3215993164062498,0,0,0,0
0.6918545929947868,-1.0510545288085937,-9.593566052246093,1.4030021728515625,0,0,0,0
0.6930939839949133,-0.8499415893554687,-9.555258825683593,1.3766659545898436,0,0,0,0
0.6944164489977993,-0.8379705810546875,-9.562441430664062,1.3168109130859373,0,0,0,0
0.6956241549924016,-0.833182177734375,-9.524134204101562,1.3407529296874998,0,0,0,0
0.6967413629899966,-0.8762778076171874,-9.552864624023437,1.3359645263671873,0,0,0,0
0.6978323669900419,-0.7972691528320313,-9.588777648925781,1.3407529296874998,0,0,0,0
0.6990082219999749,-0.8044517578125,-9.65342109375,1.2952630981445312,0,0,0,0
0.7001738179969834,-0.8355763793945312,-9.679757312011718,1.3814543579101561,0,0,0,0
0.7012694889999693,-0.8403647827148437,-9.708487731933593,1.3359645263671873,0,0,0,0
0.7023556779895443,-0.8092401611328125,-9.674968908691406,1.350329736328125,0,0,0,0
0.7034446829929948,-0.8188169677734375,-9.627084875488281,1.22583125,0,0,0,0
0.7046279269998195,-0.8834604125976562,-9.595960253906249,1.3742717529296875,0,0,0,0
0.7057772080006544,-0.8930372192382812,-9.588777648925781,1.3311761230468748,0,0,0,0
0.7069648030010285,-0.82360537109375,-9.600748657226562,1.39821376953125,0,0,0,0
0.7080813069915166,-0.852335791015625,-9.545682019042967,1.4053963745117186,0,0,0,0
0.7091717189905467,-0.7948749511718749,-9.598354455566406,1.3670891479492187,0,0,0,0
0.7107356429914944,-0.7709329345703124,-9.639055883789062,1.3072341064453123,0,0,0,0
0.7122918819950428,-0.8020575561523438,-9.660603698730467,1.2713210815429687,0,0,0,0
0.7133886270021321,-0.8978256225585937,-9.698910925292969,1.1923124267578125,0,0,0,0
0.7144728349958314,-0.9241618408203125,-9.643844287109374,1.3670891479492187,0,0,0,0
0.7155595619988162,-0.8978256225585937,-9.634267480468749,1.426944189453125,0,0,0,0
0.7168723039940232,-0.9169792358398436,-9.581595043945311,1.35990654296875,0,0,0,0
0.7181466019974323,-0.8858546142578124,-9.552864624023437,1.3048399047851562,0,0,0,0
0.7192813099973137,-0.8403647827148437,-9.605537060546874,1.2593500732421874,0,0,0,0
0.7203750920016319,-0.814028564453125,-9.579200842285156,1.3646949462890625,0,0,0,0
0.7214597069978481,-0.8355763793945312,-9.605537060546874,1.235408056640625,0,0,0,0
0.7225451189879095,-0.8259995727539062,-9.557653027343749,1.2713210815429687,0,0,0,0
0.7244008729903726,-0.8571241943359375,-9.639055883789062,1.3335703247070312,0,0,0,0
0.725521079992177,-0.8283937744140625,-9.660603698730467,1.350329736328125,0,0,0,0
0.7266496949887369,-0.8858546142578124,-9.598354455566406,1.3479355346679687,0,0,0,0
0.7277883469942026,-0.8762778076171874,-9.612719665527344,1.37906015625,0,0,0,0
0.7302927220007405,-0.8307879760742187,-9.610325463867188,1.3670891479492187,0,0,0,0
0.7320466620003572,-0.8571241943359375,-9.557653027343749,1.350329736328125,0,0,0,0
0.7339213969971752,-0.7924807495117187,-9.629479077148437,1.3431471313476562,0,0,0,0
0.7359998319880106,-0.8068459594726562,-9.629479077148437,1.3048399047851562,0,0,0,0
0.7376057559886249,-0.8164227661132812,-9.662997900390625,1.2713210815429687,0,0,0,0
0.7395199349994073,-0.8643067993164062,-9.581595043945311,1.3096283081054687,0,0,0,0
0.7414141509943875,-0.8930372192382812,-9.526528405761718,1.4030021728515625,0,0,0,0
0.7426720049988944,-0.86191259765625,-9.512163195800781,1.3407529296874998,0,0,0,0
0.7438371189928148,-0.8044517578125,-9.490615380859374,1.2114660400390624,0,0,0,0
0.7449368829984451,-0.8212111694335937,-9.593566052246093,1.350329736328125,0,0,0,0
0.7467132849997142,-0.7661445312499999,-9.643844287109374,1.2401964599609374,0,0,0,0
0.748004138993565,-0.8188169677734375,-9.686939916992188,1.2832920898437499,0,0,0,0
0.749183419990004,-0.8906430175781249,-9.665392102050781,1.407790576171875,0,0,0,0
0.7503543310012901,-0.8762778076171874,-9.643844287109374,1.3215993164062498,0,0,0,0
0.7515307969879359,-0.8547299926757812,-9.629479077148437,1.3718775512695311,0,0,0,0
0.7532912549941102,-0.8571241943359375,-9.65342109375,1.3048399047851562,0,0,0,0
0.7547403469943674,-0.8762778076171874,-9.595960253906249,1.3455413330078123,0,0,0,0
0.7560794599994551,-0.7924807495117187,-9.588777648925781,1.35990654296875,0,0,0,0
0.7574452010012465,-0.8547299926757812,-9.658209497070311,1.2521674682617188,0,0,0,0
0.7585576499986928,-0.8475473876953125,-9.801861596679688,1.3000515014648437,0,0,0,0
0.7597627079958329,-0.8164227661132812,-9.737218151855469,1.3144167114257812,0,0,0,0
0.760941914995783,-0.8379705810546875,-9.634267480468749,1.4101847778320311,0,0,0,0
0.7620410489907954,-0.8403647827148437,-9.634267480468749,1.3239935180664062,0,0,0,0
0.7631288859993219,-0.8259995727539062,-9.591171850585937,1.3263877197265623,0,0,0,0
0.7643932219943963,-0.8212111694335937,-9.567229833984374,1.3168109130859373,0,0,0,0
0.7656168909888947,-0.8188169677734375,-9.545682019042967,1.4245499877929686,0,0,0,0
0.7669058559986297,-0.7781155395507812,-9.536105212402344,1.3838485595703125,0,0,0,0
0.7681440059968736,-0.7948749511718749,-9.572018237304688,1.3814543579101561,0,0,0,0
0.769238269989728,-0.8020575561523438,-9.624690673828125,1.2928688964843749,0,0,0,0
0.7703221439878689,-0.7541735229492187,-9.658209497070311,1.2521674682617188,0,0,0,0
0.7714078889985103,-0.7876923461914062,-9.622296472167967,1.2832920898437499,0,0,0,0
0.7726647249946836,-0.8930372192382812,-9.622296472167967,1.2880804931640624,0,0,0,0
0.7738436349900439,-0.8762778076171874,-9.567229833984374,1.3048399047851562,0,0,0,0
0.7749407689989312,-0.9121908325195311,-9.6917283203125,1.3575123413085937,0,0,0,0
0.7760259770002449,-0.9265560424804687,-9.634267480468749,1.2785036865234374,0,0,0,0
0.7771002230001613,-0.8667010009765624,-9.576806640625,1.35990654296875,0,0,0,0
0.7785510929970769,-0.8451531860351562,-9.612719665527344,1.2904746948242187,0,0,0,0
0.7799274269927992,-0.7900865478515624,-9.6917283203125,1.3048399047851562,0,0,0,0
0.7811349849944236,-0.7326257080078125,-9.696516723632811,1.3263877197265623,0,0,0,0
0.7823316540016094,-0.7685387329101562,-9.660603698730467,1.2665326782226562,0,0,0,0
0.7835844899964286,-0.7565677246093749,-9.612719665527344,1.3910311645507811,0,0,0,0
0.7847696779936086,-0.833182177734375,-9.593566052246093,1.35990654296875,0,0,0,0
0.7859747920010705,-0.8643067993164062,-9.586383447265625,1.3670891479492187,0,0,0,0
0.7871136289904825,-0.9313444458007812,-9.627084875488281,1.3383587280273437,0,0,0,0
0.7882302439975319,-0.8810662109374999,-9.562441430664062,1.3335703247070312,0,0,0,0
0.7895612819993403,-0.8690952026367187,-9.552864624023437,1.2713210815429687,0,0,0,0
0.7908402659959393,-0.9050082275390624,-9.536105212402344,1.3383587280273437,0,0,0,0
0.7919796209898777,-0.7900865478515624,-9.624690673828125,1.2617442749023438,0,0,0,0
0.7930724589969032,-0.7733271362304687,-9.581595043945311,1.2880804931640624,0,0,0,0
0.7943037020013435,-0.8451531860351562,-9.612719665527344,1.2617442749023438,0,0,0,0
0.7955175379902357,-0.8547299926757812,-9.682151513671874,1.22583125,0,0,0,0
0.7966296529921237,-0.8810662109374999,-9.696516723632811,1.1923124267578125,0,0,0,0
0.7977574719989207,-0.8379705810546875,-9.598354455566406,1.2425906616210938,0,0,0,0
0.7992114899971057,-0.8738836059570312,-9.579200842285156,1.254561669921875,0,0,0,0
0.8005686579999747,-0.8930372192382812,-9.552864624023437,1.3215993164062498,0,0,0,0
0.8017369019944454,-0.9265560424804687,-9.516951599121093,1.3646949462890625,0,0,0,0
0.802877145993989,-0.9074024291992187,-9.593566052246093,1.3575123413085937,0,0,0,0
0.8041275189898442,-0.7829039428710937,-9.639055883789062,1.3000515014648437,0,0,0,0
0.8053170589992078,-0.8164227661132812,-9.634267480468749,1.24498486328125,0,0,0,0
0.8066966149926884,-0.7996633544921875,-9.713276135253906,1.199495031738281,0,0,0,0
0.8079971719998866,-0.8451531860351562,-9.593566052246093,1.2641384765625,0,0,0,0
0.8092602109973086,-0.9050082275390624,-9.629479077148437,1.2617442749023438,0,0,0,0
0.8105340089969104,-0.9193734375,-9.76116016845703,1.3239935180664062,0,0,0,0
0.8116814019886078,-0.8762778076171874,-9.564835632324218,1.3551181396484375,0,0,0,0
0.8127724059886532,-0.8259995727539062,-9.507374792480467,1.3431471313476562,0,0,0,0
0.8138578359939856,-0.7900865478515624,-9.526528405761718,1.3862427612304686,0,0,0,0
0.8149426919990219,-0.8092401611328125,-9.682151513671874,1.369483349609375,0,0,0,0
0.8163104519917397,-0.8164227661132812,-9.660603698730467,1.3431471313476562,0,0,0,0
0.8175052699953085,-0.8283937744140625,-9.651026892089844,1.2928688964843749,0,0,0,0
0.8186686809931416,-0.8307879760742187,-9.64623848876953,1.3120225097656248,0,0,0,0
0.8197674069961067,-0.8858546142578124,-9.641450085449218,1.2904746948242187,0,0,0,0
0.820945113999187,-0.8571241943359375,-9.643844287109374,1.2521674682617188,0,0,0,0
0.822292781987926,-0.8930372192382812,-9.6151138671875,1.3311761230468748,0,0,0,0
0.8235911349911476,-0.9193734375,-9.634267480468749,1.3407529296874998,0,0,0,0
0.8247690459975274,-0.814028564453125,-9.593566052246093,1.3934253662109375,0,0,0,0
0.8260683069966035,-0.8020575561523438,-9.586383447265625,1.3359645263671873,0,0,0,0
0.827242364990525,-0.7876923461914062,-9.636661682128906,1.2713210815429687,0,0,0,0
0.8283442579995608,-0.7685387329101562,-9.610325463867188,1.3263877197265623,0,0,0,0
0.8295278360019438,-0.8092401611328125,-9.509768994140625,1.3359645263671873,0,0,0,0
0.8307119870005408,-0.8068459594726562,-9.636661682128906,1.4173673828125,0,0,0,0
0.8319330079975771,-0.9074024291992187,-9.689334118652344,1.3670891479492187,0,0,0,0
0.8330936970014591,-0.8882488159179687,-9.612719665527344,1.4030021728515625,0,0,0,0
0.8341839599888772,-0.8954314208984374,-9.564835632324218,1.3623007446289062,0,0,0,0
0.8352677239890909,-0.8451531860351562,-9.579200842285156,1.3479355346679687,0,0,0,0
0.8368640919943573,-0.7972691528320313,-9.533711010742186,1.3096283081054687,0,0,0,0
0.8381250569946133,-0.7972691528320313,-9.610325463867188,1.3263877197265623,0,0,0,0
0.8393250599910971,-0.7733271362304687,-9.667786303710937,1.2761094848632812,0,0,0,0
0.8404336749954382,-0.7829039428710937,-9.629479077148437,1.2114660400390624,0,0,0,0
0.84152056799212,-0.8667010009765624,-9.651026892089844,1.1851298217773436,0,0,0,0
0.8426094429887598,-0.8643067993164062,-9.770736975097655,1.3048399047851562,0,0,0,0
0.8439837399928365,-0.8930372192382812,-9.639055883789062,1.2832920898437499,0,0,0,0
0.8452504079905339,-0.93852705078125,-9.660603698730467,1.3192051147460937,0,0,0,0
0.8463859309995314,-0.8906430175781249,-9.574412438964844,1.254561669921875,0,0,0,0
0.8474841199931689,-0.8475473876953125,-9.591171850585937,1.2928688964843749,0,0,0,0
0.848571031994652,-0.8092401611328125,-9.526528405761718,1.3239935180664062,0,0,0,0
0.849742886988679,-0.814028564453125,-9.595960253906249,1.2976572998046874,0,0,0,0
0.8511700719973305,-0.8092401611328125,-9.639055883789062,1.3168109130859373,0,0,0,0
0.8524294629896758,-0.7781155395507812,-9.665392102050781,1.22583125,0,0,0,0
0.8537256869894918,-0.7757213378906249,-9.670180505371093,1.2497732666015624,0,0,0,0
0.8549227639887249,-0.8690952026367187,-9.698910925292969,1.2617442749023438,0,0,0,0
0.8561415259900969,-0.8547299926757812,-9.651026892089844,1.2497732666015624,0,0,0,0
0.8574379529891303,-0.8475473876953125,-9.588777648925781,1.3646949462890625,0,0,0,0
0.8586490119923837,-0.8355763793945312,-9.579200842285156,1.35990654296875,0,0,0,0
0.8599008289893391,-0.8786720092773437,-9.543287817382812,1.2306196533203124,0,0,0,0
0.8611685529904207,-0.8451531860351562,-9.540893615722656,1.3048399047851562,0,0,0,0
0.8627015509991907,-0.7948749511718749,-9.581595043945311,1.3192051147460937,0,0,0,0
0.8663118190015666,-0.9026140258789062,-9.617508068847656,1.2665326782226562,0,0,0,0
0.8685488829942187,-0.8714894042968749,-9.610325463867188,1.4006079711914061,0,0,0,0
0.869942456993158,-0.82360537109375,-9.545682019042967,1.350329736328125,0,0,0,0
0.8713321979885222,-0.833182177734375,-9.509768994140625,1.3096283081054687,0,0,0,0
0.8733093019982334,-0.833182177734375,-9.526528405761718,1.3168109130859373,0,0,0,0
0.8747984309884487,-0.833182177734375,-9.574412438964844,1.4221557861328125,0,0,0,0
0.8763278919941513,-0.8020575561523438,-9.60793126220703,1.3383587280273437,0,0,0,0
0.87782918800076,-0.8690952026367187,-9.670180505371093,1.3287819213867187,0,0,0,0
0.8793126679956913,-0.9241618408203125,-9.631873278808593,1.3479355346679687,0,0,0,0
0.8813001419912325,-0.8786720092773437,-9.56962403564453,1.3646949462890625,0,0,0,0
0.8828341779881157,-0.7996633544921875,-9.600748657226562,1.3670891479492187,0,0,0,0
0.8846993199986173,-0.7637503295898437,-9.634267480468749,1.35990654296875,0,0,0,0
0.8861875969887478,-0.7948749511718749,-9.641450085449218,1.3168109130859373,0,0,0,0
0.8881107939960202,-0.8571241943359375,-9.70369932861328,1.3168109130859373,0,0,0,0
0.8895329049992142,-0.9121908325195311,-9.617508068847656,1.2521674682617188,0,0,0,0
0.8909597570018377,-0.9074024291992187,-9.631873278808593,1.2737152832031249,0,0,0,0
0.8922650359891122,-0.8882488159179687,-9.65342109375,1.2808978881835937,0,0,0,0
0.8939960879943101,-0.8810662109374999,-9.600748657226562,1.3168109130859373,0,0,0,0
0.8953213849890744,-0.833182177734375,-9.627084875488281,1.350329736328125,0,0,0,0
0.8966281280008843,-0.8020575561523438,-9.56962403564453,1.3072341064453123,0,0,0,0
0.897927758996957,-0.7709329345703124,-9.56962403564453,1.2832920898437499,0,0,0,0
0.8992431859951466,-0.7829039428710937,-9.619902270507811,1.3431471313476562,0,0,0,0
0.9004368189926026,-0.8068459594726562,-9.65342109375,1.35990654296875,0,0,0,0
0.9015876369958278,-0.8355763793945312,-9.797073193359374,1.3455413330078123,0,0,0,0
0.9033297069981927,-0.82360537109375,-9.619902270507811,1.1851298217773436,0,0,0,0
0.9045933939923998,-0.9026140258789062,-9.576806640625,1.2880804931640624,0,0,0,0
0.9058549149922328,-0.8738836059570312,-9.564835632324218,1.24498486328125,0,0,0,0
0.9071375279891072,-0.8714894042968749,-9.526528405761718,1.2904746948242187,0,0,0,0
0.9084047700016527,-0.8667010009765624,-9.536105212402344,1.3239935180664062,0,0,0,0
0.9099770829925546,-0.82360537109375,-9.674968908691406,1.3742717529296875,0,0,0,0
0.9113246399938362,-0.8188169677734375,-9.727641345214844,1.2761094848632812,0,0,0,0
0.9126709369884338,-0.8307879760742187,-9.696516723632811,1.3192051147460937,0,0,0,0
0.9138920690020313,-0.852335791015625,-9.65342109375,1.2832920898437499,0,0,0,0
0.9150842019880656,-0.8930372192382812,-9.624690673828125,1.3670891479492187,0,0,0,0
0.9162720199965406,-0.8547299926757812,-9.612719665527344,1.5107412475585937,0,0,0,0
0.9174924300023122,-0.8379705810546875,-9.533711010742186,1.3168109130859373,0,0,0,0
0.9191467229975387,-0.7924807495117187,-9.533711010742186,1.2928688964843749,0,0,0,0
0.9203987619985128,-0.8307879760742187,-9.562441430664062,1.2928688964843749,0,0,0,0
0.9216171169973677,-0.7829039428710937,-9.595960253906249,1.2952630981445312,0,0,0,0
0.9228329339966876,-0.8355763793945312,-9.639055883789062,1.2928688964843749,0,0,0,0
0.9240753249905538,-0.8020575561523438,-9.701305126953125,1.3000515014648437,0,0,0,0
0.9253234569914639,-0.8762778076171874,-9.655815295410155,1.369483349609375,0,0,0,0
0.9265306449960917,-1.0390835205078124,-9.60793126220703,1.2856862915039062,0,0,0,0
0.9283117519953521,-0.8667010009765624,-9.533711010742186,1.4221557861328125,0,0,0,0
0.9296414939890383,-0.7972691528320313,-9.605537060546874,1.3287819213867187,0,0,0,0
0.9312040289951256,-0.7398083129882812,-9.521740002441407,1.2641384765625,0,0,0,0
0.9323740139952861,-0.7445967163085937,-9.581595043945311,1.3000515014648437,0,0,0,0
0.9334900550020393,-0.7996633544921875,-9.586383447265625,1.3096283081054687,0,0,0,0
0.9350137379951775,-0.8283937744140625,-9.658209497070311,1.2401964599609374,0,0,0,0
0.9362192599946866,-0.9026140258789062,-9.629479077148437,1.2641384765625,0,0,0,0
0.9374156330013648,-0.9026140258789062,-9.636661682128906,1.3096283081054687,0,0,0,0
0.93850360000215,-0.8762778076171874,-9.603142858886718,1.2761094848632812,0,0,0,0
0.9395742899941979,-0.8259995727539062,-9.56962403564453,1.3383587280273437,0,0,0,0
0.9407362560014008,-0.8164227661132812,-9.603142858886718,1.2856862915039062,0,0,0,0
0.9418836859986186,-0.7876923461914062,-9.634267480468749,1.2952630981445312,0,0,0,0
0.9429700789914932,-0.7757213378906249,-9.603142858886718,1.3551181396484375,0,0,0,0
0.9440641949913697,-0.86191259765625,-9.631873278808593,1.3048399047851562,0,0,0,0
0.9451365509885363,-0.8714894042968749,-9.5384994140625,1.3239935180664062,0,0,0,0
0.9467085679934826,-0.8283937744140625,-9.694122521972655,1.2569558715820313,0,0,0,0
0.9478718119935365,-0.8475473876953125,-9.605537060546874,1.429338391113281,0,0,0,0
0.9489615569909802,-0.8547299926757812,-9.605537060546874,1.3575123413085937,0,0,0,0
0.9500327279965859,-0.8403647827148437,-9.540893615722656,1.2785036865234374,0,0,0,0
0.9511039549979614,-0.852335791015625,-9.572018237304688,1.2785036865234374,0,0,0,0
0.9522842539881822,-0.8930372192382812,-9.540893615722656,1.4820108276367188,0,0,0,0
0.9534158509923145,-0.852335791015625,-9.574412438964844,1.3383587280273437,0,0,0,0
0.954497298997012,-0.7445967163085937,-9.576806640625,1.2832920898437499,0,0,0,0
0.9555694149894407,-0.7398083129882812,-9.622296472167967,1.2713210815429687,0,0,0,0
0.9566472899896326,-0.814028564453125,-9.648632690429688,1.2808978881835937,0,0,0,0
0.9578007379896007,-0.7829039428710937,-9.68454571533203,1.3311761230468748,0,0,0,0
0.9589530379889766,-0.8690952026367187,-9.60793126220703,1.3646949462890625,0,0,0,0
0.9608915489952778,-0.8810662109374999,-9.64623848876953,1.39821376953125,0,0,0,0
0.9621206820011139,-0.852335791015625,-9.612719665527344,1.4221557861328125,0,0,0,0
0.9632948139915243,-0.8786720092773437,-9.591171850585937,1.3024457031249999,0,0,0,0
0.9644374849885935,-0.82360537109375,-9.598354455566406,1.2497732666015624,0,0,0,0
0.9655184889998054,-0.8547299926757812,-9.545682019042967,1.3359645263671873,0,0,0,0
0.9665852339967387,-0.8164227661132812,-9.524134204101562,1.3000515014648437,0,0,0,0
0.9681186029920354,-0.7230489013671875,-9.641450085449218,1.2761094848632812,0,0,0,0
0.9701223549927818,-0.7829039428710937,-9.639055883789062,1.2808978881835937,0,0,0,0
0.9712710809981218,-0.7757213378906249,-9.744400756835937,1.254561669921875,0,0,0,0
0.9723637150018476,-0.82360537109375,-9.694122521972655,1.2138602416992186,0,0,0,0
0.9735557550011436,-0.8834604125976562,-9.629479077148437,1.3144167114257812,0,0,0,0
0.9748183859919664,-0.8403647827148437,-9.555258825683593,1.3551181396484375,0,0,0,0
0.9760697589954361,-0.8307879760742187,-9.555258825683593,1.3311761230468748,0,0,0,0
0.9771800960006658,-0.8475473876953125,-9.543287817382812,1.4053963745117186,0,0,0,0
0.9782647859974531,-0.8355763793945312,-9.516951599121093,1.4724340209960938,0,0,0,0
0.9793476979975821,-0.8259995727539062,-9.624690673828125,1.2952630981445312,0,0,0,0
0.9804353499930585,-0.7565677246093749,-9.631873278808593,1.3048399047851562,0,0,0,0
0.9816957040020498,-0.8188169677734375,-9.643844287109374,1.2018892333984375,0,0,0,0
0.9828792810003506,-0.8283937744140625,-9.679757312011718,1.235408056640625,0,0,0,0
0.9839829519914929,-0.8786720092773437,-9.689334118652344,1.2497732666015624,0,0,0,0
0.9850667899881955,-0.8930372192382812,-9.641450085449218,1.2880804931640624,0,0,0,0
0.986244514991995,-0.8667010009765624,-9.651026892089844,1.2521674682617188,0,0,0,0
0.9875382019963581,-0.7948749511718749,-9.5384994140625,1.2785036865234374,0,0,0,0
0.9886680759955198,-0.8810662109374999,-9.555258825683593,1.3096283081054687,0,0,0,0
0.9898280240013264,-0.8212111694335937,-9.648632690429688,1.2761094848632812,0,0,0,0
0.9922019559890032,-0.7781155395507812,-9.679757312011718,1.3263877197265623,0,0,0,0
0.9934632730000885,-0.7924807495117187,-9.708487731933593,1.2761094848632812,0,0,0,0
0.9949381240003277,-0.8475473876953125,-9.68454571533203,1.3455413330078123,0,0,0,0
0.9962556809914531,-0.8379705810546875,-9.634267480468749,1.3575123413085937,0,0,0,0
0.9974143329891376,-0.8786720092773437,-9.60793126220703,1.3335703247070312,0,0,0,0
0.9986033169989241,-0.9600748657226562,-9.567229833984374,1.3048399047851562,0,0,0,0
1.0000974639988272,-0.8786720092773437,-9.564835632324218,1.3311761230468748,0,0,0,0
1.0012698749924311,-0.8188169677734375,-9.581595043945311,1.2497732666015624,0,0,0,0
1.0025718949909788,-0.8068459594726562,-9.622296472167967,1.2401964599609374,0,0,0,0
1.003696398998727,-0.8044517578125,-9.665392102050781,1.3168109130859373,0,0,0,0
1.0048683099885238,-0.7972691528320313,-9.672574707031249,1.2761094848632812,0,0,0,0
1.0061795329966117,-0.8379705810546875,-9.739612353515625,1.254561669921875,0,0,0,0
1.007280814999831,-0.8954314208984374,-9.677363110351562,1.2832920898437499,0,0,0,0
1.009505433990853,-0.8643067993164062,-9.595960253906249,1.2928688964843749,0,0,0,0
1.0112428379943594,-0.8259995727539062,-9.603142858886718,1.254561669921875,0,0,0,0
1.012514303001808,-0.833182177734375,-9.643844287109374,1.3623007446289062,0,0,0,0
1.0136797689920058,-0.8355763793945312,-9.603142858886718,1.4173673828125,0,0,0,0
1.0148457169998437,-0.8020575561523438,-9.600748657226562,1.37906015625,0,0,0,0
1.016403214991442,-0.7733271362304687,-9.667786303710937,1.177947216796875,0,0,0,0
1.0178658809891203,-0.8547299926757812,-9.660603698730467,1.3144167114257812,0,0,0,0
1.0192069749900838,-0.8068459594726562,-9.560047229003906,1.5035586425781249,0,0,0,0
1.0204232550022425,-0.8571241943359375,-9.598354455566406,1.3383587280273437,0,0,0,0
1.021610554002109,-0.8738836059570312,-9.581595043945311,1.35990654296875,0,0,0,0
1.023286347000976,-0.7948749511718749,-9.591171850585937,1.2593500732421874,0,0,0,0
1.0248551049880916,-0.8092401611328125,-9.509768994140625,1.37906015625,0,0,0,0
1.02626910500112,-0.7541735229492187,-9.64623848876953,1.3718775512695311,0,0,0,0
1.027410183000029,-0.7589619262695312,-9.643844287109374,1.4006079711914061,0,0,0,0
1.0285065939970082,-0.8403647827148437,-9.533711010742186,1.254561669921875,0,0,0,0
1.0297579479956767,-0.9097966308593749,-9.6917283203125,1.2497732666015624,0,0,0,0
1.0310129869903903,-0.9337386474609375,-9.72285294189453,1.3455413330078123,0,0,0,0
1.0321249729895499,-0.8930372192382812,-9.64623848876953,1.3215993164062498,0,0,0,0
1.0334553079883335,-0.8762778076171874,-9.6151138671875,1.3742717529296875,0,0,0,0
1.0347155130002648,-0.8188169677734375,-9.581595043945311,1.3239935180664062,0,0,0,0
1.0359612009924604,-0.8307879760742187,-9.576806640625,1.2665326782226562,0,0,0,0
1.0372958319931058,-0.8092401611328125,-9.5384994140625,1.2330138549804688,0,0,0,0
1.0383909840020351,-0.8499415893554687,-9.581595043945311,1.2378022583007813,0,0,0,0
1.0395032839878695,-0.8044517578125,-9.610325463867188,1.3383587280273437,0,0,0,0
1.0407282499945723,-0.8068459594726562,-9.679757312011718,1.3742717529296875,0,0,0,0
1.0422376380010974,-0.86191259765625,-9.679757312011718,1.4867992309570313,0,0,0,0
1.0434468999883393,-0.9313444458007812,-9.612719665527344,1.2521674682617188,0,0,0,0
1.0445518299966352,-0.8906430175781249,-9.574412438964844,1.2785036865234374,0,0,0,0
1.045636000999366,-0.8188169677734375,-9.550470422363281,1.3144167114257812,0,0,0,0
1.0468947249901248,-0.8714894042968749,-9.631873278808593,1.235408056640625,0,0,0,0
1.0482367819931824,-0.8044517578125,-9.574412438964844,1.3431471313476562,0,0,0,0
1.0493414889933774,-0.8499415893554687,-9.509768994140625,1.3144167114257812,0,0,0,0
1.0507205449976027,-0.8283937744140625,-9.624690673828125,1.2976572998046874,0,0,0,0
1.0521450449887197,-0.8762778076171874,-9.662997900390625,1.369483349609375,0,0,0,0
1.0533928999939235,-0.8810662109374999,-9.713276135253906,1.3072341064453123,0,0,0,0
1.0545196439925348,-0.9121908325195311,-9.631873278808593,1.3000515014648437,0,0,0,0
1.055632648000028,-0.8690952026367187,-9.634267480468749,1.3048399047851562,0,0,0,0
1.0567338190012379,-0.8858546142578124,-9.552864624023437,1.3335703247070312,0,0,0,0
1.0581355780013837,-0.8667010009765624,-9.512163195800781,1.3072341064453123,0,0,0,0
1.059770130988909,-0.7709329345703124,-9.550470422363281,1.3958195678710936,0,0,0,0
1.0612516489927657,-0.8283937744140625,-9.591171850585937,1.369483349609375,0,0,0,0
1.0625682979880366,-0.814028564453125,-9.605537060546874,1.3239935180664062,0,0,0,0
1.0637132839910919,-0.6607996582031249,-9.636661682128906,1.22583125,0,0,0,0
1.064889471992501,-0.86191259765625,-9.679757312011718,1.3263877197265623,0,0,0,0
1.0663581190019613,-0.8499415893554687,-9.667786303710937,1.2521674682617188,0,0,0,0
1.0675651039928198,-0.8810662109374999,-9.598354455566406,1.3431471313476562,0,0,0,0
1.0687839399906807,-0.8786720092773437,-9.557653027343749,1.37906015625,0,0,0,0
1.0699629239970818,-0.8786720092773437,-9.516951599121093,1.3670891479492187,0,0,0,0
1.0712269999930868,-0.8188169677734375,-9.564835632324218,1.3455413330078123,0,0,0,0
1.0723278379882686,-0.7948749511718749,-9.631873278808593,1.4053963745117186,0,0,0,0
1.0735461919975933,-0.7829039428710937,-9.696516723632811,1.3718775512695311,0,0,0,0
1.0749080639943713,-0.7829039428710937,-9.662997900390625,1.369483349609375,0,0,0,0
1.0762689529947238,-0.86191259765625,-9.674968908691406,1.254561669921875,0,0,0,0
1.0775527139921905,-0.9050082275390624,-9.612719665527344,1.3335703247070312,0,0,0,0
1.078655051998794,-0.8403647827148437,-9.593566052246093,1.3838485595703125,0,0,0,0
1.080032403988298,-0.8762778076171874,-9.593566052246093,1.3479355346679687,0,0,0,0
1.0813052769954083,-0.8355763793945312,-9.598354455566406,1.3335703247070312,0,0,0,0
1.0828461639903253,-0.8212111694335937,-9.557653027343749,1.3814543579101561,0,0,0,0
1.0840849999949569,-0.8068459594726562,-9.564835632324218,1.3311761230468748,0,0,0,0
1.0851907069882145,-0.8020575561523438,-9.696516723632811,1.3263877197265623,0,0,0,0
1.0862823039933573,-0.7781155395507812,-9.651026892089844,1.2785036865234374,0,0,0,0
1.0873711599997478,-0.7972691528320313,-9.662997900390625,1.3168109130859373,0,0,0,0
1.0884633870009566,-0.8283937744140625,-9.70369932861328,1.3646949462890625,0,0,0,0
1.090053217994864,-0.9409212524414062,-9.662997900390625,1.3311761230468748,0,0,0,0
1.0915088100009598,-0.9433154541015625,-9.562441430664062,1.3287819213867187,0,0,0,0
1.0926603139960207,-0.8259995727539062,-9.567229833984374,1.2689268798828124,0,0,0,0
1.0937594849965535,-0.814028564453125,-9.591171850585937,1.2928688964843749,0,0,0,0
1.0955831460014451,-0.8690952026367187,-9.600748657226562,1.2521674682617188,0,0,0,0
1.096765278998646,-0.7613561279296874,-9.598354455566406,1.3072341064453123,0,0,0,0
1.0978576349880314,-0.7805097412109374,-9.627084875488281,1.3766659545898436,0,0,0,0
1.0989430469926447,-0.8451531860351562,-9.706093530273437,1.3623007446289062,0,0,0,0
1.1006975420023082,-0.8786720092773437,-9.658209497070311,1.3766659545898436,0,0,0,0
1.1019473589985864,-0.8595183959960937,-9.612719665527344,1.3215993164062498,0,0,0,0
1.103041233989643,-0.8547299926757812,-9.593566052246093,1.3287819213867187,0,0,0,0
1.1041365529963514,-0.8164227661132812,-9.576806640625,1.3718775512695311,0,0,0,0
1.1059468999883393,-0.833182177734375,-9.612719665527344,1.3359645263671873,0,0,0,0
1.1072603829961736,-0.7517793212890624,-9.60793126220703,1.369483349609375,0,0,0,0
1.1083656279952265,-0.7517793212890624,-9.598354455566406,1.3646949462890625,0,0,0,0
1.1094550019915914,-0.814028564453125,-9.629479077148437,1.3263877197265623,0,0,0,0
1.110654338990571,-0.8307879760742187,-9.658209497070311,1.3072341064453123,0,0,0,0
1.1119297109980835,-0.8690952026367187,-9.603142858886718,1.35990654296875,0,0,0,0
1.1130237339966698,-0.928950244140625,-9.665392102050781,1.3287819213867187,0,0,0,0
1.1141075159976026,-0.9097966308593749,-9.622296472167967,1.3168109130859373,0,0,0,0
1.115195409001899,-0.9074024291992187,-9.610325463867188,1.24498486328125,0,0,0,0
1.1163639489968773,-0.8714894042968749,-9.5384994140625,1.3575123413085937,0,0,0,0
1.1183707939926535,-0.8547299926757812,-9.595960253906249,1.3623007446289062,0,0,0,0
1.1200938819965813,-0.7876923461914062,-9.627084875488281,1.3048399047851562,0,0,0,0
1.1215774549928028,-0.7637503295898437,-9.639055883789062,1.3120225097656248,0,0,0,0
1.1228370499884477,-0.8355763793945312,-9.667786303710937,1.388636962890625,0,0,0,0
1.124020256989752,-0.8810662109374999,-9.624690673828125,1.3311761230468748,0,0,0,0
1.1253033879911527,-0.93852705078125,-9.6151138671875,1.3120225097656248,0,0,0,0
1.1265368719905382,-0.928950244140625,-9.595960253906249,1.35990654296875,0,0,0,0
1.1277957080019405,-0.8978256225585937,-9.603142858886718,1.3383587280273437,0,0,0,0
1.1288944900006754,-0.8643067993164062,-9.560047229003906,1.2880804931640624,0,0,0,0
1.1303837849991396,-0.7972691528320313,-9.600748657226562,1.2713210815429687,0,0,0,0
1.131689046000247,-0.8283937744140625,-9.605537060546874,1.3718775512695311,0,0,0,0
1.132922566990601,-0.7972691528320313,-9.591171850585937,1.2880804931640624,0,0,0,0
1.1340178300015396,-0.7493851196289062,-9.713276135253906,1.2330138549804688,0,0,0,0
1.1351126119989203,-0.8116343627929687,-9.643844287109374,1.2473790649414063,0,0,0,0
1.1363526329951128,-0.833182177734375,-9.526528405761718,1.2952630981445312,0,0,0,0
1.1380162409914192,-0.8451531860351562,-9.665392102050781,1.3120225097656248,0,0,0,0
1.1396421649988042,-1.0175357055664063,-9.591171850585937,1.2904746948242187,0,0,0,0
1.14118153299205,-0.8068459594726562,-9.528922607421874,1.3527239379882812,0,0,0,0
1.1424353869952029,-0.8379705810546875,-9.447519750976562,1.2832920898437499,0,0,0,0
1.1437221849919297,-0.7924807495117187,-9.60793126220703,1.218648645019531,0,0,0,0
1.1448172819946194,-0.8379705810546875,-9.662997900390625,1.189918225097656,0,0,0,0
1.145905341996695,-0.8667010009765624,-9.631873278808593,1.2665326782226562,0,0,0,0
1.147131770994747,-0.8906430175781249,-9.65342109375,1.4030021728515625,0,0,0,0
1.1484959379886277,-0.8810662109374999,-9.744400756835937,1.3646949462890625,0,0,0,0
1.1495946639915928,-0.9337386474609375,-9.581595043945311,1.3383587280273437,0,0,0,0
1.1511217929946724,-0.8547299926757812,-9.533711010742186,1.3359645263671873,0,0,0,0
1.1526611059962306,-0.8307879760742187,-9.552864624023437,1.3479355346679687,0,0,0,0
1.1542771219974384,-0.8810662109374999,-9.576806640625,1.2641384765625,0,0,0,0
1.1554949389974354,-0.8403647827148437,-9.629479077148437,1.3096283081054687,0,0,0,0
1.156594480999047,-0.8355763793945312,-9.662997900390625,1.3814543579101561,0,0,0,0
1.1581090159888845,-0.82360537109375,-9.72285294189453,1.35990654296875,0,0,0,0
1.1594129439909011,-0.8906430175781249,-9.636661682128906,1.3383587280273437,0,0,0,0
1.161065181993763,-0.8882488159179687,-9.617508068847656,1.4867992309570313,0,0,0,0
1.1625308289949317,-0.8834604125976562,-9.574412438964844,1.3215993164062498,0,0,0,0
1.1638852929900168,-0.842758984375,-9.591171850585937,1.2952630981445312,0,0,0,0
1.1652896820014575,-0.833182177734375,-9.560047229003906,1.3000515014648437,0,0,0,0
1.1664867590006907,-0.8188169677734375,-9.631873278808593,1.2832920898437499,0,0,0,0
1.1676912429975346,-0.7733271362304687,-9.665392102050781,1.2904746948242187,0,0,0,0
1.1690227259969106,-0.8259995727539062,-9.64623848876953,1.2856862915039062,0,0,0,0
1.1704602259997046,-0.8906430175781249,-9.785102185058593,1.2976572998046874,0,0,0,0
1.1717039130016929,-0.8810662109374999,-9.629479077148437,1.2904746948242187,0,0,0,0
1.172867638990283,-0.8355763793945312,-9.641450085449218,1.2569558715820313,0,0,0,0
1.1741195299982792,-0.814028564453125,-9.5384994140625,1.3335703247070312,0,0,0,0
1.1754729749955004,-0.842758984375,-9.545682019042967,1.3263877197265623,0,0,0,0
1.176606182998512,-0.8667010009765624,-9.610325463867188,1.2761094848632812,0,0,0,0
1.1776956129906466,-0.9169792358398436,-9.598354455566406,1.2880804931640624,0,0,0,0
1.1789180969935842,-0.8283937744140625,-9.622296472167967,1.3431471313476562,0,0,0,0
1.1802573570021195,-0.814028564453125,-9.648632690429688,1.3192051147460937,0,0,0,0
1.181355620996328,-0.7661445312499999,-9.737218151855469,1.2880804931640624,0,0,0,0
1.1824389589892235,-0.833182177734375,-9.670180505371093,1.2689268798828124,0,0,0,0
1.1835242959932657,-0.8451531860351562,-9.660603698730467,1.2425906616210938,0,0,0,0
1.1847676689940272,-0.8810662109374999,-9.655815295410155,1.2856862915039062,0,0,0,0
1.1861119480017805,-0.8786720092773437,-9.572018237304688,1.2904746948242187,0,0,0,0
1.1872119889885653,-0.8259995727539062,-9.627084875488281,1.2761094848632812,0,0,0,0
1.1883092899952317,-0.833182177734375,-9.524134204101562,1.3359645263671873,0,0,0,0
1.1893845529993996,-0.8595183959960937,-9.610325463867188,1.2832920898437499,0,0,0,0
1.1906294069922296,-0.6248866333007812,-9.572018237304688,1.2832920898437499,0,0,0,0
1.1918720389949158,-0.82360537109375,-9.672574707031249,1.2713210815429687,0,0,0,0
1.192991746996995,-0.7972691528320313,-9.725247143554688,1.2832920898437499,0,0,0,0
1.194078011001693,-0.9193734375,-9.636661682128906,1.2737152832031249,0,0,0,0
1.1952891989931231,-0.9002198242187499,-9.56962403564453,1.3311761230468748,0,0,0,0
1.1966734769957839,-0.8499415893554687,-9.60793126220703,1.3431471313476562,0,0,0,0
1.198202882995247,-0.8307879760742187,-9.634267480468749,1.2880804931640624,0,0,0,0
1.1994202560017584,-0.8547299926757812,-9.562441430664062,1.3862427612304686,0,0,0,0
1.2007262389961397,-0.814028564453125,-9.586383447265625,1.2737152832031249,0,0,0,0
1.2021567759948084,-0.7781155395507812,-9.758765966796874,1.3263877197265623,0,0,0,0
1.203968696994707,-0.7852981445312499,-9.65342109375,1.3814543579101561,0,0,0,0
1.2052734199969564,-0.8188169677734375,-9.670180505371093,1.4700398193359374,0,0,0,0
1.2068659179931274,-0.948103857421875,-9.617508068847656,1.4532804077148436,0,0,0,0
1.2082387519913027,-0.8667010009765624,-9.581595043945311,1.2785036865234374,0,0,0,0
1.20977375099028,-0.8403647827148437,-9.552864624023437,1.2210428466796874,0,0,0,0
1.21123488000012,-0.8283937744140625,-9.509768994140625,1.3072341064453123,0,0,0,0
1.2123512729885988,-0.7924807495117187,-9.56962403564453,1.2832920898437499,0,0,0,0
1.2136750149948057,-0.8164227661132812,-9.627084875488281,1.3359645263671873,0,0,0,0
1.2150477190007223,-0.8355763793945312,-9.619902270507811,1.369483349609375,0,0,0,0
1.2161743149918038,-0.8499415893554687,-9.641450085449218,1.3431471313476562,0,0,0,0
1.2172594489966286,-0.8643067993164062,-9.64623848876953,1.369483349609375,0,0,0,0
1.2183712499972899,-0.8259995727539062,-9.612719665527344,1.3263877197265623,0,0,0,0
1.2204357409937074,-0.8954314208984374,-9.593566052246093,1.3431471313476562,0,0,0,0
1.2216906139947241,-0.842758984375,-9.588777648925781,1.4006079711914061,0,0,0,0
1.2233183329954045,-0.7565677246093749,-9.562441430664062,1.3024457031249999,0,0,0,0
1.2244439299975056,-0.7852981445312499,-9.595960253906249,1.2569558715820313,0,0,0,0
1.2257055059890263,-0.8283937744140625,-9.576806640625,1.3239935180664062,0,0,0,0
1.2270245069958037,-0.7996633544921875,-9.581595043945311,1.3096283081054687,0,0,0,0
1.228186028994969,-0.8667010009765624,-9.593566052246093,1.2401964599609374,0,0,0,0
1.2292609409923898,-0.82360537109375,-9.6151138671875,1.3239935180664062,0,0,0,0
1.2303329089918407,-0.8116343627929687,-9.634267480468749,1.3551181396484375,0,0,0,0
1.2314031540008727,-0.8667010009765624,-9.6151138671875,1.3263877197265623,0,0,0,0
1.232670286000939,-0.8451531860351562,-9.595960253906249,1.2856862915039062,0,0,0,0
1.234145117996377,-0.842758984375,-9.605537060546874,1.254561669921875,0,0,0,0
1.2352807889983524,-0.8379705810546875,-9.5384994140625,1.2928688964843749,0,0,0,0
1.2364147179905558,-0.7876923461914062,-9.624690673828125,1.3335703247070312,0,0,0,0
1.2375235559884459,-0.7757213378906249,-9.631873278808593,1.3479355346679687,0,0,0,0
1.2387702059932053,-0.7972691528320313,-9.686939916992188,1.3431471313476562,0,0,0,0
1.2399685790005606,-0.8403647827148437,-9.694122521972655,1.2521674682617188,0,0,0,0
1.2411489899968728,-0.8307879760742187,-9.636661682128906,1.3311761230468748,0,0,0,0
1.2427330619975692,-0.8451531860351562,-9.581595043945311,1.3359645263671873,0,0,0,0
1.244189542994718,-0.8690952026367187,-9.514557397460937,1.3168109130859373,0,0,0,0
1.2455370989919174,-0.8858546142578124,-9.60793126220703,1.3359645263671873,0,0,0,0
1.2469937290006783,-0.8020575561523438,-9.526528405761718,1.3359645263671873,0,0,0,0
1.2483333779964596,-0.7422025146484375,-9.598354455566406,1.3455413330078123,0,0,0,0
1.2495519919903018,-0.7900865478515624,-9.708487731933593,1.3263877197265623,0,0,0,0
1.250752754000132,-0.7900865478515624,-9.672574707031249,1.3215993164062498,0,0,0,0
1.2519284239970148,-0.8547299926757812,-9.68454571533203,1.4101847778320311,0,0,0,0
1.2530348719883477,-0.8762778076171874,-9.746794958496093,1.3838485595703125,0,0,0,0
1.254119801989873,-0.86191259765625,-9.682151513671874,1.3263877197265623,0,0,0,0
1.2552030660008313,-0.8834604125976562,-9.598354455566406,1.2952630981445312,0,0,0,0
1.2562946260004537,-0.8738836059570312,-9.56962403564453,1.3072341064453123,0,0,0,0
1.2574880179890897,-0.8451531860351562,-9.550470422363281,1.2401964599609374,0,0,0,0
1.258634705998702,-0.8044517578125,-9.545682019042967,1.2904746948242187,0,0,0,0
1.25973452499602,-0.8379705810546875,-9.634267480468749,1.2282254516601563,0,0,0,0
1.2608224930008873,-0.7565677246093749,-9.581595043945311,1.2856862915039062,0,0,0,0
1.2619073489913717,-0.7733271362304687,-9.600748657226562,1.2689268798828124,0,0,0,0
1.2630756669968832,-0.8044517578125,-9.651026892089844,1.3096283081054687,0,0,0,0
1.2642431519925594,-0.8978256225585937,-9.725247143554688,1.3287819213867187,0,0,0,0
1.265340081998147,-0.9241618408203125,-9.655815295410155,1.3479355346679687,0,0,0,0
1.2664231980015757,-0.8954314208984374,-9.598354455566406,1.369483349609375,0,0,0,0
1.2675094430014724,-0.8762778076171874,-9.581595043945311,1.2880804931640624,0,0,0,0
1.2690827929909574,-0.82360537109375,-9.536105212402344,1.4030021728515625,0,0,0,0
1.270364627998788,-0.8738836059570312,-9.572018237304688,1.2665326782226562,0,0,0,0
1.2715295749949291,-0.8738836059570312,-9.600748657226562,1.2808978881835937,0,0,0,0
1.2733182929951,-0.74699091796875,-9.586383447265625,1.3215993164062498,0,0,0,0
1.2747933849896071,-0.8283937744140625,-9.677363110351562,1.3623007446289062,0,0,0,0
1.2759958319948055,-0.8810662109374999,-9.643844287109374,1.3072341064453123,0,0,0,0
1.2770988179981941,-0.8403647827148437,-9.619902270507811,1.2808978881835937,0,0,0,0
1.2786299829895142,-0.8403647827148437,-9.581595043945311,1.2952630981445312,0,0,0,0
1.2798397449951153,-0.842758984375,-9.560047229003906,1.369483349609375,0,0,0,0
1.2810439890017733,-0.8259995727539062,-9.572018237304688,1.3742717529296875,0,0,0,0
1.2822077140008332,-0.8499415893554687,-9.5384994140625,1.3048399047851562,0,0,0,0
1.2833066629973473,-0.8259995727539062,-9.576806640625,1.3000515014648437,0,0,0,0
1.2844148889998905,-0.7230489013671875,-9.617508068847656,1.2928688964843749,0,0,0,0
1.2868632649915526,-0.8643067993164062,-9.634267480468749,1.2808978881835937,0,0,0,0
1.2881234329979634,-0.9121908325195311,-9.64623848876953,1.3024457031249999,0,0,0,0
1.2892984739883104,-0.9145850341796874,-9.672574707031249,1.3335703247070312,0,0,0,0
1.2903948109888006,-0.928950244140625,-9.536105212402344,1.3527239379882812,0,0,0,0
1.2914833529939642,-0.9026140258789062,-9.548076220703125,1.2689268798828124,0,0,0,0
1.2925687829992967,-0.8355763793945312,-9.572018237304688,1.3215993164062498,0,0,0,0
1.2937408419966232,-0.7948749511718749,-9.512163195800781,1.3718775512695311,0,0,0,0
1.2948965120012872,-0.8092401611328125,-9.581595043945311,1.2952630981445312,0,0,0,0
1.2959965899935924,-0.8595183959960937,-9.60793126220703,1.2593500732421874,0,0,0,0
1.2977732709987322,-0.8451531860351562,-9.598354455566406,1.3000515014648437,0,0,0,0
1.2990602719946764,-0.833182177734375,-9.629479077148437,1.3862427612304686,0,0,0,0
1.3002588679955807,-0.8451531860351562,-9.631873278808593,1.2665326782226562,0,0,0,0
1.3013558160018874,-0.8762778076171874,-9.634267480468749,1.2785036865234374,0,0,0,0
1.3024402649898548,-0.9313444458007812,-9.593566052246093,1.2928688964843749,0,0,0,0
1.303841487999307,-0.8978256225585937,-9.552864624023437,1.3024457031249999,0,0,0,0
1.305004972993629,-0.8475473876953125,-9.552864624023437,1.3024457031249999,0,0,0,0
1.3061534389998997,-0.7757213378906249,-9.576806640625,1.3335703247070312,0,0,0,0
1.3072376289928798,-0.7876923461914062,-9.612719665527344,1.3766659545898436,0,0,0,0
1.3083424659998855,-0.8164227661132812,-9.512163195800781,1.3670891479492187,0,0,0,0
1.3094243410014315,-0.814028564453125,-9.696516723632811,1.3096283081054687,0,0,0,0
1.3105087709991494,-0.8355763793945312,-9.639055883789062,1.3359645263671873,0,0,0,0
1.311699329991825,-0.9002198242187499,-9.64623848876953,1.3192051147460937,0,0,0,0
1.3128664629912237,-0.8930372192382812,-9.593566052246093,1.2761094848632812,0,0,0,0
1.313962560001528,-0.8451531860351562,-9.617508068847656,1.3168109130859373,0,0,0,0
1.315264949997072,-0.8762778076171874,-9.583989245605467,1.3838485595703125,0,0,0,0
1.3177441769948928,-0.7996633544921875,-9.588777648925781,1.3670891479492187,0,0,0,0
1.3189652169967303,-0.8020575561523438,-9.574412438964844,1.20667763671875,0,0,0,0
1.320067331995233,-0.8188169677734375,-9.619902270507811,1.189918225097656,0,0,0,0
1.321149298993987,-0.86191259765625,-9.6917283203125,1.3144167114257812,0,0,0,0
1.3222312669968233,-0.8355763793945312,-9.6917283203125,1.3359645263671873,0,0,0,0
1.3245717550016707,-0.8714894042968749,-9.64623848876953,1.3575123413085937,0,0,0,0
1.3259312549926108,-0.8762778076171874,-9.588777648925781,1.2976572998046874,0,0,0,0
1.3270308889914304,-0.8188169677734375,-9.619902270507811,1.3072341064453123,0,0,0,0
1.3281238749914337,-0.8379705810546875,-9.591171850585937,1.3670891479492187,0,0,0,0
1.3292083790001925,-0.7805097412109374,-9.560047229003906,1.3455413330078123,0,0,0,0
1.3302941619913327,-0.7972691528320313,-9.557653027343749,1.3000515014648437,0,0,0,0
1.332302857990726,-0.8092401611328125,-9.674968908691406,1.3072341064453123,0,0,0,0
1.3335267679940443,-0.8834604125976562,-9.70369932861328,1.369483349609375,0,0,0,0
1.3346626970014768,-0.8858546142578124,-9.708487731933593,1.35990654296875,0,0,0,0
1.3357589980005287,-0.9050082275390624,-9.64623848876953,1.3311761230468748,0,0,0,0
1.3371202389971586,-0.9002198242187499,-9.636661682128906,1.3575123413085937,0,0,0,0
1.3384449069999391,-0.8667010009765624,-9.550470422363281,1.3527239379882812,0,0,0,0
1.3397136869898532,-0.833182177734375,-9.516951599121093,1.3144167114257812,0,0,0,0
1.3409200969908852,-0.7829039428710937,-9.519345800781249,1.35990654296875,0,0,0,0
1.3422788939933525,-0.7781155395507812,-9.641450085449218,1.2306196533203124,0,0,0,0
1.343606746988371,-0.7900865478515624,-9.689334118652344,1.2665326782226562,0,0,0,0
1.3448608979961136,-0.74699091796875,-9.655815295410155,1.2330138549804688,0,0,0,0
1.346051455999259,-0.86191259765625,-9.612719665527344,1.3239935180664062,0,0,0,0
1.3473838829959277,-0.8858546142578124,-9.593566052246093,1.2928688964843749,0,0,0,0
1.3487056809972273,-0.9217676391601562,-9.617508068847656,1.2761094848632812,0,0,0,0
1.3500506080017658,-0.8547299926757812,-9.552864624023437,1.3144167114257812,0,0,0,0
1.3512839249888202,-0.7829039428710937,-9.56962403564453,1.407790576171875,0,0,0,0
1.3525169649947202,-0.8212111694335937,-9.572018237304688,1.350329736328125,0,0,0,0
1.3539596310001798,-0.7924807495117187,-9.603142858886718,1.3000515014648437,0,0,0,0
1.3552645029994892,-0.82360537109375,-9.591171850585937,1.369483349609375,0,0,0,0
1.3566392259963322,-0.8259995727539062,-9.665392102050781,1.3048399047851562,0,0,0,0
1.3578745979903033,-0.8547299926757812,-9.636661682128906,1.2378022583007813,0,0,0,0
1.3591001379973022,-0.8714894042968749,-9.612719665527344,1.235408056640625,0,0,0,0
1.3603344919974916,-0.8762778076171874,-9.600748657226562,1.4006079711914061,0,0,0,0
1.3617150109930662,-0.86191259765625,-9.612719665527344,1.4053963745117186,0,0,0,0
1.3629664949985454,-0.8738836059570312,-9.591171850585937,1.3359645263671873,0,0,0,0
1.3643513470015023,-0.8451531860351562,-9.636661682128906,1.2210428466796874,0,0,0,0
1.3656380159955006,-0.8355763793945312,-9.660603698730467,1.2952630981445312,0,0,0,0
1.3668851109978277,-0.7852981445312499,-9.706093530273437,1.3239935180664062,0,0,0,0
1.368178500997601,-0.8044517578125,-9.670180505371093,1.2952630981445312,0,0,0,0
1.3695659459917806,-0.8882488159179687,-9.713276135253906,1.3144167114257812,0,0,0,0
1.370827430000645,-0.8786720092773437,-9.617508068847656,1.3096283081054687,0,0,0,0
1.3721203390014125,-0.8930372192382812,-9.603142858886718,1.2856862915039062,0,0,0,0
1.373383025988005,-0.842758984375,-9.574412438964844,1.2928688964843749,0,0,0,0
1.3745900289941346,-0.8379705810546875,-9.605537060546874,1.2928688964843749,0,0,0,0
1.375779160996899,-0.7924807495117187,-9.564835632324218,1.2617442749023438,0,0,0,0
1.3769619609956862,-0.8355763793945312,-9.581595043945311,1.24498486328125,0,0,0,0
1.378071186991292,-0.833182177734375,-9.579200842285156,1.35990654296875,0,0,0,0
1.379273207989172,-0.7996633544921875,-9.670180505371093,1.3383587280273437,0,0,0,0
1.380404063995229,-0.8451531860351562,-9.686939916992188,1.35990654296875,0,0,0,0
1.381532123996294,-0.8092401611328125,-9.677363110351562,1.39821376953125,0,0,0,0
1.3827023679914419,-0.8379705810546875,-9.612719665527344,1.350329736328125,0,0,0,0
1.3838797409989638,-0.9002198242187499,-9.605537060546874,1.369483349609375,0,0,0,0
1.3850738549954258,-0.8643067993164062,-9.583989245605467,1.3096283081054687,0,0,0,0
1.3862696729920572,-0.852335791015625,-9.586383447265625,1.2785036865234374,0,0,0,0
1.3874096399958944,-0.7972691528320313,-9.567229833984374,1.3263877197265623,0,0,0,0
1.3888346390012885,-0.8259995727539062,-9.617508068847656,1.2569558715820313,0,0,0,0
1.3901119009969989,-0.8379705810546875,-9.655815295410155,1.2832920898437499,0,0,0,0
1.3915150669927243,-0.8475473876953125,-9.727641345214844,1.2713210815429687,0,0,0,0
1.392614552998566,-0.9313444458007812,-9.619902270507811,1.3335703247070312,0,0,0,0
1.3937085020006634,-0.8762778076171874,-9.598354455566406,1.3192051147460937,0,0,0,0
1.3950766880006995,-0.8451531860351562,-9.595960253906249,1.3742717529296875,0,0,0,0
1.3964381139958277,-0.842758984375,-9.557653027343749,1.3311761230468748,0,0,0,0
1.39754346999689,-0.8068459594726562,-9.581595043945311,1.3575123413085937,0,0,0,0
1.3986318449897226,-0.9026140258789062,-9.536105212402344,1.3239935180664062,0,0,0,0
1.3998053479881492,-0.7733271362304687,-9.598354455566406,1.3000515014648437,0,0,0,0
1.4010802949924255,-0.8020575561523438,-9.665392102050781,1.4796166259765624,0,0,0,0
1.4021736509894254,-0.7805097412109374,-9.622296472167967,1.3239935180664062,0,0,0,0
1.403256452002097,-0.8188169677734375,-9.586383447265625,1.3934253662109375,0,0,0,0
1.4043447889998788,-0.8954314208984374,-9.80665,1.426944189453125,0,0,0,0
1.405534217992681,-0.8571241943359375,-9.631873278808593,1.3742717529296875,0,0,0,0
1.406803552992642,-0.8858546142578124,-9.64623848876953,1.35990654296875,0,0,0,0
1.4079002239886904,-0.9121908325195311,-9.588777648925781,1.3479355346679687,0,0,0,0
1.4089873579941923,-0.9169792358398436,-9.555258825683593,1.3623007446289062,0,0,0,0
