Time (s),Accel X,Accel Y,Accel Z,Gyro X,Gyro Y,Gyro Z,Temperature (C)
0.015120545998797752,0.076614453125,-9.8449572265625,1.0845733520507812,0,0,0,0
0.01827141699322965,0.12449848632812499,-9.9215716796875,0.9935936889648437,0,0,0,0
0.021711542998673394,0.11731588134765625,-9.7683427734375,1.1252747802734375,0,0,0,0
0.024818359001073986,0.12689268798828124,-9.91438907470703,1.0726023437499999,0,0,0,0
0.02759732599952258,0.1005564697265625,-9.840168823242188,1.177947216796875,0,0,0,0
0.030213221994927153,0.023942016601562498,-9.677363110351562,1.16837041015625,0,0,0,0
0.03298093000194058,0.05746083984375,-9.852139831542969,1.0630255371093749,0,0,0,0
0.03568891699251253,0.04548983154296875,-9.928754284667969,1.0749965454101562,0,0,0,0
0.03881713999726344,0.08379705810546874,-9.828197814941406,1.1540052001953125,0,0,0,0
0.041905029996996745,0.08379705810546874,-9.765948571777344,1.1252747802734375,0,0,0,0
0.04489101399667561,0.09816226806640624,-9.773131176757811,1.2210428466796874,0,0,0,0
0.04873898699588608,0.05746083984375,-9.880870251464843,1.1085153686523437,0,0,0,0
0.05644308299815748,0.00718260498046875,-9.849745629882811,1.0989385620117187,0,0,0,0
0.06110728699422907,0.0526724365234375,-9.892841259765625,1.1156979736328125,0,0,0,0
0.0641931959980866,0.143652099609375,-9.900023864746093,1.0893617553710937,0,0,0,0
0.06694694199541118,0.1149216796875,-9.789890588378906,1.1276689819335937,0,0,0,0
0.07018897800298873,0.11252747802734374,-9.840168823242188,1.0630255371093749,0,0,0,0
0.0730138709914172,0.10295067138671875,-9.947907897949218,1.0726023437499999,0,0,0,0
0.07586596699547954,0.09337386474609374,-9.821015209960937,1.2114660400390624,0,0,0,0
0.07876500699785538,0.0909796630859375,-9.873687646484374,1.0702081420898437,0,0,0,0
0.08159795599931385,0.0430956298828125,-9.909600671386718,1.0654197387695312,0,0,0,0
0.08418785200046841,0.05746083984375,-9.866505041503906,1.1252747802734375,0,0,0,0
0.08710583599167876,0.08858546142578125,-9.907206469726562,1.0797849487304687,0,0,0,0
0.08998356199299451,0.12210428466796874,-9.866505041503906,1.0821791503906248,0,0,0,0
0.09427958600281272,0.011971008300781249,-9.871293444824218,1.0893617553710937,0,0,0,0
0.09721521800383925,-0.02154781494140625,-9.885658654785155,1.1348515869140625,0,0,0,0
0.09989648299233522,0.229843359375,-9.734823950195311,1.1755530151367186,0,0,0,0
0.10303437200491317,0.076614453125,-9.847351428222655,1.2401964599609374,0,0,0,0
0.10435768999741413,0.10295067138671875,-9.888052856445311,1.1252747802734375,0,0,0,0
0.10543764100293629,0.047884033203124995,-9.86411083984375,1.1468225952148436,0,0,0,0
0.10657501600508112,0.016759411621093748,-9.83777462158203,1.0295067138671874,0,0,0,0
0.10787594599241856,0.011971008300781249,-9.830592016601562,1.1085153686523437,0,0,0,0
0.10897419200045988,0.07422025146484375,-9.842563024902343,1.1707646118164061,0,0,0,0
0.11006110499147326,0.12210428466796874,-9.8449572265625,1.1372457885742187,0,0,0,0
0.11120359199412633,0.04548983154296875,-9.840168823242188,1.0893617553710937,0,0,0,0
0.11270777799654752,0.0143652099609375,-9.861716638183593,1.1516109985351561,0,0,0,0
0.11485399400407914,0.0909796630859375,-9.8449572265625,1.0726023437499999,0,0,0,0
0.11611220099439379,0.07422025146484375,-9.873687646484374,1.180341418457031,0,0,0,0
0.11720763299672399,0.06464344482421874,-9.859322436523437,1.1707646118164061,0,0,0,0
0.11829347199818585,0.05746083984375,-9.87608184814453,1.0462661254882812,0,0,0,0
0.12012128399510402,0.0383072265625,-9.93354268798828,1.0486603271484374,0,0,0,0
0.12188761599827558,0.05746083984375,-9.91438907470703,1.158793603515625,0,0,0,0
0.12310276800417341,0.08379705810546874,-9.885658654785155,1.1540052001953125,0,0,0,0
0.12435112400271464,0.1388636962890625,-9.8449572265625,1.149216796875,0,0,0,0
0.12618747299711686,0.05027823486328125,-9.849745629882811,1.0989385620117187,0,0,0,0
0.12782638000498991,0.076614453125,-9.873687646484374,1.0510545288085937,0,0,0,0
0.12903675399138592,0.06464344482421874,-9.86411083984375,1.1420341918945311,0,0,0,0
0.13023279600020032,0.0526724365234375,-9.859322436523437,1.0223241088867188,0,0,0,0
0.13132961699739099,0.10773907470703124,-9.885658654785155,1.1372457885742187,0,0,0,0
0.13248291799391154,0.08140285644531249,-9.935936889648437,1.0797849487304687,0,0,0,0
0.1338394759950461,0.05746083984375,-9.866505041503906,1.0989385620117187,0,0,0,0
0.1355117710045306,0.143652099609375,-9.801861596679688,1.1540052001953125,0,0,0,0
0.13674901600461453,0.055066638183593745,-9.809044201660155,1.199495031738281,0,0,0,0
0.13807720500335563,0.1388636962890625,-9.830592016601562,1.1947066284179686,0,0,0,0
0.13988260900077876,0.047884033203124995,-9.835380419921874,1.0558429321289062,0,0,0,0
0.1411174279928673,0.09337386474609374,-9.809044201660155,1.0414777221679687,0,0,0,0
0.14227839600061998,0.040701428222656245,-9.878476049804688,1.13006318359375,0,0,0,0
0.14352736300497781,0.0143652099609375,-9.900023864746093,1.0917559570312498,0,0,0,0
0.14472209000086877,0.04548983154296875,-9.832986218261718,1.1563994018554686,0,0,0,0
0.14617623999947682,0.0526724365234375,-9.809044201660155,1.01514150390625,0,0,0,0
0.14731981899240054,0.10295067138671875,-9.828197814941406,1.1563994018554686,0,0,0,0
0.14842086199496407,0.1388636962890625,-9.739612353515625,1.1827356201171875,0,0,0,0
0.1496323290048167,0.1005564697265625,-9.823409411621093,1.0223241088867188,0,0,0,0
0.15083174100436736,0.11731588134765625,-9.823409411621093,1.1037269653320312,0,0,0,0
0.15193930199893657,0.11731588134765625,-9.83777462158203,1.1611878051757811,0,0,0,0
0.15302490099566057,0.09816226806640624,-9.87608184814453,1.0366893188476562,0,0,0,0
0.15411073999712244,0.13407529296874998,-9.873687646484374,1.0749965454101562,0,0,0,0
0.15532811399316415,0.06464344482421874,-9.885658654785155,1.0773907470703123,0,0,0,0
0.15650254499632865,0.062249243164062495,-9.804255798339844,1.1659762084960936,0,0,0,0
0.15786438099166844,0.076614453125,-9.80665,1.1085153686523437,0,0,0,0
0.1591037000034703,0.0718260498046875,-9.81862100830078,1.0893617553710937,0,0,0,0
0.1603126300033182,0.02154781494140625,-9.789890588378906,1.0534487304687499,0,0,0,0
0.16148991299269255,0.06703764648437499,-9.789890588378906,1.0749965454101562,0,0,0,0
0.16274987999349833,0.0909796630859375,-9.871293444824218,1.189918225097656,0,0,0,0
0.16405190200021025,0.09816226806640624,-9.859322436523437,1.0295067138671874,0,0,0,0
0.16534396099450532,0.105344873046875,-9.83777462158203,1.0797849487304687,0,0,0,0
0.16646346599736717,0.08858546142578125,-9.86411083984375,1.13006318359375,0,0,0,0
0.16774702499969862,0.05027823486328125,-9.87608184814453,1.1444283935546875,0,0,0,0
0.168950641003903,0.076614453125,-9.859322436523437,1.1156979736328125,0,0,0,0
0.17009057199175004,0.04548983154296875,-9.873687646484374,1.0678139404296874,0,0,0,0
0.17131903900008183,0.12449848632812499,-9.787496386718749,1.13006318359375,0,0,0,0
0.1724857660010457,0.12210428466796874,-9.773131176757811,1.139639990234375,0,0,0,0
0.17358258699823637,0.07900865478515624,-9.86411083984375,1.1827356201171875,0,0,0,0
0.1749926259944914,0.09337386474609374,-9.85692823486328,1.13006318359375,0,0,0,0
0.17609879799420014,0.0430956298828125,-9.86411083984375,1.1156979736328125,0,0,0,0
0.17724659999657888,0.09816226806640624,-9.8449572265625,1.0438719238281249,0,0,0,0
0.17840132699348032,0.0526724365234375,-9.842563024902343,1.1228805786132812,0,0,0,0
0.17974399599188473,0.055066638183593745,-9.85692823486328,1.0630255371093749,0,0,0,0
0.18094498199934606,0.10773907470703124,-9.809044201660155,1.0797849487304687,0,0,0,0
0.18208622800011653,0.06464344482421874,-9.866505041503906,1.0797849487304687,0,0,0,0
0.1833115839981474,0.10295067138671875,-9.816226806640625,1.2306196533203124,0,0,0,0
0.18448223700397648,0.14604630126953125,-9.773131176757811,1.149216796875,0,0,0,0
0.18558214999211486,0.086191259765625,-9.890447058105469,1.0486603271484374,0,0,0,0
0.18704961499315687,0.06464344482421874,-9.82580361328125,1.0630255371093749,0,0,0,0
0.188181267993059,0.03591302490234375,-9.840168823242188,0.9624690673828125,0,0,0,0
0.18968089899863116,0.05985504150390625,-9.682151513671874,1.0654197387695312,0,0,0,0
0.1911894549994031,0.01915361328125,-9.9215716796875,1.1444283935546875,0,0,0,0
0.19234684899856802,0.0526724365234375,-9.880870251464843,1.1635820068359375,0,0,0,0
0.19344165100483224,0.086191259765625,-9.801861596679688,1.1516109985351561,0,0,0,0
0.19453195299138315,0.076614453125,-9.859322436523437,1.1109095703125,0,0,0,0
0.19595165899954736,0.07422025146484375,-9.852139831542969,1.0534487304687499,0,0,0,0
0.19751462199201342,0.055066638183593745,-9.792284790039062,1.1133037719726562,0,0,0,0
0.19866401600302197,0.08140285644531249,-9.900023864746093,1.0534487304687499,0,0,0,0
0.19981087300402578,0.062249243164062495,-9.880870251464843,1.1156979736328125,0,0,0,0
0.20143344700045418,0.0718260498046875,-9.931148486328125,1.0893617553710937,0,0,0,0
0.2025437120028073,0.12689268798828124,-9.85692823486328,1.0606313354492187,0,0,0,0
0.2036398839991307,0.06464344482421874,-9.90241806640625,1.1707646118164061,0,0,0,0
0.20472653799515683,0.0383072265625,-9.868899243164062,1.0678139404296874,0,0,0,0
0.20580891499412246,0.01915361328125,-9.821015209960937,1.1228805786132812,0,0,0,0
0.20689297599892598,0.105344873046875,-9.7683427734375,1.1228805786132812,0,0,0,0
0.2083758289954858,0.08858546142578125,-9.86411083984375,1.0917559570312498,0,0,0,0
0.20986227499088272,0.16998831787109375,-9.945513696289062,1.0869675537109373,0,0,0,0
0.21098789099778514,0.0430956298828125,-9.89523546142578,1.0678139404296874,0,0,0,0
0.21211322999442928,0.055066638183593745,-9.935936889648437,1.0606313354492187,0,0,0,0
0.21358630499162246,0.09337386474609374,-9.90241806640625,1.1348515869140625,0,0,0,0
0.21671104700362775,0.086191259765625,-9.821015209960937,1.0773907470703123,0,0,0,0
0.21793751399673056,0.0526724365234375,-9.87608184814453,1.0773907470703123,0,0,0,0
0.21903470499091782,0.105344873046875,-9.753977563476562,1.0749965454101562,0,0,0,0
0.22038157799397595,0.1005564697265625,-9.797073193359374,1.1252747802734375,0,0,0,0
0.2216069529968081,0.0718260498046875,-9.811438403320311,1.1180921752929687,0,0,0,0
0.22274432799895294,0.07900865478515624,-9.835380419921874,1.1755530151367186,0,0,0,0
0.22385176000534557,0.09337386474609374,-9.85692823486328,1.0630255371093749,0,0,0,0
0.22503139400214422,0.047884033203124995,-9.926360083007811,0.9864110839843749,0,0,0,0
0.22614884399808943,0.07422025146484375,-9.85692823486328,1.1037269653320312,0,0,0,0
0.22728123799606692,0.031124621582031248,-9.871293444824218,1.0702081420898437,0,0,0,0
0.2286141119984677,0.07900865478515624,-9.770736975097655,1.120486376953125,0,0,0,0
0.23024525899381842,0.08858546142578125,-9.794678991699218,1.197100830078125,0,0,0,0
0.23151379999762867,0.031124621582031248,-9.835380419921874,1.1947066284179686,0,0,0,0
0.23267052699520718,0.08858546142578125,-9.821015209960937,1.0797849487304687,0,0,0,0
0.23376997699961066,0.11252747802734374,-9.842563024902343,1.1348515869140625,0,0,0,0
0.2348529650043929,0.08858546142578125,-9.880870251464843,1.1468225952148436,0,0,0,0
0.23631322500295937,0.1005564697265625,-9.885658654785155,1.1276689819335937,0,0,0,0
0.2375208779994864,0.02633621826171875,-9.897629663085937,1.0917559570312498,0,0,0,0
0.23881243700452615,-0.062249243164062495,-9.852139831542969,1.1444283935546875,0,0,0,0
0.2407178409921471,0.12210428466796874,-9.842563024902343,0.9648632690429687,0,0,0,0
0.2427615579945268,0.028730419921875,-9.80665,1.0654197387695312,0,0,0,0
0.24434520599606913,0.12449848632812499,-9.794678991699218,1.1228805786132812,0,0,0,0
0.24587724400043953,0.06703764648437499,-9.888052856445311,1.0630255371093749,0,0,0,0
0.2478868309990503,0.1197100830078125,-9.945513696289062,1.0654197387695312,0,0,0,0
0.24953670099785086,0.016759411621093748,-9.947907897949218,1.0199299072265624,0,0,0,0
0.2512771250039805,-0.02633621826171875,-9.880870251464843,0.9935936889648437,0,0,0,0
0.2525460729957558,0.03591302490234375,-9.85692823486328,1.0989385620117187,0,0,0,0
0.25379489199258387,0.09816226806640624,-9.847351428222655,1.180341418457031,0,0,0,0
0.25502559999586083,0.10773907470703124,-9.821015209960937,1.16837041015625,0,0,0,0
0.256205511992448,0.06464344482421874,-9.842563024902343,1.0438719238281249,0,0,0,0
0.2573777759971563,0.08140285644531249,-9.8449572265625,1.0319009155273438,0,0,0,0
0.2586146879912121,0.105344873046875,-9.861716638183593,1.197100830078125,0,0,0,0
0.2598494879930513,0.06703764648437499,-9.911994873046874,1.0654197387695312,0,0,0,0
0.26102256699232385,0.0909796630859375,-9.90241806640625,1.0726023437499999,0,0,0,0
0.26222407100431155,0.03591302490234375,-9.890447058105469,1.1228805786132812,0,0,0,0
0.2635208339925157,0.12689268798828124,-9.842563024902343,1.0582371337890624,0,0,0,0
0.26480606000404805,0.086191259765625,-9.842563024902343,1.0773907470703123,0,0,0,0
0.2660470449918648,0.05746083984375,-9.830592016601562,1.0869675537109373,0,0,0,0
0.2671416069933912,0.08858546142578125,-9.777919580078125,1.1109095703125,0,0,0,0
0.26822622399777174,0.08140285644531249,-9.840168823242188,1.1468225952148436,0,0,0,0
0.2693103589990642,0.06943184814453125,-9.897629663085937,1.0654197387695312,0,0,0,0
0.27047808599309064,0.105344873046875,-9.873687646484374,1.1228805786132812,0,0,0,0
0.271615573001327,0.09816226806640624,-9.861716638183593,1.0654197387695312,0,0,0,0
0.272705170995323,0.016759411621093748,-9.878476049804688,0.9648632690429687,0,0,0,0
0.27389560200390406,0.023942016601562498,-9.828197814941406,1.1109095703125,0,0,0,0
0.275011995996465,0.1005564697265625,-9.801861596679688,1.1133037719726562,0,0,0,0
0.2762136859964812,0.01915361328125,-9.847351428222655,1.1252747802734375,0,0,0,0
0.2773674130003201,0.16998831787109375,-9.792284790039062,1.0773907470703123,0,0,0,0
0.2784657150041312,0.13646949462890623,-9.76116016845703,1.0271125122070313,0,0,0,0
0.28099948199815117,0.06943184814453125,-9.91438907470703,1.1156979736328125,0,0,0,0
0.28233952200389467,0.11731588134765625,-9.911994873046874,1.1013327636718748,0,0,0,0
0.2834804720041575,0.0526724365234375,-9.89523546142578,1.0223241088867188,0,0,0,0
0.2845667549991049,0.08140285644531249,-9.955090502929687,1.0606313354492187,0,0,0,0
0.28597494299174286,0.0143652099609375,-9.89523546142578,1.0654197387695312,0,0,0,0
0.2874485549982637,0.08858546142578125,-9.861716638183593,1.1444283935546875,0,0,0,0
0.2887144289998105,0.13168109130859373,-9.82580361328125,1.1563994018554686,0,0,0,0
0.2898948969959747,0.08379705810546874,-9.81862100830078,1.1444283935546875,0,0,0,0
0.2913879719999386,0.14125789794921875,-9.842563024902343,1.0438719238281249,0,0,0,0
0.292869362005149,0.11252747802734374,-9.804255798339844,1.0773907470703123,0,0,0,0
0.29413681000005454,0.01915361328125,-9.859322436523437,1.0917559570312498,0,0,0,0
0.2952794449956855,0.1388636962890625,-9.82580361328125,1.0319009155273438,0,0,0,0
0.2963758949917974,0.062249243164062495,-9.878476049804688,1.005564697265625,0,0,0,0
0.29752906700014137,0.076614453125,-9.916783276367187,1.0175357055664063,0,0,0,0
0.2989977349934634,0.0526724365234375,-9.861716638183593,1.1228805786132812,0,0,0,0
0.3001280000025872,0.04548983154296875,-9.897629663085937,1.1156979736328125,0,0,0,0
0.3012373200035654,0.07422025146484375,-9.878476049804688,1.0223241088867188,0,0,0,0
0.3023198820010293,0.0430956298828125,-9.816226806640625,1.0438719238281249,0,0,0,0
0.30356155199115165,0.05985504150390625,-9.797073193359374,0.9935936889648437,0,0,0,0
0.3047396129986737,0.13646949462890623,-9.923965881347655,1.1276689819335937,0,0,0,0
0.305926635992364,0.12689268798828124,-9.689334118652344,1.0630255371093749,0,0,0,0
0.30713051099155564,0.016759411621093748,-9.904812268066406,1.1372457885742187,0,0,0,0
0.30827173800207675,0.105344873046875,-9.83777462158203,1.1228805786132812,0,0,0,0
0.30945609499758575,0.08858546142578125,-9.842563024902343,1.1947066284179686,0,0,0,0
0.31060152599820867,0.04548983154296875,-9.873687646484374,1.1444283935546875,0,0,0,0
0.311828677993617,0.12210428466796874,-9.91438907470703,1.120486376953125,0,0,0,0
0.31295751700235996,0.11013327636718749,-9.809044201660155,1.0630255371093749,0,0,0,0
0.3140488369972445,0.076614453125,-9.821015209960937,1.1156979736328125,0,0,0,0
0.31537539599230513,0.13646949462890623,-9.816226806640625,1.0749965454101562,0,0,0,0
0.3166122330003418,0.086191259765625,-9.892841259765625,1.0941501586914062,0,0,0,0
0.3178381079924293,0.06464344482421874,-9.885658654785155,1.1372457885742187,0,0,0,0
0.31897439100430347,0.143652099609375,-9.928754284667969,1.0654197387695312,0,0,0,0
0.32020498799101915,0.19871873779296872,-9.873687646484374,1.0965443603515623,0,0,0,0
0.32135677100450266,0.040701428222656245,-9.897629663085937,1.0510545288085937,0,0,0,0
0.32254783100506756,0.028730419921875,-9.859322436523437,1.0342951171875,0,0,0,0
0.32367842899111565,0.040701428222656245,-9.85692823486328,1.0845733520507812,0,0,0,0
0.32485137799812946,0.062249243164062495,-9.832986218261718,1.1324573852539062,0,0,0,0
0.3260104759974638,0.10295067138671875,-9.900023864746093,1.189918225097656,0,0,0,0
0.32713164799497463,0.105344873046875,-9.878476049804688,1.1156979736328125,0,0,0,0
0.32896468200488016,0.1005564697265625,-9.87608184814453,1.1228805786132812,0,0,0,0
0.3302159640006721,0.09337386474609374,-9.883264453125,1.1324573852539062,0,0,0,0
0.33179451899195556,0.033518823242187495,-9.89523546142578,1.0486603271484374,0,0,0,0
0.3330210419953801,0.08379705810546874,-9.85692823486328,1.0845733520507812,0,0,0,0
0.3341294550045859,0.08140285644531249,-9.880870251464843,1.2018892333984375,0,0,0,0
0.3353032750019338,0.03591302490234375,-9.950302099609374,1.209071838378906,0,0,0,0
0.33643624300020747,0.08858546142578125,-9.813832604980469,1.199495031738281,0,0,0,0
0.3378795589960646,0.055066638183593745,-9.72285294189453,1.1420341918945311,0,0,0,0
0.3397097599954577,0.1771709228515625,-9.880870251464843,1.0749965454101562,0,0,0,0
0.3409170609957073,0.18914193115234373,-9.859322436523437,1.0749965454101562,0,0,0,0
0.34228199000062887,0.02154781494140625,-9.919177478027343,1.1228805786132812,0,0,0,0
0.3435629009909462,0.06943184814453125,-9.861716638183593,1.0869675537109373,0,0,0,0
0.3451847520045703,0.08140285644531249,-9.943119494628906,1.0989385620117187,0,0,0,0
0.3463315720000537,0.06943184814453125,-9.83777462158203,1.16837041015625,0,0,0,0
0.3474743730039336,0.03591302490234375,-9.878476049804688,1.197100830078125,0,0,0,0
0.3485727869992843,0.12689268798828124,-9.888052856445311,1.0869675537109373,0,0,0,0
0.3497333660052391,0.1292868896484375,-9.861716638183593,1.1156979736328125,0,0,0,0
0.3510904979921179,0.1005564697265625,-9.880870251464843,1.0989385620117187,0,0,0,0
0.35219255900301505,0.06464344482421874,-9.916783276367187,1.0606313354492187,0,0,0,0
0.3532983240002068,0.06464344482421874,-9.878476049804688,1.0702081420898437,0,0,0,0
0.35457004999625497,0.07900865478515624,-9.892841259765625,0.9624690673828125,0,0,0,0
0.3559556260006502,0.0718260498046875,-9.86411083984375,1.139639990234375,0,0,0,0
0.35730062899529,0.06703764648437499,-9.885658654785155,1.1372457885742187,0,0,0,0
0.35840354199172,0.1149216796875,-9.8449572265625,1.149216796875,0,0,0,0
0.3595175109949196,0.05746083984375,-9.85692823486328,1.0462661254882812,0,0,0,0
0.36060433099919464,0.08140285644531249,-9.852139831542969,1.0103531005859374,0,0,0,0
0.3617698180023581,0.076614453125,-9.835380419921874,1.177947216796875,0,0,0,0
0.3630743209942011,0.143652099609375,-9.868899243164062,1.1372457885742187,0,0,0,0
0.3643526770028984,0.18914193115234373,-9.904812268066406,1.1156979736328125,0,0,0,0
0.3657160680013476,0.6727706665039062,-10.180145458984374,0.9409212524414062,0,0,0,0
0.3669142760045361,2.090138049316406,-10.919953771972656,-0.5003881469726562,0,0,0,0
0.3682587049988797,3.0142998901367184,-10.82179150390625,-1.6041151123046875,0,0,0,0
0.3695083939965116,1.3359645263671873,-11.173739147949219,-3.239354846191406,0,0,0,0
0.3707619539927691,-0.47884033203125,-10.081983190917969,-4.525041137695312,0,0,0,0
0.37204416099120863,-1.7597382202148437,-9.72285294189453,-6.619967590332031,0,0,0,0
0.3731747220008401,-1.659181750488281,-9.672574707031249,-7.012616662597656,0,0,0,0
0.3743630039971322,-1.7334020019531249,-9.105148913574219,-7.196970190429687,0,0,0,0
0.37553252799261827,-2.379836450195312,-8.70771143798828,-7.268796240234375,0,0,0,0
0.37663897799211554,-1.848323681640625,-9.526528405761718,-7.335833886718749,0,0,0,0
0.3780545719928341,-0.15083470458984374,-9.801861596679688,-7.003039855957031,0,0,0,0
0.3794437409960665,-0.7948749511718749,-10.333374365234375,-7.264007836914062,0,0,0,0
0.3806120049994206,-0.0047884033203125,-10.472238061523436,-7.364564306640625,0,0,0,0
0.38175077000050806,0.411802685546875,-9.65342109375,-6.672640026855468,0,0,0,0
0.38290690499707125,1.01514150390625,-10.886434948730468,-6.057330200195312,0,0,0,0
0.38426357400021516,-0.42377369384765623,-7.532158422851562,-5.408501550292969,0,0,0,0
0.38538954200339504,-4.347870214843749,-6.986280444335937,-4.2329485351562495,0,0,0,0
0.386631490997388,-4.604049792480469,-6.110002636718749,0.22744915771484372,0,0,0,0
0.3881500470015453,-3.687070556640625,-8.98304462890625,2.403778466796875,0,0,0,0
0.3894972349953605,2.090138049316406,-8.418013037109375,5.216965417480468,0,0,0,0
0.39067238799179904,6.119579443359375,-9.402029919433593,7.64229169921875,0,0,0,0
0.39192094799363986,7.867346655273437,-10.606313354492187,8.47786807861328,0,0,0,0
0.3936232059932081,3.9839515624999997,-10.268730920410155,7.716511950683593,0,0,0,0
0.39493965299334377,0.842758984375,-10.625466967773438,5.475539196777343,0,0,0,0
0.3961231389985187,-0.17238251953125,-11.001356628417968,4.709394665527343,0,0,0,0
0.39729310700204223,0.35673604736328124,-10.8409451171875,4.6447512207031245,0,0,0,0
0.39869433200510684,1.5586252807617187,-10.644620581054687,3.4524387939453125,0,0,0,0
0.40022562899685,1.2473790649414063,-9.694122521972655,0.45489831542968745,0,0,0,0
0.40176809199329,-2.3487118286132813,-8.911218579101561,-1.1923124267578125,0,0,0,0
0.4029655969934538,-4.244919543457031,-9.816226806640625,-4.115632653808594,0,0,0,0
0.4045063380035572,-4.185064501953125,-11.736376538085937,-4.393360046386719,0,0,0,0
0.40612333800527267,-2.913743420410156,-13.692439294433592,-3.057395520019531,0,0,0,0
0.4073371569975279,-1.218648645019531,-13.354856860351562,-1.9129671264648436,0,0,0,0
0.40873952899710275,0.7876923461914062,-11.9135474609375,-0.6512228515624999,0,0,0,0
0.4102728260040749,0.1005564697265625,-9.191340173339842,1.1109095703125,0,0,0,0
0.41151468199677765,-2.2960393920898436,-8.693346228027343,1.8267758666992187,0,0,0,0
0.41269259399268776,-0.928950244140625,-8.846575134277343,2.612074011230469,0,0,0,0
0.41422333600348793,1.3096283081054687,-9.715670336914062,4.568136767578125,0,0,0,0
0.41591007499664556,3.6942531616210936,-10.560823522949217,4.359841223144531,0,0,0,0
0.41717135699582286,3.816357446289062,-9.74200655517578,3.797203833007812,0,0,0,0
0.4183455649908865,2.6336218261718747,-9.344569079589844,2.8945898071289062,0,0,0,0
0.4197900489962194,-0.42377369384765623,-8.221688500976562,2.214636535644531,0,0,0,0
0.42131695699936245,0.05027823486328125,-7.182604980468749,1.4604630126953124,0,0,0,0
0.4225384790042881,1.618480322265625,-7.845798840332031,0.8451531860351562,0,0,0,0
0.42371429900231306,1.0917559570312498,-7.862558251953125,0.3495534423828125,0,0,0,0
0.4249073219980346,0.3016694091796875,-7.948749511718749,-1.0941501586914062,0,0,0,0
0.42686176199640613,-3.2321722412109373,-9.076418493652342,-1.8650830932617186,0,0,0,0
0.4281374330021208,-4.283226770019531,-10.335768566894531,-1.9943699829101562,0,0,0,0
0.42941730699385516,-0.6847416748046875,-10.551246716308594,-1.1180921752929687,0,0,0,0
0.4311187129933387,1.2425906616210938,-10.357316381835936,0.7781155395507812,0,0,0,0
0.43236975399486255,1.8770541015625,-9.916783276367187,1.1635820068359375,0,0,0,0
0.43354477699904237,0.2442085693359375,-9.066841687011719,1.687912170410156,0,0,0,0
0.4350321300007636,-1.5203180541992187,-9.442731347656249,1.9967641845703124,0,0,0,0
0.43643348399200477,-0.8475473876953125,-10.845733520507812,2.5905261962890624,0,0,0,0
0.4377512460050639,1.1540052001953125,-11.118672509765624,4.046200805664062,0,0,0,0
0.4393456910038367,2.6479870361328124,-11.468225952148437,4.010287780761718,0,0,0,0
0.4405307510023704,2.906560815429687,-10.91037696533203,3.3710359375,0,0,0,0
0.4420176230050856,0.9792284790039062,-10.084377392578125,1.3192051147460937,0,0,0,0
0.4432887739967555,-1.1372457885742187,-10.218452685546874,0.6464344482421874,0,0,0,0
0.44487094099167734,-1.2401964599609374,-10.73799444580078,0.7541735229492187,0,0,0,0
0.4463216470030602,1.0965443603515623,-11.353304272460937,0.8714894042968749,0,0,0,0
0.44754424299753737,1.9680337646484374,-11.171344946289063,0.4333505004882812,0,0,0,0
0.44880448799813166,0.8044517578125,-10.402806213378906,-0.9935936889648437,0,0,0,0
0.45029609999619424,-2.233790148925781,-9.612719665527344,-1.917755529785156,0,0,0,0
0.45171900899731554,-5.284003063964843,-9.720458740234374,-1.9776105712890624,0,0,0,0
0.4530839939980069,-2.77727392578125,-10.180145458984374,0.3232172241210937,0,0,0,0
0.45479973299370613,2.971204260253906,-10.084377392578125,1.3766659545898436,0,0,0,0
0.4562459750013659,3.4452561889648434,-9.066841687011719,1.8722656982421875,0,0,0,0
0.45746377599425614,0.6919242797851562,-8.461108666992187,1.8459294799804686,0,0,0,0
0.45872872399922926,-1.917755529785156,-8.815450512695312,1.3742717529296875,0,0,0,0
0.46017096599098295,-2.8036101440429686,-8.796296899414061,1.946485949707031,0,0,0,0
0.4616097090038238,1.0821791503906248,-9.248801013183593,3.1938650146484373,0,0,0,0
0.4630488959955983,3.181894006347656,-9.797073193359374,3.864241479492187,0,0,0,0
0.46435258399287704,3.873818286132812,-8.453926062011718,3.1387983764648437,0,0,0,0
0.46574758700444363,0.8188169677734375,-7.862558251953125,2.1811177124023438,0,0,0,0
0.46692405399517156,-1.7669208251953124,-8.540117321777343,0.9097966308593749,0,0,0,0
0.46810407799785025,-2.7150246826171873,-9.22485899658203,-0.07422025146484375,0,0,0,0
0.46934695199888665,-1.5251064575195312,-10.31661495361328,0.6081272216796875,0,0,0,0
0.4707947129936656,2.6575638427734374,-10.565611926269531,0.9433154541015625,0,0,0,0
0.47217471500334796,2.7629087158203123,-9.923965881347655,0.2825157958984375,0,0,0,0
0.4735807730030501,-1.1635820068359375,-9.342174877929686,-0.4070142822265625,0,0,0,0
0.4747473329916829,-4.077325427246094,-9.519345800781249,-1.3239935180664062,0,0,0,0
0.4763089820044115,-5.181052392578125,-10.635043774414061,0.47884033203125,0,0,0,0
0.47924881799553987,2.2768857788085937,-11.724405529785155,2.039859814453125,0,0,0,0
0.48130623799806926,3.574543078613281,-9.277531433105468,1.9393033447265624,0,0,0,0
0.48339819599641487,-1.7357962036132812,-9.737218151855469,0.7924807495117187,0,0,0,0
0.48610360799648333,-0.43574470214843747,-10.228029492187499,3.009511486816406,0,0,0,0
0.48777501500444487,3.5601778686523438,-11.130643518066405,3.27526787109375,0,0,0,0
0.4893218670040369,3.6152445068359373,-9.102754711914063,2.2457611572265623,0,0,0,0
0.4911876789992675,-2.133233679199219,-8.724470849609375,0.14125789794921875,0,0,0,0
0.4931658220011741,-2.528276953125,-9.193734375,0.8499415893554687,0,0,0,0
0.49505952300387435,2.0781670410156248,-10.307038146972655,1.7597382202148437,0,0,0,0
0.4971707939985208,3.6080619018554687,-9.387664709472656,1.0007762939453124,0,0,0,0
0.49936328700277954,-2.5426421630859375,-8.851363537597656,-0.7948749511718749,0,0,0,0
0.5009181579953292,-3.35188232421875,-9.7683427734375,-0.7733271362304687,0,0,0,0
0.5029171899950597,1.2713210815429687,-10.83376251220703,1.1133037719726562,0,0,0,0
0.5052873109962093,3.6463691284179687,-8.84178673095703,1.848323681640625,0,0,0,0
0.5071996960032266,-0.6368576416015624,-8.480262280273436,0.8020575561523438,0,0,0,0
0.509223043001839,-1.6903063720703124,-9.866505041503906,1.5203180541992187,0,0,0,0
0.5107899869908579,1.8076222534179687,-10.534487304687499,1.9919757812499999,0,0,0,0
0.5129342589934822,2.942473840332031,-10.319009155273436,1.3144167114257812,0,0,0,0
0.5152566939941607,-1.8028338500976562,-9.622296472167967,-0.3591302490234375,0,0,0,0
0.5174210400000447,-2.6001030029296874,-10.850521923828124,0.5195417602539062,0,0,0,0
0.5195234779966995,2.042254016113281,-11.149797131347656,1.3766659545898436,0,0,0,0
0.5210771269921679,2.3439234252929686,-10.465055456542968,1.2832920898437499,0,0,0,0
0.5230789359920891,-2.090138049316406,-9.215282189941405,0.565031591796875,0,0,0,0
0.5252796519926051,-2.4564509033203126,-10.632649572753905,1.6017209106445311,0,0,0,0
0.5271415559982415,1.6017209106445311,-11.049240661621093,2.887407202148437,0,0,0,0
0.52920367999468,3.7397429931640622,-9.995791931152343,2.1930887207031247,0,0,0,0
0.53107263999118,-1.199495031738281,-8.590395556640624,0.4213794921875,0,0,0,0
0.5326443619997008,-2.195482922363281,-9.507374792480467,0.143652099609375,0,0,0,0
0.5346319870004663,0.8475473876953125,-10.117896215820313,1.1420341918945311,0,0,0,0
0.5359830079978565,1.927332336425781,-10.541669909667968,1.3814543579101561,0,0,0,0
0.5372566419973737,2.549824768066406,-9.160215551757812,0.9169792358398436,0,0,0,0
0.5384630719927372,0.7110778930664062,-8.875305554199219,0.20350714111328125,0,0,0,0
0.5396649469912518,-2.6001030029296874,-8.63109698486328,-0.21308394775390624,0,0,0,0
0.5408305629971437,-2.2074539306640624,-9.241618408203124,-0.23223756103515625,0,0,0,0
0.5419287910044659,-0.59376201171875,-9.689334118652344,0.3064578125,0,0,0,0
0.5430101480014855,0.9433154541015625,-10.271125122070313,1.0989385620117187,0,0,0,0
0.5440924319991609,2.1787235107421874,-10.445901843261717,2.003946789550781,0,0,0,0
0.5451748449995648,2.877830395507812,-9.816226806640625,1.93451494140625,0,0,0,0
0.5463520539924502,1.4724340209960938,-9.629479077148437,1.218648645019531,0,0,0,0
0.5475286879955092,-2.1021090576171875,-9.4618849609375,0.7445967163085937,0,0,0,0
0.5486247679946246,-1.9608511596679685,-9.883264453125,0.7230489013671875,0,0,0,0
0.55006865899486,-0.699106884765625,-10.108319409179687,1.7214309936523438,0,0,0,0
0.5512471819965867,0.7302315063476562,-10.826579907226561,1.8411410766601561,0,0,0,0
0.5525151670008199,2.27927998046875,-10.17056865234375,1.9297265380859374,0,0,0,0
0.5536863759916741,0.9864110839843749,-9.583989245605467,1.5873557006835937,0,0,0,0
0.5549564539978746,-0.6272808349609375,-9.502586389160156,1.0582371337890624,0,0,0,0
0.5562470129952999,-1.908178723144531,-10.192116467285155,0.39264907226562495,0,0,0,0
0.5575088680052431,-0.63206923828125,-10.39322940673828,1.0749965454101562,0,0,0,0
0.5586734469980001,0.5195417602539062,-10.838550915527343,1.2904746948242187,0,0,0,0
0.5597740090015577,1.4987702392578124,-10.836156713867187,1.5203180541992187,0,0,0,0
0.5608587919996353,1.9704279663085937,-10.146626635742187,1.4317325927734375,0,0,0,0
0.5622711089963559,0.6200982299804687,-9.694122521972655,0.7302315063476562,0,0,0,0
0.5634357810049551,-0.7805097412109374,-9.399635717773437,0.28969840087890625,0,0,0,0
0.5647248399909586,-1.714248388671875,-9.689334118652344,0.18435352783203124,0,0,0,0
0.5659327140019741,-0.354341845703125,-9.696516723632811,0.8882488159179687,0,0,0,0
0.5670645719947061,0.8786720092773437,-10.196904870605469,1.5538368774414062,0,0,0,0
0.5685659059963655,2.588131994628906,-9.852139831542969,1.5825672973632812,0,0,0,0
0.5697205219912576,1.1228805786132812,-9.241618408203124,1.2210428466796874,0,0,0,0
0.570909378991928,-0.6081272216796875,-9.430760339355468,0.59376201171875,0,0,0,0
0.5720677909994265,-2.0374656127929685,-9.358934289550781,-0.26336218261718747,0,0,0,0
0.5735440519929398,-0.7062894897460937,-10.038887561035155,0.46686932373046874,0,0,0,0
0.5746948529995279,0.42377369384765623,-10.383652600097655,0.7948749511718749,0,0,0,0
0.5758557840017602,1.2761094848632812,-10.007762939453125,1.2425906616210938,0,0,0,0
0.5773919509956613,2.2194249389648437,-9.083601098632812,1.3215993164062498,0,0,0,0
0.5786111589986831,-0.42377369384765623,-9.552864624023437,0.8762778076171874,0,0,0,0
0.5800262539996766,-1.5658078857421873,-9.392453112792968,0.5674257934570313,0,0,0,0
0.5811811849998776,-1.0630255371093749,-9.689334118652344,1.22583125,0,0,0,0
0.5826014649937861,0.5865794067382812,-10.275913525390624,1.426944189453125,0,0,0,0
0.5839292079908773,0.6607996582031249,-10.266336718749999,1.7429788085937499,0,0,0,0
0.5850532140029827,0.9983820922851562,-9.725247143554688,1.9393033447265624,0,0,0,0
0.5861543490027543,0.13407529296874998,-9.382876306152344,1.8267758666992187,0,0,0,0
0.5876857199909864,-0.8403647827148437,-9.68454571533203,1.5705962890624998,0,0,0,0
0.5889337239932502,0.06943184814453125,-9.938331091308592,1.9201497314453124,0,0,0,0
0.5911430319974897,1.1444283935546875,-10.067617980957031,1.3431471313476562,0,0,0,0
0.5924282019987004,0.6272808349609375,-9.710881933593749,0.97683427734375,0,0,0,0
0.5940105719928397,-0.6344634399414062,-9.880870251464843,0.7900865478515624,0,0,0,0
0.5955960720020812,-1.6735469604492186,-10.565611926269531,0.5602431884765625,0,0,0,0
0.596838261000812,-0.3758896606445312,-10.472238061523436,0.8858546142578124,0,0,0,0
0.5980650989949936,1.005564697265625,-10.091559997558592,1.3431471313476562,0,0,0,0
0.5993218990042806,1.005564697265625,-9.81862100830078,1.0630255371093749,0,0,0,0
0.6008556029992178,0.36631285400390623,-9.404424121093749,0.8044517578125,0,0,0,0
0.6021679769910406,-0.9504980590820312,-9.564835632324218,0.2561795776367187,0,0,0,0
0.6034229990036692,-1.6448165405273436,-10.041281762695311,0.4285620971679687,0,0,0,0
0.6046927809948102,0.08858546142578125,-10.359710583496094,0.9888052856445312,0,0,0,0
0.6062817070051096,1.7764976318359373,-10.17056865234375,1.9943699829101562,0,0,0,0
0.6076660980033921,1.4820108276367188,-9.361328491210937,1.9009961181640624,0,0,0,0
0.6092040990042733,0.8355763793945312,-9.014169250488282,0.9265560424804687,0,0,0,0
0.6104384920035955,-0.8547299926757812,-9.519345800781249,0.45489831542968745,0,0,0,0
0.6116906440001912,-1.8315642700195311,-10.067617980957031,0.43574470214843747,0,0,0,0
0.6128682230046252,-0.11013327636718749,-10.254365710449218,0.8475473876953125,0,0,0,0
0.6140452090039616,1.5514426757812498,-9.852139831542969,1.6136919189453125,0,0,0,0
0.6152855279942742,2.147598889160156,-9.885658654785155,1.4724340209960938,0,0,0,0
0.6165219389949925,1.5634136840820312,-9.289502441406249,1.0534487304687499,0,0,0,0
0.6176822410052409,-0.5865794067382812,-9.459490759277344,0.6823474731445313,0,0,0,0
0.6188446529995417,-1.9584569580078124,-9.777919580078125,0.2537853759765625,0,0,0,0
0.6200795460026711,-2.3870190551757813,-10.488997473144531,0.565031591796875,0,0,0,0
0.6218428400025005,0.9911994873046874,-10.242394702148436,1.5729904907226562,0,0,0,0
0.6231754360051127,1.7118541870117185,-10.129867224121092,1.9297265380859374,0,0,0,0
0.6246503629954532,1.2521674682617188,-9.023746057128905,1.5394716674804687,0,0,0,0
0.626105142000597,-0.6440402465820312,-9.291896643066405,0.6679822631835937,0,0,0,0
0.6273322019987972,-1.714248388671875,-10.24718310546875,0.565031591796875,0,0,0,0
0.6285072809987469,-1.9704279663085937,-10.819397302246093,1.0342951171875,0,0,0,0
0.6299191159923794,1.47482822265625,-10.764330664062498,1.7573440185546874,0,0,0,0
0.6313711359980516,2.3151930053710936,-10.146626635742187,1.7908628417968748,0,0,0,0
0.6326015849917894,0.7805097412109374,-9.425971936035156,1.24498486328125,0,0,0,0
0.6341262519999873,-1.369483349609375,-9.255983618164063,0.05746083984375,0,0,0,0
0.6356981419958174,-2.77727392578125,-9.816226806640625,0.009576806640625,0,0,0,0
0.6371664759935811,-1.0366893188476562,-10.283096130371094,1.5705962890624998,0,0,0,0
0.6403221429936821,2.6240450195312497,-9.813832604980469,1.2042834350585936,0,0,0,0
0.6415132590045687,1.6041151123046875,-9.105148913574219,0.6871358764648438,0,0,0,0
0.642876725003589,-3.0980969482421874,-9.459490759277344,0.12449848632812499,0,0,0,0
0.6442295610031579,-3.1555577880859373,-9.868899243164062,0.97683427734375,0,0,0,0
0.6454739159962628,-1.0606313354492187,-10.328585961914062,2.013523596191406,0,0,0,0
0.6466462179960217,3.134009973144531,-10.036493359375,2.454056701660156,0,0,0,0
0.648019831001875,3.23696064453125,-9.165003955078124,2.3774422485351563,0,0,0,0
0.6492846129985992,2.128445275878906,-8.441955053710936,1.0702081420898437,0,0,0,0
0.6504630059935153,-0.6081272216796875,-9.006986645507812,0.11731588134765625,0,0,0,0
0.6518997300008778,-3.5506010620117183,-9.873687646484374,-0.0909796630859375,0,0,0,0
0.6530186059972038,-1.2138602416992186,-10.83376251220703,1.6543933471679686,0,0,0,0
0.6544106459914474,1.5394716674804687,-10.730811840820312,2.085349645996094,0,0,0,0
0.6556349089951254,2.923320227050781,-10.026916552734374,1.9129671264648436,0,0,0,0
0.6571075399988331,1.7549498168945312,-8.985438830566405,0.6392518432617187,0,0,0,0
0.6584872279927367,-1.149216796875,-9.107543115234375,-0.0143652099609375,0,0,0,0
0.6596425290044863,-3.308786694335937,-9.552864624023437,-0.24660277099609373,0,0,0,0
0.6607410529977642,-1.5322890624999999,-10.225635290527343,0.29448680419921874,0,0,0,0
0.661911909992341,1.0534487304687499,-10.73799444580078,1.3718775512695311,0,0,0,0
0.6630728589952923,2.549824768066406,-11.219228979492186,1.927332336425781,0,0,0,0
0.6643122149980627,2.6096798095703124,-10.421959826660157,1.668758557128906,0,0,0,0
0.6654465350002283,1.6136919189453125,-9.306261853027344,1.1947066284179686,0,0,0,0
0.6666170029930072,-0.7134720947265625,-9.816226806640625,0.48123453369140623,0,0,0,0
0.667788434002432,-2.8658593872070313,-10.199299072265624,0.3399766357421875,0,0,0,0
0.6688825689925579,-1.2928688964843749,-10.237606298828124,0.8355763793945312,0,0,0,0
0.6699688899971079,1.2785036865234374,-10.28549033203125,1.8938135131835936,0,0,0,0
0.6710509510012344,2.9376854370117185,-10.366893188476562,2.437297290039062,0,0,0,0
0.6721398279914865,3.0358477050781247,-9.868899243164062,1.5825672973632812,0,0,0,0
0.6733124989987118,1.9297265380859374,-9.311050256347656,0.7948749511718749,0,0,0,0
0.6744586150016403,-0.622492431640625,-9.521740002441407,-0.1005564697265625,0,0,0,0
0.6755528990033781,-2.834734765625,-9.964667309570311,-0.41419688720703124,0,0,0,0
0.6766402200009907,-1.8602946899414061,-10.491391674804687,0.086191259765625,0,0,0,0
0.6777263919939287,0.4836287353515625,-10.704475622558594,0.9576806640625,0,0,0,0
0.6788800270005595,2.1691467041015624,-10.644620581054687,1.6615759521484375,0,0,0,0
0.680063790990971,2.9640216552734375,-9.801861596679688,2.090138049316406,0,0,0,0
0.6811579079949297,2.5857377929687497,-8.801085302734375,1.7381904052734374,0,0,0,0
0.6822401359968353,0.05027823486328125,-8.403647827148436,0.143652099609375,0,0,0,0
0.6833261790015968,-2.4756045166015626,-8.99501563720703,-0.062249243164062495,0,0,0,0
0.6845040539919864,-3.265691064453125,-10.101136804199218,0.4644751220703125,0,0,0,0
0.6856431890046224,0.8547299926757812,-10.340556970214843,1.608903515625,0,0,0,0
0.6867330279928865,2.70065947265625,-10.237606298828124,2.2744915771484373,0,0,0,0
0.687860644000466,3.5817256835937497,-9.696516723632811,2.4851813232421875,0,0,0,0
0.6889545759913744,3.0909143432617188,-9.165003955078124,2.0757728393554684,0,0,0,0
0.6901171740028076,0.5219359619140624,-8.834604125976561,1.235408056640625,0,0,0,0
0.6912769750051666,-2.3439234252929686,-8.927977990722656,-0.39743747558593745,0,0,0,0
0.6923721289931564,-3.718195178222656,-9.751583361816406,-0.26815058593749996,0,0,0,0
0.6934606529976008,-2.5426421630859375,-11.307814440917968,0.7350199096679687,0,0,0,0
0.6946211769973161,-0.25139117431640623,-11.066000073242186,1.3958195678710936,0,0,0,0
0.6958403659955366,2.896984008789062,-10.12507882080078,1.8028338500976562,0,0,0,0
0.6969320759963011,2.9951462768554684,-9.210493786621093,1.6927005737304686,0,0,0,0
0.6980164330016123,0.4644751220703125,-8.705317236328124,1.1468225952148436,0,0,0,0
0.6991211429995019,-2.5450363647460934,-8.75320126953125,0.16998831787109375,0,0,0,0
0.7003549990040483,-3.9312791259765625,-9.380482104492186,0.0430956298828125,0,0,0,0
0.7015026330045657,-2.786850732421875,-11.2240173828125,1.024718310546875,0,0,0,0
0.7026161389949266,-0.34715924072265625,-11.61906065673828,1.924938134765625,0,0,0,0
0.7037153849960305,3.268085266113281,-11.207257971191405,2.5617957763671875,0,0,0,0
0.7048834640008863,3.3638533325195312,-10.01015714111328,2.6240450195312497,0,0,0,0
0.7060476909973659,0.8020575561523438,-8.980650427246093,2.0973206542968748,0,0,0,0
0.7071453819953604,-1.927332336425781,-8.942343200683593,0.9193734375,0,0,0,0
0.7085425139957806,-2.9472622436523435,-9.883264453125,0.5722141967773438,0,0,0,0
0.7107194519921904,1.4508862060546874,-10.364498986816406,1.5035586425781249,0,0,0,0
0.7126402809954016,2.77727392578125,-9.49300958251953,1.6041151123046875,0,0,0,0
0.7153555639961269,-2.6312276245117188,-8.355763793945313,-0.47884033203125,0,0,0,0
0.7172351170011098,-2.43250888671875,-9.97903251953125,0.8499415893554687,0,0,0,0
0.7190452439972432,1.3670891479492187,-10.869675537109375,1.599326708984375,0,0,0,0
0.7212272549950285,3.191470812988281,-10.35492218017578,1.8195932617187498,0,0,0,0
0.7229291429976001,-1.4245499877929686,-9.028534460449219,0.9696516723632812,0,0,0,0
0.7259414959989954,-0.04548983154296875,-10.13226142578125,1.4149731811523436,0,0,0,0
0.7272739809995983,1.4317325927734375,-10.615890161132812,2.3511060302734372,0,0,0,0
0.7285042440053076,2.6479870361328124,-10.149020837402343,2.157175695800781,0,0,0,0
0.7296548790036468,3.1004911499023438,-9.672574707031249,1.5059528442382812,0,0,0,0
0.7309521970018977,-1.3311761230468748,-9.627084875488281,0.4860229370117187,0,0,0,0
0.7323378849978326,-2.7964275390625,-9.636661682128906,-0.34237083740234375,0,0,0,0
0.7335721849958645,-2.3678654418945313,-10.304643945312499,0.296881005859375,0,0,0,0
0.734863317993586,0.47884033203125,-10.702081420898438,0.6296750366210937,0,0,0,0
0.7359647679986665,1.5370774658203123,-10.429142431640624,1.0438719238281249,0,0,0,0
0.7370534969959408,2.1787235107421874,-9.883264453125,1.2521674682617188,0,0,0,0
0.738144946997636,0.7852981445312499,-9.636661682128906,1.1707646118164061,0,0,0,0
0.7393701359978877,-1.1827356201171875,-9.567229833984374,0.17477672119140625,0,0,0,0
0.7407043429993792,-1.6112977172851561,-10.012551342773437,0.38786066894531246,0,0,0,0
0.7420914929971332,-0.29448680419921874,-10.333374365234375,1.1133037719726562,0,0,0,0
0.7432242950017098,0.5434837768554687,-10.46984385986328,1.889025109863281,0,0,0,0
0.7443878920021234,1.6448165405273436,-10.20169327392578,2.1619640991210938,0,0,0,0
0.7455938780040015,2.1906945190429687,-9.160215551757812,2.094926452636719,0,0,0,0
0.7469132699916372,-0.040701428222656245,-8.935160595703124,1.5921441040039062,0,0,0,0
0.7480142949934816,-0.7230489013671875,-9.131485131835937,1.0199299072265624,0,0,0,0
0.749102578003658,-0.6488286499023437,-9.564835632324218,0.9361328491210937,0,0,0,0
0.7501853620051406,-0.2657563842773437,-9.885658654785155,0.9217676391601562,0,0,0,0
0.751270200998988,0.13407529296874998,-10.187328063964843,1.0342951171875,0,0,0,0
0.7524965570046334,0.86191259765625,-9.74200655517578,1.1540052001953125,0,0,0,0
0.7542953319934895,0.4333505004882812,-9.251195214843749,0.5219359619140624,0,0,0,0
0.7555398739932571,-0.9504980590820312,-9.1554271484375,0.3711012573242187,0,0,0,0
0.7567918400018243,-0.7972691528320313,-9.698910925292969,0.4429273071289062,0,0,0,0
0.7581973240012303,-0.18435352783203124,-10.036493359375,0.6871358764648438,0,0,0,0
0.7593152369954623,0.08379705810546874,-10.536881506347656,1.1516109985351561,0,0,0,0
0.7606766649987549,1.0558429321289062,-10.228029492187499,1.3359645263671873,0,0,0,0
0.7618816329922993,0.22744915771484372,-9.792284790039062,1.4101847778320311,0,0,0,0
0.7632606349943671,-1.139639990234375,-9.665392102050781,1.1228805786132812,0,0,0,0
0.7643873999913922,-1.5011644409179687,-9.617508068847656,1.5729904907226562,0,0,0,0
0.7657621620019199,0.3854664672851562,-9.897629663085937,1.9943699829101562,0,0,0,0
0.7669867959921248,1.0534487304687499,-10.220846887207031,2.104503259277344,0,0,0,0
0.7682251329970313,1.8219874633789062,-10.199299072265624,2.133233679199219,0,0,0,0
0.7694020079943584,1.8339584716796873,-10.022128149414062,1.4820108276367188,0,0,0,0
0.7706794749974506,0.36391865234375,-9.787496386718749,0.9169792358398436,0,0,0,0
0.7717790360038634,-1.5370774658203123,-9.871293444824218,0.5626373901367188,0,0,0,0
0.7728670049982611,-0.9169792358398436,-10.213664282226562,0.5027823486328125,0,0,0,0
0.7739517139998497,-0.05985504150390625,-10.091559997558592,0.9911994873046874,0,0,0,0
0.7753280129982159,0.5315127685546874,-10.151415039062499,1.209071838378906,0,0,0,0
0.7768260699958773,1.3359645263671873,-9.725247143554688,1.0606313354492187,0,0,0,0
0.7780946849961765,-0.373495458984375,-9.373299499511718,0.7972691528320313,0,0,0,0
0.7791900979937054,-1.6065093139648436,-9.447519750976562,0.28730419921875,0,0,0,0
0.7802801590005402,-1.6256629272460936,-9.636661682128906,0.19393033447265623,0,0,0,0
0.7818610289978096,0.3327940307617187,-10.08677159423828,0.814028564453125,0,0,0,0
0.7830703670042567,0.7924807495117187,-9.852139831542969,1.3479355346679687,0,0,0,0
0.784249724005349,1.1755530151367186,-9.787496386718749,1.5873557006835937,0,0,0,0
0.7853397299913922,1.1516109985351561,-9.452308154296874,1.6519991455078125,0,0,0,0
0.7864213470020331,0.086191259765625,-9.145850341796875,1.4245499877929686,0,0,0,0
0.7875762219919125,-0.5961562133789062,-9.763554370117188,1.3072341064453123,0,0,0,0
0.7888229669915745,0.36152445068359373,-9.64623848876953,1.4532804077148436,0,0,0,0
0.7900158050033497,1.1348515869140625,-9.603142858886718,1.5705962890624998,0,0,0,0
0.7911410319939023,1.1947066284179686,-9.725247143554688,1.3263877197265623,0,0,0,0
0.7923510919936234,1.1372457885742187,-9.593566052246093,0.7230489013671875,0,0,0,0
0.7945810849923873,-0.9792284790039062,-9.976638317871092,0.1292868896484375,0,0,0,0
0.7958481999958167,-1.426944189453125,-10.20169327392578,0.16280571289062498,0,0,0,0
0.7970325749920448,-0.27293898925781246,-10.484209069824217,0.49320554199218747,0,0,0,0
0.7985067800036632,0.9193734375,-10.158597644042969,1.1755530151367186,0,0,0,0
0.8001729639945552,0.8595183959960937,-9.97184991455078,0.9337386474609375,0,0,0,0
0.8014590419916203,0.36631285400390623,-9.528922607421874,0.8978256225585937,0,0,0,0
0.8030023199971765,-1.8100164550781248,-10.005368737792969,0.70868369140625,0,0,0,0
0.8044897469953867,-1.0582371337890624,-10.486603271484375,1.5394716674804687,0,0,0,0
0.8057095849944744,0.4070142822265625,-10.599130749511717,2.308010400390625,0,0,0,0
0.8068831269920338,1.9800047729492187,-10.572794531249999,2.4492682983398435,0,0,0,0
0.8083175359934103,1.85790048828125,-10.184933862304687,1.618480322265625,0,0,0,0
0.8098313329974189,-1.1563994018554686,-8.90643017578125,1.1420341918945311,0,0,0,0
0.8111484660039423,-2.128445275878906,-9.368511096191405,0.7158662963867187,0,0,0,0
0.8123904139938531,-1.429338391113281,-10.383652600097655,0.9241618408203125,0,0,0,0
0.8139976550010033,1.2928688964843749,-10.084377392578125,1.4317325927734375,0,0,0,0
0.8152521589945536,1.7381904052734374,-9.79946739501953,1.5227122558593749,0,0,0,0
0.817592445993796,0.6368576416015624,-9.181763366699219,0.5315127685546874,0,0,0,0
0.8192997409933014,-2.3774422485351563,-9.775525378417969,0.2442085693359375,0,0,0,0
0.8206145400035894,-1.7741034301757812,-10.59194814453125,0.7972691528320313,0,0,0,0
0.8220134319999488,1.2761094848632812,-10.558429321289061,1.4724340209960938,0,0,0,0
0.82438457099488,1.3263877197265623,-9.651026892089844,1.465251416015625,0,0,0,0
0.8263055669958703,-0.5147533569335937,-8.520963708496094,0.8475473876953125,0,0,0,0
0.8292242919997079,0.14125789794921875,-10.271125122070313,1.0438719238281249,0,0,0,0
0.8312541939958464,1.6472107421875,-10.266336718749999,1.7405846069335937,0,0,0,0
0.8331346350023523,0.7613561279296874,-9.74200655517578,1.0965443603515623,0,0,0,0
0.8356456990004517,-2.6767174560546874,-10.036493359375,0.316034619140625,0,0,0,0
0.8375051579932915,-0.13168109130859373,-10.326191760253906,1.7357962036132812,0,0,0,0
0.8406354000035208,1.9823989746093749,-9.670180505371093,1.0773907470703123,0,0,0,0
0.8425566730002174,-1.668758557128906,-9.828197814941406,0.18435352783203124,0,0,0,0
0.8439373799919849,-2.24097275390625,-10.414777221679687,0.39264907226562495,0,0,0,0
0.8456619339995086,-0.35673604736328124,-10.589553942871094,2.4947581298828125,0,0,0,0
0.8480173879943322,2.8850130004882812,-9.821015209960937,2.24097275390625,0,0,0,0
0.8493006499920739,1.3455413330078123,-9.373299499511718,1.6352397338867186,0,0,0,0
0.8504903220018605,-1.5275006591796874,-9.07163009033203,-0.12210428466796874,0,0,0,0
0.8521965609979816,-2.839523168945312,-10.235212097167969,-0.12689268798828124,0,0,0,0
0.853954188991338,1.714248388671875,-10.620678564453124,1.4796166259765624,0,0,0,0
0.8559125360043254,2.6431986328124997,-9.548076220703125,1.7453730102539062,0,0,0,0
0.8570462450006744,1.2378022583007813,-9.047688073730468,1.1635820068359375,0,0,0,0
0.8581323620019248,-1.8195932617187498,-8.884882360839843,0.35194764404296874,0,0,0,0
0.8592227009939961,-3.5146880371093747,-9.404424121093749,-0.21068974609375,0,0,0,0
0.8604302979947533,-2.4516625,-9.873687646484374,0.8259995727539062,0,0,0,0
0.8615846000029705,-0.28730419921875,-10.402806213378906,1.867477294921875,0,0,0,0
0.8628512699942803,2.5713725830078125,-9.931148486328125,2.2026655273437497,0,0,0,0
0.8641051070007961,2.7629087158203123,-9.588777648925781,2.3056161987304686,0,0,0,0
0.8652166870015208,1.924938134765625,-9.236830004882812,1.838746875,0,0,0,0
0.8664049509970937,-0.7661445312499999,-8.987833032226561,0.2657563842773437,0,0,0,0
0.8677397499996005,-2.906560815429687,-10.216058483886718,0.1867477294921875,0,0,0,0
0.8688240519986721,-2.4349030883789062,-10.460267053222656,0.9457096557617187,0,0,0,0
0.8698948359960923,1.388636962890625,-10.529698901367187,1.7405846069335937,0,0,0,0
0.8709676379949087,2.588131994628906,-10.292672937011718,1.936909143066406,0,0,0,0
0.872124328991049,2.6791116577148437,-9.794678991699218,1.867477294921875,0,0,0,0
0.8735370159993181,1.5322890624999999,-9.143456140136719,0.5003881469726562,0,0,0,0
0.8749892210034886,-3.2609026611328122,-9.579200842285156,-0.21787235107421873,0,0,0,0
0.8761056340008508,-2.839523168945312,-10.12507882080078,-0.3806780639648437,0,0,0,0
0.8772845460043754,-1.199495031738281,-10.560823522949217,0.22266075439453123,0,0,0,0
0.8785179580008844,0.7924807495117187,-10.611101757812499,1.6831237670898436,0,0,0,0
0.8797589250025339,2.272097375488281,-10.280701928710936,1.867477294921875,0,0,0,0
0.8810372250009095,1.8698714965820311,-9.631873278808593,1.5131354492187499,0,0,0,0
0.882187804003479,-1.1037269653320312,-9.026140258789061,0.9959878906249999,0,0,0,0
0.8835167700017337,-3.2130186279296873,-9.318232861328125,0.40222587890625,0,0,0,0
0.8846140160021605,-2.808398547363281,-9.976638317871092,1.0726023437499999,0,0,0,0
0.885704763000831,-1.0486603271484374,-10.36210478515625,2.0542250244140625,0,0,0,0
0.8872465599997668,2.6503812377929687,-10.271125122070313,2.6958710693359373,0,0,0,0
0.8885154890012927,3.6655227416992187,-10.091559997558592,2.1260510742187497,0,0,0,0
0.8896076620003441,2.703053674316406,-9.330203869628905,1.0342951171875,0,0,0,0
0.8906871859944658,-0.6248866333007812,-9.248801013183593,0.07422025146484375,0,0,0,0
0.8919098939950345,-3.095702746582031,-9.854534033203125,-0.22266075439453123,0,0,0,0
0.8931721389963059,-1.8028338500976562,-10.263942517089843,0.2346317626953125,0,0,0,0
0.8944956229970558,0.28012159423828126,-10.038887561035155,1.7022773803710936,0,0,0,0
0.8959525509999366,3.373430139160156,-9.775525378417969,2.042254016113281,0,0,0,0
0.8971591849985998,2.9735984619140625,-9.04050546875,1.7956512451171873,0,0,0,0
0.8985288349940674,-0.10773907470703124,-8.552088330078124,0.0143652099609375,0,0,0,0
0.8999697629915318,-3.162740393066406,-9.80665,-0.49799394531249996,0,0,0,0
0.9013299880025443,-1.915361328125,-10.678139404296875,-0.031124621582031248,0,0,0,0
0.9025082339940127,-0.13168109130859373,-10.979808813476561,1.6543933471679686,0,0,0,0
0.9036814979917835,1.4006079711914061,-10.488997473144531,2.221819140625,0,0,0,0
0.9049058169912314,2.9544448486328125,-9.440337145996093,2.1787235107421874,0,0,0,0
0.9066347960033454,0.1867477294921875,-8.590395556640624,0.86191259765625,0,0,0,0
0.9080559839931084,-2.2026655273437497,-9.375693701171874,0.49799394531249996,0,0,0,0
0.909239765998791,-1.5275006591796874,-10.192116467285155,0.6296750366210937,0,0,0,0
0.910504380997736,-0.02154781494140625,-10.43871923828125,1.4604630126953124,0,0,0,0
0.912122139998246,2.8730419921875,-11.042058056640624,1.6711527587890624,0,0,0,0
0.9139526929939166,-0.7398083129882812,-9.253589416503905,0.7900865478515624,0,0,0,0
0.9160835200018482,-2.379836450195312,-9.291896643066405,-0.01915361328125,0,0,0,0
0.9178620540042175,-1.4915876342773438,-10.180145458984374,1.1444283935546875,0,0,0,0
0.9194487950007897,1.426944189453125,-10.409988818359375,1.7381904052734374,0,0,0,0
0.9213143660017522,2.0925322509765625,-9.696516723632811,1.8028338500976562,0,0,0,0
0.9227264789951732,-0.6057330200195312,-9.655815295410155,0.5746083984375,0,0,0,0
0.9239320579945343,-2.1715409057617188,-9.943119494628906,0.35673604736328124,0,0,0,0
0.9250813590042526,-1.177947216796875,-9.991003527832031,0.9193734375,0,0,0,0
0.926174976004404,0.5961562133789062,-9.854534033203125,1.6543933471679686,0,0,0,0
0.9274395349930273,1.8626888916015625,-10.012551342773437,2.27927998046875,0,0,0,0
0.9287197060039034,2.906560815429687,-9.591171850585937,1.898601916503906,0,0,0,0
0.9299039699981222,2.4253262817382812,-9.04050546875,1.1037269653320312,0,0,0,0
0.9309966419968987,-1.9919757812499999,-9.406818322753905,0.38307226562499996,0,0,0,0
0.9320914260024438,-2.104503259277344,-10.000580334472655,-0.06703764648437499,0,0,0,0
0.9333659480034839,-1.5155296508789062,-10.321403356933594,0.93852705078125,0,0,0,0
0.9346822840016102,-0.3136404174804687,-9.969455712890625,1.4317325927734375,0,0,0,0
0.9358867699920665,0.8259995727539062,-10.156203442382813,1.678335363769531,0,0,0,0
0.9369880720041692,2.3295582153320313,-9.265560424804686,1.7717092285156248,0,0,0,0
0.93815685500158,-0.047884033203124995,-8.949525805664061,1.1947066284179686,0,0,0,0
0.9393784150015563,-1.5107412475585937,-9.411606726074218,0.4955997436523437,0,0,0,0
0.9405003089923412,-1.8650830932617186,-10.007762939453125,0.47165772705078124,0,0,0,0
0.9417724980012281,-1.4628572143554686,-10.261548315429687,0.9648632690429687,0,0,0,0
0.943107871004031,0.3806780639648437,-10.196904870605469,1.35990654296875,0,0,0,0
0.944386282004416,1.7525556152343749,-10.149020837402343,1.8411410766601561,0,0,0,0
0.9456874519964913,1.898601916503906,-9.430760339355468,1.7884686401367187,0,0,0,0
0.9470686769927852,-0.6416460449218749,-9.222464794921875,1.419761584472656,0,0,0,0
0.9483193100022618,-0.7110778930664062,-10.029310754394531,0.9433154541015625,0,0,0,0
0.9495815550035331,-0.5386953735351562,-10.575188732910156,1.0462661254882812,0,0,0,0
0.9507610040018335,-0.354341845703125,-10.687716210937499,1.0989385620117187,0,0,0,0
0.9519631010043668,1.350329736328125,-10.618284362792968,1.2737152832031249,0,0,0,0
0.9531997720041545,1.438915197753906,-9.955090502929687,1.2569558715820313,0,0,0,0
0.9549121409945656,-0.29927520751953124,-9.124302526855468,0.5482721801757812,0,0,0,0
0.9563184389990056,-1.37906015625,-9.45470235595703,0.373495458984375,0,0,0,0
0.9575016659946414,-0.6655880615234374,-9.991003527832031,0.7565677246093749,0,0,0,0
0.9587447999947472,-0.10295067138671875,-10.395623608398436,0.9720458740234375,0,0,0,0
0.9600059329968644,1.1875240234375,-10.50815108642578,1.254561669921875,0,0,0,0
0.9611819940037094,1.6017209106445311,-10.060435375976562,1.4006079711914061,0,0,0,0
0.9623564799985616,0.0143652099609375,-9.72285294189453,1.1276689819335937,0,0,0,0
0.963622576004127,-0.8403647827148437,-9.49300958251953,0.9720458740234375,0,0,0,0
0.9649377649911912,-1.0342951171875,-9.509768994140625,1.2976572998046874,0,0,0,0
0.9661722869932419,0.5985504150390625,-9.536105212402344,1.6615759521484375,0,0,0,0
0.96745023499534,0.8571241943359375,-9.792284790039062,1.7310078002929687,0,0,0,0
0.9686735729919747,1.908178723144531,-10.251971508789062,1.659181750488281,0,0,0,0
0.9699086509936024,1.3000515014648437,-9.746794958496093,1.1635820068359375,0,0,0,0
0.9711680990003515,-1.3455413330078123,-9.861716638183593,0.584185205078125,0,0,0,0
0.9723630480002612,-1.5753846923828123,-9.835380419921874,0.28012159423828126,0,0,0,0
0.973545072003617,-0.6392518432617187,-10.072406384277343,0.8475473876953125,0,0,0,0
0.9747846679965733,0.19393033447265623,-9.648632690429688,1.0941501586914062,0,0,0,0
0.9760984309978085,1.4341267944335936,-10.005368737792969,1.1755530151367186,0,0,0,0
0.9773913419921882,1.5251064575195312,-9.804255798339844,1.3431471313476562,0,0,0,0
0.9787109559983946,-0.4644751220703125,-9.823409411621093,0.6368576416015624,0,0,0,0
0.9801474760024576,-1.139639990234375,-9.964667309570311,0.584185205078125,0,0,0,0
0.9815229789965088,-0.181959326171875,-10.374075793457031,1.3120225097656248,0,0,0,0
0.9830314610007918,-0.009576806640625,-9.65342109375,1.4891934326171874,0,0,0,0
0.9843194830027642,0.8810662109374999,-9.68454571533203,1.7669208251953124,0,0,0,0
0.9856592449941672,1.0989385620117187,-9.734823950195311,1.7812860351562498,0,0,0,0
0.9873697069997434,-0.4644751220703125,-9.94072529296875,1.5610194824218748,0,0,0,0
0.9886087479972048,-0.08858546142578125,-10.405200415039062,1.4796166259765624,0,0,0,0
0.9898900660045911,0.5291185668945312,-10.290278735351562,1.4413093994140624,0,0,0,0
0.991247921003378,0.2154781494140625,-10.20169327392578,1.1133037719726562,0,0,0,0
0.992516127997078,0.9097966308593749,-10.156203442382813,0.70868369140625,0,0,0,0
0.9936993549927138,0.13646949462890623,-9.469067565917967,0.49799394531249996,0,0,0,0
0.9949642659921665,-1.675941162109375,-9.495403784179686,0.23702596435546874,0,0,0,0
0.9963269729923923,-0.7948749511718749,-9.900023864746093,0.3687070556640625,0,0,0,0
0.9978028810000978,0.44053310546874996,-9.919177478027343,1.0342951171875,0,0,0,0
0.9989952559990343,0.6248866333007812,-9.840168823242188,1.0845733520507812,0,0,0,0
1.0001847429957706,0.9600748657226562,-9.947907897949218,0.9911994873046874,0,0,0,0
1.001464301996748,0.24660277099609373,-9.610325463867188,1.0007762939453124,0,0,0,0
1.0027628419920802,-1.2928688964843749,-9.60793126220703,0.9624690673828125,0,0,0,0
1.0040301789995283,-0.5099649536132812,-10.026916552734374,1.3000515014648437,0,0,0,0
1.0052691460005008,0.8475473876953125,-10.206481677246094,1.944091748046875,0,0,0,0
1.0065485020022606,1.5777788940429687,-9.947907897949218,2.176329309082031,0,0,0,0
1.007800542996847,1.3958195678710936,-9.89523546142578,1.867477294921875,0,0,0,0
1.008980529004475,1.7310078002929687,-9.521740002441407,1.4700398193359374,0,0,0,0
1.0102567549911328,-1.3575123413085937,-9.404424121093749,0.8667010009765624,0,0,0,0
1.0115195359976497,-1.9297265380859374,-9.87608184814453,0.3806780639648437,0,0,0,0
1.012783614001819,-1.2282254516601563,-10.271125122070313,0.7900865478515624,0,0,0,0
1.0140790619916515,1.3192051147460937,-10.129867224121092,1.16837041015625,0,0,0,0
1.015260122003383,1.5586252807617187,-10.012551342773437,1.24498486328125,0,0,0,0
1.0168937330017798,1.8315642700195311,-8.947131604003905,0.5793968017578125,0,0,0,0
1.0183524379972368,-2.128445275878906,-8.80347950439453,0.258573779296875,0,0,0,0
1.019734810994123,-2.4133552734375,-9.701305126953125,0.16759411621093748,0,0,0,0
1.021039387997007,0.22026655273437498,-10.599130749511717,0.9313444458007812,0,0,0,0
1.0229286620015046,1.180341418457031,-10.12507882080078,1.9800047729492187,0,0,0,0
1.024753214995144,1.5705962890624998,-9.126696728515624,1.7166425903320313,0,0,0,0
1.0261915129958652,-1.1420341918945311,-9.411606726074218,1.3766659545898436,0,0,0,0
1.027512589993421,-1.2234370483398436,-9.892841259765625,1.3144167114257812,0,0,0,0
1.0288096309959656,-0.22744915771484372,-10.70686982421875,1.6112977172851561,0,0,0,0
1.030115522997221,1.3646949462890625,-10.168174450683592,1.7453730102539062,0,0,0,0
1.031554913992295,1.1252747802734375,-9.976638317871092,1.1659762084960936,0,0,0,0
1.0328921759937657,1.3575123413085937,-9.272743029785156,0.7038952880859375,0,0,0,0
1.0342102159920614,-1.5370774658203123,-9.557653027343749,0.08379705810546874,0,0,0,0
1.035983102992759,-2.6479870361328124,-10.192116467285155,-0.0526724365234375,0,0,0,0
1.0376028619939461,-0.2825157958984375,-10.103531005859374,1.2330138549804688,0,0,0,0
1.0389224569953512,1.3670891479492187,-10.012551342773437,1.5298948608398437,0,0,0,0
1.0401835170050617,2.262520568847656,-9.679757312011718,1.465251416015625,0,0,0,0
1.0416090929938946,1.0845733520507812,-9.200916979980468,0.6009446166992187,0,0,0,0
1.042946187997586,-1.3527239379882812,-9.471461767578125,0.4165910888671875,0,0,0,0
1.0443379869975615,-2.24097275390625,-10.024522351074218,0.6751648681640625,0,0,0,0
1.0455651020020014,0.16519991455078123,-10.510545288085936,2.224213342285156,0,0,0,0
1.0473839879996376,2.080561242675781,-9.696516723632811,2.422932080078125,0,0,0,0
1.0493173360009678,1.3287819213867187,-9.447519750976562,1.93451494140625,0,0,0,0
1.0506581170047866,-0.7685387329101562,-9.564835632324218,0.3854664672851562,0,0,0,0
1.0520532299997285,-1.68551796875,-9.897629663085937,0.26815058593749996,0,0,0,0
1.0536562299967045,-0.15083470458984374,-10.503362683105468,0.8738836059570312,0,0,0,0
1.0549595479969867,0.8810662109374999,-9.849745629882811,0.9840168823242187,0,0,0,0
1.0563179029995808,1.3551181396484375,-9.627084875488281,0.9361328491210937,0,0,0,0
1.0582371950004017,-1.35990654296875,-9.179369165039063,0.12449848632812499,0,0,0,0
1.0599762490019202,-2.2026655273437497,-10.256759912109374,0.19871873779296872,0,0,0,0
1.061342881002929,-0.15322890625,-10.402806213378906,0.9026140258789062,0,0,0,0
1.062839863996487,1.4245499877929686,-10.24000050048828,1.7812860351562498,0,0,0,0
1.0641952000005404,2.04943662109375,-9.897629663085937,1.8602946899414061,0,0,0,0
1.0654872960003559,0.7350199096679687,-9.217676391601563,1.668758557128906,0,0,0,0
1.0667569659999572,-1.3024457031249999,-9.272743029785156,0.9911994873046874,0,0,0,0
1.0680813579965616,-0.9696516723632812,-9.923965881347655,1.0726023437499999,0,0,0,0
1.0697832459991332,0.5147533569335937,-10.026916552734374,1.956062756347656,0,0,0,0
1.0709733609983232,1.9776105712890624,-10.182539660644531,1.879448303222656,0,0,0,0
1.0722297540050931,1.944091748046875,-9.787496386718749,1.4125789794921875,0,0,0,0
1.0734936100052437,0.14604630126953125,-9.117119921875,0.9145850341796874,0,0,0,0
1.0747477620025165,-2.281674182128906,-8.89924757080078,-0.1867477294921875,0,0,0,0
1.0759519699931843,-2.8467057739257813,-10.304643945312499,0.12689268798828124,0,0,0,0
1.0771549369965214,-0.12449848632812499,-10.58476553955078,0.7661445312499999,0,0,0,0
1.0783793680020608,1.254561669921875,-10.625466967773438,1.2593500732421874,0,0,0,0
1.0796817779919365,1.9847931762695312,-10.374075793457031,1.5945383056640625,0,0,0,0
1.08146749799198,0.8283937744140625,-9.2320416015625,1.3742717529296875,0,0,0,0
1.0826630399969872,-1.4820108276367188,-9.153032946777342,0.4381389038085937,0,0,0,0
1.0838676919956924,-2.73896669921875,-10.536881506347656,0.5267243652343749,0,0,0,0
1.085097160001169,-0.63206923828125,-10.472238061523436,1.3120225097656248,0,0,0,0
1.086286867997842,1.2737152832031249,-10.330980163574218,1.944091748046875,0,0,0,0
1.0873681889934232,2.6216508178710938,-10.292672937011718,2.233790148925781,0,0,0,0
1.0884500829997705,3.4428619873046875,-10.067617980957031,2.212242333984375,0,0,0,0
1.0896432360023027,1.7836802368164062,-9.03332286376953,0.9720458740234375,0,0,0,0
1.0908492040034616,-0.9528922607421875,-9.208099584960937,0.08379705810546874,0,0,0,0
1.0920600599929458,-2.4684219116210935,-10.041281762695311,-0.19632453613281248,0,0,0,0
1.093757540002116,-0.9816226806640624,-10.58476553955078,0.9026140258789062,0,0,0,0
1.0950095809967024,0.5889736083984375,-10.342951171874999,1.5801730957031248,0,0,0,0
1.0962327150045894,2.9568390502929685,-9.634267480468749,1.599326708984375,0,0,0,0
1.0973751279962016,1.467645617675781,-8.520963708496094,1.2689268798828124,0,0,0,0
1.0984506889944896,-1.1228805786132812,-8.441955053710936,0.5123591552734374,0,0,0,0
1.0995685090019833,-2.901772412109375,-8.865728747558594,-0.1149216796875,0,0,0,0
1.1012144900014391,-0.9600748657226562,-10.572794531249999,0.5099649536132812,0,0,0,0
1.1025007709977217,0.6105214233398437,-11.056423266601563,1.3287819213867187,0,0,0,0
1.1037057200010167,2.099714855957031,-11.243170996093749,2.1021090576171875,0,0,0,0
1.1052448510017712,1.8315642700195311,-9.018957653808593,2.001552587890625,0,0,0,0
1.1065767609979957,-0.9050082275390624,-8.291120349121094,1.3096283081054687,0,0,0,0
1.1077713949925965,-2.607285607910156,-8.336610180664062,0.8690952026367187,0,0,0,0
1.1088547160034068,-1.9321207397460936,-9.550470422363281,1.3072341064453123,0,0,0,0
1.1100059799937299,-0.105344873046875,-10.951078393554686,1.7621324218749999,0,0,0,0
1.1116498129995307,1.8602946899414061,-10.864887133789061,1.6519991455078125,0,0,0,0
1.1128075029992033,2.645592834472656,-10.716446630859375,1.3431471313476562,0,0,0,0
1.1139332309976453,1.1731588134765625,-9.18655177001953,0.6081272216796875,0,0,0,0
1.1150125330023002,-1.3192051147460937,-9.193734375,-0.01915361328125,0,0,0,0
1.1165037750033662,-2.4013842651367185,-9.600748657226562,-0.040701428222656245,0,0,0,0
1.1177367229975061,-0.8379705810546875,-10.13226142578125,1.3551181396484375,0,0,0,0
1.1188565439952072,0.5722141967773438,-10.570400329589843,1.668758557128906,0,0,0,0
1.1199509010039037,1.4820108276367188,-10.35492218017578,1.7477672119140624,0,0,0,0
1.121033332994557,2.499546533203125,-9.323021264648437,1.66636435546875,0,0,0,0
1.1227158879919443,-0.6488286499023437,-8.968679418945312,0.5147533569335937,0,0,0,0
1.1239407989924075,-2.4349030883789062,-9.813832604980469,0.46208092041015625,0,0,0,0
1.125112840993097,-2.1691467041015624,-10.283096130371094,1.005564697265625,0,0,0,0
1.1262031799997203,1.01514150390625,-10.421959826660157,1.7717092285156248,0,0,0,0
1.1272840379970148,2.39420166015625,-10.493785876464843,2.281674182128906,0,0,0,0
1.1288233719969867,3.306392492675781,-10.359710583496094,1.7334020019531249,0,0,0,0
1.1302236890041968,-0.8092401611328125,-9.069235888671875,0.8044517578125,0,0,0,0
1.1314235079917125,-2.5809493896484375,-9.246406811523437,0.076614453125,0,0,0,0
1.132523273001425,-2.4205378784179685,-9.617508068847656,-0.1197100830078125,0,0,0,0
1.1336117229948286,-1.1875240234375,-9.962273107910155,0.41898529052734373,0,0,0,0
1.134892874993966,0.17238251953125,-10.536881506347656,1.254561669921875,0,0,0,0
1.136069343003328,0.9648632690429687,-10.235212097167969,1.438915197753906,0,0,0,0
1.1371599970007082,1.6208745239257811,-9.583989245605467,1.3575123413085937,0,0,0,0
1.1382434840052156,0.00718260498046875,-9.380482104492186,0.8044517578125,0,0,0,0
1.139324805000797,-1.6639701538085936,-9.277531433105468,0.086191259765625,0,0,0,0
1.1409308970032725,-1.886630908203125,-10.295067138671874,0.6296750366210937,0,0,0,0
1.1421048839983996,-1.1348515869140625,-10.594342346191405,1.1563994018554686,0,0,0,0
1.1431990190030774,0.7517793212890624,-10.54645831298828,1.62805712890625,0,0,0,0
1.1442865429999074,1.867477294921875,-9.86411083984375,1.9416975463867185,0,0,0,0
1.1458538209990365,1.70467158203125,-8.975862023925782,1.7190367919921874,0,0,0,0
1.1470713439921383,0.6560112548828124,-8.769960681152343,1.458068811035156,0,0,0,0
1.148194663997856,-0.7948749511718749,-8.94473740234375,1.120486376953125,0,0,0,0
1.1492790409974987,-0.40222587890625,-9.449913952636718,1.149216796875,0,0,0,0
1.1503624909964856,0.47165772705078124,-10.211270080566406,1.1516109985351561,0,0,0,0
1.1519571759999963,0.8858546142578124,-10.749965454101561,1.0702081420898437,0,0,0,0
1.1531441989936866,1.3096283081054687,-10.24718310546875,1.0319009155273438,0,0,0,0
1.1543349260027753,-0.430956298828125,-9.97184991455078,0.6200982299804687,0,0,0,0
1.155504098001984,-1.6472107421875,-9.473855969238281,0.4381389038085937,0,0,0,0
1.1571993370016571,-1.0366893188476562,-9.334992272949219,0.737414111328125,0,0,0,0
1.1583666009973967,0.028730419921875,-9.900023864746093,1.0462661254882812,0,0,0,0
1.1596097349975025,0.7422025146484375,-10.261548315429687,1.2330138549804688,0,0,0,0
1.1607002039963845,1.707065783691406,-10.479420666503906,1.5179238525390624,0,0,0,0
1.1617927280021831,1.0797849487304687,-10.342951171874999,0.8810662109374999,0,0,0,0
1.1634138020017417,-1.7501614135742187,-10.158597644042969,0.5363011718749999,0,0,0,0
1.1646085469983518,-1.5849614990234373,-10.110713610839843,0.63206923828125,0,0,0,0
1.1657038120029029,-0.48123453369140623,-9.890447058105469,1.2832920898437499,0,0,0,0
1.1667910590040265,0.7062894897460937,-9.890447058105469,1.9967641845703124,0,0,0,0
1.1683521889935946,1.8100164550781248,-9.512163195800781,1.9321207397460936,0,0,0,0
1.1698476530000335,1.1731588134765625,-9.210493786621093,1.254561669921875,0,0,0,0
1.1709671029966557,-0.17956512451171874,-9.789890588378906,0.6919242797851562,0,0,0,0
1.1721019599935971,-1.2737152832031249,-9.76116016845703,0.5099649536132812,0,0,0,0
1.173707273992477,-0.46686932373046874,-9.847351428222655,1.0223241088867188,0,0,0,0
1.1748675569979241,0.24899697265624998,-10.287884533691406,1.1276689819335937,0,0,0,0
1.175959932996193,0.7062894897460937,-9.81862100830078,1.3527239379882812,0,0,0,0
1.1773748609994072,0.9313444458007812,-9.160215551757812,1.4053963745117186,0,0,0,0
1.178562624991173,-0.28490999755859375,-9.351751684570312,1.0103531005859374,0,0,0,0
1.179724981993786,-1.2473790649414063,-9.828197814941406,0.5267243652343749,0,0,0,0
1.1812530939932913,0.011971008300781249,-10.08677159423828,0.8092401611328125,0,0,0,0
1.1823870990046998,0.45968671875,-10.204087475585936,0.7805097412109374,0,0,0,0
1.1839749319915427,0.2825157958984375,-10.158597644042969,0.8978256225585937,0,0,0,0
1.1856295239995234,-0.16519991455078123,-10.120290417480469,1.024718310546875,0,0,0,0
1.1868536770052742,-1.0917559570312498,-9.900023864746093,1.177947216796875,0,0,0,0
1.1879864600050496,-0.9576806640625,-9.907206469726562,1.5705962890624998,0,0,0,0
1.1891459829930682,0.2537853759765625,-9.883264453125,1.9847931762695312,0,0,0,0
1.1903003219922539,1.3383587280273437,-9.82580361328125,1.889025109863281,0,0,0,0
1.191840489002061,0.6416460449218749,-9.591171850585937,1.2306196533203124,0,0,0,0
1.193004900997039,0.7541735229492187,-8.853757739257812,1.0319009155273438,0,0,0,0
1.1941416839981684,-0.13168109130859373,-9.157821350097656,0.737414111328125,0,0,0,0
1.1956381670024712,-1.2880804931640624,-10.096348400878906,0.7541735229492187,0,0,0,0
1.197385701991152,0.7948749511718749,-10.137049829101562,1.0630255371093749,0,0,0,0
1.1984884849953232,0.9720458740234375,-10.419565624999999,1.1156979736328125,0,0,0,0
1.1995777129923226,0.584185205078125,-10.280701928710936,0.9935936889648437,0,0,0,0
1.2006648120004684,0.6105214233398437,-10.235212097167969,0.55545478515625,0,0,0,0
1.2020641099952627,-0.44053310546874996,-9.631873278808593,0.25139117431640623,0,0,0,0
1.2033766319946153,-2.1739351074218747,-9.622296472167967,0.3232172241210937,0,0,0,0
1.2045962660049554,-0.9648632690429687,-9.801861596679688,1.4724340209960938,0,0,0,0
1.2065489099913975,1.5011644409179687,-9.725247143554688,2.0542250244140625,0,0,0,0
1.2085418499918887,2.0254946044921875,-10.189722265624999,1.7956512451171873,0,0,0,0
1.2105099559994414,-1.2018892333984375,-10.034099157714843,0.8762778076171874,0,0,0,0
1.2124197669909336,-1.0079588989257813,-10.445901843261717,0.7565677246093749,0,0,0,0
1.214345560001675,0.7757213378906249,-10.146626635742187,1.47482822265625,0,0,0,0
1.2156182860053377,1.1875240234375,-9.694122521972655,1.6041151123046875,0,0,0,0
1.2169495659909444,1.5275006591796874,-8.80347950439453,1.16837041015625,0,0,0,0
1.2187532859970815,-1.2378022583007813,-9.674968908691406,0.40462008056640625,0,0,0,0
1.2207092449971242,-0.7613561279296874,-10.874463940429687,1.218648645019531,0,0,0,0
1.2228538679919438,1.4030021728515625,-10.864887133789061,1.429338391113281,0,0,0,0
1.2245723660016665,0.9528922607421875,-9.789890588378906,1.1348515869140625,0,0,0,0
1.2262750499940012,-1.4508862060546874,-8.78432589111328,0.8499415893554687,0,0,0,0
1.227951826993376,-1.6352397338867186,-8.93755479736328,0.9241618408203125,0,0,0,0
1.2290524809941417,-0.28969840087890625,-10.098742602539062,1.2976572998046874,0,0,0,0
1.2301448569924105,1.0223241088867188,-10.395623608398436,1.5155296508789062,0,0,0,0
1.2320254459918942,1.6472107421875,-10.129867224121092,1.0295067138671874,0,0,0,0
1.2331894139933866,1.2976572998046874,-9.495403784179686,0.1005564697265625,0,0,0,0
1.2351858350011753,-2.152387292480469,-10.122684619140625,0.055066638183593745,0,0,0,0
1.2363699690031353,-1.3072341064453123,-10.36210478515625,1.3838485595703125,0,0,0,0
1.2385406109970063,2.1021090576171875,-10.09395419921875,1.9105729248046874,0,0,0,0
1.2396564679947915,2.370259643554687,-9.792284790039062,2.013523596191406,0,0,0,0
1.2412386899959529,1.898601916503906,-8.79150849609375,1.2378022583007813,0,0,0,0
1.2428496350039495,-2.0302830078125,-9.337386474609374,0.3495534423828125,0,0,0,0
1.2440423060033936,-1.5586252807617187,-10.462661254882812,0.6847416748046875,0,0,0,0
1.245761655998649,0.1580173095703125,-10.603919152832031,2.2768857788085937,0,0,0,0
1.2474801920034224,2.5067291381835934,-10.46984385986328,2.3032219970703123,0,0,0,0
1.248712621993036,2.616862414550781,-9.880870251464843,2.138022082519531,0,0,0,0
1.2499398109939648,0.8667010009765624,-8.760383874511719,0.7972691528320313,0,0,0,0
1.2511383340024622,-1.438915197753906,-9.04050546875,0.3016694091796875,0,0,0,0
1.2525912059936672,-1.675941162109375,-9.852139831542969,0.21068974609375,0,0,0,0
1.2537237859942252,0.10295067138671875,-10.556035119628906,0.6416460449218749,0,0,0,0
1.2548219390009763,1.2928688964843749,-10.596736547851561,1.2425906616210938,0,0,0,0
1.2564826049929252,1.637633935546875,-9.732429748535155,1.0342951171875,0,0,0,0
1.2576812949992018,-0.105344873046875,-8.992621435546875,0.7900865478515624,0,0,0,0
1.2587783189956099,-1.7717092285156248,-9.354145886230468,0.18435352783203124,0,0,0,0
1.259873510003672,-2.327164013671875,-9.469067565917967,0.411802685546875,0,0,0,0
1.2610533669940196,-1.1635820068359375,-10.122684619140625,1.1109095703125,0,0,0,0
1.2622667039977387,0.4333505004882812,-10.335768566894531,1.6208745239257811,0,0,0,0
1.2636805770016508,1.9967641845703124,-10.512939489746094,1.7764976318359373,0,0,0,0
1.264837210997939,1.8650830932617186,-10.134655627441406,1.3862427612304686,0,0,0,0
1.2660154009936377,0.21068974609375,-9.2320416015625,0.852335791015625,0,0,0,0
1.2671342219982762,-1.8746598999023436,-9.521740002441407,0.7781155395507812,0,0,0,0
1.2682314499979839,-2.3774422485351563,-10.026916552734374,1.0893617553710937,0,0,0,0
1.269315807003295,0.5961562133789062,-10.139444030761718,1.8459294799804686,0,0,0,0
1.2704055350041017,2.094926452636719,-10.455478649902343,2.128445275878906,0,0,0,0
1.2715579850046197,2.3918074584960936,-10.46984385986328,1.9919757812499999,0,0,0,0
1.2726982309977757,2.0302830078125,-10.089165795898436,1.5346832641601562,0,0,0,0
1.2741634550038725,-0.24660277099609373,-9.354145886230468,0.10295067138671875,0,0,0,0
1.2753786260000197,-3.1100679565429687,-9.598354455566406,-0.21308394775390624,0,0,0,0
1.2765736489964183,-1.7405846069335937,-9.873687646484374,0.19393033447265623,0,0,0,0
1.277727912995033,0.18435352783203124,-9.90241806640625,1.1947066284179686,0,0,0,0
1.2788203259988222,1.8698714965820311,-10.424354028320312,1.6112977172851561,0,0,0,0
1.2799060539982747,2.482787121582031,-10.726023437499999,1.4508862060546874,0,0,0,0
1.2809875050006667,2.346317626953125,-10.378864196777343,0.9097966308593749,0,0,0,0
1.2821415649959818,0.3711012573242187,-9.813832604980469,0.19393033447265623,0,0,0,0
1.2832994960044743,-2.0087351928710935,-9.624690673828125,-0.0430956298828125,0,0,0,0
1.2843989829998463,-2.4588451049804685,-9.715670336914062,0.3064578125,0,0,0,0
1.2854847300041001,-0.373495458984375,-9.854534033203125,2.123656872558594,0,0,0,0
1.287256839001202,1.7741034301757812,-9.952696301269532,2.5163059448242184,0,0,0,0
1.2884320839948487,3.383006945800781,-9.655815295410155,2.4516625,0,0,0,0
1.2895249610010069,1.659181750488281,-9.083601098632812,1.9871873779296874,0,0,0,0
1.290611465999973,-1.0869675537109373,-9.466673364257812,0.7302315063476562,0,0,0,0
1.2917728229949716,-3.1028853515624997,-9.832986218261718,-0.03591302490234375,0,0,0,0
1.2929234949988313,-2.935291235351562,-10.17056865234375,0.7158662963867187,0,0,0,0
1.2940401490050135,-1.1468225952148436,-10.220846887207031,1.458068811035156,0,0,0,0
1.295113265994587,1.1061211669921875,-10.000580334472655,1.9416975463867185,0,0,0,0
1.2962327900022501,2.365471240234375,-9.550470422363281,1.9488801513671874,0,0,0,0
1.2978363080037525,1.5131354492187499,-9.054870678710937,0.51714755859375,0,0,0,0
1.2990911639935803,-1.0630255371093749,-9.519345800781249,-0.2059013427734375,0,0,0,0
1.300199243996758,-2.9544448486328125,-10.050858569335936,-0.3591302490234375,0,0,0,0
1.3012855269917054,-2.7269956909179687,-10.287884533691406,0.51714755859375,0,0,0,0
1.302367273994605,0.5243301635742187,-10.685322009277343,1.2761094848632812,0,0,0,0
1.3035837780043948,2.1883003173828124,-10.89840595703125,1.85790048828125,0,0,0,0
1.3050503169943113,3.153163586425781,-10.189722265624999,1.8363526733398436,0,0,0,0
1.3062460619985359,1.5705962890624998,-9.258377819824219,0.9576806640625,0,0,0,0
1.3073837150004692,-2.4205378784179685,-9.172186560058593,0.5291185668945312,0,0,0,0
1.308546442000079,-2.142810485839844,-9.68454571533203,0.3711012573242187,0,0,0,0
1.3101364239992108,-0.9313444458007812,-9.849745629882811,1.5586252807617187,0,0,0,0
1.3112961330043618,0.9026140258789062,-10.220846887207031,1.8722656982421875,0,0,0,0
1.312433453000267,2.7820623291015623,-10.103531005859374,1.9704279663085937,0,0,0,0
1.313589883997338,1.3670891479492187,-9.457096557617186,1.5825672973632812,0,0,0,0
1.314745148003567,-0.6177040283203125,-9.674968908691406,0.7422025146484375,0,0,0,0
1.3159518750035204,-2.3367408203125,-9.7683427734375,0.1580173095703125,0,0,0,0
1.3174764120049076,-1.0342951171875,-10.120290417480469,0.5746083984375,0,0,0,0
1.3186568620003527,0.3280056274414062,-10.038887561035155,1.158793603515625,0,0,0,0
1.3198188669921365,1.465251416015625,-9.9981861328125,1.6208745239257811,0,0,0,0
1.320909945992753,2.588131994628906,-9.816226806640625,1.5634136840820312,0,0,0,0
1.3219941930001369,1.5107412475585937,-9.560047229003906,0.8307879760742187,0,0,0,0
1.3236794330005068,-2.094926452636719,-9.852139831542969,0.40462008056640625,0,0,0,0
1.3248830849915976,-1.9800047729492187,-10.560823522949217,0.8403647827148437,0,0,0,0
1.3261061079974752,-0.7062894897460937,-10.723629235839843,1.4173673828125,0,0,0,0
1.327200483996421,0.39983167724609375,-10.347739575195313,1.695094775390625,0,0,0,0
1.328882539004553,2.384624853515625,-9.150638745117186,1.6927005737304686,0,0,0,0
1.3308202750049531,-0.4429273071289062,-9.13627353515625,1.1276689819335937,0,0,0,0
1.3320006129943067,-1.407790576171875,-9.200916979980468,0.48123453369140623,0,0,0,0
1.3330947490030667,-1.0366893188476562,-9.897629663085937,0.7900865478515624,0,0,0,0
1.335211575991707,0.2657563842773437,-10.290278735351562,1.0319009155273438,0,0,0,0
1.3364827089972096,1.6304513305664061,-9.878476049804688,1.22583125,0,0,0,0
1.3375822709931526,0.8762778076171874,-9.193734375,1.2617442749023438,0,0,0,0
1.3386721839924576,-0.5865794067382812,-9.035717065429687,0.9504980590820312,0,0,0,0
1.3407066039944766,-0.9121908325195311,-9.76116016845703,0.6751648681640625,0,0,0,0
1.3423470669949893,0.06464344482421874,-9.689334118652344,1.43652099609375,0,0,0,0
1.3435721269925125,1.0366893188476562,-9.85692823486328,1.678335363769531,0,0,0,0
1.3446701319917338,1.707065783691406,-9.519345800781249,1.7501614135742187,0,0,0,0
1.3457931750017451,0.7829039428710937,-10.058041174316406,1.1109095703125,0,0,0,0
1.347623356996337,-1.4245499877929686,-9.648632690429688,0.7948749511718749,0,0,0,0
1.3488025660044514,-1.1611878051757811,-10.144232434082031,0.6607996582031249,0,0,0,0
1.3498929789930116,-0.41419688720703124,-10.12507882080078,1.1611878051757811,0,0,0,0
1.3509827620000578,0.3687070556640625,-10.034099157714843,1.5059528442382812,0,0,0,0
1.3534594740049215,0.9983820922851562,-9.710881933593749,1.3718775512695311,0,0,0,0
1.3546240349969594,-0.55545478515625,-10.230423693847655,0.7661445312499999,0,0,0,0
1.3557377069955692,-2.0087351928710935,-10.237606298828124,0.5099649536132812,0,0,0,0
1.3569845259917201,-1.7238251953125,-10.800243688964843,0.9720458740234375,0,0,0,0
1.3582920100016054,-0.3280056274414062,-10.575188732910156,1.4173673828125,0,0,0,0
1.3596650870022131,1.1875240234375,-10.601524951171875,1.6256629272460936,0,0,0,0
1.3609577199968044,1.8602946899414061,-9.794678991699218,1.5203180541992187,0,0,0,0
1.362184817000525,0.6296750366210937,-10.110713610839843,0.9720458740234375,0,0,0,0
1.3636205590009922,-2.2673089721679687,-9.648632690429688,0.7038952880859375,0,0,0,0
1.3651597269927152,-2.2026655273437497,-9.773131176757811,1.714248388671875,0,0,0,0
1.3667128380038776,-1.3934253662109375,-9.481038574218749,2.8036101440429686,0,0,0,0
1.3679914160020417,-1.5155296508789062,-9.038111267089842,5.348646508789062,0,0,0,0
1.3693270109943114,-0.36152445068359373,-8.221688500976562,6.732495068359374,0,0,0,0
1.3708157899964135,1.4820108276367188,-7.994239343261718,8.877699755859375,0,0,0,0
1.3721877929929178,2.3127988037109373,-8.463502868652343,10.089165795898436,0,0,0,0
1.373328150002635,2.3870190551757813,-9.907206469726562,9.955090502929687,0,0,0,0
1.3744337849930162,3.277662072753906,-10.78348427734375,9.986215124511718,0,0,0,0
1.3756504189950647,1.9967641845703124,-10.012551342773437,10.20169327392578,0,0,0,0
1.3769357749988558,1.1013327636718748,-10.788272680664061,8.954314208984375,0,0,0,0
1.378117612999631,1.3000515014648437,-10.206481677246094,8.250418920898436,0,0,0,0
1.3792152109963354,0.6009446166992187,-10.122684619140625,7.414842541503906,0,0,0,0
1.3803058460034663,0.8307879760742187,-9.167398156738281,6.567295153808593,0,0,0,0
1.381598035004572,-0.5315127685546874,-9.076418493652342,5.4899044067382805,0,0,0,0
1.3828103359992383,-0.39983167724609375,-9.888052856445311,4.319139794921875,0,0,0,0
1.383955044002505,-0.7422025146484375,-10.292672937011718,2.446874096679687,0,0,0,0
1.3850507720053429,-0.7422025146484375,-10.900800158691405,1.5059528442382812,0,0,0,0
1.3862587210023776,-0.26815058593749996,-11.575965026855467,0.7876923461914062,0,0,0,0
1.387577058005263,-0.3136404174804687,-11.0707884765625,0.33039982910156246,0,0,0,0
1.3888441729941405,-0.3902548706054687,-10.867281335449219,-0.19153613281249998,0,0,0,0
1.3900459919968853,-1.1372457885742187,-10.742782849121093,-1.0223241088867188,0,0,0,0
1.3912180710030952,-2.0087351928710935,-10.266336718749999,-1.0702081420898437,0,0,0,0
1.3923182430007728,-1.9752163696289062,-9.938331091308592,-0.8810662109374999,0,0,0,0
1.3936008019954897,-1.0510545288085937,-9.94072529296875,-0.5386953735351562,0,0,0,0
1.3948101400019368,-0.229843359375,-9.947907897949218,-0.10773907470703124,0,0,0,0
1.3959205349965487,-0.36391865234375,-9.330203869628905,0.41898529052734373,0,0,0,0
1.3970110029913485,-0.02154781494140625,-9.119514123535156,1.0749965454101562,0,0,0,0
1.3980969349941006,0.16998831787109375,-8.91840118408203,1.467645617675781,0,0,0,0
1.3992754579958273,0.2442085693359375,-9.22485899658203,1.8842367065429686,0,0,0,0
1.400429075001739,0.8547299926757812,-9.320627062988281,2.1595698974609374,0,0,0,0
1.4016751339950133,1.2952630981445312,-9.56962403564453,2.398990063476562,0,0,0,0
1.4028121580049628,1.4604630126953124,-9.49300958251953,2.540247961425781,0,0,0,0
1.403992217994528,1.2401964599609374,-9.193734375,2.138022082519531,0,0,0,0
1.4051080759963952,0.9720458740234375,-9.006986645507812,1.7190367919921874,0,0,0,0
1.4063177839998389,0.5267243652343749,-8.616731774902343,1.3048399047851562,0,0,0,0
1.4075467880029464,-0.181959326171875,-8.789114294433594,0.8259995727539062,0,0,0,0
1.4086833670007763,-0.15083470458984374,-9.165003955078124,0.32082302246093747,0,0,0,0
1.409837390994653,-0.229843359375,-9.634267480468749,0.03591302490234375,0,0,0,0
1.4109948400000576,-0.3232172241210937,-9.950302099609374,-0.24660277099609373,0,0,0,0
1.4121126609970815,-0.4381389038085937,-10.026916552734374,-0.13646949462890623,0,0,0,0
1.4133485539932735,-0.47884033203125,-10.12507882080078,0.0909796630859375,0,0,0,0
1.414512781004305,-0.2920926025390625,-10.220846887207031,0.39743747558593745,0,0,0,0
1.4157082110032206,-0.143652099609375,-10.268730920410155,0.7948749511718749,0,0,0,0
1.4168389389960794,0.12449848632812499,-10.307038146972655,1.20667763671875,0,0,0,0
1.418017054995289,0.11013327636718749,-10.651803186035156,1.7788918334960937,0,0,0,0
1.4191795779915992,0.11731588134765625,-10.66137999267578,2.090138049316406,0,0,0,0
1.420273638999788,0.22505495605468748,-10.89840595703125,2.2026655273437497,0,0,0,0
1.4213592930027517,0.24899697265624998,-10.864887133789061,2.094926452636719,0,0,0,0
1.4225125950033544,0.3806780639648437,-10.635043774414061,2.1619640991210938,0,0,0,0
1.4236958219989901,0.3591302490234375,-10.381258398437499,2.1883003173828124,0,0,0,0
1.424790197997936,0.430956298828125,-10.381258398437499,2.0661960327148434,0,0,0,0
1.425872537001851,0.4644751220703125,-10.345345373535155,1.70467158203125,0,0,0,0
1.4269558020023396,0.41898529052734373,-10.158597644042969,1.6136919189453125,0,0,0,0
1.428104937003809,0.09576806640624999,-9.969455712890625,0.7757213378906249,0,0,0,0
1.429259534997982,-0.28730419921875,-9.957484704589843,0.488417138671875,0,0,0,0
1.4303511519974563,-0.5267243652343749,-9.789890588378906,0.2561795776367187,0,0,0,0
1.4314594349998515,-0.6248866333007812,-9.564835632324218,0.16041151123046873,0,0,0,0
1.4326104959909571,-0.4477157104492187,-9.442731347656249,0.11252747802734374,0,0,0,0
1.4337588530033827,-0.28490999755859375,-9.344569079589844,0.05746083984375,0,0,0,0
1.4348505060042953,-0.229843359375,-9.265560424804686,0.09576806640624999,0,0,0,0
1.4359354199987138,-0.22026655273437498,-9.284714038085937,0.3136404174804687,0,0,0,0
1.437013221991947,-0.086191259765625,-9.210493786621093,0.8595183959960937,0,0,0,0
1.4380960980051896,0.04548983154296875,-9.212887988281249,1.1276689819335937,0,0,0,0
1.4392562699940754,0.15083470458984374,-9.354145886230468,1.3527239379882812,0,0,0,0
1.4403896089934278,0.3016694091796875,-9.4618849609375,1.4508862060546874,0,0,0,0
1.4414805400010664,0.4525041137695312,-9.466673364257812,1.5873557006835937,0,0,0,0
1.4425667680043261,0.34715924072265625,-9.368511096191405,1.7310078002929687,0,0,0,0
1.4437160509987734,0.3016694091796875,-9.320627062988281,1.7453730102539062,0,0,0,0
1.444859537994489,0.21068974609375,-9.440337145996093,1.7645266235351562,0,0,0,0
1.4459471729933284,0.22505495605468748,-9.588777648925781,1.8291700683593748,0,0,0,0
1.4470288830052596,0.239420166015625,-9.694122521972655,1.3814543579101561,0,0,0,0
1.4484889960003784,0.26336218261718747,-10.070012182617187,1.35990654296875,0,0,0,0
1.4497616839944385,0.17956512451171874,-10.196904870605469,1.1827356201171875,0,0,0,0
1.451035835998482,-0.011971008300781249,-10.436325036621094,0.9576806640625,0,0,0,0
1.4521415079943836,-0.1388636962890625,-10.548852514648438,0.86191259765625,0,0,0,0
1.4532250140036922,-0.10773907470703124,-10.347739575195313,0.8475473876953125,0,0,0,0
1.4543100019945996,-0.086191259765625,-10.421959826660157,0.8355763793945312,0,0,0,0
1.455924852998578,-0.20829554443359374,-10.453084448242187,0.8858546142578124,0,0,0,0
1.457083765999414,-0.27293898925781246,-10.333374365234375,0.8930372192382812,0,0,0,0
1.4581752160011092,-0.28490999755859375,-10.414777221679687,0.93852705078125,0,0,0,0
1.459260000003269,-0.1867477294921875,-10.326191760253906,0.967257470703125,0,0,0,0
1.4603444870008389,-0.11252747802734374,-10.228029492187499,1.1348515869140625,0,0,0,0
1.4619095980015118,-0.10773907470703124,-10.046070166015625,1.16837041015625,0,0,0,0
1.4630766399932327,0.11252747802734374,-9.880870251464843,1.47482822265625,0,0,0,0
1.464172238993342,0.14125789794921875,-9.670180505371093,1.5658078857421873,0,0,0,0
1.4663517129956745,0.2537853759765625,-9.560047229003906,1.3144167114257812,0,0,0,0
1.4676761049922789,-0.02154781494140625,-9.65342109375,1.0773907470703123,0,0,0,0
1.4691223660047399,0.02154781494140625,-9.641450085449218,0.9864110839843749,0,0,0,0
1.4702412600017851,0.10773907470703124,-9.504980590820312,0.8714894042968749,0,0,0,0
1.4713493769959314,0.1292868896484375,-9.409212524414063,0.8762778076171874,0,0,0,0
1.4725296230026288,0.09576806640624999,-9.349357482910156,0.9265560424804687,0,0,0,0
1.4737647190049756,0.076614453125,-9.258377819824219,0.8355763793945312,0,0,0,0
1.4748863729910227,0.1005564697265625,-9.294290844726563,0.9121908325195311,0,0,0,0
1.4761776359955547,0.143652099609375,-9.421183532714844,0.8978256225585937,0,0,0,0
1.4772794189921115,0.16759411621093748,-9.552864624023437,0.9097966308593749,0,0,0,0
1.4785654779989272,0.09816226806640624,-9.730035546875,0.9720458740234375,0,0,0,0
1.4798479259916348,0.11013327636718749,-9.79946739501953,0.9744400756835937,0,0,0,0
1.4809980419959174,0.11252747802734374,-9.86411083984375,0.9888052856445312,0,0,0,0
1.4823664339928655,0.076614453125,-10.014945544433592,1.2330138549804688,0,0,0,0
1.4835908819950419,0.28490999755859375,-10.041281762695311,1.3575123413085937,0,0,0,0
1.4847570169949904,0.24660277099609373,-10.156203442382813,1.3838485595703125,0,0,0,0
1.4858552999940002,0.296881005859375,-10.156203442382813,1.3168109130859373,0,0,0,0
1.4871387110033538,0.22505495605468748,-10.153809240722655,1.2641384765625,0,0,0,0
1.488288382999599,0.17477672119140625,-10.350133776855468,1.189918225097656,0,0,0,0
1.489416258991696,0.19871873779296872,-10.333374365234375,1.1156979736328125,0,0,0,0
1.4905837080004858,-0.06464344482421874,-10.20887587890625,1.0486603271484374,0,0,0,0
1.491758342992398,-0.1484405029296875,-10.256759912109374,0.8834604125976562,0,0,0,0
1.4929181259940378,-0.15322890625,-10.187328063964843,0.8882488159179687,0,0,0,0
1.4940732419927372,-0.17477672119140625,-10.103531005859374,0.852335791015625,0,0,0,0
1.4952041910000844,-0.2442085693359375,-9.995791931152343,0.9504980590820312,0,0,0,0
1.4962932159978664,-0.21308394775390624,-9.852139831542969,1.01514150390625,0,0,0,0
1.4974582209979417,-0.25139117431640623,-9.871293444824218,0.9792284790039062,0,0,0,0
1.498844444999122,-0.009576806640625,-9.7683427734375,1.0510545288085937,0,0,0,0
1.4999998760031303,-0.086191259765625,-9.622296472167967,1.0007762939453124,0,0,0,0
1.5011201220040675,-0.04548983154296875,-9.514557397460937,1.2497732666015624,0,0,0,0
1.5022167019924382,0.033518823242187495,-9.255983618164063,1.4221557861328125,0,0,0,0
1.503727314004209,0.33518823242187495,-9.284714038085937,1.5011644409179687,0,0,0,0
1.5061754890048178,-0.040701428222656245,-9.789890588378906,1.2114660400390624,0,0,0,0
1.5074591409938876,-0.0143652099609375,-10.09395419921875,1.1947066284179686,0,0,0,0
1.5086876449931879,0.03591302490234375,-9.890447058105469,1.149216796875,0,0,0,0
1.509950741994544,0.06703764648437499,-9.586383447265625,1.1611878051757811,0,0,0,0
1.5111399129964411,0.02633621826171875,-9.562441430664062,1.1611878051757811,0,0,0,0
1.5123047880042577,-0.00718260498046875,-9.241618408203124,1.1348515869140625,0,0,0,0
1.513407812002697,0.011971008300781249,-9.622296472167967,1.0702081420898437,0,0,0,0
1.5145817059965339,0.2537853759765625,-9.801861596679688,1.1037269653320312,0,0,0,0
1.5157913959992584,0.08858546142578125,-10.108319409179687,1.0390835205078124,0,0,0,0
1.517030695991707,-0.21068974609375,-10.421959826660157,0.8858546142578124,0,0,0,0
1.5183060150011443,-0.354341845703125,-10.378864196777343,1.0486603271484374,0,0,0,0
1.519523223003489,-0.28969840087890625,-10.319009155273436,1.2785036865234374,0,0,0,0
1.5207216720009455,0.3280056274414062,-10.062829577636718,1.3766659545898436,0,0,0,0
1.5218868800002383,0.3064578125,-9.835380419921874,1.4317325927734375,0,0,0,0
1.5230309780017706,0.16280571289062498,-9.7683427734375,1.3527239379882812,0,0,0,0
1.5242103159980616,0.09337386474609374,-10.005368737792969,1.2401964599609374,0,0,0,0
1.525313192003523,0.1292868896484375,-10.12507882080078,1.1875240234375,0,0,0,0
1.5265555109945126,0.009576806640625,-10.225635290527343,1.0534487304687499,0,0,0,0
1.527750608001952,0.02154781494140625,-10.290278735351562,0.948103857421875,0,0,0,0
1.5289847599924542,-0.07422025146484375,-10.175357055664062,1.0199299072265624,0,0,0,0
1.5300814880029066,-0.11731588134765625,-10.060435375976562,0.8379705810546875,0,0,0,0
1.5311767160019372,-0.0047884033203125,-9.809044201660155,0.9121908325195311,0,0,0,0
1.5324102390004555,0.16998831787109375,-9.473855969238281,1.0295067138671874,0,0,0,0
1.5336847610014956,0.13168109130859373,-9.449913952636718,1.0127473022460938,0,0,0,0
1.534938857992529,0.0143652099609375,-9.437942944335937,0.967257470703125,0,0,0,0
1.5361377880035434,0.14125789794921875,-9.466673364257812,0.8595183959960937,0,0,0,0
1.5372380719927605,0.10295067138671875,-9.557653027343749,0.8667010009765624,0,0,0,0
1.5384665570018115,0.08140285644531249,-9.639055883789062,0.9504980590820312,0,0,0,0
1.5397605789912632,0.10295067138671875,-9.674968908691406,0.967257470703125,0,0,0,0
1.5409267880022526,0.07422025146484375,-9.562441430664062,0.9528922607421875,0,0,0,0
1.5421395699959248,0.1197100830078125,-9.490615380859374,1.2593500732421874,0,0,0,0
1.5432397050026339,0.22266075439453123,-9.576806640625,1.3479355346679687,0,0,0,0
1.5444783389975782,0.3184288208007812,-9.574412438964844,1.24498486328125,0,0,0,0
1.545791823999025,-0.01915361328125,-9.634267480468749,1.20667763671875,0,0,0,0
1.5471624189958675,-0.01915361328125,-9.773131176757811,1.3000515014648437,0,0,0,0
1.5486652899999171,0.0430956298828125,-9.945513696289062,1.2042834350585936,0,0,0,0
1.5502433459914755,0.00239420166015625,-10.098742602539062,1.0319009155273438,0,0,0,0
1.5517362910031807,-0.1197100830078125,-10.232817895507813,1.0869675537109373,0,0,0,0
1.5529961659922265,-0.15562310791015624,-10.228029492187499,1.209071838378906,0,0,0,0
1.5542199659976177,-0.13168109130859373,-10.115502014160155,1.0917559570312498,0,0,0,0
1.5555568949930603,-0.09576806640624999,-10.122684619140625,1.1276689819335937,0,0,0,0
1.5568401390046347,-0.055066638183593745,-10.117896215820313,1.1156979736328125,0,0,0,0
1.558014237001771,-0.0909796630859375,-10.122684619140625,1.0773907470703123,0,0,0,0
1.5592069080012152,-0.10773907470703124,-10.0748005859375,1.235408056640625,0,0,0,0
1.560400504997233,-0.05746083984375,-10.036493359375,1.2401964599609374,0,0,0,0
1.5616808240010869,0.10295067138671875,-9.943119494628906,1.2976572998046874,0,0,0,0
1.5629461979988264,0.15322890625,-9.835380419921874,1.3766659545898436,0,0,0,0
1.5641522020014236,0.17238251953125,-9.80665,1.3575123413085937,0,0,0,0
1.5653977250040043,0.11731588134765625,-9.756371765136718,1.3838485595703125,0,0,0,0
1.5666733020043466,0.0430956298828125,-9.744400756835937,1.2138602416992186,0,0,0,0
1.5680148050014395,0.0047884033203125,-9.696516723632811,1.1085153686523437,0,0,0,0
1.5692495870025596,-0.0143652099609375,-9.502586389160156,1.0606313354492187,0,0,0,0
1.5704412210034207,0.0526724365234375,-9.449913952636718,1.1013327636718748,0,0,0,0
1.5715790410031332,0.1292868896484375,-9.49300958251953,1.0438719238281249,0,0,0,0
1.5726659359934274,0.0718260498046875,-9.4618849609375,0.9552864624023437,0,0,0,0
1.5738219229970127,0.0047884033203125,-9.504980590820312,0.97683427734375,0,0,0,0
1.575096389002283,-0.055066638183593745,-9.595960253906249,0.9624690673828125,0,0,0,0
1.576301152992528,-0.0047884033203125,-9.557653027343749,0.97683427734375,0,0,0,0
1.5775144910003291,0.07900865478515624,-9.689334118652344,0.97683427734375,0,0,0,0
1.5786109960026806,0.14125789794921875,-9.667786303710937,1.0749965454101562,0,0,0,0
1.5798350379918702,0.11731588134765625,-9.725247143554688,1.1109095703125,0,0,0,0
1.5810392269922886,0.09337386474609374,-9.828197814941406,1.1085153686523437,0,0,0,0
1.5821512699913,0.11252747802734374,-9.797073193359374,1.1468225952148436,0,0,0,0
1.5832475159986643,0.09576806640624999,-9.80665,1.1180921752929687,0,0,0,0
1.584338429995114,0.1005564697265625,-9.82580361328125,1.158793603515625,0,0,0,0
1.5855504339997424,0.040701428222656245,-10.103531005859374,1.199495031738281,0,0,0,0
1.58681445599359,0.031124621582031248,-10.134655627441406,1.1707646118164061,0,0,0,0
1.588048848992912,-0.01915361328125,-10.151415039062499,1.0893617553710937,0,0,0,0
1.589140429001418,0.040701428222656245,-10.156203442382813,1.1252747802734375,0,0,0,0
1.5902217679977184,0.04548983154296875,-10.187328063964843,0.9433154541015625,0,0,0,0
1.591302162996726,-0.009576806640625,-10.20887587890625,0.9911994873046874,0,0,0,0
1.5935362479940522,0.08858546142578125,-9.907206469726562,1.1611878051757811,0,0,0,0
1.594889307001722,0.17477672119140625,-9.785102185058593,1.0749965454101562,0,0,0,0
1.5960024419910042,0.14604630126953125,-9.897629663085937,1.0989385620117187,0,0,0,0
1.5970883919944754,0.07900865478515624,-9.928754284667969,1.1156979736328125,0,0,0,0
1.5983179329923587,0.14604630126953125,-9.9215716796875,1.1659762084960936,0,0,0,0
1.5995565299963346,0.0143652099609375,-9.89523546142578,1.158793603515625,0,0,0,0
1.6007663119962672,0.04548983154296875,-9.852139831542969,1.0773907470703123,0,0,0,0
1.602100629999768,0.08379705810546874,-9.794678991699218,1.1923124267578125,0,0,0,0
1.6033472080016509,0.14604630126953125,-9.655815295410155,1.3072341064453123,0,0,0,0
1.6044976209959714,0.16041151123046873,-9.528922607421874,1.2497732666015624,0,0,0,0
1.6056635879940586,0.08379705810546874,-9.548076220703125,1.2473790649414063,0,0,0,0
1.6068278899911093,0.11252747802734374,-9.555258825683593,1.1755530151367186,0,0,0,0
1.6079299690027256,-0.009576806640625,-9.600748657226562,1.1037269653320312,0,0,0,0
1.6092043060052674,-0.06464344482421874,-9.7683427734375,1.0965443603515623,0,0,0,0
1.6108284359943355,-0.086191259765625,-9.832986218261718,1.0390835205078124,0,0,0,0
1.6122464749932988,-0.13168109130859373,-9.897629663085937,1.0534487304687499,0,0,0,0
1.6135574779909803,-0.040701428222656245,-9.840168823242188,1.0917559570312498,0,0,0,0
1.615135571002611,-0.02154781494140625,-9.86411083984375,1.1444283935546875,0,0,0,0
1.6163162229931913,0.0047884033203125,-9.861716638183593,1.1635820068359375,0,0,0,0
1.6175503760023275,0.0383072265625,-9.878476049804688,1.1635820068359375,0,0,0,0
1.6187926949933171,0.040701428222656245,-9.923965881347655,1.1085153686523437,0,0,0,0
1.6204501939937472,0.028730419921875,-10.034099157714843,1.1348515869140625,0,0,0,0
1.6219096580025507,-0.05746083984375,-10.062829577636718,1.1540052001953125,0,0,0,0
1.6234312699962175,-0.00239420166015625,-10.153809240722655,1.1133037719726562,0,0,0,0
1.624696088998462,0.05027823486328125,-10.084377392578125,1.177947216796875,0,0,0,0
1.6259401110000908,-0.00718260498046875,-10.012551342773437,1.139639990234375,0,0,0,0
1.627127764004399,0.02154781494140625,-9.926360083007811,1.1037269653320312,0,0,0,0
1.6282643799931975,0.03591302490234375,-9.926360083007811,1.1085153686523437,0,0,0,0
1.629356794001069,-0.009576806640625,-9.866505041503906,1.0869675537109373,0,0,0,0
1.6305261319939746,-0.0143652099609375,-9.852139831542969,1.1827356201171875,0,0,0,0
1.6316717299923766,0.06703764648437499,-9.871293444824218,1.1923124267578125,0,0,0,0
1.6327673089981545,0.08379705810546874,-9.888052856445311,1.13006318359375,0,0,0,0
1.6338537779956823,0.105344873046875,-9.821015209960937,1.1085153686523437,0,0,0,0
1.6353520760021638,0.10773907470703124,-9.885658654785155,1.1228805786132812,0,0,0,0
1.6365596359974006,0.08140285644531249,-9.842563024902343,1.1109095703125,0,0,0,0
1.6377238440036308,0.11252747802734374,-9.727641345214844,1.1156979736328125,0,0,0,0
1.638818553998135,0.10295067138671875,-9.76116016845703,1.158793603515625,0,0,0,0
1.6399101709976094,0.09816226806640624,-9.679757312011718,1.0534487304687499,0,0,0,0
1.6413424130005296,0.0526724365234375,-9.502586389160156,1.0103531005859374,0,0,0,0
1.6425270100007765,0.1484405029296875,-9.648632690429688,0.9624690673828125,0,0,0,0
1.6436338490020717,0.2154781494140625,-9.710881933593749,1.0223241088867188,0,0,0,0
1.644724262994714,0.076614453125,-9.725247143554688,1.0414777221679687,0,0,0,0
1.6462015229917597,0.033518823242187495,-9.821015209960937,1.0821791503906248,0,0,0,0
1.6474180270015495,-0.023942016601562498,-9.950302099609374,0.9911994873046874,0,0,0,0
1.648555847001262,0.0430956298828125,-9.983820922851562,0.9696516723632812,0,0,0,0
1.6496501499932492,0.00239420166015625,-9.981426721191406,1.0558429321289062,0,0,0,0
1.6510778369993204,0.00239420166015625,-9.95987890625,1.0414777221679687,0,0,0,0
1.6523725439910777,0.05746083984375,-9.868899243164062,1.1133037719726562,0,0,0,0
1.6535972889978439,0.12449848632812499,-9.928754284667969,1.177947216796875,0,0,0,0
1.6547426269971766,0.09337386474609374,-9.907206469726562,1.1707646118164061,0,0,0,0
1.6559186319936998,0.0430956298828125,-9.981426721191406,1.1827356201171875,0,0,0,0
1.6574399480014108,0.06943184814453125,-10.115502014160155,1.0702081420898437,0,0,0,0
1.6585992670006817,0.06703764648437499,-10.091559997558592,0.9983820922851562,0,0,0,0
1.6596974769927328,0.0383072265625,-9.995791931152343,1.1707646118164061,0,0,0,0
1.66113794100238,0.02633621826171875,-9.9981861328125,1.0390835205078124,0,0,0,0
1.6624199819925707,-0.01915361328125,-9.957484704589843,1.1659762084960936,0,0,0,0
1.6639685010013636,0.0430956298828125,-9.816226806640625,1.1827356201171875,0,0,0,0
1.665156413000659,0.02633621826171875,-9.732429748535155,1.139639990234375,0,0,0,0
1.6664944350050064,0.1005564697265625,-9.744400756835937,1.1827356201171875,0,0,0,0
1.667806882003788,-0.00718260498046875,-9.753977563476562,0.9792284790039062,0,0,0,0
1.6694391219934914,0.03591302490234375,-9.782707983398437,1.1061211669921875,0,0,0,0
1.6707255149958655,0.0526724365234375,-9.849745629882811,1.0965443603515623,0,0,0,0
1.6718488539918326,0.011971008300781249,-9.861716638183593,1.1468225952148436,0,0,0,0
1.673184190003667,-0.01915361328125,-9.765948571777344,1.1755530151367186,0,0,0,0
1.6743000659917016,0.023942016601562498,-9.78031378173828,1.0845733520507812,0,0,0,0
1.6757509559975006,-0.0047884033203125,-9.713276135253906,1.16837041015625,0,0,0,0
1.6769031839939998,0.03591302490234375,-9.682151513671874,1.13006318359375,0,0,0,0
1.6780866509943735,-0.0143652099609375,-9.725247143554688,1.13006318359375,0,0,0,0
1.679245840990916,-0.023942016601562498,-9.801861596679688,1.0702081420898437,0,0,0,0
1.6803423660021508,-0.02633621826171875,-9.797073193359374,1.0773907470703123,0,0,0,0
1.6814291679911548,-0.0143652099609375,-9.785102185058593,0.9935936889648437,0,0,0,0
1.6825184509943938,-0.07422025146484375,-9.983820922851562,0.9552864624023437,0,0,0,0
1.6840135079983156,-0.0383072265625,-9.928754284667969,1.0917559570312498,0,0,0,0
1.6851668089948362,-0.01915361328125,-9.94072529296875,1.2234370483398436,0,0,0,0
1.6862917039979948,-0.031124621582031248,-9.97184991455078,1.1252747802734375,0,0,0,0
1.6876910209975904,0.040701428222656245,-9.8449572265625,1.199495031738281,0,0,0,0
1.6888742290029768,0.06703764648437499,-9.828197814941406,1.2641384765625,0,0,0,0
1.690062604000559,0.13168109130859373,-9.90241806640625,1.24498486328125,0,0,0,0
1.6911594429984689,0.105344873046875,-9.888052856445311,1.1516109985351561,0,0,0,0
1.6922510790027445,0.0383072265625,-9.91438907470703,1.1228805786132812,0,0,0,0
1.6936664509994444,0.0430956298828125,-9.950302099609374,1.1109095703125,0,0,0,0
1.6951033969962737,0.05027823486328125,-10.019733947753906,1.1516109985351561,0,0,0,0
1.6964804000017466,0.05746083984375,-9.919177478027343,1.1372457885742187,0,0,0,0
1.6976223120000213,0.12449848632812499,-9.878476049804688,1.0606313354492187,0,0,0,0
1.6994412170024589,0.1005564697265625,-9.713276135253906,1.0702081420898437,0,0,0,0
1.701311066004564,0.1388636962890625,-9.686939916992188,1.0749965454101562,0,0,0,0
1.7031175070005702,0.086191259765625,-9.785102185058593,1.0007762939453124,0,0,0,0
1.7051001880026888,0.0383072265625,-9.888052856445311,0.9840168823242187,0,0,0,0
1.7071674420003546,0.06464344482421874,-10.002974536132811,1.0462661254882812,0,0,0,0
1.7087875709985383,-0.011971008300781249,-9.689334118652344,1.1348515869140625,0,0,0,0
1.7106420310010435,0.10773907470703124,-9.651026892089844,1.0749965454101562,0,0,0,0
1.7127304509922396,0.011971008300781249,-9.689334118652344,1.0678139404296874,0,0,0,0
1.7143457280035364,0.00239420166015625,-9.785102185058593,1.0175357055664063,0,0,0,0
1.7154898629960371,0.023942016601562498,-9.816226806640625,1.0654197387695312,0,0,0,0
1.7169123839994427,0.033518823242187495,-9.909600671386718,0.9911994873046874,0,0,0,0
1.7181019249983365,-0.023942016601562498,-9.9215716796875,1.0486603271484374,0,0,0,0
1.719278912001755,0.06703764648437499,-9.8449572265625,1.1875240234375,0,0,0,0
1.7203796209942084,0.023942016601562498,-9.847351428222655,1.1156979736328125,0,0,0,0
1.7214704049983993,-0.00718260498046875,-9.866505041503906,1.1755530151367186,0,0,0,0
1.7229764429939678,0.02633621826171875,-9.83777462158203,1.1659762084960936,0,0,0,0
1.7250750289967982,-0.023942016601562498,-9.919177478027343,1.2401964599609374,0,0,0,0
1.7262377930019284,0.0047884033203125,-9.873687646484374,1.2378022583007813,0,0,0,0
1.7273292070021853,-0.016759411621093748,-9.919177478027343,1.218648645019531,0,0,0,0
1.7285937099950388,-0.016759411621093748,-10.005368737792969,1.1348515869140625,0,0,0,0
1.7299798790045315,0.0,-10.036493359375,1.0893617553710937,0,0,0,0
1.731325881992234,0.0,-10.022128149414062,1.13006318359375,0,0,0,0
1.7324161099968478,0.00239420166015625,-10.08677159423828,1.1731588134765625,0,0,0,0
1.7336174109950662,0.062249243164062495,-9.907206469726562,1.1348515869140625,0,0,0,0
1.7352047070016852,-0.011971008300781249,-9.871293444824218,1.218648645019531,0,0,0,0
1.7364922289998503,-0.04548983154296875,-9.672574707031249,1.1420341918945311,0,0,0,0
1.7375936610042118,0.05027823486328125,-9.78031378173828,1.189918225097656,0,0,0,0
1.7388032759918133,0.0430956298828125,-9.832986218261718,1.1444283935546875,0,0,0,0
1.7402777039969806,0.047884033203124995,-9.835380419921874,1.0319009155273438,0,0,0,0
1.7414851899957284,0.0143652099609375,-9.904812268066406,1.1133037719726562,0,0,0,0
1.7427491929993266,0.01915361328125,-9.868899243164062,1.1228805786132812,0,0,0,0
1.7439673829940148,0.00718260498046875,-9.816226806640625,1.13006318359375,0,0,0,0
1.7454838279954856,0.055066638183593745,-9.70369932861328,1.0917559570312498,0,0,0,0
1.7468137389951153,0.04548983154296875,-9.672574707031249,1.0702081420898437,0,0,0,0
1.7479906139924424,0.09576806640624999,-9.674968908691406,1.1061211669921875,0,0,0,0
1.7491902479960117,0.17477672119140625,-9.713276135253906,1.0797849487304687,0,0,0,0
1.750551083998289,0.08379705810546874,-9.744400756835937,1.0845733520507812,0,0,0,0
1.751649849000387,0.05746083984375,-9.797073193359374,0.9983820922851562,0,0,0,0
1.7529190560017014,0.009576806640625,-9.871293444824218,0.9720458740234375,0,0,0,0
1.7543127069948241,0.062249243164062495,-9.952696301269532,1.0917559570312498,0,0,0,0
1.756115297001088,0.06464344482421874,-9.9215716796875,1.0486603271484374,0,0,0,0
1.7573436340026092,-0.03591302490234375,-9.835380419921874,1.0917559570312498,0,0,0,0
1.758702673992957,0.08858546142578125,-9.773131176757811,1.1444283935546875,0,0,0,0
1.7601032870006748,0.07422025146484375,-9.849745629882811,1.24498486328125,0,0,0,0
1.761204848997295,0.08379705810546874,-9.904812268066406,1.16837041015625,0,0,0,0
1.7622938909917139,0.07900865478515624,-9.85692823486328,1.2042834350585936,0,0,0,0
1.7639447050023591,0.055066638183593745,-10.026916552734374,1.0965443603515623,0,0,0,0
1.7652513009961694,0.06464344482421874,-10.053252770996092,0.9409212524414062,0,0,0,0
1.7664026949933032,0.03591302490234375,-10.041281762695311,1.024718310546875,0,0,0,0
1.7675139600032708,0.0,-10.007762939453125,1.0510545288085937,0,0,0,0
1.7685870029963553,0.07900865478515624,-9.828197814941406,1.13006318359375,0,0,0,0
1.7696649540012004,0.055066638183593745,-9.801861596679688,1.2210428466796874,0,0,0,0
1.770807884997339,0.08140285644531249,-9.746794958496093,1.1516109985351561,0,0,0,0
1.7719604820013046,0.0526724365234375,-9.708487731933593,1.1013327636718748,0,0,0,0
1.7730446549976477,0.1197100830078125,-9.842563024902343,1.209071838378906,0,0,0,0
1.7741244759963593,0.0143652099609375,-9.86411083984375,1.1276689819335937,0,0,0,0
1.7770468490052735,-0.01915361328125,-9.868899243164062,1.0989385620117187,0,0,0,0
1.7786680339922896,0.06943184814453125,-9.804255798339844,1.1252747802734375,0,0,0,0
1.7801824240013957,-0.02633621826171875,-9.7683427734375,1.1635820068359375,0,0,0,0
1.782026920991484,0.023942016601562498,-9.74200655517578,1.1037269653320312,0,0,0,0
1.7831884439947316,0.03591302490234375,-9.785102185058593,1.2042834350585936,0,0,0,0
1.7843608010007301,-0.009576806640625,-9.782707983398437,1.2114660400390624,0,0,0,0
1.7854500289977295,0.0909796630859375,-9.801861596679688,1.1324573852539062,0,0,0,0
1.7865331089997198,0.04548983154296875,-9.816226806640625,1.1133037719726562,0,0,0,0
1.787758093996672,-0.011971008300781249,-9.952696301269532,1.0534487304687499,0,0,0,0
1.789044004995958,-0.016759411621093748,-9.904812268066406,1.1276689819335937,0,0,0,0
1.7901688809943153,-0.02633621826171875,-9.931148486328125,1.1180921752929687,0,0,0,0
1.791260682992288,-0.033518823242187495,-9.945513696289062,1.1013327636718748,0,0,0,0
1.7923508739913814,-0.062249243164062495,-9.866505041503906,1.1037269653320312,0,0,0,0
1.793564952997258,-0.02633621826171875,-9.859322436523437,1.2761094848632812,0,0,0,0
1.7947574760037242,0.12689268798828124,-9.787496386718749,1.199495031738281,0,0,0,0
1.7958675919944653,0.0383072265625,-9.775525378417969,1.1707646118164061,0,0,0,0
1.7969515059958212,0.12689268798828124,-9.828197814941406,1.2114660400390624,0,0,0,0
1.7980641960020876,0.0718260498046875,-9.907206469726562,1.0630255371093749,0,0,0,0
1.7993742370017571,0.0047884033203125,-9.947907897949218,1.0773907470703123,0,0,0,0
1.800616184991668,0.02154781494140625,-9.9215716796875,1.024718310546875,0,0,0,0
1.801714321001782,0.1484405029296875,-9.9215716796875,1.0462661254882812,0,0,0,0
1.8027982710045762,-0.13646949462890623,-9.931148486328125,1.0797849487304687,0,0,0,0
1.8038911469921004,0.047884033203124995,-9.849745629882811,1.158793603515625,0,0,0,0
1.8050750959955622,0.086191259765625,-9.775525378417969,1.1563994018554686,0,0,0,0
1.8063875069929054,0.05746083984375,-9.785102185058593,1.1420341918945311,0,0,0,0
1.8077246759930858,0.12449848632812499,-9.72285294189453,1.189918225097656,0,0,0,0
1.8088318490044912,0.1484405029296875,-9.835380419921874,1.0726023437499999,0,0,0,0
1.8099245579942362,0.06943184814453125,-9.8449572265625,1.0127473022460938,0,0,0,0
1.8111213779920945,0.0718260498046875,-9.847351428222655,1.1156979736328125,0,0,0,0
1.8123182519921102,0.05027823486328125,-9.830592016601562,1.0079588989257813,0,0,0,0
1.8135390719980933,0.06703764648437499,-9.90241806640625,0.9409212524414062,0,0,0,0
1.8147440570028266,0.062249243164062495,-9.792284790039062,1.0390835205078124,0,0,0,0
1.8158435630029999,-0.009576806640625,-9.83777462158203,1.0773907470703123,0,0,0,0
1.817086955998093,0.01915361328125,-9.78031378173828,1.1276689819335937,0,0,0,0
1.8182474060013192,0.028730419921875,-9.746794958496093,1.209071838378906,0,0,0,0
1.8195111499953782,0.0,-9.763554370117188,1.1133037719726562,0,0,0,0
1.8207699689955916,0.08379705810546874,-9.770736975097655,1.0510545288085937,0,0,0,0
1.8218723820027662,0.0718260498046875,-9.811438403320311,1.1228805786132812,0,0,0,0
1.8229602579958737,0.0909796630859375,-9.897629663085937,1.20667763671875,0,0,0,0
1.8240486159920692,0.06703764648437499,-9.945513696289062,1.1037269653320312,0,0,0,0
1.8251325099990936,0.04548983154296875,-9.94072529296875,1.1061211669921875,0,0,0,0
1.826376255005016,-0.062249243164062495,-9.955090502929687,1.0702081420898437,0,0,0,0
1.8275582780042896,-0.06464344482421874,-9.986215124511718,1.13006318359375,0,0,0,0
1.8288382079917938,0.04548983154296875,-9.85692823486328,1.1444283935546875,0,0,0,0
1.829956935995142,-0.05746083984375,-9.842563024902343,1.158793603515625,0,0,0,0
1.8310514229960972,0.055066638183593745,-9.775525378417969,1.1516109985351561,0,0,0,0
1.8325302570010535,0.10773907470703124,-9.849745629882811,1.13006318359375,0,0,0,0
1.8337927980028326,-0.05027823486328125,-9.900023864746093,1.0414777221679687,0,0,0,0
1.8348880449921126,0.0430956298828125,-9.919177478027343,1.1109095703125,0,0,0,0
1.835984938996262,0.01915361328125,-9.897629663085937,1.139639990234375,0,0,0,0
1.8374080709909322,0.031124621582031248,-9.943119494628906,1.1252747802734375,0,0,0,0
1.8386437790031778,0.03591302490234375,-9.828197814941406,1.0917559570312498,0,0,0,0
1.8398433569964254,0.14604630126953125,-9.832986218261718,1.1061211669921875,0,0,0,0
1.8410350659978576,-0.05027823486328125,-9.773131176757811,1.2210428466796874,0,0,0,0
1.8424892890034243,-0.016759411621093748,-9.643844287109374,1.189918225097656,0,0,0,0
1.843855977000203,0.08379705810546874,-9.765948571777344,1.0534487304687499,0,0,0,0
1.8450425189948874,0.06943184814453125,-9.797073193359374,1.1013327636718748,0,0,0,0
1.8462129129911773,0.09816226806640624,-9.81862100830078,1.1109095703125,0,0,0,0
1.847310862998711,0.1005564697265625,-9.85692823486328,1.0462661254882812,0,0,0,0
1.8488057159993332,0.02154781494140625,-9.974244116210937,1.0534487304687499,0,0,0,0
1.8501431820041034,0.023942016601562498,-9.907206469726562,0.9816226806640624,0,0,0,0
1.8514293699990958,-0.0047884033203125,-9.830592016601562,1.0414777221679687,0,0,0,0
1.8526482449960895,-0.00718260498046875,-9.8449572265625,1.0749965454101562,0,0,0,0
1.8537856019975152,0.07900865478515624,-9.756371765136718,1.13006318359375,0,0,0,0
1.8553639729943825,0.08140285644531249,-9.775525378417969,1.0965443603515623,0,0,0,0
1.8566107539954828,0.0383072265625,-9.710881933593749,1.0773907470703123,0,0,0,0
1.8577175380050903,-0.028730419921875,-9.892841259765625,1.1444283935546875,0,0,0,0
1.8589415610040305,0.0526724365234375,-9.904812268066406,1.218648645019531,0,0,0,0
1.8603251930035185,0.04548983154296875,-9.955090502929687,1.1061211669921875,0,0,0,0
1.8615526969952043,0.1149216796875,-10.101136804199218,1.0414777221679687,0,0,0,0
1.8627533309918363,0.05027823486328125,-9.900023864746093,1.0630255371093749,0,0,0,0
1.8639335210027639,0.033518823242187495,-9.928754284667969,1.1085153686523437,0,0,0,0
1.8651285999949323,0.040701428222656245,-9.840168823242188,1.0462661254882812,0,0,0,0
1.8663468629965791,0.05746083984375,-9.792284790039062,1.16837041015625,0,0,0,0
1.8675864039978478,0.05746083984375,-9.835380419921874,1.1180921752929687,0,0,0,0
1.8688442409911659,0.105344873046875,-9.90241806640625,1.0654197387695312,0,0,0,0
1.8700015429931227,0.1005564697265625,-9.897629663085937,1.0366893188476562,0,0,0,0
1.8710896039992804,0.0718260498046875,-9.9215716796875,1.0965443603515623,0,0,0,0
1.8721773690049304,0.062249243164062495,-9.91438907470703,1.0031704956054688,0,0,0,0
1.8732648379955208,0.11252747802734374,-9.904812268066406,1.0103531005859374,0,0,0,0
1.8744403799937572,0.0383072265625,-9.947907897949218,1.1276689819335937,0,0,0,0
1.8756176619936014,0.09337386474609374,-9.813832604980469,1.0845733520507812,0,0,0,0
1.8767141129937954,0.16759411621093748,-9.751583361816406,1.0989385620117187,0,0,0,0
1.8777968039939879,0.02633621826171875,-9.782707983398437,1.0989385620117187,0,0,0,0
1.878883216995746,0.09337386474609374,-9.737218151855469,1.1037269653320312,0,0,0,0
1.8800327960052527,0.1484405029296875,-9.756371765136718,1.1563994018554686,0,0,0,0
1.8812024679937167,0.0718260498046875,-9.78031378173828,1.0007762939453124,0,0,0,0
1.8823094730032608,0.076614453125,-9.821015209960937,1.1061211669921875,0,0,0,0
1.883424441999523,0.0383072265625,-9.78031378173828,1.0199299072265624,0,0,0,0
1.8845908910006983,0.00718260498046875,-9.93354268798828,1.0175357055664063,0,0,0,0
1.885760062999907,-0.02154781494140625,-9.840168823242188,1.0702081420898437,0,0,0,0
1.8868607909971615,0.033518823242187495,-9.89523546142578,1.1156979736328125,0,0,0,0
1.8879831109952647,0.062249243164062495,-9.813832604980469,1.1156979736328125,0,0,0,0
1.8890771540027345,0.05985504150390625,-9.794678991699218,1.2018892333984375,0,0,0,0
1.890233158992487,-0.031124621582031248,-9.789890588378906,1.1923124267578125,0,0,0,0
1.8914230149966897,0.011971008300781249,-9.775525378417969,1.1563994018554686,0,0,0,0
1.8925209839944728,0.00239420166015625,-9.821015209960937,1.1061211669921875,0,0,0,0
1.8936063409928465,-0.0383072265625,-9.907206469726562,1.16837041015625,0,0,0,0
1.8947589579911437,0.08140285644531249,-9.931148486328125,1.0223241088867188,0,0,0,0
1.8959225369908381,0.00718260498046875,-9.91438907470703,1.1516109985351561,0,0,0,0
1.8970181350014172,0.055066638183593745,-10.012551342773437,1.1133037719726562,0,0,0,0
1.8981022149964701,0.05746083984375,-9.911994873046874,1.0654197387695312,0,0,0,0
1.8991881099937018,0.02633621826171875,-9.842563024902343,1.0606313354492187,0,0,0,0
1.9003643369942438,0.00239420166015625,-9.83777462158203,1.1516109985351561,0,0,0,0
1.9017673390044365,-0.009576806640625,-9.828197814941406,1.1947066284179686,0,0,0,0
1.9029328250035178,0.086191259765625,-9.756371765136718,1.2234370483398436,0,0,0,0
1.9040299789921846,0.01915361328125,-9.888052856445311,1.1755530151367186,0,0,0,0
1.9051167809957406,0.023942016601562498,-9.93354268798828,1.0917559570312498,0,0,0,0
1.906346174000646,0.10773907470703124,-9.859322436523437,1.158793603515625,0,0,0,0
1.907578141996055,0.0047884033203125,-9.926360083007811,1.1923124267578125,0,0,0,0
1.9087457019923022,0.02154781494140625,-9.947907897949218,1.0773907470703123,0,0,0,0
1.909877967002103,0.0909796630859375,-9.878476049804688,1.1013327636718748,0,0,0,0
1.9111097479908494,0.0430956298828125,-9.840168823242188,1.0726023437499999,0,0,0,0
1.9122655309911352,0.062249243164062495,-9.794678991699218,1.1276689819335937,0,0,0,0
1.9133722959959414,0.0718260498046875,-9.718064538574218,1.1923124267578125,0,0,0,0
