Time (s),Accel X,Accel Y,Accel Z,Gyro X,Gyro Y,Gyro Z,Temperature (C)
0.005145111000274483,-0.3112462158203125,-9.70369932861328,1.3623007446289062,0,0,0,0
0.00794962800000576,-0.3112462158203125,-9.591171850585937,1.2713210815429687,0,0,0,0
0.0105374060003669,-0.2705447875976562,-9.720458740234374,1.2832920898437499,0,0,0,0
0.01582397900028809,-0.354341845703125,-9.512163195800781,1.3311761230468748,0,0,0,0
0.018974049000007653,-0.33758243408203126,-9.708487731933593,1.120486376953125,0,0,0,0
0.022108323000338714,-0.3136404174804687,-9.514557397460937,1.3862427612304686,0,0,0,0
0.02533511499996166,-0.28012159423828126,-9.6917283203125,1.4125789794921875,0,0,0,0
0.027901466999992408,-0.4261678955078125,-9.777919580078125,1.3215993164062498,0,0,0,0
0.03155542200011041,-0.2657563842773437,-9.634267480468749,1.2306196533203124,0,0,0,0
0.03501478600037444,-0.28730419921875,-9.698910925292969,1.1923124267578125,0,0,0,0
0.038509447000251384,-0.40462008056640625,-9.636661682128906,1.3000515014648437,0,0,0,0
0.04231104900009086,-0.3591302490234375,-9.629479077148437,1.2114660400390624,0,0,0,0
0.045832541999971,-0.1867477294921875,-9.641450085449218,1.3168109130859373,0,0,0,0
0.04889115000014499,-0.33518823242187495,-9.732429748535155,1.3407529296874998,0,0,0,0
0.05175227800009452,-0.3950432739257812,-9.782707983398437,1.3311761230468748,0,0,0,0
0.05441098100027375,-0.16759411621093748,-9.643844287109374,1.3168109130859373,0,0,0,0
0.05718681300004391,-0.25139117431640623,-9.665392102050781,1.3766659545898436,0,0,0,0
0.05986103500026729,-0.3495534423828125,-9.677363110351562,1.2737152832031249,0,0,0,0
0.06262033000029987,-0.3495534423828125,-9.651026892089844,1.2808978881835937,0,0,0,0
0.06528673699995124,-0.3806780639648437,-9.634267480468749,1.3144167114257812,0,0,0,0
0.06803153200007728,-0.22026655273437498,-9.682151513671874,1.2617442749023438,0,0,0,0
0.0707278459999543,-0.18435352783203124,-9.708487731933593,1.3096283081054687,0,0,0,0
0.07386936000011701,-0.47165772705078124,-9.732429748535155,1.2928688964843749,0,0,0,0
0.07667397000022902,-0.32082302246093747,-9.727641345214844,1.3479355346679687,0,0,0,0
0.07959028200002649,-0.19871873779296872,-9.564835632324218,1.20667763671875,0,0,0,0
0.08227013400028227,-0.1867477294921875,-9.746794958496093,1.2737152832031249,0,0,0,0
0.0839985290003824,-0.3711012573242187,-9.801861596679688,1.2832920898437499,0,0,0,0
0.08569418300021425,-0.28969840087890625,-9.651026892089844,1.3431471313476562,0,0,0,0
0.0873291530001552,-0.3447650390625,-9.627084875488281,1.350329736328125,0,0,0,0
0.08904228900019007,-0.41419688720703124,-9.651026892089844,1.3359645263671873,0,0,0,0
0.09075685100015107,-0.2705447875976562,-9.567229833984374,1.254561669921875,0,0,0,0
0.09239350600000762,-0.2059013427734375,-9.6151138671875,1.2521674682617188,0,0,0,0
0.09414049299994076,-0.20829554443359374,-9.701305126953125,1.3048399047851562,0,0,0,0
0.09578957400026411,-0.3950432739257812,-9.713276135253906,1.3215993164062498,0,0,0,0
0.09740734000024531,-0.44532150878906246,-9.639055883789062,1.2665326782226562,0,0,0,0
0.09915082800034725,-0.3902548706054687,-9.639055883789062,1.3096283081054687,0,0,0,0
0.10086601900002279,-0.33039982910156246,-9.593566052246093,1.3838485595703125,0,0,0,0
0.10251182199999676,-0.24660277099609373,-9.672574707031249,1.5203180541992187,0,0,0,0
0.10427249500025937,-0.4213794921875,-9.725247143554688,1.3359645263671873,0,0,0,0
0.10601492700016024,-0.3232172241210937,-9.794678991699218,1.2425906616210938,0,0,0,0
0.10775708100027259,-0.3327940307617187,-9.617508068847656,1.4030021728515625,0,0,0,0
0.10949851300028968,-0.39983167724609375,-9.679757312011718,1.3048399047851562,0,0,0,0
0.11118085299995073,-0.4070142822265625,-9.710881933593749,1.2928688964843749,0,0,0,0
0.11282826700016813,-0.3711012573242187,-9.686939916992188,1.2617442749023438,0,0,0,0
0.11450810700034708,-0.21308394775390624,-9.619902270507811,1.3383587280273437,0,0,0,0
0.11623683500010884,-0.21787235107421873,-9.612719665527344,1.2713210815429687,0,0,0,0
0.11790821200020218,-0.277727392578125,-9.775525378417969,1.3335703247070312,0,0,0,0
0.11961834800013094,-0.4525041137695312,-9.787496386718749,1.2665326782226562,0,0,0,0
0.12128363200008607,-0.5746083984375,-9.672574707031249,1.20667763671875,0,0,0,0
0.12290526900005716,-0.316034619140625,-9.543287817382812,1.369483349609375,0,0,0,0
0.12457525700028782,-0.28969840087890625,-9.519345800781249,1.2832920898437499,0,0,0,0
0.12629894800011243,-0.34715924072265625,-9.674968908691406,1.3263877197265623,0,0,0,0
0.1283193780000147,-0.32082302246093747,-9.694122521972655,1.2689268798828124,0,0,0,0
0.13007547699999122,-0.24181436767578124,-9.682151513671874,1.2401964599609374,0,0,0,0
0.13182552000034775,-0.258573779296875,-9.64623848876953,1.235408056640625,0,0,0,0
0.1334472490002554,-0.36152445068359373,-9.727641345214844,1.2665326782226562,0,0,0,0
0.1351454220002779,-0.354341845703125,-9.64623848876953,1.2904746948242187,0,0,0,0
0.13696637200018813,-0.32082302246093747,-9.749189160156249,1.2880804931640624,0,0,0,0
0.13861160100032066,-0.21787235107421873,-9.588777648925781,1.3168109130859373,0,0,0,0
0.1402754969999478,-0.239420166015625,-9.598354455566406,1.3311761230468748,0,0,0,0
0.14209294700003738,-0.2825157958984375,-9.763554370117188,1.2761094848632812,0,0,0,0
0.14374004599994805,-0.36631285400390623,-9.744400756835937,1.3096283081054687,0,0,0,0
0.14535725700034163,-0.39983167724609375,-9.634267480468749,1.4125789794921875,0,0,0,0
0.14777014700030122,-0.24899697265624998,-9.612719665527344,1.2761094848632812,0,0,0,0
0.1494333200002984,-0.26815058593749996,-9.651026892089844,1.3096283081054687,0,0,0,0
0.1515855080001529,-0.2346317626953125,-9.696516723632811,1.2282254516601563,0,0,0,0
0.15339732900019953,-0.2920926025390625,-9.648632690429688,1.2928688964843749,0,0,0,0
0.15503098399994997,-0.3495534423828125,-9.648632690429688,1.2713210815429687,0,0,0,0
0.15717257999995127,-0.37828386230468747,-9.698910925292969,1.3144167114257812,0,0,0,0
0.15897917800020878,-0.3184288208007812,-9.6917283203125,1.3407529296874998,0,0,0,0
0.1606607769999755,-0.3112462158203125,-9.593566052246093,1.3670891479492187,0,0,0,0
0.16228659900025377,-0.23223756103515625,-9.557653027343749,1.3383587280273437,0,0,0,0
0.16441465700017943,-0.28969840087890625,-9.710881933593749,1.2928688964843749,0,0,0,0
0.16620658900001217,-0.3591302490234375,-9.74200655517578,1.3551181396484375,0,0,0,0
0.16831142599994564,-0.354341845703125,-9.586383447265625,1.2521674682617188,0,0,0,0
0.17031317100008891,-0.3950432739257812,-9.53131680908203,1.3742717529296875,0,0,0,0
0.17218750900019586,-0.32561142578124996,-9.603142858886718,1.2928688964843749,0,0,0,0
0.1738753300001008,-0.44053310546874996,-9.696516723632811,1.3311761230468748,0,0,0,0
0.17618064700036484,-0.2825157958984375,-9.612719665527344,1.3168109130859373,0,0,0,0
0.17816589200037924,-0.35194764404296874,-9.694122521972655,1.3096283081054687,0,0,0,0
0.18010011900014433,-0.469263525390625,-9.737218151855469,1.3311761230468748,0,0,0,0
0.18200495800010685,-0.4213794921875,-9.648632690429688,1.2689268798828124,0,0,0,0
0.1839205920000495,-0.2442085693359375,-9.560047229003906,1.3407529296874998,0,0,0,0
0.18581431900020107,-0.22266075439453123,-9.509768994140625,1.3527239379882812,0,0,0,0
0.18788878600025782,-0.2657563842773437,-9.708487731933593,1.2378022583007813,0,0,0,0
0.18989471600025354,-0.36152445068359373,-9.701305126953125,1.3048399047851562,0,0,0,0
0.19182164700032445,-0.33758243408203126,-9.502586389160156,1.3383587280273437,0,0,0,0
0.19382091000034052,-0.2705447875976562,-9.710881933593749,1.2306196533203124,0,0,0,0
0.19594946899997012,-0.3232172241210937,-9.730035546875,1.2713210815429687,0,0,0,0
0.19784108500016373,-0.28490999755859375,-9.76116016845703,1.216254443359375,0,0,0,0
0.19972214600011284,-0.23223756103515625,-9.617508068847656,1.2856862915039062,0,0,0,0
0.20170498300012696,-0.3136404174804687,-9.636661682128906,1.2761094848632812,0,0,0,0
0.20364843200013638,-0.5051765502929687,-9.727641345214844,1.2904746948242187,0,0,0,0
0.20561273300018001,-0.3327940307617187,-9.686939916992188,1.3239935180664062,0,0,0,0
0.20786005000036312,-0.22266075439453123,-9.576806640625,1.3120225097656248,0,0,0,0
0.20978062900030636,-0.2920926025390625,-9.521740002441407,1.2785036865234374,0,0,0,0
0.2117515039999489,-0.40940848388671874,-9.667786303710937,1.3359645263671873,0,0,0,0
0.21504007300018202,-0.4070142822265625,-9.528922607421874,1.3120225097656248,0,0,0,0
0.2184794370000418,-0.3495534423828125,-9.670180505371093,1.2928688964843749,0,0,0,0
0.22047410799996214,-0.2561795776367187,-9.677363110351562,1.2713210815429687,0,0,0,0
0.22259514899997157,-0.22026655273437498,-9.605537060546874,1.3479355346679687,0,0,0,0
0.2243745810001201,-0.32082302246093747,-9.737218151855469,1.3742717529296875,0,0,0,0
0.22617417900028158,-0.44053310546874996,-9.694122521972655,1.2138602416992186,0,0,0,0
0.2280051289999392,-0.4860229370117187,-9.619902270507811,1.2114660400390624,0,0,0,0
0.22973620900029346,-0.36631285400390623,-9.627084875488281,1.2976572998046874,0,0,0,0
0.23146714099993915,-0.22505495605468748,-9.631873278808593,1.2282254516601563,0,0,0,0
0.23331805399993755,-0.29448680419921874,-9.651026892089844,1.2593500732421874,0,0,0,0
0.2350635970001349,-0.28490999755859375,-9.744400756835937,1.2569558715820313,0,0,0,0
0.23686399100006383,-0.3136404174804687,-9.80665,1.3311761230468748,0,0,0,0
0.23869384900035584,-0.3447650390625,-9.624690673828125,1.3431471313476562,0,0,0,0
0.24045022500013147,-0.373495458984375,-9.734823950195311,1.2617442749023438,0,0,0,0
0.24225460100024065,-0.3495534423828125,-9.674968908691406,1.2282254516601563,0,0,0,0
0.24427554900012183,-0.28969840087890625,-9.56962403564453,1.3742717529296875,0,0,0,0
0.24641373800022848,-0.36152445068359373,-9.583989245605467,1.24498486328125,0,0,0,0
0.2489437200001703,-0.36631285400390623,-9.756371765136718,1.2018892333984375,0,0,0,0
0.2512468700001591,-0.33518823242187495,-9.706093530273437,1.3551181396484375,0,0,0,0
0.2536480560002019,-0.28969840087890625,-9.5384994140625,1.429338391113281,0,0,0,0
0.255902781000259,-0.2920926025390625,-9.509768994140625,1.2042834350585936,0,0,0,0
0.25808985799994844,-0.29448680419921874,-9.70369932861328,1.197100830078125,0,0,0,0
0.260794487000112,-0.3447650390625,-9.789890588378906,1.3000515014648437,0,0,0,0
0.2627516390002711,-0.3447650390625,-9.718064538574218,1.3168109130859373,0,0,0,0
0.26500460500028566,-0.3950432739257812,-9.672574707031249,1.1156979736328125,0,0,0,0
0.2683804329999475,-0.229843359375,-9.562441430664062,1.2569558715820313,0,0,0,0
0.27036951100035367,-0.38786066894531246,-9.64623848876953,1.2737152832031249,0,0,0,0
0.2722694600001887,-0.3902548706054687,-9.739612353515625,1.2832920898437499,0,0,0,0
0.2740698920001705,-0.3591302490234375,-9.765948571777344,1.3455413330078123,0,0,0,0
0.2759910260001561,-0.3854664672851562,-9.564835632324218,1.2617442749023438,0,0,0,0
0.2778710310003589,-0.32082302246093747,-9.648632690429688,1.2497732666015624,0,0,0,0
0.2796214630002396,-0.296881005859375,-9.677363110351562,1.2378022583007813,0,0,0,0
0.2813929690000805,-0.2920926025390625,-9.706093530273437,1.1611878051757811,0,0,0,0
0.2833277889999408,-0.32561142578124996,-9.658209497070311,1.3000515014648437,0,0,0,0
0.28514064599994526,-0.16998831787109375,-9.651026892089844,1.2785036865234374,0,0,0,0
0.28695865200006665,-0.41419688720703124,-9.706093530273437,1.3407529296874998,0,0,0,0
0.28880395300029704,-0.3495534423828125,-9.710881933593749,1.2832920898437499,0,0,0,0
0.2905627180002739,-0.277727392578125,-9.612719665527344,1.3838485595703125,0,0,0,0
0.2923742240000138,-0.20350714111328125,-9.583989245605467,1.22583125,0,0,0,0
0.29419376600026226,-0.18435352783203124,-9.694122521972655,1.2832920898437499,0,0,0,0
0.29595418000008067,-0.3447650390625,-9.689334118652344,1.2401964599609374,0,0,0,0
0.2977023530002043,-0.39743747558593745,-9.765948571777344,1.2856862915039062,0,0,0,0
0.299588932000006,-0.28969840087890625,-9.576806640625,1.3838485595703125,0,0,0,0
0.3013805850000608,-0.354341845703125,-9.593566052246093,1.3120225097656248,0,0,0,0
0.3032294610002282,-0.296881005859375,-9.672574707031249,1.3263877197265623,0,0,0,0
0.3050546520003081,-0.32561142578124996,-9.667786303710937,1.3359645263671873,0,0,0,0
0.3068052319999879,-0.40222587890625,-9.797073193359374,1.2928688964843749,0,0,0,0
0.308556867000334,-0.35673604736328124,-9.64623848876953,1.3527239379882812,0,0,0,0
0.31039444700036256,-0.3447650390625,-9.689334118652344,1.2761094848632812,0,0,0,0
0.31219367500034423,-0.3758896606445312,-9.631873278808593,1.2952630981445312,0,0,0,0
0.314000716999999,-0.3327940307617187,-9.579200842285156,1.218648645019531,0,0,0,0
0.315823260000343,-0.2705447875976562,-9.622296472167967,1.2641384765625,0,0,0,0
0.3175997470002585,-0.30885201416015623,-9.713276135253906,1.2856862915039062,0,0,0,0
0.31940751199999795,-0.39264907226562495,-9.737218151855469,1.2282254516601563,0,0,0,0
0.3212383690001843,-0.32082302246093747,-9.658209497070311,1.2665326782226562,0,0,0,0
0.32298778300037156,-0.29448680419921874,-9.605537060546874,1.2832920898437499,0,0,0,0
0.3247905480002373,-0.3711012573242187,-9.579200842285156,1.3168109130859373,0,0,0,0
0.3266156090003278,-0.2825157958984375,-9.74200655517578,1.2210428466796874,0,0,0,0
0.32840555900020263,-0.17477672119140625,-9.627084875488281,1.2928688964843749,0,0,0,0
0.33024906400032705,-0.1580173095703125,-9.588777648925781,1.3431471313476562,0,0,0,0
0.33209651400011353,-0.3711012573242187,-9.686939916992188,1.3215993164062498,0,0,0,0
0.3339305009999407,-0.4261678955078125,-9.763554370117188,1.2018892333984375,0,0,0,0
0.3358394690003479,-0.35194764404296874,-9.605537060546874,1.2737152832031249,0,0,0,0
0.33782986200003506,-0.239420166015625,-9.543287817382812,1.2761094848632812,0,0,0,0
0.3396627930001159,-0.1867477294921875,-9.562441430664062,1.2785036865234374,0,0,0,0
0.34153116900006353,-0.373495458984375,-9.753977563476562,1.2330138549804688,0,0,0,0
0.34342347000028894,-0.411802685546875,-9.770736975097655,1.2880804931640624,0,0,0,0
0.3452607160002117,-0.3232172241210937,-9.643844287109374,1.2306196533203124,0,0,0,0
0.3473580530003346,-0.296881005859375,-9.598354455566406,1.3479355346679687,0,0,0,0
0.3498695910002425,-0.24181436767578124,-9.665392102050781,1.24498486328125,0,0,0,0
0.35190340899998773,-0.24899697265624998,-9.651026892089844,1.216254443359375,0,0,0,0
0.3536582860001545,-0.33758243408203126,-9.622296472167967,1.3024457031249999,0,0,0,0
0.3559106590000738,-0.35673604736328124,-9.739612353515625,1.2713210815429687,0,0,0,0
0.35793357000011383,-0.44532150878906246,-9.753977563476562,1.3048399047851562,0,0,0,0
0.3596967430003133,-0.3399766357421875,-9.583989245605467,1.2689268798828124,0,0,0,0
0.36189009700001407,-0.21068974609375,-9.651026892089844,1.2497732666015624,0,0,0,0
0.3639645640000708,-0.25139117431640623,-9.706093530273437,1.235408056640625,0,0,0,0
0.3657171439999729,-0.3711012573242187,-9.715670336914062,1.3048399047851562,0,0,0,0
0.3679119990001709,-0.3591302490234375,-9.655815295410155,1.3048399047851562,0,0,0,0
0.3699275399999351,-0.2561795776367187,-9.627084875488281,1.407790576171875,0,0,0,0
0.3717135460001373,-0.3495534423828125,-9.610325463867188,1.3192051147460937,0,0,0,0
0.37387338200005615,-0.316034619140625,-9.667786303710937,1.35990654296875,0,0,0,0
0.3759006079999381,-0.25139117431640623,-9.622296472167967,1.2665326782226562,0,0,0,0
0.3776503359999879,-0.296881005859375,-9.662997900390625,1.3048399047851562,0,0,0,0
0.3798715800003265,-0.35194764404296874,-9.72285294189453,1.3551181396484375,0,0,0,0
0.38193086100000073,-0.316034619140625,-9.603142858886718,1.2665326782226562,0,0,0,0
0.3837148669999806,-0.24660277099609373,-9.583989245605467,1.3646949462890625,0,0,0,0
0.3858949630002826,-0.229843359375,-9.612719665527344,1.3646949462890625,0,0,0,0
0.38797954000028767,-0.23223756103515625,-9.730035546875,1.2641384765625,0,0,0,0
0.3897570280000764,-0.38786066894531246,-9.667786303710937,1.2689268798828124,0,0,0,0
0.3920431780002218,-0.3136404174804687,-9.588777648925781,1.2593500732421874,0,0,0,0
0.39408171900004163,-0.1867477294921875,-9.610325463867188,1.2713210815429687,0,0,0,0
0.39583991000017704,-0.35673604736328124,-9.6917283203125,1.3527239379882812,0,0,0,0
0.39777115600008983,-0.22266075439453123,-9.64623848876953,1.2138602416992186,0,0,0,0
0.4000654169999507,-0.16998831787109375,-9.670180505371093,1.2880804931640624,0,0,0,0
0.40188860800026305,-0.354341845703125,-9.720458740234374,1.3263877197265623,0,0,0,0
0.4036520390000078,-0.39264907226562495,-9.785102185058593,1.2880804931640624,0,0,0,0
0.40555854400008684,-0.34715924072265625,-9.576806640625,1.3383587280273437,0,0,0,0
0.4074384570003531,-0.30406361083984373,-9.583989245605467,1.2928688964843749,0,0,0,0
0.40948244200035333,-0.25139117431640623,-9.660603698730467,1.3144167114257812,0,0,0,0
0.41158870500021294,-0.3711012573242187,-9.732429748535155,1.3527239379882812,0,0,0,0
0.41376259700018636,-0.3184288208007812,-9.789890588378906,1.3000515014648437,0,0,0,0
0.41556658400031665,-0.40222587890625,-9.682151513671874,1.3192051147460937,0,0,0,0
0.41766545800010135,-0.39264907226562495,-9.804255798339844,1.2401964599609374,0,0,0,0
0.419624481000028,-0.28730419921875,-9.710881933593749,1.2473790649414063,0,0,0,0
0.42160841100030666,-0.22744915771484372,-9.598354455566406,1.3239935180664062,0,0,0,0
0.4233667690000402,-0.316034619140625,-9.555258825683593,1.3192051147460937,0,0,0,0
0.4251731260001179,-0.3711012573242187,-9.76116016845703,1.3168109130859373,0,0,0,0
0.42705235400035235,-0.4165910888671875,-9.696516723632811,1.209071838378906,0,0,0,0
0.4289567470000293,-0.3758896606445312,-9.557653027343749,1.3431471313476562,0,0,0,0
0.4307746419999603,-0.296881005859375,-9.423577734375,1.2952630981445312,0,0,0,0
0.4326300360003188,-0.24660277099609373,-9.751583361816406,1.2880804931640624,0,0,0,0
0.43442970800015246,-0.3711012573242187,-9.694122521972655,1.22583125,0,0,0,0
0.43624499199995626,-0.3758896606445312,-9.643844287109374,1.3407529296874998,0,0,0,0
0.4381144230001155,-0.15562310791015624,-9.701305126953125,1.3407529296874998,0,0,0,0
0.43993226100019456,-0.3232172241210937,-9.658209497070311,1.2330138549804688,0,0,0,0
0.4416753420000532,-0.37828386230468747,-9.763554370117188,1.3000515014648437,0,0,0,0
0.44362564200037014,-0.2561795776367187,-9.751583361816406,1.2425906616210938,0,0,0,0
0.44544949999999517,-0.25139117431640623,-9.564835632324218,1.2928688964843749,0,0,0,0
0.44731359800016435,-0.28730419921875,-9.737218151855469,1.3192051147460937,0,0,0,0
0.44919880600036777,-0.38786066894531246,-9.751583361816406,1.2713210815429687,0,0,0,0
0.450976700999945,-0.3447650390625,-9.677363110351562,1.2928688964843749,0,0,0,0
0.4527320590000272,-0.32561142578124996,-9.564835632324218,1.2641384765625,0,0,0,0
0.4550648750000619,-0.2561795776367187,-9.672574707031249,1.2401964599609374,0,0,0,0
0.4568040480003219,-0.33518823242187495,-9.662997900390625,1.2761094848632812,0,0,0,0
0.45851692500036734,-0.3136404174804687,-9.718064538574218,1.4006079711914061,0,0,0,0
0.46086890800006586,-0.3112462158203125,-9.576806640625,1.2330138549804688,0,0,0,0
0.46262848800006395,-0.38307226562499996,-9.524134204101562,1.216254443359375,0,0,0,0
0.4648961760003658,-0.3806780639648437,-9.689334118652344,1.2713210815429687,0,0,0,0
0.46736386200018387,-0.2657563842773437,-9.550470422363281,1.35990654296875,0,0,0,0
0.4691152560003502,-0.22744915771484372,-9.660603698730467,1.3215993164062498,0,0,0,0
0.47158586800014746,-0.36391865234375,-9.720458740234374,1.2521674682617188,0,0,0,0
0.47338807799997085,-0.48123453369140623,-9.6917283203125,1.218648645019531,0,0,0,0
0.4753292489999694,-0.3447650390625,-9.636661682128906,1.3024457031249999,0,0,0,0
0.4775097340002503,-0.3064578125,-9.526528405761718,1.3527239379882812,0,0,0,0
0.4797430510002414,-0.2442085693359375,-9.734823950195311,1.2425906616210938,0,0,0,0
0.4815774820003753,-0.2920926025390625,-9.746794958496093,1.2210428466796874,0,0,0,0
0.48362944900009097,-0.3016694091796875,-9.64623848876953,1.3383587280273437,0,0,0,0
0.48535036300017964,-0.373495458984375,-9.655815295410155,1.2904746948242187,0,0,0,0
0.4869977030002701,-0.38307226562499996,-9.672574707031249,1.3575123413085937,0,0,0,0
0.48863226499997836,-0.373495458984375,-9.7683427734375,1.3527239379882812,0,0,0,0
0.4903445120003198,-0.2705447875976562,-9.593566052246093,1.3551181396484375,0,0,0,0
0.49208127700012483,-0.22266075439453123,-9.651026892089844,1.3670891479492187,0,0,0,0
0.4938769680002224,-0.2657563842773437,-9.725247143554688,1.2952630981445312,0,0,0,0
0.49598471300032543,-0.4261678955078125,-9.725247143554688,1.2832920898437499,0,0,0,0
0.49900939500003005,-0.33758243408203126,-9.617508068847656,1.2042834350585936,0,0,0,0
0.5018393370000922,-0.2920926025390625,-9.662997900390625,1.2425906616210938,0,0,0,0
0.5048404450003545,-0.296881005859375,-9.70369932861328,1.3575123413085937,0,0,0,0
0.5073015760003727,-0.36631285400390623,-9.60793126220703,1.2832920898437499,0,0,0,0
0.5101942220003366,-0.3447650390625,-9.593566052246093,1.3048399047851562,0,0,0,0
0.5126373709999825,-0.2825157958984375,-9.770736975097655,1.2617442749023438,0,0,0,0
0.515541647000191,-0.20350714111328125,-9.612719665527344,1.3287819213867187,0,0,0,0
0.5180264990003707,-0.373495458984375,-9.686939916992188,1.2880804931640624,0,0,0,0
0.5208868490003624,-0.3399766357421875,-9.674968908691406,1.2904746948242187,0,0,0,0
0.5234751640000468,-0.30406361083984373,-9.6151138671875,1.3024457031249999,0,0,0,0
0.5264494390003165,-0.24899697265624998,-9.610325463867188,1.2976572998046874,0,0,0,0
0.5288606260000961,-0.277727392578125,-9.629479077148437,1.254561669921875,0,0,0,0
0.5317784570002004,-0.33518823242187495,-9.64623848876953,1.24498486328125,0,0,0,0
0.5342542719999983,-0.354341845703125,-9.744400756835937,1.2952630981445312,0,0,0,0
0.5371615850003764,-0.2154781494140625,-9.550470422363281,1.2928688964843749,0,0,0,0
0.5396282520000568,-0.22026655273437498,-9.567229833984374,1.2713210815429687,0,0,0,0
0.5424712320000253,-0.30885201416015623,-9.730035546875,1.3623007446289062,0,0,0,0
0.5450373990001935,-0.3711012573242187,-9.631873278808593,1.3024457031249999,0,0,0,0
0.547975340999983,-0.4381389038085937,-9.631873278808593,1.3096283081054687,0,0,0,0
0.5505253599999378,-0.2825157958984375,-9.701305126953125,1.2713210815429687,0,0,0,0
0.5538454840002487,-0.2059013427734375,-9.634267480468749,1.3335703247070312,0,0,0,0
0.5566815560000578,-0.40222587890625,-9.758765966796874,1.3646949462890625,0,0,0,0
0.559671702000287,-0.354341845703125,-9.60793126220703,1.2808978881835937,0,0,0,0
0.5635844510002244,-0.24660277099609373,-9.674968908691406,1.2521674682617188,0,0,0,0
0.5654841969999325,-0.3591302490234375,-9.737218151855469,1.3455413330078123,0,0,0,0
0.567240202999983,-0.39264907226562495,-9.636661682128906,1.2713210815429687,0,0,0,0
0.5688702840002406,-0.3687070556640625,-9.665392102050781,1.2880804931640624,0,0,0,0
0.5705341050002062,-0.33039982910156246,-9.514557397460937,1.3048399047851562,0,0,0,0
0.5722959260001517,-0.3064578125,-9.698910925292969,1.3575123413085937,0,0,0,0
0.5739464880002743,-0.30406361083984373,-9.672574707031249,1.2832920898437499,0,0,0,0
0.5756099770001128,-0.277727392578125,-9.80665,1.2378022583007813,0,0,0,0
0.5773220380001476,-0.32082302246093747,-9.694122521972655,1.1252747802734375,0,0,0,0
0.5789691009999842,-0.44053310546874996,-9.730035546875,1.2689268798828124,0,0,0,0
0.5806282550001924,-0.36631285400390623,-9.763554370117188,1.209071838378906,0,0,0,0
0.5823420579999947,-0.28490999755859375,-9.552864624023437,1.3742717529296875,0,0,0,0
0.5839017880002757,-0.23702596435546874,-9.576806640625,1.35990654296875,0,0,0,0
0.585410110000339,-0.28012159423828126,-9.665392102050781,1.3192051147460937,0,0,0,0
0.5869904139999562,-0.1867477294921875,-9.715670336914062,1.2928688964843749,0,0,0,0
0.5885809950000294,-0.36631285400390623,-9.739612353515625,1.3215993164062498,0,0,0,0
0.5901113360000636,-0.2825157958984375,-9.677363110351562,1.369483349609375,0,0,0,0
0.5917012320001049,-0.3327940307617187,-9.619902270507811,1.2785036865234374,0,0,0,0
0.5932613500003754,-0.3112462158203125,-9.610325463867188,1.350329736328125,0,0,0,0
0.5947443029999704,-0.3758896606445312,-9.708487731933593,1.3024457031249999,0,0,0,0
0.5965629560000707,-0.2825157958984375,-9.672574707031249,1.3766659545898436,0,0,0,0
0.5983688139999686,-0.19393033447265623,-9.65342109375,1.2617442749023438,0,0,0,0
0.6001493750000009,-0.3184288208007812,-9.627084875488281,1.2497732666015624,0,0,0,0
0.6017266050002945,-0.3232172241210937,-9.737218151855469,1.254561669921875,0,0,0,0
0.6035253320001175,-0.4860229370117187,-9.749189160156249,1.3910311645507811,0,0,0,0
0.6053742640001474,-0.34715924072265625,-9.694122521972655,1.3239935180664062,0,0,0,0
0.6072857320000367,-0.35673604736328124,-9.634267480468749,1.2569558715820313,0,0,0,0
0.6091481810003643,-0.22505495605468748,-9.677363110351562,1.2737152832031249,0,0,0,0
0.6106865030001245,-0.25139117431640623,-9.674968908691406,1.3120225097656248,0,0,0,0
0.612203215000136,-0.3016694091796875,-9.701305126953125,1.2928688964843749,0,0,0,0
0.6137903150001875,-0.316034619140625,-9.612719665527344,1.2856862915039062,0,0,0,0
0.6159015960001852,-0.40462008056640625,-9.665392102050781,1.3239935180664062,0,0,0,0
0.6174308810000184,-0.3280056274414062,-9.674968908691406,1.3144167114257812,0,0,0,0
0.6190149990002283,-0.4525041137695312,-9.641450085449218,1.2593500732421874,0,0,0,0
0.6206352100002732,-0.1867477294921875,-9.627084875488281,1.3263877197265623,0,0,0,0
0.6221571989999575,-0.22744915771484372,-9.610325463867188,1.3000515014648437,0,0,0,0
0.6237494470001366,-0.29448680419921874,-9.674968908691406,1.3431471313476562,0,0,0,0
0.6253447320000305,-0.4285620971679687,-9.727641345214844,1.2521674682617188,0,0,0,0
0.6268489809999664,-0.42377369384765623,-9.667786303710937,1.2832920898437499,0,0,0,0
0.6284001730000455,-0.38307226562499996,-9.598354455566406,1.2856862915039062,0,0,0,0
0.6300908650000565,-0.2825157958984375,-9.540893615722656,1.2378022583007813,0,0,0,0
0.6316513720003059,-0.2442085693359375,-9.622296472167967,1.2665326782226562,0,0,0,0
0.63316282400001,-0.3327940307617187,-9.670180505371093,1.2330138549804688,0,0,0,0
0.6347371280003244,-0.3399766357421875,-9.713276135253906,1.2713210815429687,0,0,0,0
0.6363777270003084,-0.36391865234375,-9.6917283203125,1.3766659545898436,0,0,0,0
0.6378891980002663,-0.42377369384765623,-9.598354455566406,1.3263877197265623,0,0,0,0
0.639434557000186,-0.33039982910156246,-9.682151513671874,1.2832920898437499,0,0,0,0
0.6411186560003443,-0.3136404174804687,-9.581595043945311,1.3862427612304686,0,0,0,0
0.6426585340000202,-0.277727392578125,-9.612719665527344,1.2928688964843749,0,0,0,0
0.6441639859999668,-0.2609679809570312,-9.545682019042967,1.3575123413085937,0,0,0,0
0.6457275490001848,-0.24181436767578124,-9.65342109375,1.2425906616210938,0,0,0,0
0.6473494080000819,-0.3136404174804687,-9.689334118652344,1.3551181396484375,0,0,0,0
0.6489269710000372,-0.4285620971679687,-9.787496386718749,1.2856862915039062,0,0,0,0
0.6504840890002015,-0.39264907226562495,-9.730035546875,1.2473790649414063,0,0,0,0
0.6520886700000119,-0.34715924072265625,-9.610325463867188,1.2689268798828124,0,0,0,0
0.6536308449999524,-0.32082302246093747,-9.579200842285156,1.3000515014648437,0,0,0,0
0.6555755710000994,-0.2825157958984375,-9.665392102050781,1.2904746948242187,0,0,0,0
0.6572014670000499,-0.25139117431640623,-9.68454571533203,1.3718775512695311,0,0,0,0
0.6589973620002638,-0.16759411621093748,-9.660603698730467,1.3000515014648437,0,0,0,0
0.6618628969999918,-0.41898529052734373,-9.667786303710937,1.37906015625,0,0,0,0
0.6642514540003503,-0.373495458984375,-9.6917283203125,1.3215993164062498,0,0,0,0
0.6680894999999509,-0.1867477294921875,-9.572018237304688,1.3575123413085937,0,0,0,0
0.670345817999987,-0.28969840087890625,-9.718064538574218,1.2880804931640624,0,0,0,0
0.6731168530000105,-0.373495458984375,-9.732429748535155,1.2737152832031249,0,0,0,0
0.6753237259999878,-0.35673604736328124,-9.610325463867188,1.2497732666015624,0,0,0,0
0.6768573450003714,-0.28730419921875,-9.588777648925781,1.3359645263671873,0,0,0,0
0.6783979270003329,-0.26336218261718747,-9.631873278808593,1.2330138549804688,0,0,0,0
0.6801414510000541,-0.3232172241210937,-9.698910925292969,1.2713210815429687,0,0,0,0
0.6817716250002377,-0.28969840087890625,-9.636661682128906,1.2282254516601563,0,0,0,0
0.6833986130000085,-0.2825157958984375,-9.641450085449218,1.235408056640625,0,0,0,0
0.6853016740001294,-0.354341845703125,-9.598354455566406,1.22583125,0,0,0,0
0.6870605310000428,-0.3280056274414062,-9.68454571533203,1.2665326782226562,0,0,0,0
0.6888573330002146,-0.3854664672851562,-9.629479077148437,1.2928688964843749,0,0,0,0
0.6907183200000873,-0.21308394775390624,-9.574412438964844,1.2856862915039062,0,0,0,0
0.6927414910001062,-0.26336218261718747,-9.634267480468749,1.2761094848632812,0,0,0,0
0.6950191230002929,-0.34715924072265625,-9.794678991699218,1.3192051147460937,0,0,0,0
0.6970429970001533,-0.36631285400390623,-9.658209497070311,1.3048399047851562,0,0,0,0
0.6988224470001114,-0.34715924072265625,-9.634267480468749,1.369483349609375,0,0,0,0
0.7008493400003317,-0.2609679809570312,-9.648632690429688,1.3766659545898436,0,0,0,0
0.7028098450000471,-0.34237083740234375,-9.734823950195311,1.2330138549804688,0,0,0,0
0.7046202579999772,-0.21068974609375,-9.773131176757811,1.2042834350585936,0,0,0,0
0.7064370600000984,-0.33518823242187495,-9.6151138671875,1.3239935180664062,0,0,0,0
0.7082613060001677,-0.39983167724609375,-9.658209497070311,1.2282254516601563,0,0,0,0
0.7100232190000497,-0.4165910888671875,-9.696516723632811,1.2928688964843749,0,0,0,0
0.7118786129999535,-0.45489831542968745,-9.629479077148437,1.407790576171875,0,0,0,0
0.713696155999969,-0.26336218261718747,-9.49300958251953,1.3168109130859373,0,0,0,0
0.7154442910000398,-0.20829554443359374,-9.627084875488281,1.3335703247070312,0,0,0,0
0.7172420380002222,-0.3136404174804687,-9.749189160156249,1.3311761230468748,0,0,0,0
0.7190652470003442,-0.3136404174804687,-9.777919580078125,1.2689268798828124,0,0,0,0
0.7208188270001301,-0.36152445068359373,-9.627084875488281,1.3024457031249999,0,0,0,0
0.7225651290000314,-0.3016694091796875,-9.605537060546874,1.3215993164062498,0,0,0,0
0.7247995950001496,-0.41419688720703124,-9.682151513671874,1.189918225097656,0,0,0,0
0.7265719340002761,-0.28490999755859375,-9.524134204101562,1.2808978881835937,0,0,0,0
0.7283858290002172,-0.21308394775390624,-9.600748657226562,1.35990654296875,0,0,0,0
0.7302220380001927,-0.28490999755859375,-9.572018237304688,1.3646949462890625,0,0,0,0
0.7320363389999329,-0.45010991210937495,-9.674968908691406,1.2808978881835937,0,0,0,0
0.7338421780000317,-0.5339069702148437,-9.6917283203125,1.235408056640625,0,0,0,0
0.735665906000122,-0.3232172241210937,-9.579200842285156,1.3048399047851562,0,0,0,0
0.7374033200003396,-0.22744915771484372,-9.600748657226562,1.3215993164062498,0,0,0,0
0.7392157880003651,-0.2920926025390625,-9.655815295410155,1.2617442749023438,0,0,0,0
0.7410221270001784,-0.42377369384765623,-9.732429748535155,1.3000515014648437,0,0,0,0
0.7427465959999608,-0.411802685546875,-9.708487731933593,1.3048399047851562,0,0,0,0
0.7456784830001197,-0.277727392578125,-9.631873278808593,1.2952630981445312,0,0,0,0
0.7479644850000113,-0.32082302246093747,-9.658209497070311,1.2785036865234374,0,0,0,0
0.7500298770000882,-0.18435352783203124,-9.639055883789062,1.2665326782226562,0,0,0,0
0.7520343820001472,-0.2705447875976562,-9.622296472167967,1.2306196533203124,0,0,0,0
0.7541236820002268,-0.3495534423828125,-9.660603698730467,1.2617442749023438,0,0,0,0
0.7561765929999638,-0.41419688720703124,-9.785102185058593,1.24498486328125,0,0,0,0
0.7582151890001114,-0.30885201416015623,-9.624690673828125,1.429338391113281,0,0,0,0
0.7602267120000761,-0.2753331909179687,-9.528922607421874,1.350329736328125,0,0,0,0
0.7622010680001949,-0.2537853759765625,-9.6917283203125,1.2401964599609374,0,0,0,0
0.7640466480002033,-0.3136404174804687,-9.792284790039062,1.3646949462890625,0,0,0,0
0.7658611900001233,-0.33518823242187495,-9.662997900390625,1.2521674682617188,0,0,0,0
0.7677317689999654,-0.30885201416015623,-9.562441430664062,1.3359645263671873,0,0,0,0
0.769517757000358,-0.3687070556640625,-9.636661682128906,1.3144167114257812,0,0,0,0
0.7713298180001402,-0.33518823242187495,-9.686939916992188,1.3168109130859373,0,0,0,0
0.7731347680000908,-0.23223756103515625,-9.643844287109374,1.3215993164062498,0,0,0,0
0.7750730870002371,-0.24181436767578124,-9.689334118652344,1.2737152832031249,0,0,0,0
0.7768981300000632,-0.354341845703125,-9.662997900390625,1.4245499877929686,0,0,0,0
0.7787300429999959,-0.3447650390625,-9.730035546875,1.2617442749023438,0,0,0,0
0.7804915670003538,-0.3758896606445312,-9.730035546875,1.3024457031249999,0,0,0,0
0.7823143870000422,-0.3232172241210937,-9.560047229003906,1.3215993164062498,0,0,0,0
0.7841712439999355,-0.22744915771484372,-9.588777648925781,1.3120225097656248,0,0,0,0
0.7859157880002385,-0.16041151123046873,-9.701305126953125,1.2617442749023438,0,0,0,0
0.7876547380001284,-0.3184288208007812,-9.756371765136718,1.35990654296875,0,0,0,0
0.7894667440000376,-0.30885201416015623,-9.801861596679688,1.3096283081054687,0,0,0,0
0.7913312860000588,-0.3184288208007812,-9.670180505371093,1.2617442749023438,0,0,0,0
0.7931253660003676,-0.277727392578125,-9.651026892089844,1.3192051147460937,0,0,0,0
0.7949442230001296,-0.354341845703125,-9.727641345214844,1.2904746948242187,0,0,0,0
0.7966902850002953,-0.258573779296875,-9.617508068847656,1.2785036865234374,0,0,0,0
0.7984226060002584,-0.23223756103515625,-9.507374792480467,1.4221557861328125,0,0,0,0
0.8006680150001557,-0.3591302490234375,-9.715670336914062,1.209071838378906,0,0,0,0
0.8031780340002115,-0.38307226562499996,-9.76116016845703,1.2234370483398436,0,0,0,0
0.8060284770003818,-0.28730419921875,-9.536105212402344,1.3646949462890625,0,0,0,0
0.8078749270002845,-0.24660277099609373,-9.619902270507811,1.2928688964843749,0,0,0,0
0.8102306690002479,-0.3016694091796875,-9.708487731933593,1.3215993164062498,0,0,0,0
0.8126168000003418,-0.33518823242187495,-9.639055883789062,1.2976572998046874,0,0,0,0
0.81460147100006,-0.354341845703125,-9.617508068847656,1.3192051147460937,0,0,0,0
0.8167178450003121,-0.32561142578124996,-9.744400756835937,1.2569558715820313,0,0,0,0
0.8189879400001701,-0.2609679809570312,-9.634267480468749,1.2521674682617188,0,0,0,0
0.8211286099999597,-0.2059013427734375,-9.560047229003906,1.3766659545898436,0,0,0,0
0.823177040000246,-0.2705447875976562,-9.737218151855469,1.388636962890625,0,0,0,0
0.82520385800035,-0.32082302246093747,-9.686939916992188,1.3287819213867187,0,0,0,0
0.8270553270003802,-0.46208092041015625,-9.713276135253906,1.2330138549804688,0,0,0,0
0.8288423140002124,-0.4429273071289062,-9.579200842285156,1.4053963745117186,0,0,0,0
0.8309603910001897,-0.2609679809570312,-9.622296472167967,1.2330138549804688,0,0,0,0
0.8327134159999332,-0.28730419921875,-9.763554370117188,1.2234370483398436,0,0,0,0
0.8345384030003515,-0.316034619140625,-9.682151513671874,1.2497732666015624,0,0,0,0
0.8366872210003748,-0.2920926025390625,-9.636661682128906,1.369483349609375,0,0,0,0
0.8384489860000031,-0.3112462158203125,-9.804255798339844,1.2761094848632812,0,0,0,0
0.8402630470000076,-0.41898529052734373,-9.662997900390625,1.2904746948242187,0,0,0,0
0.8425650680001127,-0.28490999755859375,-9.564835632324218,1.3000515014648437,0,0,0,0
0.8447634780000044,-0.1867477294921875,-9.586383447265625,1.3718775512695311,0,0,0,0
0.8468725920001816,-0.21787235107421873,-9.708487731933593,1.2641384765625,0,0,0,0
0.8495516289999614,-0.3232172241210937,-9.732429748535155,1.2976572998046874,0,0,0,0
0.8515365780003776,-0.35673604736328124,-9.612719665527344,1.3239935180664062,0,0,0,0
0.8535588960003224,-0.24899697265624998,-9.5384994140625,1.3096283081054687,0,0,0,0
0.85586873200009,-0.3016694091796875,-9.694122521972655,1.2808978881835937,0,0,0,0
0.8578146990003006,-0.2609679809570312,-9.648632690429688,1.3311761230468748,0,0,0,0
0.8598311660002764,-0.32561142578124996,-9.643844287109374,1.2569558715820313,0,0,0,0
0.862242334000257,-0.41419688720703124,-9.672574707031249,1.254561669921875,0,0,0,0
0.8643063380000058,-0.3854664672851562,-9.65342109375,1.3024457031249999,0,0,0,0
0.8662381210001513,-0.239420166015625,-9.641450085449218,1.2378022583007813,0,0,0,0
0.868255199000032,-0.16280571289062498,-9.595960253906249,1.2952630981445312,0,0,0,0
0.8705944600001203,-0.28730419921875,-9.773131176757811,1.3072341064453123,0,0,0,0
0.8725652790003551,-0.4261678955078125,-9.672574707031249,1.2880804931640624,0,0,0,0
0.8745899499999723,-0.3591302490234375,-9.64623848876953,1.3670891479492187,0,0,0,0
0.8768451559999448,-0.30406361083984373,-9.593566052246093,1.2617442749023438,0,0,0,0
0.8787913460000709,-0.26815058593749996,-9.655815295410155,1.2928688964843749,0,0,0,0
0.8808053500001733,-0.17477672119140625,-9.70369932861328,1.3646949462890625,0,0,0,0
0.8831974810000247,-0.316034619140625,-9.677363110351562,1.3527239379882812,0,0,0,0
0.8849636720001399,-0.4165910888671875,-9.65342109375,1.3120225097656248,0,0,0,0
0.8861488490001648,-0.4333505004882812,-9.701305126953125,1.2713210815429687,0,0,0,0
0.8874614690003,-0.4333505004882812,-9.655815295410155,1.2976572998046874,0,0,0,0
0.8889974390003772,-0.3016694091796875,-9.605537060546874,1.3048399047851562,0,0,0,0
0.8901715790002527,-0.33758243408203126,-9.5001921875,1.2785036865234374,0,0,0,0
0.8913564780000343,-0.277727392578125,-9.550470422363281,1.3766659545898436,0,0,0,0
0.8926297100001648,-0.22026655273437498,-9.720458740234374,1.1851298217773436,0,0,0,0
0.894351160000042,-0.30406361083984373,-9.753977563476562,1.0965443603515623,0,0,0,0
0.8956997250002132,-0.3806780639648437,-9.670180505371093,1.2138602416992186,0,0,0,0
0.8971699730000182,-0.29927520751953124,-9.667786303710937,1.2497732666015624,0,0,0,0
0.898451335000118,-0.3136404174804687,-9.552864624023437,1.3000515014648437,0,0,0,0
0.8999104910003553,-0.3327940307617187,-9.579200842285156,1.2425906616210938,0,0,0,0
0.9011253160001615,-0.29927520751953124,-9.622296472167967,1.2928688964843749,0,0,0,0
0.9027286190002997,-0.2537853759765625,-9.727641345214844,1.1851298217773436,0,0,0,0
0.9040789979999317,-0.2346317626953125,-9.694122521972655,1.3263877197265623,0,0,0,0
0.9052718600000844,-0.2753331909179687,-9.627084875488281,1.3024457031249999,0,0,0,0
0.90645133299995,-0.29927520751953124,-9.598354455566406,1.2832920898437499,0,0,0,0
0.9080316370000219,-0.39264907226562495,-9.65342109375,1.2689268798828124,0,0,0,0
0.9092211280003539,-0.40222587890625,-9.749189160156249,1.3431471313476562,0,0,0,0
0.9103940830000283,-0.38307226562499996,-9.715670336914062,1.2282254516601563,0,0,0,0
0.9115787780001483,-0.3591302490234375,-9.655815295410155,1.2521674682617188,0,0,0,0
0.912854843000332,-0.22026655273437498,-9.545682019042967,1.3407529296874998,0,0,0,0
0.9144667390000905,-0.258573779296875,-9.548076220703125,1.2952630981445312,0,0,0,0
0.9156547120001051,-0.181959326171875,-9.560047229003906,1.3359645263671873,0,0,0,0
0.9168358330002775,-0.19871873779296872,-9.737218151855469,1.3024457031249999,0,0,0,0
0.9181120460002603,-0.39743747558593745,-9.81862100830078,1.3024457031249999,0,0,0,0
0.9195924610003203,-0.3950432739257812,-9.797073193359374,1.3742717529296875,0,0,0,0
0.9207698049999635,-0.3232172241210937,-9.651026892089844,1.3239935180664062,0,0,0,0
0.9219536300001892,-0.3399766357421875,-9.560047229003906,1.3239935180664062,0,0,0,0
0.9232791940003153,-0.3112462158203125,-9.643844287109374,1.4221557861328125,0,0,0,0
0.924715758000275,-0.22266075439453123,-9.658209497070311,1.3120225097656248,0,0,0,0
0.9258917680003833,-0.3327940307617187,-9.694122521972655,1.2473790649414063,0,0,0,0
0.9270668340000157,-0.2609679809570312,-9.648632690429688,1.3096283081054687,0,0,0,0
0.9283658429999377,-0.2825157958984375,-9.797073193359374,1.3215993164062498,0,0,0,0
0.9297925370001394,-0.19393033447265623,-9.641450085449218,1.2832920898437499,0,0,0,0
0.9309702320001634,-0.3711012573242187,-9.667786303710937,1.22583125,0,0,0,0
0.9321326680001221,-0.38786066894531246,-9.739612353515625,1.2521674682617188,0,0,0,0
0.9334105480002108,-0.44532150878906246,-9.658209497070311,1.2234370483398436,0,0,0,0
0.9348426490000747,-0.36391865234375,-9.619902270507811,1.2689268798828124,0,0,0,0
0.9361555840000619,-0.23702596435546874,-9.576806640625,1.2904746948242187,0,0,0,0
0.9376323510000475,-0.22505495605468748,-9.562441430664062,1.2713210815429687,0,0,0,0
0.9392025619999913,-0.2346317626953125,-9.634267480468749,1.13006318359375,0,0,0,0
0.9409629570000106,-0.36152445068359373,-9.679757312011718,1.22583125,0,0,0,0
0.9432121260001622,-0.316034619140625,-9.682151513671874,1.2378022583007813,0,0,0,0
0.9447798740002327,-0.3495534423828125,-9.617508068847656,1.2713210815429687,0,0,0,0
0.9461955860001581,-0.33518823242187495,-9.655815295410155,1.369483349609375,0,0,0,0
0.9473948370000471,-0.47884033203125,-9.64623848876953,1.2952630981445312,0,0,0,0
0.9487579380001989,-0.37828386230468747,-9.744400756835937,1.2904746948242187,0,0,0,0
0.9502072420000331,-0.18435352783203124,-9.694122521972655,1.3144167114257812,0,0,0,0
0.9513896779999413,-0.239420166015625,-9.636661682128906,1.3048399047851562,0,0,0,0
0.9525715770000716,-0.2537853759765625,-9.560047229003906,1.3144167114257812,0,0,0,0
0.9538454570001704,-0.16759411621093748,-9.679757312011718,1.2401964599609374,0,0,0,0
0.9553208170000289,-0.33518823242187495,-9.70369932861328,1.1109095703125,0,0,0,0
0.9564964380001584,-0.39264907226562495,-9.732429748535155,1.3862427612304686,0,0,0,0
0.9579115760002423,-0.277727392578125,-9.689334118652344,1.3766659545898436,0,0,0,0
0.9592970480002805,-0.27293898925781246,-9.612719665527344,1.2282254516601563,0,0,0,0
0.9605415760001961,-0.2657563842773437,-9.617508068847656,1.209071838378906,0,0,0,0
0.9617153819999658,-0.27293898925781246,-9.634267480468749,1.2737152832031249,0,0,0,0
0.9628900040002009,-0.258573779296875,-9.68454571533203,1.3862427612304686,0,0,0,0
0.9641356060001272,-0.3399766357421875,-9.710881933593749,1.2976572998046874,0,0,0,0
0.9655265030000919,-0.3327940307617187,-9.804255798339844,1.2617442749023438,0,0,0,0
0.9667005690002952,-0.32082302246093747,-9.639055883789062,1.3000515014648437,0,0,0,0
0.9678820600001927,-0.3136404174804687,-9.598354455566406,1.2593500732421874,0,0,0,0
0.9691216260002875,-0.33039982910156246,-9.552864624023437,1.2282254516601563,0,0,0,0
0.9705722450003123,-0.32561142578124996,-9.674968908691406,1.177947216796875,0,0,0,0
0.9717536250000194,-0.41898529052734373,-9.677363110351562,1.16837041015625,0,0,0,0
0.9729260980002437,-0.258573779296875,-9.689334118652344,1.218648645019531,0,0,0,0
0.9741882560001613,-0.201112939453125,-9.60793126220703,1.2785036865234374,0,0,0,0
0.9756298940001216,-0.3016694091796875,-9.562441430664062,1.254561669921875,0,0,0,0
0.9768038490001345,-0.4285620971679687,-9.610325463867188,1.2928688964843749,0,0,0,0
0.9779763770002319,-0.29927520751953124,-9.70369932861328,1.3551181396484375,0,0,0,0
0.979262664000089,-0.3902548706054687,-9.715670336914062,1.3192051147460937,0,0,0,0
0.9806900240000687,-0.3447650390625,-9.662997900390625,1.1923124267578125,0,0,0,0
0.9818633490003776,-0.33758243408203126,-9.667786303710937,1.2832920898437499,0,0,0,0
0.9830301740003051,-0.2059013427734375,-9.610325463867188,1.3144167114257812,0,0,0,0
0.984199333000106,-0.19153613281249998,-9.536105212402344,1.2138602416992186,0,0,0,0
0.9854317680001259,-0.22266075439453123,-9.550470422363281,1.2665326782226562,0,0,0,0
0.9867986100002781,-0.3064578125,-9.696516723632811,1.24498486328125,0,0,0,0
0.9881309340003099,-0.3184288208007812,-9.732429748535155,1.3144167114257812,0,0,0,0
0.9893102040000485,-0.3687070556640625,-9.672574707031249,1.3024457031249999,0,0,0,0
0.9905909720000636,-0.3806780639648437,-9.64623848876953,1.3287819213867187,0,0,0,0
0.9923246630000904,-0.40222587890625,-9.595960253906249,1.2401964599609374,0,0,0,0
0.9935588400003326,-0.3711012573242187,-9.512163195800781,1.199495031738281,0,0,0,0
0.9949531260003823,-0.296881005859375,-9.651026892089844,1.2018892333984375,0,0,0,0
0.9962318760003654,-0.28012159423828126,-9.605537060546874,1.2689268798828124,0,0,0,0
0.9975707560001865,-0.2561795776367187,-9.624690673828125,1.3383587280273437,0,0,0,0
0.9987364690000504,-0.2609679809570312,-9.674968908691406,1.3359645263671873,0,0,0,0
0.9998356840001179,-0.34715924072265625,-9.662997900390625,1.35990654296875,0,0,0,0
1.0009245830001419,-0.3950432739257812,-9.658209497070311,1.3144167114257812,0,0,0,0
1.002121648999946,-0.39743747558593745,-9.682151513671874,1.3144167114257812,0,0,0,0
1.0032837150001797,-0.42377369384765623,-9.715670336914062,1.3359645263671873,0,0,0,0
1.0044607250001718,-0.3806780639648437,-9.696516723632811,1.3311761230468748,0,0,0,0
1.005735642000218,-0.2561795776367187,-9.56962403564453,1.3527239379882812,0,0,0,0
1.0070206140003393,-0.19153613281249998,-9.56962403564453,1.24498486328125,0,0,0,0
1.0083320680000725,-0.2561795776367187,-9.634267480468749,1.3096283081054687,0,0,0,0
1.0096962800002984,-0.19871873779296872,-9.706093530273437,1.3024457031249999,0,0,0,0
1.0111396590000368,-0.2920926025390625,-9.662997900390625,1.2880804931640624,0,0,0,0
1.0123886870001115,-0.30406361083984373,-9.701305126953125,1.3072341064453123,0,0,0,0
1.013594047999959,-0.3232172241210937,-9.610325463867188,1.2880804931640624,0,0,0,0
1.0147725589999936,-0.33518823242187495,-9.6917283203125,1.3239935180664062,0,0,0,0
1.0159821610000108,-0.29448680419921874,-9.603142858886718,1.3670891479492187,0,0,0,0
1.0172173740002108,-0.24899697265624998,-9.641450085449218,1.3742717529296875,0,0,0,0
1.0184990500001732,-0.2825157958984375,-9.725247143554688,1.3239935180664062,0,0,0,0
1.0198026520001804,-0.26336218261718747,-9.648632690429688,1.2665326782226562,0,0,0,0
1.0210566250002557,-0.19393033447265623,-9.583989245605467,1.407790576171875,0,0,0,0
1.0222601720001876,-0.24660277099609373,-9.639055883789062,1.3096283081054687,0,0,0,0
1.0234192000002622,-0.28730419921875,-9.658209497070311,1.2042834350585936,0,0,0,0
1.0245400260000679,-0.3711012573242187,-9.746794958496093,1.2378022583007813,0,0,0,0
1.0257379250001577,-0.33758243408203126,-9.682151513671874,1.388636962890625,0,0,0,0
1.0269400270003644,-0.32561142578124996,-9.655815295410155,1.3263877197265623,0,0,0,0
1.0282349620001696,-0.28969840087890625,-9.576806640625,1.2737152832031249,0,0,0,0
1.0293585470003563,-0.3399766357421875,-9.56962403564453,1.3144167114257812,0,0,0,0
1.030470668000362,-0.24660277099609373,-9.576806640625,1.3407529296874998,0,0,0,0
1.0317358629999944,-0.28969840087890625,-9.598354455566406,1.2808978881835937,0,0,0,0
1.0329661880000458,-0.3232172241210937,-9.667786303710937,1.2928688964843749,0,0,0,0
1.0340915500000847,-0.35194764404296874,-9.689334118652344,1.2761094848632812,0,0,0,0
1.035264338000161,-0.3136404174804687,-9.70369932861328,1.139639990234375,0,0,0,0
1.0363837740001145,-0.36391865234375,-9.765948571777344,1.2904746948242187,0,0,0,0
1.037499691999983,-0.3327940307617187,-9.79946739501953,1.3359645263671873,0,0,0,0
1.0387544430000162,-0.32082302246093747,-9.612719665527344,1.3359645263671873,0,0,0,0
1.0399423789999673,-0.3399766357421875,-9.627084875488281,1.3359645263671873,0,0,0,0
1.0411020000001372,-0.34237083740234375,-9.598354455566406,1.3048399047851562,0,0,0,0
1.0422893990003104,-0.30885201416015623,-9.591171850585937,1.2473790649414063,0,0,0,0
1.0434898349999457,-0.28730419921875,-9.718064538574218,1.2880804931640624,0,0,0,0
1.0446909370002686,-0.25139117431640623,-9.708487731933593,1.2641384765625,0,0,0,0
1.0459396129999732,-0.2537853759765625,-9.708487731933593,1.2689268798828124,0,0,0,0
1.0472954000001664,-0.2657563842773437,-9.686939916992188,1.3192051147460937,0,0,0,0
1.0486003910000363,-0.30885201416015623,-9.696516723632811,1.3192051147460937,0,0,0,0
1.0499058440000226,-0.3902548706054687,-9.6917283203125,1.3359645263671873,0,0,0,0
1.0511586130000978,-0.39743747558593745,-9.605537060546874,1.35990654296875,0,0,0,0
1.0523754929999996,-0.373495458984375,-9.617508068847656,1.3718775512695311,0,0,0,0
1.053597985000124,-0.3758896606445312,-9.612719665527344,1.3551181396484375,0,0,0,0
1.054824550000376,-0.2657563842773437,-9.679757312011718,1.3646949462890625,0,0,0,0
1.0560523740000463,-0.2609679809570312,-9.651026892089844,1.3263877197265623,0,0,0,0
1.0572760690001815,-0.2059013427734375,-9.701305126953125,1.5083470458984374,0,0,0,0
1.05852972699995,-0.21068974609375,-9.792284790039062,1.3168109130859373,0,0,0,0
1.0598147180003252,-0.41898529052734373,-9.612719665527344,1.2569558715820313,0,0,0,0
1.0611418200001026,-0.39983167724609375,-9.648632690429688,1.216254443359375,0,0,0,0
1.062483661999977,-0.4261678955078125,-9.665392102050781,1.3096283081054687,0,0,0,0
1.0637604120001924,-0.3806780639648437,-9.667786303710937,1.2282254516601563,0,0,0,0
1.0650618660001783,-0.3591302490234375,-9.6151138671875,1.2042834350585936,0,0,0,0
1.0663287639999908,-0.2537853759765625,-9.6151138671875,1.4101847778320311,0,0,0,0
1.0676406990000942,-0.21787235107421873,-9.593566052246093,1.2689268798828124,0,0,0,0
1.0688288200003626,-0.19871873779296872,-9.689334118652344,1.2713210815429687,0,0,0,0
1.0700934410001537,-0.2561795776367187,-9.674968908691406,1.2880804931640624,0,0,0,0
1.0713262470003428,-0.3232172241210937,-9.701305126953125,1.2641384765625,0,0,0,0
1.0724185720000605,-0.3806780639648437,-9.72285294189453,1.3359645263671873,0,0,0,0
1.0734895830000823,-0.41898529052734373,-9.706093530273437,1.2928688964843749,0,0,0,0
1.0745587050000722,-0.38786066894531246,-9.658209497070311,1.2306196533203124,0,0,0,0
1.0756374570000844,-0.32561142578124996,-9.6151138671875,1.209071838378906,0,0,0,0
1.0767785600000934,-0.296881005859375,-9.629479077148437,1.2665326782226562,0,0,0,0
1.0779242920002616,-0.2561795776367187,-9.56962403564453,1.2761094848632812,0,0,0,0
1.0792042090001814,-0.28969840087890625,-9.643844287109374,1.3096283081054687,0,0,0,0
1.080414774000019,-0.26815058593749996,-9.634267480468749,1.2761094848632812,0,0,0,0
1.081620488000226,-0.3136404174804687,-9.706093530273437,1.2593500732421874,0,0,0,0
1.0827571650002028,-0.33758243408203126,-9.696516723632811,1.35990654296875,0,0,0,0
1.0838467309999942,-0.3232172241210937,-9.737218151855469,1.3263877197265623,0,0,0,0
1.0849168350000582,-0.354341845703125,-9.670180505371093,1.2832920898437499,0,0,0,0
1.0859862160000375,-0.4285620971679687,-9.605537060546874,1.2210428466796874,0,0,0,0
1.0870545600000696,-0.3399766357421875,-9.617508068847656,1.3096283081054687,0,0,0,0
1.088197145000322,-0.2825157958984375,-9.6917283203125,1.3096283081054687,0,0,0,0
1.0893292850000762,-0.2753331909179687,-9.667786303710937,1.2713210815429687,0,0,0,0
1.0904063880002468,-0.22505495605468748,-9.591171850585937,1.2234370483398436,0,0,0,0
1.091586620000271,-0.24660277099609373,-9.694122521972655,1.254561669921875,0,0,0,0
1.0926602050003567,-0.2825157958984375,-9.718064538574218,1.2928688964843749,0,0,0,0
1.0937942710002062,-0.3327940307617187,-9.744400756835937,1.3359645263671873,0,0,0,0
1.0949358190000567,-0.30406361083984373,-9.682151513671874,1.3000515014648437,0,0,0,0
1.096030866000092,-0.32082302246093747,-9.6917283203125,1.3479355346679687,0,0,0,0
1.0971041550001246,-0.34237083740234375,-9.651026892089844,1.3096283081054687,0,0,0,0
1.0982307770000261,-0.3591302490234375,-9.605537060546874,1.4006079711914061,0,0,0,0
1.099378287000036,-0.3064578125,-9.636661682128906,1.3144167114257812,0,0,0,0
1.1004578350002703,-0.3399766357421875,-9.612719665527344,1.3335703247070312,0,0,0,0
1.1015268830001332,-0.296881005859375,-9.651026892089844,1.2952630981445312,0,0,0,0
1.1025951340002393,-0.23702596435546874,-9.641450085449218,1.2689268798828124,0,0,0,0
1.1037305340000785,-0.25139117431640623,-9.667786303710937,1.388636962890625,0,0,0,0
1.1048651740002242,-0.2657563842773437,-9.674968908691406,1.4173673828125,0,0,0,0
1.1059429619999719,-0.32082302246093747,-9.648632690429688,1.3623007446289062,0,0,0,0
1.1070123800000147,-0.38786066894531246,-9.64623848876953,1.2928688964843749,0,0,0,0
1.1080961130001015,-0.44532150878906246,-9.696516723632811,1.3120225097656248,0,0,0,0
1.1092318280002473,-0.4285620971679687,-9.727641345214844,1.3000515014648437,0,0,0,0
1.11036219000016,-0.3399766357421875,-9.782707983398437,1.3024457031249999,0,0,0,0
1.1114661629999318,-0.34715924072265625,-9.765948571777344,1.3646949462890625,0,0,0,0
1.112539119000303,-0.30885201416015623,-9.560047229003906,1.3623007446289062,0,0,0,0
1.113635092000095,-0.239420166015625,-9.574412438964844,1.3814543579101561,0,0,0,0
1.1147664730001452,-0.277727392578125,-9.636661682128906,1.3287819213867187,0,0,0,0
1.1159098170001016,-0.28969840087890625,-9.660603698730467,1.2808978881835937,0,0,0,0
1.116993567999998,-0.28969840087890625,-9.70369932861328,1.2737152832031249,0,0,0,0
1.1180623200002628,-0.3184288208007812,-9.751583361816406,1.3168109130859373,0,0,0,0
1.1191574230001606,-0.316034619140625,-9.727641345214844,1.2808978881835937,0,0,0,0
1.1203386740003225,-0.38786066894531246,-9.627084875488281,1.3000515014648437,0,0,0,0
1.1214919070002907,-0.39264907226562495,-9.797073193359374,1.2497732666015624,0,0,0,0
1.1225911579999774,-0.36631285400390623,-9.627084875488281,1.350329736328125,0,0,0,0
1.1236746690001382,-0.20829554443359374,-9.524134204101562,1.3168109130859373,0,0,0,0
1.124747716999991,-0.24899697265624998,-9.572018237304688,1.3048399047851562,0,0,0,0
1.1258795789999567,-0.2657563842773437,-9.636661682128906,1.2785036865234374,0,0,0,0
1.127029978000337,-0.2705447875976562,-9.708487731933593,1.3383587280273437,0,0,0,0
1.1282199320003201,-0.29448680419921874,-9.696516723632811,1.22583125,0,0,0,0
1.1293730910001614,-0.277727392578125,-9.624690673828125,1.2976572998046874,0,0,0,0
1.1305405080001947,-0.34237083740234375,-9.658209497070311,1.2808978881835937,0,0,0,0
1.1316560010000103,-0.41419688720703124,-9.617508068847656,1.2569558715820313,0,0,0,0
1.1327449370000977,-0.40940848388671874,-9.622296472167967,1.3096283081054687,0,0,0,0
1.133816078000109,-0.3758896606445312,-9.610325463867188,1.3383587280273437,0,0,0,0
1.1348817550001513,-0.3447650390625,-9.574412438964844,1.3934253662109375,0,0,0,0
1.1359612290002588,-0.2705447875976562,-9.591171850585937,1.3551181396484375,0,0,0,0
1.1371083500002896,-0.296881005859375,-9.619902270507811,1.2928688964843749,0,0,0,0
1.1383190450001166,-0.27293898925781246,-9.670180505371093,1.3263877197265623,0,0,0,0
1.1406097510002837,-0.30885201416015623,-9.706093530273437,1.3024457031249999,0,0,0,0
1.1427487170003587,-0.3447650390625,-9.627084875488281,1.2401964599609374,0,0,0,0
1.1447736290001558,-0.37828386230468747,-9.679757312011718,1.2401964599609374,0,0,0,0
1.1464254500001516,-0.4070142822265625,-9.660603698730467,1.254561669921875,0,0,0,0
1.1485672500002693,-0.3399766357421875,-9.598354455566406,1.218648645019531,0,0,0,0
1.150232275000235,-0.229843359375,-9.598354455566406,1.2473790649414063,0,0,0,0
1.1517587830003322,-0.26815058593749996,-9.662997900390625,1.2641384765625,0,0,0,0
1.153403993000211,-0.28730419921875,-9.804255798339844,1.2497732666015624,0,0,0,0
1.1546919100001105,-0.411802685546875,-9.713276135253906,1.2401964599609374,0,0,0,0
1.1559021420002864,-0.4333505004882812,-9.72285294189453,1.2785036865234374,0,0,0,0
1.1570728930000769,-0.34237083740234375,-9.6917283203125,1.3096283081054687,0,0,0,0
1.1582461070001955,-0.29448680419921874,-9.617508068847656,1.2713210815429687,0,0,0,0
1.159485653000047,-0.26815058593749996,-9.533711010742186,1.3287819213867187,0,0,0,0
1.1607236260001628,-0.22505495605468748,-9.583989245605467,1.2785036865234374,0,0,0,0
1.161900783999954,-0.201112939453125,-9.641450085449218,1.2928688964843749,0,0,0,0
1.1630724240003474,-0.28730419921875,-9.679757312011718,1.2904746948242187,0,0,0,0
1.1643161000001783,-0.37828386230468747,-9.737218151855469,1.3192051147460937,0,0,0,0
1.165557462000379,-0.39264907226562495,-9.718064538574218,1.2234370483398436,0,0,0,0
1.1666539719999491,-0.3591302490234375,-9.672574707031249,1.209071838378906,0,0,0,0
1.167744168000354,-0.4070142822265625,-9.672574707031249,1.3479355346679687,0,0,0,0
1.1688281050001024,-0.36631285400390623,-9.689334118652344,1.3479355346679687,0,0,0,0
1.16991133800002,-0.38307226562499996,-9.686939916992188,1.3527239379882812,0,0,0,0
1.1710780520002118,-0.239420166015625,-9.662997900390625,1.3359645263671873,0,0,0,0
1.1722181180002735,-0.2154781494140625,-9.64623848876953,1.3455413330078123,0,0,0,0
1.1733105920002345,-0.239420166015625,-9.617508068847656,1.3479355346679687,0,0,0,0
1.1743988250000257,-0.28490999755859375,-9.603142858886718,1.3575123413085937,0,0,0,0
1.1754870760000813,-0.25139117431640623,-9.641450085449218,1.3048399047851562,0,0,0,0
1.1766397340002186,-0.37828386230468747,-9.619902270507811,1.2785036865234374,0,0,0,0
1.177961188000154,-0.43574470214843747,-9.698910925292969,1.2952630981445312,0,0,0,0
1.1796277319999717,-0.39743747558593745,-9.694122521972655,1.3359645263671873,0,0,0,0
1.1816922350003551,-0.411802685546875,-9.612719665527344,1.2832920898437499,0,0,0,0
1.1834196670001802,-0.28730419921875,-9.588777648925781,1.24498486328125,0,0,0,0
1.1849256939999577,-0.29927520751953124,-9.662997900390625,1.2928688964843749,0,0,0,0
1.186601052000242,-0.23702596435546874,-9.682151513671874,1.3215993164062498,0,0,0,0
1.18785774700018,-0.3232172241210937,-9.715670336914062,1.3311761230468748,0,0,0,0
1.1890412200000355,-0.3327940307617187,-9.643844287109374,1.3623007446289062,0,0,0,0
1.1902328040000612,-0.3711012573242187,-9.600748657226562,1.3455413330078123,0,0,0,0
1.1914148690002548,-0.3327940307617187,-9.629479077148437,1.3287819213867187,0,0,0,0
1.1926140830000804,-0.36391865234375,-9.636661682128906,1.2952630981445312,0,0,0,0
1.1938194260001183,-0.2920926025390625,-9.708487731933593,1.3263877197265623,0,0,0,0
1.1949175849999847,-0.2561795776367187,-9.662997900390625,1.3192051147460937,0,0,0,0
1.196146706000036,-0.28012159423828126,-9.639055883789062,1.2976572998046874,0,0,0,0
1.197417771000346,-0.2920926025390625,-9.605537060546874,1.2952630981445312,0,0,0,0
1.1986130770001182,-0.16998831787109375,-9.662997900390625,1.2210428466796874,0,0,0,0
1.1997539770000003,-0.34237083740234375,-9.667786303710937,1.2713210815429687,0,0,0,0
1.2008360800000446,-0.36631285400390623,-9.773131176757811,1.3335703247070312,0,0,0,0
1.2019078690000242,-0.36391865234375,-9.770736975097655,1.3192051147460937,0,0,0,0
1.2029506020003282,-0.39743747558593745,-9.682151513671874,1.235408056640625,0,0,0,0
1.2040397979999398,-0.29927520751953124,-9.648632690429688,1.2521674682617188,0,0,0,0
1.2053157150003244,-0.2561795776367187,-9.572018237304688,1.3742717529296875,0,0,0,0
1.206516873000055,-0.2609679809570312,-9.610325463867188,1.3168109130859373,0,0,0,0
1.2076484200001687,-0.16519991455078123,-9.634267480468749,1.2904746948242187,0,0,0,0
1.2087343570001394,-0.3232172241210937,-9.679757312011718,1.2928688964843749,0,0,0,0
1.2098182009999618,-0.26336218261718747,-9.696516723632811,1.2330138549804688,0,0,0,0
1.2110455250003724,-0.33758243408203126,-9.706093530273437,1.2401964599609374,0,0,0,0
1.212690940000357,-0.33518823242187495,-9.696516723632811,1.2521674682617188,0,0,0,0
1.2143426689999615,-0.3447650390625,-9.64623848876953,1.3215993164062498,0,0,0,0
1.2156604370002242,-0.33518823242187495,-9.651026892089844,1.3072341064453123,0,0,0,0
1.2168863169999895,-0.3280056274414062,-9.617508068847656,1.2832920898437499,0,0,0,0
1.2181780490000165,-0.32082302246093747,-9.634267480468749,1.3144167114257812,0,0,0,0
1.2197834630001125,-0.12689268798828124,-9.68454571533203,1.419761584472656,0,0,0,0
1.2209715290000531,-0.1292868896484375,-9.682151513671874,1.3168109130859373,0,0,0,0
1.222135519999938,-0.229843359375,-9.516951599121093,1.3646949462890625,0,0,0,0
1.223755323000205,-0.35673604736328124,-9.689334118652344,1.3479355346679687,0,0,0,0
1.2250007030002052,-0.40222587890625,-9.634267480468749,1.2521674682617188,0,0,0,0
1.2261687690001963,-0.45010991210937495,-9.6917283203125,1.2832920898437499,0,0,0,0
1.2275912590002918,-0.35194764404296874,-9.634267480468749,1.3024457031249999,0,0,0,0
1.2289231570002812,-0.3591302490234375,-9.583989245605467,1.3048399047851562,0,0,0,0
1.230165500000112,-0.3495534423828125,-9.605537060546874,1.3072341064453123,0,0,0,0
1.231649673999982,-0.27293898925781246,-9.679757312011718,1.3192051147460937,0,0,0,0
1.2331883670003663,-0.23223756103515625,-9.68454571533203,1.2904746948242187,0,0,0,0
1.2346668190002674,-0.2825157958984375,-9.777919580078125,1.3192051147460937,0,0,0,0
1.2359364769999956,-0.3447650390625,-9.725247143554688,1.369483349609375,0,0,0,0
1.2374325030000364,-0.3591302490234375,-9.60793126220703,1.3263877197265623,0,0,0,0
1.2388986230002956,-0.36152445068359373,-9.682151513671874,1.3263877197265623,0,0,0,0
1.2401210400003038,-0.36391865234375,-9.70369932861328,1.3000515014648437,0,0,0,0
1.2412994020000951,-0.37828386230468747,-9.641450085449218,1.3096283081054687,0,0,0,0
1.242724409999937,-0.201112939453125,-9.64623848876953,1.2473790649414063,0,0,0,0
1.2442079360002936,-0.2825157958984375,-9.588777648925781,1.2928688964843749,0,0,0,0
1.2454268169999523,-0.27293898925781246,-9.528922607421874,1.3479355346679687,0,0,0,0
1.2466897150002296,-0.3016694091796875,-9.674968908691406,1.3263877197265623,0,0,0,0
1.2483479440002156,-0.3495534423828125,-9.655815295410155,1.24498486328125,0,0,0,0
1.249827822000043,-0.4285620971679687,-9.622296472167967,1.2473790649414063,0,0,0,0
1.2510587579999992,-0.36631285400390623,-9.624690673828125,1.3000515014648437,0,0,0,0
1.2522287490000963,-0.28969840087890625,-9.598354455566406,1.3383587280273437,0,0,0,0
1.253644517000339,-0.1771709228515625,-9.612719665527344,1.3072341064453123,0,0,0,0
1.255455393000375,-0.2657563842773437,-9.629479077148437,1.2138602416992186,0,0,0,0
1.2567043290000584,-0.2609679809570312,-9.593566052246093,1.2856862915039062,0,0,0,0
1.2578787090001242,-0.19871873779296872,-9.694122521972655,1.3407529296874998,0,0,0,0
1.2593787170003452,-0.30406361083984373,-9.658209497070311,1.4245499877929686,0,0,0,0
1.260922502000085,-0.34237083740234375,-9.667786303710937,1.3383587280273437,0,0,0,0
1.2621699750002335,-0.41419688720703124,-9.639055883789062,1.2713210815429687,0,0,0,0
1.2633506330003001,-0.3806780639648437,-9.519345800781249,1.3311761230468748,0,0,0,0
1.2648957139999766,-0.33039982910156246,-9.662997900390625,1.2210428466796874,0,0,0,0
1.2665598510002383,-0.2346317626953125,-9.627084875488281,1.2425906616210938,0,0,0,0
1.2678203970003779,-0.21068974609375,-9.624690673828125,1.3311761230468748,0,0,0,0
1.269010759000139,-0.2753331909179687,-9.658209497070311,1.2737152832031249,0,0,0,0
1.2706805990001158,-0.33758243408203126,-9.679757312011718,1.3048399047851562,0,0,0,0
1.272185162000369,-0.3016694091796875,-9.70369932861328,1.3192051147460937,0,0,0,0
1.2747167370002899,-0.33039982910156246,-9.636661682128906,1.3383587280273437,0,0,0,0
1.276681426000323,-0.2561795776367187,-9.64623848876953,1.3263877197265623,0,0,0,0
1.2780328799999552,-0.27293898925781246,-9.658209497070311,1.218648645019531,0,0,0,0
1.2792206860003716,-0.30406361083984373,-9.665392102050781,1.2234370483398436,0,0,0,0
1.2803305669999645,-0.24660277099609373,-9.617508068847656,1.2401964599609374,0,0,0,0
1.2814216520000627,-0.25139117431640623,-9.622296472167967,1.2425906616210938,0,0,0,0
1.2825804030003383,-0.16041151123046873,-9.682151513671874,1.2832920898437499,0,0,0,0
1.2837343200003488,-0.38786066894531246,-9.603142858886718,1.2593500732421874,0,0,0,0
1.2848997750002127,-0.36391865234375,-9.696516723632811,1.2976572998046874,0,0,0,0
1.285998452000058,-0.3687070556640625,-9.715670336914062,1.2856862915039062,0,0,0,0
1.2871133520002331,-0.2920926025390625,-9.701305126953125,1.2497732666015624,0,0,0,0
1.2882766400002765,-0.27293898925781246,-9.665392102050781,1.2880804931640624,0,0,0,0
1.2894283170003291,-0.2442085693359375,-9.60793126220703,1.3168109130859373,0,0,0,0
1.2905175680002685,-0.21308394775390624,-9.588777648925781,1.3479355346679687,0,0,0,0
1.2916049680002288,-0.30406361083984373,-9.605537060546874,1.3407529296874998,0,0,0,0
1.2926941450000413,-0.26815058593749996,-9.65342109375,1.2114660400390624,0,0,0,0
1.2938408410000193,-0.3280056274414062,-9.744400756835937,1.2401964599609374,0,0,0,0
1.2949921660001564,-0.32561142578124996,-9.706093530273437,1.2761094848632812,0,0,0,0
1.2960725289999573,-0.3447650390625,-9.667786303710937,1.2761094848632812,0,0,0,0
1.2971411510002326,-0.40222587890625,-9.672574707031249,1.3168109130859373,0,0,0,0
1.2982755680000082,-0.373495458984375,-9.674968908691406,1.2234370483398436,0,0,0,0
1.299418801000229,-0.3447650390625,-9.641450085449218,1.3215993164062498,0,0,0,0
1.3005201080000006,-0.33039982910156246,-9.588777648925781,1.35990654296875,0,0,0,0
1.3016030260000662,-0.201112939453125,-9.629479077148437,1.446097802734375,0,0,0,0
1.3026853890000893,-0.28490999755859375,-9.679757312011718,1.3623007446289062,0,0,0,0
1.3040138240003216,-0.2705447875976562,-9.674968908691406,1.2761094848632812,0,0,0,0
1.3052292960001068,-0.2561795776367187,-9.679757312011718,1.3527239379882812,0,0,0,0
1.3063237149999622,-0.3280056274414062,-9.672574707031249,1.350329736328125,0,0,0,0
1.3074160959999972,-0.316034619140625,-9.696516723632811,1.3718775512695311,0,0,0,0
1.3085637540002608,-0.36391865234375,-9.720458740234374,1.4053963745117186,0,0,0,0
1.3097110050002811,-0.3902548706054687,-9.756371765136718,1.3144167114257812,0,0,0,0
1.310802294000041,-0.3806780639648437,-9.660603698730467,1.350329736328125,0,0,0,0
1.3119150259999515,-0.36631285400390623,-9.612719665527344,1.3192051147460937,0,0,0,0
1.312999296000271,-0.23223756103515625,-9.643844287109374,1.1755530151367186,0,0,0,0
1.3141644730003463,-0.296881005859375,-9.605537060546874,1.350329736328125,0,0,0,0
1.3153297799999564,-0.3136404174804687,-9.543287817382812,1.3431471313476562,0,0,0,0
1.3164232720000655,-0.3112462158203125,-9.725247143554688,1.254561669921875,0,0,0,0
1.3175035790000038,-0.30885201416015623,-9.725247143554688,1.2330138549804688,0,0,0,0
1.3185870710003655,-0.3399766357421875,-9.662997900390625,1.3215993164062498,0,0,0,0
1.3197426370002177,-0.36391865234375,-9.655815295410155,1.3718775512695311,0,0,0,0
1.3208922030003123,-0.34715924072265625,-9.662997900390625,1.3910311645507811,0,0,0,0
1.321984084000178,-0.2657563842773437,-9.641450085449218,1.3192051147460937,0,0,0,0
1.323070132000339,-0.27293898925781246,-9.627084875488281,1.2976572998046874,0,0,0,0
1.3242205500000637,-0.296881005859375,-9.662997900390625,1.2473790649414063,0,0,0,0
1.3253668010002002,-0.30406361083984373,-9.651026892089844,1.2425906616210938,0,0,0,0
1.3264539220003826,-0.2753331909179687,-9.60793126220703,1.20667763671875,0,0,0,0
1.3276027290003185,-0.24899697265624998,-9.627084875488281,1.2808978881835937,0,0,0,0
1.3287248510000609,-0.28969840087890625,-9.64623848876953,1.3120225097656248,0,0,0,0
1.3299012679999578,-0.3136404174804687,-9.667786303710937,1.2761094848632812,0,0,0,0
1.3310720560002665,-0.33518823242187495,-9.68454571533203,1.2521674682617188,0,0,0,0
1.3321780480000598,-0.36391865234375,-9.667786303710937,1.254561669921875,0,0,0,0
1.333261911000136,-0.42377369384765623,-9.514557397460937,1.1851298217773436,0,0,0,0
1.334410847000072,-0.316034619140625,-9.624690673828125,1.2497732666015624,0,0,0,0
1.3355947640002341,-0.24899697265624998,-9.545682019042967,1.2665326782226562,0,0,0,0
1.3368307560003814,-0.30885201416015623,-9.588777648925781,1.3311761230468748,0,0,0,0
1.337957433000156,-0.25139117431640623,-9.667786303710937,1.3263877197265623,0,0,0,0
1.339133110000148,-0.2346317626953125,-9.631873278808593,1.2880804931640624,0,0,0,0
1.3402954530001807,-0.316034619140625,-9.536105212402344,1.20667763671875,0,0,0,0
1.3414487780000854,-0.3399766357421875,-9.701305126953125,1.3431471313476562,0,0,0,0
1.3425580110001647,-0.3806780639648437,-9.677363110351562,1.3024457031249999,0,0,0,0
1.3436477620002734,-0.3112462158203125,-9.648632690429688,1.2952630981445312,0,0,0,0
1.3447398470002554,-0.36631285400390623,-9.660603698730467,1.3359645263671873,0,0,0,0
1.346011190000354,-0.33758243408203126,-9.682151513671874,1.2832920898437499,0,0,0,0
1.3472753660003036,-0.32561142578124996,-9.667786303710937,1.209071838378906,0,0,0,0
1.3485108940003556,-0.40462008056640625,-9.682151513671874,1.3024457031249999,0,0,0,0
1.3497730150002099,-0.24181436767578124,-9.660603698730467,1.369483349609375,0,0,0,0
1.3509550440003295,-0.2920926025390625,-9.639055883789062,1.3623007446289062,0,0,0,0
1.3526405500001601,-0.3591302490234375,-9.665392102050781,1.2641384765625,0,0,0,0
1.3565522260000762,-0.33039982910156246,-9.6917283203125,1.3263877197265623,0,0,0,0
1.3578890310000133,-0.316034619140625,-9.619902270507811,1.3551181396484375,0,0,0,0
1.3592123550001816,-0.36631285400390623,-9.550470422363281,1.2785036865234374,0,0,0,0
1.3604434570002013,-0.30885201416015623,-9.639055883789062,1.2306196533203124,0,0,0,0
1.3615830230000938,-0.2561795776367187,-9.643844287109374,1.24498486328125,0,0,0,0
1.3627195520002715,-0.2346317626953125,-9.651026892089844,1.2138602416992186,0,0,0,0
1.3638781920003566,-0.2609679809570312,-9.689334118652344,1.2114660400390624,0,0,0,0
1.3650372390002303,-0.316034619140625,-9.698910925292969,1.2497732666015624,0,0,0,0
1.3661272500003179,-0.2920926025390625,-9.6917283203125,1.3455413330078123,0,0,0,0
1.367208242000288,-0.2705447875976562,-9.6151138671875,1.2617442749023438,0,0,0,0
1.3682722900002773,-0.3184288208007812,-9.603142858886718,1.189918225097656,0,0,0,0
1.3697568910001792,-0.3447650390625,-9.627084875488281,1.2856862915039062,0,0,0,0
1.370947771000374,-0.35673604736328124,-9.648632690429688,1.3144167114257812,0,0,0,0
1.3720430220000708,-0.3136404174804687,-9.677363110351562,1.3646949462890625,0,0,0,0
1.3731270700000096,-0.30885201416015623,-9.643844287109374,1.3479355346679687,0,0,0,0
1.3748802059999434,-0.22505495605468748,-9.64623848876953,1.3168109130859373,0,0,0,0
1.376127715000166,-0.2657563842773437,-9.658209497070311,1.3311761230468748,0,0,0,0
1.3775584270001673,-0.34715924072265625,-9.689334118652344,1.3359645263671873,0,0,0,0
1.378700678000314,-0.3136404174804687,-9.701305126953125,1.39821376953125,0,0,0,0
1.3798007820000748,-0.39743747558593745,-9.730035546875,1.3766659545898436,0,0,0,0
1.3809629030001815,-0.36631285400390623,-9.667786303710937,1.2330138549804688,0,0,0,0
1.3820955800001684,-0.3016694091796875,-9.627084875488281,1.3024457031249999,0,0,0,0
1.3832134050003333,-0.296881005859375,-9.576806640625,1.2473790649414063,0,0,0,0
1.3843011200001456,-0.19871873779296872,-9.540893615722656,1.2497732666015624,0,0,0,0
1.3854462409999542,-0.229843359375,-9.6917283203125,1.2665326782226562,0,0,0,0
1.3865840299999945,-0.21787235107421873,-9.670180505371093,1.209071838378906,0,0,0,0
1.3876719849999972,-0.33758243408203126,-9.720458740234374,1.2880804931640624,0,0,0,0
1.3887406070002726,-0.36152445068359373,-9.662997900390625,1.2952630981445312,0,0,0,0
1.3898088949999874,-0.39743747558593745,-9.686939916992188,1.3239935180664062,0,0,0,0
1.390977980000116,-0.40940848388671874,-9.6917283203125,1.3144167114257812,0,0,0,0
1.3921203230001993,-0.3591302490234375,-9.686939916992188,1.2880804931640624,0,0,0,0
1.3932132410000122,-0.3016694091796875,-9.655815295410155,1.3144167114257812,0,0,0,0
1.3942966970003,-0.3806780639648437,-9.658209497070311,1.2689268798828124,0,0,0,0
1.3953883369999858,-0.3447650390625,-9.634267480468749,1.3072341064453123,0,0,0,0
1.3965391060000911,-0.19632453613281248,-9.674968908691406,1.3048399047851562,0,0,0,0
1.3976871350000692,-0.19871873779296872,-9.662997900390625,1.2880804931640624,0,0,0,0
1.398776979000104,-0.2154781494140625,-9.701305126953125,1.1444283935546875,0,0,0,0
1.3998643790000642,-0.3064578125,-9.662997900390625,1.2497732666015624,0,0,0,0
1.4010146670002541,-0.4070142822265625,-9.667786303710937,1.3072341064453123,0,0,0,0
1.4021868250001717,-0.373495458984375,-9.749189160156249,1.3048399047851562,0,0,0,0
1.4033250020002015,-0.36631285400390623,-9.674968908691406,1.3263877197265623,0,0,0,0
1.4044454940003561,-0.3447650390625,-9.622296472167967,1.3527239379882812,0,0,0,0
1.4055132650000814,-0.30406361083984373,-9.605537060546874,1.3958195678710936,0,0,0,0
1.406582831000378,-0.239420166015625,-9.641450085449218,1.3646949462890625,0,0,0,0
1.4077619520003282,-0.201112939453125,-9.686939916992188,1.3383587280273437,0,0,0,0
1.4089093699999466,-0.2657563842773437,-9.679757312011718,1.37906015625,0,0,0,0
1.4099990100003197,-0.22026655273437498,-9.670180505371093,1.3479355346679687,0,0,0,0
1.4111352980003176,-0.3687070556640625,-9.706093530273437,1.2880804931640624,0,0,0,0
1.4122708270001567,-0.33039982910156246,-9.674968908691406,1.2473790649414063,0,0,0,0
1.4133973380003226,-0.3399766357421875,-9.648632690429688,1.2378022583007813,0,0,0,0
1.4144728490000489,-0.35194764404296874,-9.70369932861328,1.2401964599609374,0,0,0,0
1.4155867300000864,-0.39264907226562495,-9.727641345214844,1.2593500732421874,0,0,0,0
1.416673406999962,-0.3711012573242187,-9.715670336914062,1.3168109130859373,0,0,0,0
1.4184917830002632,-0.3902548706054687,-9.643844287109374,1.2401964599609374,0,0,0,0
1.4198271990003377,-0.17477672119140625,-9.641450085449218,1.2880804931640624,0,0,0,0
1.420983358000285,-0.229843359375,-9.572018237304688,1.2976572998046874,0,0,0,0
1.422059850000096,-0.2609679809570312,-9.572018237304688,1.2569558715820313,0,0,0,0
1.4232243230003405,-0.3112462158203125,-9.694122521972655,1.2713210815429687,0,0,0,0
1.4244718700001613,-0.4285620971679687,-9.6917283203125,1.2617442749023438,0,0,0,0
1.425551232000089,-0.3950432739257812,-9.674968908691406,1.2497732666015624,0,0,0,0
1.4268811860001733,-0.36391865234375,-9.667786303710937,1.3000515014648437,0,0,0,0
1.4279623820002598,-0.32561142578124996,-9.674968908691406,1.2569558715820313,0,0,0,0
1.4294217420001587,-0.4572925170898437,-9.562441430664062,1.2665326782226562,0,0,0,0
1.4308517869999378,-0.19153613281249998,-9.624690673828125,1.2761094848632812,0,0,0,0
1.4320871120003176,-0.2825157958984375,-9.662997900390625,1.2282254516601563,0,0,0,0
1.4332771770000363,-0.3136404174804687,-9.674968908691406,1.2856862915039062,0,0,0,0
1.434521094000047,-0.2825157958984375,-9.603142858886718,1.2928688964843749,0,0,0,0
1.4360730090002107,-0.19153613281249998,-9.526528405761718,1.2425906616210938,0,0,0,0
1.4389593590003642,-0.41419688720703124,-9.617508068847656,1.0989385620117187,0,0,0,0
1.4404311260000213,-0.3758896606445312,-9.662997900390625,1.3072341064453123,0,0,0,0
1.4416305990002911,-0.3327940307617187,-9.667786303710937,1.3239935180664062,0,0,0,0
1.4428017390000605,-0.2657563842773437,-9.674968908691406,1.3623007446289062,0,0,0,0
1.4442819500000041,-0.229843359375,-9.648632690429688,1.2713210815429687,0,0,0,0
1.4465415270001358,-0.3591302490234375,-9.694122521972655,1.2808978881835937,0,0,0,0
1.447892332000265,-0.373495458984375,-9.725247143554688,1.2856862915039062,0,0,0,0
1.4491399530002127,-0.4070142822265625,-9.631873278808593,1.3311761230468748,0,0,0,0
1.4510692720000407,-0.39264907226562495,-9.658209497070311,1.3335703247070312,0,0,0,0
1.452526243000193,-0.2825157958984375,-9.65342109375,1.3407529296874998,0,0,0,0
1.4539957140000297,-0.2537853759765625,-9.641450085449218,1.35990654296875,0,0,0,0
1.4551573349999671,-0.21308394775390624,-9.682151513671874,1.3814543579101561,0,0,0,0
1.4563053270003365,-0.22266075439453123,-9.658209497070311,1.3096283081054687,0,0,0,0
1.4574525410002934,-0.2825157958984375,-9.651026892089844,1.22583125,0,0,0,0
1.4585478480003076,-0.3447650390625,-9.583989245605467,1.2473790649414063,0,0,0,0
1.4596376550002788,-0.3280056274414062,-9.658209497070311,1.2569558715820313,0,0,0,0
1.4607214810002915,-0.41419688720703124,-9.634267480468749,1.20667763671875,0,0,0,0
1.461812103000284,-0.48123453369140623,-9.689334118652344,1.2425906616210938,0,0,0,0
1.4629800020002222,-0.4213794921875,-9.737218151855469,1.2904746948242187,0,0,0,0
1.4641214200000832,-0.3136404174804687,-9.734823950195311,1.3263877197265623,0,0,0,0
1.4651991710002221,-0.21068974609375,-9.574412438964844,1.3096283081054687,0,0,0,0
1.4662708670002758,-0.1580173095703125,-9.583989245605467,1.2401964599609374,0,0,0,0
1.4674087480002527,-0.2609679809570312,-9.636661682128906,1.2401964599609374,0,0,0,0
1.4685712400000739,-0.3447650390625,-9.665392102050781,1.2785036865234374,0,0,0,0
1.4696725280000464,-0.4333505004882812,-9.689334118652344,1.2210428466796874,0,0,0,0
1.4707568540002285,-0.44053310546874996,-9.746794958496093,1.235408056640625,0,0,0,0
1.4718492900001365,-0.35673604736328124,-9.68454571533203,1.35990654296875,0,0,0,0
1.4730098190002536,-0.29927520751953124,-9.677363110351562,1.35990654296875,0,0,0,0
1.4741385890001766,-0.2825157958984375,-9.665392102050781,1.3455413330078123,0,0,0,0
1.475236729000244,-0.2442085693359375,-9.519345800781249,1.3215993164062498,0,0,0,0
1.4763211470003625,-0.258573779296875,-9.639055883789062,1.2761094848632812,0,0,0,0
1.4774054170002273,-0.34715924072265625,-9.65342109375,1.2976572998046874,0,0,0,0
1.478553464000015,-0.28730419921875,-9.713276135253906,1.2210428466796874,0,0,0,0
1.4796910120003304,-0.3280056274414062,-9.718064538574218,1.139639990234375,0,0,0,0
1.480770152000332,-0.29448680419921874,-9.651026892089844,1.235408056640625,0,0,0,0
1.4818395520001104,-0.3184288208007812,-9.701305126953125,1.2617442749023438,0,0,0,0
1.4829113040000266,-0.34237083740234375,-9.674968908691406,1.2641384765625,0,0,0,0
1.4840785549999964,-0.3184288208007812,-9.715670336914062,1.2401964599609374,0,0,0,0
1.4852106759999515,-0.3687070556640625,-9.516951599121093,1.2832920898437499,0,0,0,0
1.486302705000071,-0.3064578125,-9.634267480468749,1.2880804931640624,0,0,0,0
1.4873907529999997,-0.28012159423828126,-9.60793126220703,1.2952630981445312,0,0,0,0
1.4884784680002667,-0.3327940307617187,-9.552864624023437,1.2641384765625,0,0,0,0
1.4896199780000643,-0.2920926025390625,-9.622296472167967,1.1947066284179686,0,0,0,0
1.4907583399999567,-0.34715924072265625,-9.674968908691406,1.3096283081054687,0,0,0,0
1.4918427210000118,-0.30406361083984373,-9.708487731933593,1.2473790649414063,0,0,0,0
1.4929128990002027,-0.2609679809570312,-9.753977563476562,1.2761094848632812,0,0,0,0
1.4939811320000445,-0.3064578125,-9.698910925292969,1.3024457031249999,0,0,0,0
1.4951459379999505,-0.3447650390625,-9.801861596679688,1.3575123413085937,0,0,0,0
1.4964434660000734,-0.19632453613281248,-9.605537060546874,1.3575123413085937,0,0,0,0
1.497727846000089,-0.40222587890625,-9.598354455566406,1.2138602416992186,0,0,0,0
1.5006767690001652,-0.2346317626953125,-9.76116016845703,1.2138602416992186,0,0,0,0
1.5024959970000964,-0.26815058593749996,-9.641450085449218,1.2569558715820313,0,0,0,0
1.504061614999955,-0.229843359375,-9.622296472167967,1.2689268798828124,0,0,0,0
1.5059653610001078,-0.3327940307617187,-9.627084875488281,1.3263877197265623,0,0,0,0
1.50772471900018,-0.40462008056640625,-9.670180505371093,1.3072341064453123,0,0,0,0
1.5089586359999885,-0.3854664672851562,-9.734823950195311,1.3551181396484375,0,0,0,0
1.5102093120003701,-0.3591302490234375,-9.696516723632811,1.37906015625,0,0,0,0
1.5114305070001137,-0.27293898925781246,-9.605537060546874,1.2785036865234374,0,0,0,0
1.5126032400003169,-0.17956512451171874,-9.543287817382812,1.3431471313476562,0,0,0,0
1.513703306000025,-0.17956512451171874,-9.581595043945311,1.2952630981445312,0,0,0,0
1.5147959650003031,-0.20350714111328125,-9.572018237304688,1.2904746948242187,0,0,0,0
1.5158876980003697,-0.30885201416015623,-9.627084875488281,1.3670891479492187,0,0,0,0
1.5170756699999401,-0.38307226562499996,-9.6917283203125,1.2234370483398436,0,0,0,0
1.5182178100003512,-0.3495534423828125,-9.777919580078125,1.22583125,0,0,0,0
1.5196737070000381,-0.354341845703125,-9.655815295410155,1.3192051147460937,0,0,0,0
1.5207696810002744,-0.3495534423828125,-9.598354455566406,1.3431471313476562,0,0,0,0
1.5218627290000768,-0.258573779296875,-9.581595043945311,1.350329736328125,0,0,0,0
1.52308973900017,-0.277727392578125,-9.574412438964844,1.2832920898437499,0,0,0,0
1.524309766999977,-0.3136404174804687,-9.583989245605467,1.3096283081054687,0,0,0,0
1.5254098519999388,-0.32561142578124996,-9.674968908691406,1.3407529296874998,0,0,0,0
1.5264971400001741,-0.2705447875976562,-9.68454571533203,1.3311761230468748,0,0,0,0
1.527588632000061,-0.29927520751953124,-9.677363110351562,1.2832920898437499,0,0,0,0
1.5287666419999368,-0.24181436767578124,-9.689334118652344,1.2808978881835937,0,0,0,0
1.529921227000159,-0.2561795776367187,-9.715670336914062,1.3024457031249999,0,0,0,0
1.531016849000025,-0.3495534423828125,-9.634267480468749,1.2138602416992186,0,0,0,0
1.532114415000251,-0.39743747558593745,-9.579200842285156,1.2713210815429687,0,0,0,0
1.5332680179999443,-0.4261678955078125,-9.651026892089844,1.2521674682617188,0,0,0,0
1.5344163240001762,-0.3758896606445312,-9.631873278808593,1.2832920898437499,0,0,0,0
1.5355177609999373,-0.33518823242187495,-9.658209497070311,1.2330138549804688,0,0,0,0
1.5366033090003839,-0.2561795776367187,-9.698910925292969,1.2378022583007813,0,0,0,0
1.537690782000027,-0.258573779296875,-9.631873278808593,1.2952630981445312,0,0,0,0
1.5388384040002165,-0.19153613281249998,-9.622296472167967,1.3934253662109375,0,0,0,0
1.540141376000065,-0.22505495605468748,-9.576806640625,1.3646949462890625,0,0,0,0
1.5412668490002943,-0.3016694091796875,-9.64623848876953,1.3000515014648437,0,0,0,0
1.542355434000001,-0.3854664672851562,-9.694122521972655,1.3239935180664062,0,0,0,0
1.5435333519999404,-0.39743747558593745,-9.72285294189453,1.2401964599609374,0,0,0,0
1.5447398620003696,-0.44053310546874996,-9.792284790039062,1.2521674682617188,0,0,0,0
1.5458410390001518,-0.3232172241210937,-9.787496386718749,1.2282254516601563,0,0,0,0
1.5469332160000704,-0.2705447875976562,-9.627084875488281,1.2497732666015624,0,0,0,0
1.5480313940001906,-0.21068974609375,-9.572018237304688,1.2737152832031249,0,0,0,0
1.5491846260001694,-0.19153613281249998,-9.548076220703125,1.3646949462890625,0,0,0,0
1.5503292480002528,-0.2609679809570312,-9.605537060546874,1.2785036865234374,0,0,0,0
1.5514230359999601,-0.18435352783203124,-9.662997900390625,1.2282254516601563,0,0,0,0
1.5525093989999732,-0.3950432739257812,-9.804255798339844,1.2114660400390624,0,0,0,0
1.5535904280000068,-0.39983167724609375,-9.746794958496093,1.197100830078125,0,0,0,0
1.5546794570000202,-0.3854664672851562,-9.730035546875,1.2282254516601563,0,0,0,0
1.5558465780000006,-0.30885201416015623,-9.701305126953125,1.2808978881835937,0,0,0,0
1.5569866810001258,-0.3232172241210937,-9.667786303710937,1.5131354492187499,0,0,0,0
1.5580669510000007,-0.28730419921875,-9.600748657226562,1.2856862915039062,0,0,0,0
1.5595694779999576,-0.2920926025390625,-9.670180505371093,1.2425906616210938,0,0,0,0
1.5607261730001483,-0.3327940307617187,-9.696516723632811,1.3263877197265623,0,0,0,0
1.5621006999999736,-0.2825157958984375,-9.68454571533203,1.3575123413085937,0,0,0,0
1.5633389140002691,-0.19393033447265623,-9.643844287109374,1.24498486328125,0,0,0,0
1.564797217999967,-0.28730419921875,-9.636661682128906,1.2378022583007813,0,0,0,0
1.5659487279999666,-0.3495534423828125,-9.68454571533203,1.3192051147460937,0,0,0,0
1.567452866000167,-0.4070142822265625,-9.715670336914062,1.2785036865234374,0,0,0,0
1.5693769080003221,-0.3399766357421875,-9.679757312011718,1.2713210815429687,0,0,0,0
1.5710287850001805,-0.33758243408203126,-9.696516723632811,1.2976572998046874,0,0,0,0
1.5721566280003572,-0.2609679809570312,-9.528922607421874,1.3168109130859373,0,0,0,0
1.573272008999993,-0.21068974609375,-9.560047229003906,1.3072341064453123,0,0,0,0
1.5743651130001126,-0.02633621826171875,-9.631873278808593,1.3072341064453123,0,0,0,0
1.5757262700003594,-0.2825157958984375,-9.636661682128906,1.3215993164062498,0,0,0,0
1.5776176260001193,-0.39983167724609375,-9.79946739501953,1.3096283081054687,0,0,0,0
1.5788170440000613,-0.4572925170898437,-9.74200655517578,1.2497732666015624,0,0,0,0
1.5799158510003508,-0.4070142822265625,-9.732429748535155,1.3192051147460937,0,0,0,0
1.5810084730001108,-0.316034619140625,-9.624690673828125,1.3311761230468748,0,0,0,0
1.5831800680002743,-0.27293898925781246,-9.526528405761718,1.2928688964843749,0,0,0,0
1.5842910230003326,-0.2561795776367187,-9.56962403564453,1.2808978881835937,0,0,0,0
1.5853731270003664,-0.2825157958984375,-9.665392102050781,1.2641384765625,0,0,0,0
1.586457693000284,-0.22505495605468748,-9.713276135253906,1.2665326782226562,0,0,0,0
1.5883900310000172,-0.16519991455078123,-9.749189160156249,1.2832920898437499,0,0,0,0
1.589649596000072,-0.36152445068359373,-9.698910925292969,1.3287819213867187,0,0,0,0
1.5908855500001664,-0.39983167724609375,-9.631873278808593,1.4796166259765624,0,0,0,0
1.5920100790003744,-0.3854664672851562,-9.598354455566406,1.254561669921875,0,0,0,0
1.5931856820002395,-0.3806780639648437,-9.579200842285156,1.2952630981445312,0,0,0,0
1.5943213590003324,-0.4285620971679687,-9.696516723632811,1.2521674682617188,0,0,0,0
1.595426425000369,-0.2657563842773437,-9.677363110351562,1.3766659545898436,0,0,0,0
1.5965157690002343,-0.3064578125,-9.679757312011718,1.2808978881835937,0,0,0,0
1.5976085760003116,-0.25139117431640623,-9.651026892089844,1.2785036865234374,0,0,0,0
1.5987711600000694,-0.2609679809570312,-9.617508068847656,1.2976572998046874,0,0,0,0
1.5999266890003128,-0.28969840087890625,-9.634267480468749,1.2521674682617188,0,0,0,0
1.6010191069999564,-0.34237083740234375,-9.710881933593749,1.2425906616210938,0,0,0,0
1.6021057660000224,-0.3806780639648437,-9.555258825683593,1.2210428466796874,0,0,0,0
1.6032695359999707,-0.3327940307617187,-9.746794958496093,1.1180921752929687,0,0,0,0
1.604418361000171,-0.34715924072265625,-9.698910925292969,1.20667763671875,0,0,0,0
1.6055111120003858,-0.30406361083984373,-9.667786303710937,1.2330138549804688,0,0,0,0
1.606595216000187,-0.2609679809570312,-9.610325463867188,1.2737152832031249,0,0,0,0
1.6076828740001474,-0.22744915771484372,-9.548076220703125,1.350329736328125,0,0,0,0
1.6088414030000422,-0.277727392578125,-9.53131680908203,1.3431471313476562,0,0,0,0
1.6099834320002628,-0.22744915771484372,-9.560047229003906,1.2401964599609374,0,0,0,0
1.6110732020001706,-0.316034619140625,-9.648632690429688,1.2234370483398436,0,0,0,0
1.6121493430000555,-0.3495534423828125,-9.751583361816406,1.2569558715820313,0,0,0,0
1.6136315540002215,-0.3184288208007812,-9.698910925292969,1.3527239379882812,0,0,0,0
1.614803879000192,-0.3136404174804687,-9.677363110351562,1.369483349609375,0,0,0,0
1.6159272410000085,-0.354341845703125,-9.655815295410155,1.2593500732421874,0,0,0,0
1.617015437000191,-0.3016694091796875,-9.598354455566406,1.2928688964843749,0,0,0,0
1.6181660030001694,-0.23223756103515625,-9.557653027343749,1.2617442749023438,0,0,0,0
1.6193245690001277,-0.27293898925781246,-9.617508068847656,1.3407529296874998,0,0,0,0
1.6204185060000782,-0.19153613281249998,-9.674968908691406,1.2928688964843749,0,0,0,0
1.621502165000038,-0.24660277099609373,-9.686939916992188,1.2785036865234374,0,0,0,0
1.6225837310003044,-0.23223756103515625,-9.710881933593749,1.3192051147460937,0,0,0,0
1.6236728530002438,-0.30885201416015623,-9.689334118652344,1.3311761230468748,0,0,0,0
1.6248345670001072,-0.3064578125,-9.648632690429688,1.3048399047851562,0,0,0,0
1.6259845950003182,-0.37828386230468747,-9.634267480468749,1.2569558715820313,0,0,0,0
1.6270764210003108,-0.39264907226562495,-9.801861596679688,1.3096283081054687,0,0,0,0
1.6281880800002,-0.4381389038085937,-9.658209497070311,1.3215993164062498,0,0,0,0
1.6293301089999659,-0.30885201416015623,-9.696516723632811,1.3359645263671873,0,0,0,0
1.63046176700027,-0.2705447875976562,-9.662997900390625,1.2952630981445312,0,0,0,0
1.6319261460002963,-0.2059013427734375,-9.636661682128906,1.2904746948242187,0,0,0,0
1.6330209150000883,-0.22026655273437498,-9.567229833984374,1.3144167114257812,0,0,0,0
1.6341068890001225,-0.20350714111328125,-9.572018237304688,1.2593500732421874,0,0,0,0
1.635284343999956,-0.27293898925781246,-9.68454571533203,1.2569558715820313,0,0,0,0
1.6366479270000127,-0.3950432739257812,-9.751583361816406,1.2665326782226562,0,0,0,0
1.6377672150001672,-0.39743747558593745,-9.770736975097655,1.197100830078125,0,0,0,0
1.638851244000307,-0.4213794921875,-9.789890588378906,1.3479355346679687,0,0,0,0
1.6399404400003732,-0.36631285400390623,-9.70369932861328,1.3096283081054687,0,0,0,0
1.6411158020000585,-0.28012159423828126,-9.600748657226562,1.2401964599609374,0,0,0,0
1.6424876630003382,-0.18914193115234373,-9.516951599121093,1.3263877197265623,0,0,0,0
1.6436072660003447,-0.19393033447265623,-9.631873278808593,1.3263877197265623,0,0,0,0
1.6447012390003692,-0.2705447875976562,-9.634267480468749,1.2665326782226562,0,0,0,0
1.6457959350000237,-0.3064578125,-9.725247143554688,1.3215993164062498,0,0,0,0
1.647255499000039,-0.3711012573242187,-9.737218151855469,1.350329736328125,0,0,0,0
1.6487068030000955,-0.3184288208007812,-9.672574707031249,1.3718775512695311,0,0,0,0
1.6498397770001247,-0.3806780639648437,-9.560047229003906,1.3287819213867187,0,0,0,0
1.6509458059999815,-0.3758896606445312,-9.581595043945311,1.3048399047851562,0,0,0,0
1.652123409000069,-0.2561795776367187,-9.60793126220703,1.2856862915039062,0,0,0,0
1.6532599740003207,-0.354341845703125,-9.619902270507811,1.3096283081054687,0,0,0,0
1.6543577259999438,-0.42377369384765623,-9.679757312011718,1.2952630981445312,0,0,0,0
1.655588939000154,-0.20829554443359374,-9.689334118652344,1.235408056640625,0,0,0,0
1.656697079999958,-0.2537853759765625,-9.725247143554688,1.3335703247070312,0,0,0,0
1.6581133660001797,-0.258573779296875,-9.588777648925781,1.2952630981445312,0,0,0,0
1.659647225000299,-0.32561142578124996,-9.631873278808593,1.2832920898437499,0,0,0,0
1.6608394200002294,-0.40222587890625,-9.574412438964844,1.1013327636718748,0,0,0,0
1.6619301529999575,-0.37828386230468747,-9.64623848876953,1.2952630981445312,0,0,0,0
1.6630160710001292,-0.38786066894531246,-9.7683427734375,1.3742717529296875,0,0,0,0
1.6644538760001524,-0.32561142578124996,-9.698910925292969,1.2641384765625,0,0,0,0
1.6660796610003672,-0.21787235107421873,-9.557653027343749,1.3000515014648437,0,0,0,0
1.6672761889999492,-0.17477672119140625,-9.540893615722656,1.3000515014648437,0,0,0,0
1.6684146249999685,-0.2609679809570312,-9.591171850585937,1.3263877197265623,0,0,0,0
1.6695075060001727,-0.3687070556640625,-9.679757312011718,1.2785036865234374,0,0,0,0
1.671109773000353,-0.38786066894531246,-9.763554370117188,1.1851298217773436,0,0,0,0
1.672275801000069,-0.38307226562499996,-9.758765966796874,1.2401964599609374,0,0,0,0
1.673367442000199,-0.33758243408203126,-9.701305126953125,1.2713210815429687,0,0,0,0
1.6744624150001073,-0.36152445068359373,-9.624690673828125,1.2330138549804688,0,0,0,0
1.676056219000202,-0.28730419921875,-9.533711010742186,1.2928688964843749,0,0,0,0
1.67721878500015,-0.30885201416015623,-9.564835632324218,1.3646949462890625,0,0,0,0
1.6783135360001324,-0.29448680419921874,-9.651026892089844,1.2497732666015624,0,0,0,0
1.6794123429999672,-0.3447650390625,-9.737218151855469,1.3239935180664062,0,0,0,0
1.6809775910001008,-0.27293898925781246,-9.696516723632811,1.2665326782226562,0,0,0,0
1.6821204530001523,-0.33518823242187495,-9.725247143554688,1.2737152832031249,0,0,0,0
1.6832322970003588,-0.36152445068359373,-9.6917283203125,1.3383587280273437,0,0,0,0
1.684324086000288,-0.16998831787109375,-9.627084875488281,1.3072341064453123,0,0,0,0
1.6859020000001692,-0.3495534423828125,-9.572018237304688,1.2808978881835937,0,0,0,0
1.6870623990002969,-0.33518823242187495,-9.627084875488281,1.2808978881835937,0,0,0,0
1.6881578550000995,-0.3447650390625,-9.72285294189453,1.3263877197265623,0,0,0,0
1.6892431620003663,-0.33518823242187495,-9.715670336914062,1.3287819213867187,0,0,0,0
1.6907939100001386,-0.239420166015625,-9.80665,1.3000515014648437,0,0,0,0
1.6921897700003683,-0.19632453613281248,-9.670180505371093,1.3551181396484375,0,0,0,0
1.6932880770000338,-0.26815058593749996,-9.641450085449218,1.3192051147460937,0,0,0,0
1.6943799400000898,-0.33518823242187495,-9.612719665527344,1.2904746948242187,0,0,0,0
1.6959282249999887,-0.3447650390625,-9.504980590820312,1.2641384765625,0,0,0,0
1.6977725639999335,-0.44053310546874996,-9.744400756835937,1.3168109130859373,0,0,0,0
1.699159998000141,-0.354341845703125,-9.605537060546874,1.2617442749023438,0,0,0,0
1.7014657960003206,-0.17238251953125,-9.545682019042967,1.3862427612304686,0,0,0,0
1.702721657999973,-0.19153613281249998,-9.53131680908203,1.3766659545898436,0,0,0,0
1.7038284650002424,-0.24181436767578124,-9.562441430664062,1.2976572998046874,0,0,0,0
1.7049256420000347,-0.3136404174804687,-9.655815295410155,1.2593500732421874,0,0,0,0
1.7062434100002974,-0.35194764404296874,-9.773131176757811,1.2904746948242187,0,0,0,0
1.70743579100008,-0.32082302246093747,-9.76116016845703,1.4604630126953124,0,0,0,0
1.708602357000018,-0.35194764404296874,-9.672574707031249,1.369483349609375,0,0,0,0
1.709699756000191,-0.30406361083984373,-9.595960253906249,1.3000515014648437,0,0,0,0
1.7108197110001129,-0.3232172241210937,-9.545682019042967,1.2425906616210938,0,0,0,0
1.7119163140000637,-0.316034619140625,-9.53131680908203,1.2808978881835937,0,0,0,0
1.7130038990003413,-0.25139117431640623,-9.512163195800781,1.2928688964843749,0,0,0,0
1.714183223999953,-0.2753331909179687,-9.715670336914062,1.3623007446289062,0,0,0,0
1.7153287710002587,-0.22266075439453123,-9.708487731933593,1.2880804931640624,0,0,0,0
1.7164267260000088,-0.1771709228515625,-9.689334118652344,1.22583125,0,0,0,0
1.717510534000212,-0.277727392578125,-9.617508068847656,1.3048399047851562,0,0,0,0
1.7185967479999817,-0.296881005859375,-9.634267480468749,1.3718775512695311,0,0,0,0
1.719780369000091,-0.34715924072265625,-9.600748657226562,1.3144167114257812,0,0,0,0
1.7209020090003833,-0.4070142822265625,-9.6151138671875,1.2880804931640624,0,0,0,0
1.7219934270001431,-0.3711012573242187,-9.543287817382812,1.2425906616210938,0,0,0,0
1.7230835489999663,-0.3758896606445312,-9.686939916992188,1.2042834350585936,0,0,0,0
1.724239800000305,-0.4525041137695312,-9.674968908691406,1.197100830078125,0,0,0,0
1.7253886810003678,-0.201112939453125,-9.701305126953125,1.1875240234375,0,0,0,0
1.7264827100002549,-0.22505495605468748,-9.595960253906249,1.2689268798828124,0,0,0,0
1.7275727760002155,-0.22026655273437498,-9.572018237304688,1.3168109130859373,0,0,0,0
1.7286650830001236,-0.2657563842773437,-9.583989245605467,1.2808978881835937,0,0,0,0
1.729818205000356,-0.3184288208007812,-9.694122521972655,1.2306196533203124,0,0,0,0
1.730975734000367,-0.4070142822265625,-9.682151513671874,1.2880804931640624,0,0,0,0
1.7320726699999796,-0.42377369384765623,-9.550470422363281,1.2976572998046874,0,0,0,0
1.7331625700003315,-0.40222587890625,-9.68454571533203,1.3168109130859373,0,0,0,0
1.734316191000289,-0.36391865234375,-9.662997900390625,1.3551181396484375,0,0,0,0
1.7355203310003162,-0.2920926025390625,-9.572018237304688,1.3742717529296875,0,0,0,0
1.7366169710003305,-0.22744915771484372,-9.586383447265625,1.2952630981445312,0,0,0,0
1.7377032970002801,-0.27293898925781246,-9.667786303710937,1.2210428466796874,0,0,0,0
1.7387911220002934,-0.33039982910156246,-9.641450085449218,1.2928688964843749,0,0,0,0
1.7399752989999797,-0.3112462158203125,-9.715670336914062,1.2713210815429687,0,0,0,0
1.7411072170002626,-0.30885201416015623,-9.7683427734375,1.2904746948242187,0,0,0,0
1.7421990610000648,-0.34237083740234375,-9.682151513671874,1.254561669921875,0,0,0,0
1.743288849000237,-0.3184288208007812,-9.60793126220703,1.216254443359375,0,0,0,0
1.7443589710001106,-0.2825157958984375,-9.624690673828125,1.3431471313476562,0,0,0,0
1.7454919820002033,-0.28490999755859375,-9.552864624023437,1.43652099609375,0,0,0,0
1.7466253249999681,-0.2920926025390625,-9.574412438964844,1.2378022583007813,0,0,0,0
1.7491321590000553,-0.28969840087890625,-9.727641345214844,1.2425906616210938,0,0,0,0
1.750343705999967,-0.3136404174804687,-9.6917283203125,1.2832920898437499,0,0,0,0
1.7517222149999725,-0.3232172241210937,-9.65342109375,1.2761094848632812,0,0,0,0
1.7528641140002037,-0.2753331909179687,-9.648632690429688,1.2976572998046874,0,0,0,0
1.753964014000303,-0.26336218261718747,-9.643844287109374,1.3000515014648437,0,0,0,0
1.7550510610003585,-0.32082302246093747,-9.540893615722656,1.2497732666015624,0,0,0,0
1.756205238000348,-0.3184288208007812,-9.68454571533203,1.3096283081054687,0,0,0,0
1.757602173000123,-0.38786066894531246,-9.708487731933593,1.235408056640625,0,0,0,0
1.7588058490000549,-0.33518823242187495,-9.662997900390625,1.3192051147460937,0,0,0,0
1.7601030440000613,-0.3064578125,-9.643844287109374,1.2856862915039062,0,0,0,0
1.7612118880001617,-0.22505495605468748,-9.655815295410155,1.35990654296875,0,0,0,0
1.7623782870000468,-0.21308394775390624,-9.665392102050781,1.3551181396484375,0,0,0,0
1.7635377970000263,-0.239420166015625,-9.679757312011718,1.3623007446289062,0,0,0,0
1.7649457679999614,-0.3399766357421875,-9.739612353515625,1.2330138549804688,0,0,0,0
1.7660406310001235,-0.39743747558593745,-9.775525378417969,1.2785036865234374,0,0,0,0
1.7671609379999609,-0.4429273071289062,-9.746794958496093,1.2641384765625,0,0,0,0
1.768317689000014,-0.3711012573242187,-9.698910925292969,1.3000515014648437,0,0,0,0
1.7694722730002468,-0.3399766357421875,-9.6917283203125,1.3120225097656248,0,0,0,0
1.770564117000049,-0.29448680419921874,-9.56962403564453,1.3263877197265623,0,0,0,0
1.7716812200001186,-0.24660277099609373,-9.471461767578125,1.2497732666015624,0,0,0,0
1.7727691940003751,-0.2609679809570312,-9.533711010742186,1.3383587280273437,0,0,0,0
1.7743215350001265,-0.3447650390625,-9.6917283203125,1.2138602416992186,0,0,0,0
1.7754872489999798,-0.36391865234375,-9.76116016845703,1.1468225952148436,0,0,0,0
1.7765757590000248,-0.36631285400390623,-9.7683427734375,1.2832920898437499,0,0,0,0
1.7776614550002705,-0.30406361083984373,-9.710881933593749,1.2832920898437499,0,0,0,0
1.7788075030002801,-0.3327940307617187,-9.670180505371093,1.2665326782226562,0,0,0,0
1.7799560500002372,-0.33039982910156246,-9.773131176757811,1.3479355346679687,0,0,0,0
1.7810509129999446,-0.3399766357421875,-9.641450085449218,1.2401964599609374,0,0,0,0
1.782137831,-0.3495534423828125,-9.586383447265625,1.2497732666015624,0,0,0,0
1.7832876190000206,-0.32082302246093747,-9.619902270507811,1.2569558715820313,0,0,0,0
1.7844278330003362,-0.29927520751953124,-9.686939916992188,1.3072341064453123,0,0,0,0
1.7855238990000544,-0.29448680419921874,-9.634267480468749,1.2737152832031249,0,0,0,0
1.7867052420001528,-0.28012159423828126,-9.679757312011718,1.3335703247070312,0,0,0,0
1.7878100120001363,-0.19632453613281248,-9.682151513671874,1.3120225097656248,0,0,0,0
1.7889879110002767,-0.30885201416015623,-9.617508068847656,1.3048399047851562,0,0,0,0
1.7901226990002215,-0.3327940307617187,-9.648632690429688,1.2761094848632812,0,0,0,0
1.7912314320001315,-0.42377369384765623,-9.696516723632811,1.3215993164062498,0,0,0,0
1.7923427020000418,-0.34237083740234375,-9.701305126953125,1.2330138549804688,0,0,0,0
1.7934349350002776,-0.316034619140625,-9.682151513671874,1.235408056640625,0,0,0,0
1.7945882970002458,-0.24181436767578124,-9.622296472167967,1.3000515014648437,0,0,0,0
1.7957337890002236,-0.16998831787109375,-9.636661682128906,1.3862427612304686,0,0,0,0
1.7968143370003418,-0.239420166015625,-9.550470422363281,1.4820108276367188,0,0,0,0
1.7978855700002896,-0.24660277099609373,-9.588777648925781,1.2713210815429687,0,0,0,0
1.7989542660002371,-0.23223756103515625,-9.677363110351562,1.177947216796875,0,0,0,0
1.800125664999996,-0.3495534423828125,-9.710881933593749,1.2593500732421874,0,0,0,0
1.801247787000193,-0.5315127685546874,-9.718064538574218,1.39821376953125,0,0,0,0
1.8024338340001123,-0.3950432739257812,-9.706093530273437,1.3383587280273437,0,0,0,0
1.8035259000002952,-0.354341845703125,-9.672574707031249,1.2521674682617188,0,0,0,0
1.8046018550003282,-0.28012159423828126,-9.639055883789062,1.3072341064453123,0,0,0,0
1.8057361620003576,-0.2609679809570312,-9.5384994140625,1.2713210815429687,0,0,0,0
1.8068709500003024,-0.28012159423828126,-9.605537060546874,1.2665326782226562,0,0,0,0
1.8082568110003194,-0.24181436767578124,-9.639055883789062,1.2473790649414063,0,0,0,0
1.8093524690002596,-0.29448680419921874,-9.682151513671874,1.24498486328125,0,0,0,0
1.8105148680001548,-0.30406361083984373,-9.74200655517578,1.2832920898437499,0,0,0,0
1.8117959149999479,-0.28490999755859375,-9.775525378417969,1.3479355346679687,0,0,0,0
1.812896500000079,-0.30885201416015623,-9.689334118652344,1.2880804931640624,0,0,0,0
1.8139962879999985,-0.3806780639648437,-9.545682019042967,1.2785036865234374,0,0,0,0
1.8151629829999365,-0.37828386230468747,-9.576806640625,1.3024457031249999,0,0,0,0
1.816681324000001,-0.38786066894531246,-9.658209497070311,1.2378022583007813,0,0,0,0
1.8178971490001459,-0.3950432739257812,-9.792284790039062,1.3072341064453123,0,0,0,0
1.819877672000075,-0.2609679809570312,-9.686939916992188,1.3670891479492187,0,0,0,0
1.8211194410000644,-0.26336218261718747,-9.639055883789062,1.3335703247070312,0,0,0,0
1.8223804500003098,-0.18435352783203124,-9.658209497070311,1.3024457031249999,0,0,0,0
1.8235006459999568,-0.2442085693359375,-9.612719665527344,1.2952630981445312,0,0,0,0
1.8246809340002983,-0.3687070556640625,-9.624690673828125,1.2928688964843749,0,0,0,0
1.8259642770003666,-0.47165772705078124,-9.713276135253906,1.2425906616210938,0,0,0,0
1.8272633410001617,-0.4333505004882812,-9.696516723632811,1.209071838378906,0,0,0,0
1.8285511650001354,-0.33518823242187495,-9.674968908691406,1.2785036865234374,0,0,0,0
1.8297361009999804,-0.27293898925781246,-9.617508068847656,1.158793603515625,0,0,0,0
1.8308414450002601,-0.20829554443359374,-9.516951599121093,1.2737152832031249,0,0,0,0
1.8319344930000625,-0.21787235107421873,-9.442731347656249,1.3096283081054687,0,0,0,0
1.833024948000002,-0.24899697265624998,-9.682151513671874,1.3479355346679687,0,0,0,0
1.834207718000016,-0.277727392578125,-9.679757312011718,1.2904746948242187,0,0,0,0
1.8354406349999408,-0.354341845703125,-9.770736975097655,1.3192051147460937,0,0,0,0
1.83654623800021,-0.3687070556640625,-9.804255798339844,1.3335703247070312,0,0,0,0
1.8376396749999913,-0.34715924072265625,-9.70369932861328,1.3239935180664062,0,0,0,0
1.8387282220000998,-0.30406361083984373,-9.641450085449218,1.5203180541992187,0,0,0,0
1.8398242700000083,-0.24899697265624998,-9.622296472167967,1.3311761230468748,0,0,0,0
1.8410344840003745,-0.2920926025390625,-9.560047229003906,1.3431471313476562,0,0,0,0
1.8422069940002075,-0.316034619140625,-9.56962403564453,1.2425906616210938,0,0,0,0
1.8433082080000531,-0.2825157958984375,-9.667786303710937,1.2689268798828124,0,0,0,0
1.844397052000204,-0.2753331909179687,-9.708487731933593,1.3431471313476562,0,0,0,0
1.8454814520000582,-0.24660277099609373,-9.730035546875,1.388636962890625,0,0,0,0
1.8465720369999872,-0.28730419921875,-9.737218151855469,1.3096283081054687,0,0,0,0
1.8477391390001685,-0.33039982910156246,-9.667786303710937,1.3000515014648437,0,0,0,0
1.8489716860003682,-0.354341845703125,-9.560047229003906,1.2401964599609374,0,0,0,0
1.8500867709999511,-0.3399766357421875,-9.634267480468749,1.2808978881835937,0,0,0,0
1.8512103739999475,-0.3016694091796875,-9.715670336914062,1.2665326782226562,0,0,0,0
1.8523000330001196,-0.3711012573242187,-9.696516723632811,1.2617442749023438,0,0,0,0
1.8534695240000474,-0.3591302490234375,-9.6917283203125,1.2808978881835937,0,0,0,0
1.8546640340000522,-0.2753331909179687,-9.677363110351562,1.2952630981445312,0,0,0,0
1.8557716740001524,-0.27293898925781246,-9.631873278808593,1.3096283081054687,0,0,0,0
1.8568645929999548,-0.24899697265624998,-9.536105212402344,1.2976572998046874,0,0,0,0
1.8579554739999367,-0.2537853759765625,-9.526528405761718,1.2569558715820313,0,0,0,0
1.8590511510001306,-0.22744915771484372,-9.715670336914062,1.3048399047851562,0,0,0,0
1.8602228830000058,-0.16759411621093748,-9.74200655517578,1.235408056640625,0,0,0,0
1.8614423750000242,-0.34237083740234375,-9.789890588378906,1.2473790649414063,0,0,0,0
1.8625414960001763,-0.4165910888671875,-9.706093530273437,1.3048399047851562,0,0,0,0
1.8636375630003386,-0.277727392578125,-9.581595043945311,1.3311761230468748,0,0,0,0
1.8647208880001926,-0.2825157958984375,-9.536105212402344,1.3096283081054687,0,0,0,0
1.8658109920002062,-0.239420166015625,-9.550470422363281,1.2593500732421874,0,0,0,0
1.8670208349999484,-0.22744915771484372,-9.658209497070311,1.209071838378906,0,0,0,0
1.8682875290000993,-0.27293898925781246,-9.698910925292969,1.2378022583007813,0,0,0,0
1.8693981330002316,-0.296881005859375,-9.758765966796874,1.3670891479492187,0,0,0,0
1.8705066249999618,-0.34715924072265625,-9.770736975097655,1.3192051147460937,0,0,0,0
1.871614432000115,-0.34237083740234375,-9.689334118652344,1.3311761230468748,0,0,0,0
1.8727101270001185,-0.33758243408203126,-9.6151138671875,1.2378022583007813,0,0,0,0
1.8739448040000752,-0.373495458984375,-9.629479077148437,1.2330138549804688,0,0,0,0
1.8751791650001906,-0.4165910888671875,-9.64623848876953,1.2497732666015624,0,0,0,0
1.8763385639999797,-0.4285620971679687,-9.610325463867188,1.3670891479492187,0,0,0,0
1.8775421850000384,-0.3687070556640625,-9.64623848876953,1.2880804931640624,0,0,0,0
1.878739751000012,-0.27293898925781246,-9.655815295410155,1.3335703247070312,0,0,0,0
1.880021668000154,-0.21068974609375,-9.648632690429688,1.3359645263671873,0,0,0,0
1.8811478820002776,-0.11252747802734374,-9.581595043945311,1.3646949462890625,0,0,0,0
1.8822606890003044,-0.27293898925781246,-9.579200842285156,1.3958195678710936,0,0,0,0
1.883365607000087,-0.34715924072265625,-9.622296472167967,1.3814543579101561,0,0,0,0
1.8845314130003317,-0.3902548706054687,-9.662997900390625,1.3287819213867187,0,0,0,0
1.8857681080003204,-0.4381389038085937,-9.708487731933593,1.2665326782226562,0,0,0,0
1.8869644139999764,-0.40222587890625,-9.72285294189453,1.3239935180664062,0,0,0,0
1.8882026650003354,-0.32561142578124996,-9.610325463867188,1.2665326782226562,0,0,0,0
1.8893029160003607,-0.19632453613281248,-9.49300958251953,1.235408056640625,0,0,0,0
1.890391945000374,-0.11252747802734374,-9.591171850585937,1.3000515014648437,0,0,0,0
1.8915470480001204,-0.18914193115234373,-9.643844287109374,1.369483349609375,0,0,0,0
1.8927672429999802,-0.24899697265624998,-9.617508068847656,1.24498486328125,0,0,0,0
1.8938639020002483,-0.32082302246093747,-9.658209497070311,1.2282254516601563,0,0,0,0
1.8949530419999974,-0.36152445068359373,-9.770736975097655,1.209071838378906,0,0,0,0
1.8960374050002429,-0.4261678955078125,-9.725247143554688,1.2617442749023438,0,0,0,0
1.8971900640003696,-0.3495534423828125,-9.651026892089844,1.3096283081054687,0,0,0,0
1.8983931480001957,-0.3184288208007812,-9.629479077148437,1.2569558715820313,0,0,0,0
1.8997250639999947,-0.2753331909179687,-9.665392102050781,1.0821791503906248,0,0,0,0
1.9009075369999664,-0.3136404174804687,-9.593566052246093,1.2832920898437499,0,0,0,0
1.9020594180001353,-0.2657563842773437,-9.64623848876953,1.3144167114257812,0,0,0,0
1.9032572050000454,-0.26815058593749996,-9.694122521972655,1.3168109130859373,0,0,0,0
1.9044459560000178,-0.3136404174804687,-9.713276135253906,1.2928688964843749,0,0,0,0
1.9055440960000851,-0.277727392578125,-9.734823950195311,1.1923124267578125,0,0,0,0
1.9066326260003734,-0.3136404174804687,-9.651026892089844,1.3072341064453123,0,0,0,0
1.9077195439999741,-0.33039982910156246,-9.631873278808593,1.35990654296875,0,0,0,0
1.908808462000252,-0.3758896606445312,-9.65342109375,1.20667763671875,0,0,0,0
1.9099829350002437,-0.3591302490234375,-9.595960253906249,1.218648645019531,0,0,0,0
1.9111819080003443,-0.36631285400390623,-9.660603698730467,1.22583125,0,0,0,0
1.91227499300021,-0.33758243408203126,-9.674968908691406,1.2138602416992186,0,0,0,0
1.9133561520002331,-0.2609679809570312,-9.660603698730467,1.1875240234375,0,0,0,0
1.9144395700000132,-0.26336218261718747,-9.643844287109374,1.2569558715820313,0,0,0,0
1.9156122650001635,-0.2154781494140625,-9.60793126220703,1.3024457031249999,0,0,0,0
1.916769590000058,-0.24660277099609373,-9.662997900390625,1.3168109130859373,0,0,0,0
1.9178598789999342,-0.277727392578125,-9.725247143554688,1.2808978881835937,0,0,0,0
1.9189761480001835,-0.3447650390625,-9.706093530273437,1.3239935180664062,0,0,0,0
1.9200871030002418,-0.354341845703125,-9.718064538574218,1.3575123413085937,0,0,0,0
1.9212373170003048,-0.430956298828125,-9.698910925292969,1.3168109130859373,0,0,0,0
1.922415753000223,-0.39743747558593745,-9.710881933593749,1.2808978881835937,0,0,0,0
1.9235196340000584,-0.33039982910156246,-9.686939916992188,1.3048399047851562,0,0,0,0
1.924604459999955,-0.19393033447265623,-9.600748657226562,1.3048399047851562,0,0,0,0
1.925689618999968,-0.21308394775390624,-9.572018237304688,1.3646949462890625,0,0,0,0
1.9268409070000416,-0.22026655273437498,-9.526528405761718,1.2880804931640624,0,0,0,0
1.928049769000154,-0.22505495605468748,-9.643844287109374,1.3024457031249999,0,0,0,0
1.9291470940002,-0.19871873779296872,-9.708487731933593,1.3359645263671873,0,0,0,0
1.9302238640002543,-0.38786066894531246,-9.787496386718749,1.3479355346679687,0,0,0,0
1.9317119830002412,-0.40462008056640625,-9.708487731933593,1.3407529296874998,0,0,0,0
1.9334473779999826,-0.33518823242187495,-9.651026892089844,1.3527239379882812,0,0,0,0
1.9349829780003347,-0.3232172241210937,-9.545682019042967,1.3072341064453123,0,0,0,0
1.9370699260002766,-0.2561795776367187,-9.588777648925781,1.3000515014648437,0,0,0,0
1.939011672000106,-0.2825157958984375,-9.674968908691406,1.2497732666015624,0,0,0,0
1.9406096970001272,-0.29448680419921874,-9.68454571533203,1.3575123413085937,0,0,0,0
1.9438648960003775,-0.35194764404296874,-9.64623848876953,1.2401964599609374,0,0,0,0
1.9454639040000075,-0.4429273071289062,-9.629479077148437,1.2737152832031249,0,0,0,0
1.9469595040000058,-0.354341845703125,-9.648632690429688,1.2521674682617188,0,0,0,0
1.9487082690002353,-0.32561142578124996,-9.56962403564453,1.3551181396484375,0,0,0,0
1.9506634960002884,-0.1771709228515625,-9.519345800781249,1.3000515014648437,0,0,0,0
1.9522026150002603,-0.29927520751953124,-9.665392102050781,1.2282254516601563,0,0,0,0
1.9539059170001565,-0.3687070556640625,-9.696516723632811,1.2114660400390624,0,0,0,0
1.9552670000002763,-0.40940848388671874,-9.698910925292969,1.2521674682617188,0,0,0,0
1.9563853620002192,-0.3447650390625,-9.718064538574218,1.2785036865234374,0,0,0,0
1.957467446999999,-0.32561142578124996,-9.634267480468749,1.3646949462890625,0,0,0,0
1.9585489770001914,-0.3064578125,-9.730035546875,1.3287819213867187,0,0,0,0
1.9599905960003525,-0.29927520751953124,-9.540893615722656,1.3527239379882812,0,0,0,0
1.9614773630000855,-0.26815058593749996,-9.600748657226562,1.2832920898437499,0,0,0,0
1.962569411000004,-0.3447650390625,-9.641450085449218,1.2521674682617188,0,0,0,0
1.9636810880001576,-0.3327940307617187,-9.727641345214844,1.216254443359375,0,0,0,0
1.965417982999952,-0.42377369384765623,-9.679757312011718,1.2617442749023438,0,0,0,0
1.9665730860001531,-0.3711012573242187,-9.64623848876953,1.3862427612304686,0,0,0,0
1.9676671520001037,-0.39983167724609375,-9.60793126220703,1.43652099609375,0,0,0,0
1.968752570000106,-0.34715924072265625,-9.64623848876953,1.20667763671875,0,0,0,0
1.970472484000311,-0.3064578125,-9.593566052246093,1.3024457031249999,0,0,0,0
1.9716370310002276,-0.2753331909179687,-9.64623848876953,1.2832920898437499,0,0,0,0
1.9727275230002306,-0.19632453613281248,-9.674968908691406,1.2832920898437499,0,0,0,0
1.973814682000011,-0.27293898925781246,-9.679757312011718,1.3862427612304686,0,0,0,0
1.9755401880001955,-0.277727392578125,-9.6151138671875,1.3958195678710936,0,0,0,0
1.9766833840003528,-0.2753331909179687,-9.622296472167967,1.2928688964843749,0,0,0,0
1.9777722840003662,-0.29927520751953124,-9.619902270507811,1.3072341064453123,0,0,0,0
1.9788572760003262,-0.41419688720703124,-9.696516723632811,1.3287819213867187,0,0,0,0
1.9805497639999885,-0.3758896606445312,-9.672574707031249,1.2042834350585936,0,0,0,0
1.9816916810000293,-0.316034619140625,-9.751583361816406,1.2785036865234374,0,0,0,0
1.9827785810002752,-0.27293898925781246,-9.667786303710937,1.2665326782226562,0,0,0,0
1.9841182940003819,-0.23223756103515625,-9.641450085449218,1.2713210815429687,0,0,0,0
1.985913428999993,-0.229843359375,-9.581595043945311,1.3742717529296875,0,0,0,0
1.9872401229999923,-0.229843359375,-9.658209497070311,1.3215993164062498,0,0,0,0
1.9883296340003653,-0.3399766357421875,-9.708487731933593,1.2641384765625,0,0,0,0
1.9894085150003775,-0.4070142822265625,-9.756371765136718,1.3168109130859373,0,0,0,0
1.9907855790002031,-0.39743747558593745,-9.730035546875,1.3215993164062498,0,0,0,0
1.992048793000322,-0.34237083740234375,-9.682151513671874,1.35990654296875,0,0,0,0
1.9934365789999902,-0.2442085693359375,-9.605537060546874,1.3192051147460937,0,0,0,0
1.9945336640003006,-0.24660277099609373,-9.588777648925781,1.37906015625,0,0,0,0
1.9958830240002499,-0.277727392578125,-9.524134204101562,1.2904746948242187,0,0,0,0
1.9970705900000212,-0.32561142578124996,-9.651026892089844,1.2282254516601563,0,0,0,0
1.9986668559999998,-0.3280056274414062,-9.744400756835937,1.3048399047851562,0,0,0,0
2.000314659000196,-0.29927520751953124,-9.718064538574218,1.2713210815429687,0,0,0,0
2.0020838880000156,-0.17238251953125,-9.674968908691406,1.2952630981445312,0,0,0,0
2.004327760000251,-0.3447650390625,-9.605537060546874,1.2785036865234374,0,0,0,0
2.0063790980002523,-0.316034619140625,-9.658209497070311,1.2952630981445312,0,0,0,0
2.007953531000112,-0.19393033447265623,-9.667786303710937,1.3096283081054687,0,0,0,0
2.0099663500000133,-0.2657563842773437,-9.622296472167967,1.2641384765625,0,0,0,0
2.0123630920002142,-0.3447650390625,-9.576806640625,1.254561669921875,0,0,0,0
2.0143215220000457,-0.42377369384765623,-9.670180505371093,1.2928688964843749,0,0,0,0
2.016284712000015,-0.3758896606445312,-9.713276135253906,1.3263877197265623,0,0,0,0
2.0180413289999706,-0.44053310546874996,-9.581595043945311,1.2856862915039062,0,0,0,0
2.0196229470002436,-0.239420166015625,-9.588777648925781,1.484405029296875,0,0,0,0
2.021665655000106,-0.3016694091796875,-9.545682019042967,1.2785036865234374,0,0,0,0
2.0233810869999616,-0.3327940307617187,-9.730035546875,1.2952630981445312,0,0,0,0
2.0249568540002656,-0.35673604736328124,-9.744400756835937,1.2856862915039062,0,0,0,0
2.026958284000102,-0.3327940307617187,-9.706093530273437,1.3144167114257812,0,0,0,0
2.0286347720002595,-0.2825157958984375,-9.600748657226562,1.2617442749023438,0,0,0,0
2.0301826869999786,-0.316034619140625,-9.56962403564453,1.2761094848632812,0,0,0,0
2.0319914330002575,-0.28012159423828126,-9.619902270507811,1.2521674682617188,0,0,0,0
2.0333657010000934,-0.2920926025390625,-9.6917283203125,1.2593500732421874,0,0,0,0
2.0344879520002905,-0.34237083740234375,-9.686939916992188,1.2018892333984375,0,0,0,0
2.0355872780000936,-0.3064578125,-9.686939916992188,1.3527239379882812,0,0,0,0
2.0366702330002227,-0.30406361083984373,-9.64623848876953,1.2952630981445312,0,0,0,0
2.0377553180001087,-0.33518823242187495,-9.536105212402344,1.2952630981445312,0,0,0,0
2.038960753000083,-0.316034619140625,-9.672574707031249,1.3096283081054687,0,0,0,0
2.0402790220000497,-0.3711012573242187,-9.68454571533203,1.3144167114257812,0,0,0,0
2.041372292000233,-0.354341845703125,-9.679757312011718,1.3335703247070312,0,0,0,0
2.0424614510002357,-0.33518823242187495,-9.631873278808593,1.3048399047851562,0,0,0,0
2.043663146000199,-0.3064578125,-9.65342109375,1.3144167114257812,0,0,0,0
2.0449810439999965,-0.22026655273437498,-9.557653027343749,1.369483349609375,0,0,0,0
2.0460834800001066,-0.25139117431640623,-9.588777648925781,1.3120225097656248,0,0,0,0
2.0471949910001968,-0.354341845703125,-9.651026892089844,1.3239935180664062,0,0,0,0
2.048566370000117,-0.33758243408203126,-9.725247143554688,1.3623007446289062,0,0,0,0
2.0497273989999485,-0.40462008056640625,-9.809044201660155,1.1659762084960936,0,0,0,0
2.050835779999943,-0.4261678955078125,-9.660603698730467,1.3096283081054687,0,0,0,0
2.0519336790002853,-0.354341845703125,-9.631873278808593,1.2785036865234374,0,0,0,0
2.0531444850003027,-0.30406361083984373,-9.619902270507811,1.2617442749023438,0,0,0,0
2.0546771600002103,-0.316034619140625,-9.586383447265625,1.3623007446289062,0,0,0,0
2.0560087610001574,-0.27293898925781246,-9.557653027343749,1.3742717529296875,0,0,0,0
2.057181734000096,-0.3136404174804687,-9.68454571533203,1.3120225097656248,0,0,0,0
2.0583983740002623,-0.35194764404296874,-9.734823950195311,1.2976572998046874,0,0,0,0
2.0594985510001607,-0.3232172241210937,-9.74200655517578,1.3000515014648437,0,0,0,0
2.0606971720003457,-0.3136404174804687,-9.758765966796874,1.3934253662109375,0,0,0,0
2.061972015000265,-0.3136404174804687,-9.564835632324218,1.3335703247070312,0,0,0,0
2.0630675070001416,-0.28012159423828126,-9.528922607421874,1.3263877197265623,0,0,0,0
2.0641574440001023,-0.36391865234375,-9.56962403564453,1.3718775512695311,0,0,0,0
2.0653581200003828,-0.4285620971679687,-9.617508068847656,1.3192051147460937,0,0,0,0
2.0666583150000406,-0.3687070556640625,-9.720458740234374,1.1923124267578125,0,0,0,0
2.0677656220000245,-0.2609679809570312,-9.72285294189453,1.3431471313476562,0,0,0,0
2.0688832250002633,-0.24899697265624998,-9.667786303710937,1.3527239379882812,0,0,0,0
2.069970698000361,-0.239420166015625,-9.629479077148437,1.3096283081054687,0,0,0,0
2.0714977800003,-0.29448680419921874,-9.564835632324218,1.2689268798828124,0,0,0,0
2.0727538820001428,-0.35673604736328124,-9.65342109375,1.254561669921875,0,0,0,0
2.0739150030003657,-0.43574470214843747,-9.667786303710937,1.254561669921875,0,0,0,0
2.075077495000187,-0.3902548706054687,-9.718064538574218,1.2569558715820313,0,0,0,0
2.076372912000352,-0.35673604736328124,-9.727641345214844,1.2665326782226562,0,0,0,0
2.077836216000378,-0.28012159423828126,-9.792284790039062,1.2378022583007813,0,0,0,0
2.0790333370000553,-0.0430956298828125,-9.524134204101562,1.3048399047851562,0,0,0,0
2.0802143290002277,-0.30406361083984373,-9.572018237304688,1.2904746948242187,0,0,0,0
2.0814010060003056,-0.33758243408203126,-9.622296472167967,1.2808978881835937,0,0,0,0
2.0826602000001913,-0.36631285400390623,-9.670180505371093,1.189918225097656,0,0,0,0
2.084115949000079,-0.41898529052734373,-9.756371765136718,1.2306196533203124,0,0,0,0
2.0853099590003694,-0.3854664672851562,-9.80665,1.2785036865234374,0,0,0,0
2.086480765000033,-0.28012159423828126,-9.68454571533203,1.3766659545898436,0,0,0,0
2.0876788499999748,-0.28730419921875,-9.512163195800781,1.3575123413085937,0,0,0,0
2.0892112270003054,-0.1580173095703125,-9.497797985839844,1.3096283081054687,0,0,0,0
2.090539922000062,-0.181959326171875,-9.552864624023437,1.24498486328125,0,0,0,0
