Time (s),Accel X,Accel Y,Accel Z,Gyro X,Gyro Y,Gyro Z,Temperature (C)
0.0010584740002741455,-0.2657563842773437,-9.624690673828125,1.2856862915039062,0,0,0,0
0.0027167400003236253,-0.38307226562499996,-9.70369932861328,1.235408056640625,0,0,0,0
0.003927750000002561,-0.37828386230468747,-9.727641345214844,1.2593500732421874,0,0,0,0
0.005711162999887165,-0.32561142578124996,-9.662997900390625,1.2569558715820313,0,0,0,0
0.00704835800024739,-0.3112462158203125,-9.651026892089844,1.3479355346679687,0,0,0,0
0.008245960000294872,-0.28730419921875,-9.533711010742186,1.3120225097656248,0,0,0,0
0.009419156000149087,-0.28730419921875,-9.560047229003906,1.2018892333984375,0,0,0,0
0.011002199999893492,-0.28730419921875,-9.56962403564453,1.254561669921875,0,0,0,0
0.012532226000075752,-0.3064578125,-9.689334118652344,1.2497732666015624,0,0,0,0
0.013782958000319923,-0.2920926025390625,-9.727641345214844,1.2665326782226562,0,0,0,0
0.015025912000055541,-0.277727392578125,-9.720458740234374,1.2737152832031249,0,0,0,0
0.016752400000314083,-0.2920926025390625,-9.639055883789062,1.37906015625,0,0,0,0
0.018047131999992416,-0.3758896606445312,-9.677363110351562,1.2952630981445312,0,0,0,0
0.019237085999975534,-0.373495458984375,-9.593566052246093,1.2808978881835937,0,0,0,0
0.020756742000230588,-0.39743747558593745,-9.56962403564453,1.2761094848632812,0,0,0,0
0.02225330600003872,-0.37828386230468747,-9.720458740234374,1.2521674682617188,0,0,0,0
0.023517927000284544,-0.24181436767578124,-9.730035546875,1.2808978881835937,0,0,0,0
0.02469467800028724,-0.19153613281249998,-9.651026892089844,1.3383587280273437,0,0,0,0
0.026258407000113948,-0.29448680419921874,-9.619902270507811,1.3551181396484375,0,0,0,0
0.028518947000065964,-0.46686932373046874,-9.696516723632811,1.2832920898437499,0,0,0,0
0.029767457000161812,-0.4644751220703125,-9.713276135253906,1.254561669921875,0,0,0,0
0.03095943000016632,-0.411802685546875,-9.710881933593749,1.2569558715820313,0,0,0,0
0.0327135279999311,-0.27293898925781246,-9.667786303710937,1.2785036865234374,0,0,0,0
0.03492032800022571,-0.13168109130859373,-9.679757312011718,1.2904746948242187,0,0,0,0
0.036317947000043205,-0.16041151123046873,-9.667786303710937,1.189918225097656,0,0,0,0
0.03762004899999738,-0.3806780639648437,-9.694122521972655,1.2521674682617188,0,0,0,0
0.038961762000326416,-0.4213794921875,-9.730035546875,1.3742717529296875,0,0,0,0
0.040321660000245174,-0.36152445068359373,-9.830592016601562,1.3718775512695311,0,0,0,0
0.041641836000053445,-0.33758243408203126,-9.679757312011718,1.2928688964843749,0,0,0,0
0.042913326999951096,-0.36391865234375,-9.581595043945311,1.3551181396484375,0,0,0,0
0.04413333699994837,-0.2753331909179687,-9.528922607421874,1.3670891479492187,0,0,0,0
0.045474048999949446,-0.3184288208007812,-9.533711010742186,1.3096283081054687,0,0,0,0
0.04677141100000881,-0.373495458984375,-9.643844287109374,1.3072341064453123,0,0,0,0
0.048231363000013516,-0.3399766357421875,-9.749189160156249,1.2713210815429687,0,0,0,0
0.04946181700006491,-0.30885201416015623,-9.782707983398437,1.2569558715820313,0,0,0,0
0.05071827200026746,-0.2705447875976562,-9.789890588378906,1.3575123413085937,0,0,0,0
0.05210790999990422,-0.2657563842773437,-9.629479077148437,1.3407529296874998,0,0,0,0
0.05365980600026887,-0.30406361083984373,-9.6151138671875,1.3670891479492187,0,0,0,0
0.05486692700014828,-0.354341845703125,-9.610325463867188,1.3287819213867187,0,0,0,0
0.05601530800004184,-0.4213794921875,-9.643844287109374,1.2425906616210938,0,0,0,0
0.0571188560002156,-0.40462008056640625,-9.730035546875,1.22583125,0,0,0,0
0.05821560699996553,-0.4285620971679687,-9.739612353515625,1.3072341064453123,0,0,0,0
0.05931682200025534,-0.411802685546875,-9.701305126953125,1.3144167114257812,0,0,0,0
0.06061957200017787,-0.20350714111328125,-9.730035546875,1.3072341064453123,0,0,0,0
0.06198547000030885,-0.2753331909179687,-9.706093530273437,1.3862427612304686,0,0,0,0
0.06331773800002338,-0.34237083740234375,-9.64623848876953,1.3479355346679687,0,0,0,0
0.06460917300000801,-0.4644751220703125,-9.658209497070311,1.2976572998046874,0,0,0,0
0.06590720100030012,-0.411802685546875,-9.744400756835937,1.24498486328125,0,0,0,0
0.06728306200011502,-0.33758243408203126,-9.698910925292969,1.3239935180664062,0,0,0,0
0.06862327499993626,-0.3016694091796875,-9.6151138671875,1.2976572998046874,0,0,0,0
0.06982802500033358,-0.23223756103515625,-9.562441430664062,1.3670891479492187,0,0,0,0
0.07104935000006662,-0.24899697265624998,-9.504980590820312,1.2880804931640624,0,0,0,0
0.07232591499996488,-0.26815058593749996,-9.698910925292969,1.3192051147460937,0,0,0,0
0.07368566500008455,-0.38307226562499996,-9.70369932861328,1.209071838378906,0,0,0,0
0.07498317399995358,-0.4070142822265625,-9.715670336914062,1.2832920898437499,0,0,0,0
0.07622514700005922,-0.42377369384765623,-9.727641345214844,1.3862427612304686,0,0,0,0
0.07763104400009979,-0.3495534423828125,-9.636661682128906,1.5059528442382812,0,0,0,0
0.07910107099996821,-0.2705447875976562,-9.5384994140625,1.3287819213867187,0,0,0,0
0.0805044500002623,-0.26815058593749996,-9.485826977539062,1.3263877197265623,0,0,0,0
0.08164344200031337,-0.2609679809570312,-9.562441430664062,1.350329736328125,0,0,0,0
0.08275517500032947,-0.27293898925781246,-9.639055883789062,1.3527239379882812,0,0,0,0
0.08400340700018205,-0.35673604736328124,-9.758765966796874,1.2761094848632812,0,0,0,0
0.08518284299998413,-0.29927520751953124,-9.847351428222655,1.235408056640625,0,0,0,0
0.08660351800017452,-0.33518823242187495,-9.785102185058593,1.24498486328125,0,0,0,0
0.08771838100028617,-0.316034619140625,-9.667786303710937,1.3431471313476562,0,0,0,0
0.08881026200015185,-0.35194764404296874,-9.629479077148437,1.2617442749023438,0,0,0,0
0.08990608700014491,-0.4165910888671875,-9.540893615722656,1.3120225097656248,0,0,0,0
0.09111774600023637,-0.4213794921875,-9.526528405761718,1.2425906616210938,0,0,0,0
0.09228949699991063,-0.5339069702148437,-9.696516723632811,1.2114660400390624,0,0,0,0
0.09339534099990487,-0.29927520751953124,-9.746794958496093,1.3144167114257812,0,0,0,0
0.09448973999997179,-0.2154781494140625,-9.694122521972655,1.3431471313476562,0,0,0,0
0.09559110300006068,-0.181959326171875,-9.634267480468749,1.3646949462890625,0,0,0,0
0.0968257980002818,-0.20350714111328125,-9.610325463867188,1.3120225097656248,0,0,0,0
0.09814240000014252,-0.30406361083984373,-9.679757312011718,1.3024457031249999,0,0,0,0
0.09940913099990212,-0.45010991210937495,-9.6917283203125,1.3455413330078123,0,0,0,0
0.10060073400018155,-0.5051765502929687,-9.686939916992188,1.2737152832031249,0,0,0,0
0.10172515200019916,-0.45968671875,-9.648632690429688,1.254561669921875,0,0,0,0
0.10282438500007629,-0.3591302490234375,-9.658209497070311,1.22583125,0,0,0,0
0.104053450000265,-0.2657563842773437,-9.619902270507811,1.3383587280273437,0,0,0,0
0.10520353500032797,-0.258573779296875,-9.636661682128906,1.4173673828125,0,0,0,0
0.1063056940001843,-0.22266075439453123,-9.636661682128906,1.3718775512695311,0,0,0,0
0.10740214899988132,-0.2753331909179687,-9.674968908691406,1.3263877197265623,0,0,0,0
0.1084926040002756,-0.3112462158203125,-9.701305126953125,1.3359645263671873,0,0,0,0
0.10958602300024722,-0.32561142578124996,-9.715670336914062,1.3383587280273437,0,0,0,0
0.11077671800012467,-0.30885201416015623,-9.689334118652344,1.2497732666015624,0,0,0,0
0.11193476500011457,-0.3591302490234375,-9.710881933593749,1.2497732666015624,0,0,0,0
0.11310703500021191,-0.4285620971679687,-9.794678991699218,1.2473790649414063,0,0,0,0
0.11425589700002092,-0.36391865234375,-9.605537060546874,1.216254443359375,0,0,0,0
0.1154269070002556,-0.27293898925781246,-9.631873278808593,1.2976572998046874,0,0,0,0
0.1165857880000658,-0.2059013427734375,-9.670180505371093,1.407790576171875,0,0,0,0
0.11768689100017582,-0.20350714111328125,-9.641450085449218,1.3455413330078123,0,0,0,0
0.11876445799998692,-0.2059013427734375,-9.634267480468749,1.3192051147460937,0,0,0,0
0.11986306100016009,-0.29927520751953124,-9.634267480468749,1.3718775512695311,0,0,0,0
0.12095397900020544,-0.39264907226562495,-9.744400756835937,1.235408056640625,0,0,0,0
0.12242637600002126,-0.4333505004882812,-9.734823950195311,1.3024457031249999,0,0,0,0
0.12363679400004912,-0.38786066894531246,-9.658209497070311,1.2808978881835937,0,0,0,0
0.12472902700028499,-0.296881005859375,-9.65342109375,1.3048399047851562,0,0,0,0
0.12581192600009672,-0.24181436767578124,-9.622296472167967,1.3670891479492187,0,0,0,0
0.1277038020002692,-0.34237083740234375,-9.588777648925781,1.2856862915039062,0,0,0,0
0.12908347700022205,-0.3758896606445312,-9.586383447265625,1.2952630981445312,0,0,0,0
0.13027504299998327,-0.42377369384765623,-9.746794958496093,1.2976572998046874,0,0,0,0
0.131398406000244,-0.27293898925781246,-9.74200655517578,1.2569558715820313,0,0,0,0
0.1324973979999413,-0.2920926025390625,-9.65342109375,1.2904746948242187,0,0,0,0
0.13367972300011388,-0.33518823242187495,-9.598354455566406,1.2880804931640624,0,0,0,0
0.13486406600031842,-0.38786066894531246,-9.605537060546874,1.2569558715820313,0,0,0,0
0.1359942620001675,-0.5219359619140624,-9.605537060546874,1.1731588134765625,0,0,0,0
0.13710554999988744,-0.45010991210937495,-9.686939916992188,1.254561669921875,0,0,0,0
0.13899057400021775,-0.3016694091796875,-9.763554370117188,1.3838485595703125,0,0,0,0
0.14022112100019513,-0.23223756103515625,-9.579200842285156,1.35990654296875,0,0,0,0
0.14136863100020491,-0.25139117431640623,-9.507374792480467,1.3024457031249999,0,0,0,0
0.14246273500020834,-0.36391865234375,-9.502586389160156,1.2808978881835937,0,0,0,0
0.1435993929999313,-0.4070142822265625,-9.662997900390625,1.218648645019531,0,0,0,0
0.14485305100015466,-0.3806780639648437,-9.734823950195311,1.2330138549804688,0,0,0,0
0.14608235700006844,-0.3950432739257812,-9.76116016845703,1.2761094848632812,0,0,0,0
0.14721238600031938,-0.34715924072265625,-9.677363110351562,1.3479355346679687,0,0,0,0
0.1494012040002417,-0.39264907226562495,-9.629479077148437,1.3335703247070312,0,0,0,0
0.15066643599993768,-0.43574470214843747,-9.514557397460937,1.2617442749023438,0,0,0,0
0.1518641130001015,-0.36391865234375,-9.562441430664062,1.2904746948242187,0,0,0,0
0.15301143800024875,-0.33518823242187495,-9.667786303710937,1.2761094848632812,0,0,0,0
0.15412939299994832,-0.24899697265624998,-9.708487731933593,1.3670891479492187,0,0,0,0
0.15525358900003994,-0.3016694091796875,-9.672574707031249,1.2234370483398436,0,0,0,0
0.15642409900010534,-0.28969840087890625,-9.679757312011718,1.2665326782226562,0,0,0,0
0.15927270900010626,-0.36152445068359373,-9.629479077148437,1.13006318359375,0,0,0,0
0.16197874499994214,-0.23702596435546874,-9.627084875488281,1.37906015625,0,0,0,0
0.1632755690002341,-0.2537853759765625,-9.622296472167967,1.3168109130859373,0,0,0,0
0.16447213500032376,-0.277727392578125,-9.651026892089844,1.2689268798828124,0,0,0,0
0.16560807099995145,-0.36631285400390623,-9.64623848876953,1.3527239379882812,0,0,0,0
0.16670135999993363,-0.27293898925781246,-9.708487731933593,1.2210428466796874,0,0,0,0
0.16783337000015308,-0.2920926025390625,-9.727641345214844,1.0749965454101562,0,0,0,0
0.16903730600006384,-0.29927520751953124,-9.655815295410155,1.3646949462890625,0,0,0,0
0.17018152099990402,-0.2561795776367187,-9.639055883789062,1.3383587280273437,0,0,0,0
0.17128192000018316,-0.22266075439453123,-9.576806640625,1.388636962890625,0,0,0,0
0.1727600210001583,-0.4285620971679687,-9.648632690429688,1.2401964599609374,0,0,0,0
0.17393688299989662,-0.3711012573242187,-9.689334118652344,1.3479355346679687,0,0,0,0
0.17515809699989404,-0.32082302246093747,-9.64623848876953,1.3766659545898436,0,0,0,0
0.17630934799990428,-0.2442085693359375,-9.64623848876953,1.3168109130859373,0,0,0,0
0.17741082100019412,-0.21308394775390624,-9.543287817382812,1.35990654296875,0,0,0,0
0.17850555399991208,-0.22026655273437498,-9.533711010742186,1.3311761230468748,0,0,0,0
0.1796101390000331,-0.354341845703125,-9.624690673828125,1.235408056640625,0,0,0,0
0.18080102000021725,-0.42377369384765623,-9.708487731933593,1.3311761230468748,0,0,0,0
0.1819451599999411,-0.4429273071289062,-9.758765966796874,1.2042834350585936,0,0,0,0
0.18307309600004373,-0.4477157104492187,-9.655815295410155,1.2856862915039062,0,0,0,0
0.1841815329999008,-0.40222587890625,-9.64623848876953,1.4053963745117186,0,0,0,0
0.18622279600003822,-0.21787235107421873,-9.495403784179686,1.369483349609375,0,0,0,0
0.1874708059999648,-0.258573779296875,-9.595960253906249,1.2952630981445312,0,0,0,0
0.18860640899993086,-0.3854664672851562,-9.660603698730467,1.2282254516601563,0,0,0,0
0.18973438200009696,-0.36152445068359373,-9.715670336914062,1.3670891479492187,0,0,0,0
0.19092150400001628,-0.36631285400390623,-9.739612353515625,1.3168109130859373,0,0,0,0
0.1920779400002175,-0.33039982910156246,-9.706093530273437,1.350329736328125,0,0,0,0
0.19318137700020088,-0.296881005859375,-9.576806640625,1.37906015625,0,0,0,0
0.1942777950002892,-0.3447650390625,-9.540893615722656,1.3359645263671873,0,0,0,0
0.1953726199999437,-0.4070142822265625,-9.593566052246093,1.2952630981445312,0,0,0,0
0.19645322399992438,-0.3591302490234375,-9.624690673828125,1.2904746948242187,0,0,0,0
0.19760343799998736,-0.2825157958984375,-9.720458740234374,1.2832920898437499,0,0,0,0
0.19875409699989177,-0.3136404174804687,-9.658209497070311,1.2928688964843749,0,0,0,0
0.19986718100017242,-0.2537853759765625,-9.651026892089844,1.2952630981445312,0,0,0,0
0.20096948800028258,-0.23223756103515625,-9.639055883789062,1.3455413330078123,0,0,0,0
0.20272373500029062,-0.33518823242187495,-9.706093530273437,1.3742717529296875,0,0,0,0
0.20456151899998076,-0.4285620971679687,-9.74200655517578,1.3383587280273437,0,0,0,0
0.20693509400007315,-0.39264907226562495,-9.792284790039062,1.2713210815429687,0,0,0,0
0.20940557700032514,-0.2705447875976562,-9.507374792480467,1.24498486328125,0,0,0,0
0.21165687600023375,-0.3327940307617187,-9.686939916992188,1.2641384765625,0,0,0,0
0.21290810800019244,-0.40222587890625,-9.725247143554688,1.3192051147460937,0,0,0,0
0.21412458100030562,-0.277727392578125,-9.749189160156249,1.2904746948242187,0,0,0,0
0.2153293310002482,-0.3280056274414062,-9.706093530273437,1.3120225097656248,0,0,0,0
0.21651202700013528,-0.3687070556640625,-9.672574707031249,1.3000515014648437,0,0,0,0
0.21775818500009336,-0.430956298828125,-9.622296472167967,1.3024457031249999,0,0,0,0
0.21891828700017868,-0.4525041137695312,-9.593566052246093,1.2378022583007813,0,0,0,0
0.22004035400004796,-0.44532150878906246,-9.536105212402344,1.369483349609375,0,0,0,0
0.22197054400021443,-0.3280056274414062,-9.662997900390625,1.2473790649414063,0,0,0,0
0.22443150800017975,-0.2442085693359375,-9.56962403564453,1.216254443359375,0,0,0,0
0.22562164800001483,-0.35194764404296874,-9.562441430664062,1.2952630981445312,0,0,0,0
0.22671636199993372,-0.40222587890625,-9.622296472167967,1.369483349609375,0,0,0,0
0.2279229830000986,-0.430956298828125,-9.737218151855469,1.2832920898437499,0,0,0,0
0.2292897880001874,-0.565031591796875,-9.76116016845703,1.2880804931640624,0,0,0,0
0.23051637200023833,-0.40940848388671874,-9.744400756835937,1.2521674682617188,0,0,0,0
0.23186712200003967,-0.34715924072265625,-9.610325463867188,1.2785036865234374,0,0,0,0
0.23296387300024435,-0.3327940307617187,-9.634267480468749,1.3766659545898436,0,0,0,0
0.2340606249999837,-0.3280056274414062,-9.581595043945311,1.235408056640625,0,0,0,0
0.23524298700021973,-0.373495458984375,-9.651026892089844,1.177947216796875,0,0,0,0
0.2367235320002692,-0.3064578125,-9.708487731933593,1.35990654296875,0,0,0,0
0.2381382440003108,-0.2705447875976562,-9.749189160156249,1.2497732666015624,0,0,0,0
0.23935716200003299,-0.30885201416015623,-9.718064538574218,1.3120225097656248,0,0,0,0
0.2405295980001938,-0.37828386230468747,-9.658209497070311,1.2785036865234374,0,0,0,0
0.24176079300013953,-0.4429273071289062,-9.641450085449218,1.3383587280273437,0,0,0,0
0.24287606300003972,-0.39743747558593745,-9.639055883789062,1.2401964599609374,0,0,0,0
0.24396816600028615,-0.34715924072265625,-9.514557397460937,1.3287819213867187,0,0,0,0
0.24528012000018862,-0.2154781494140625,-9.677363110351562,1.3024457031249999,0,0,0,0
0.24647659299989755,-0.28969840087890625,-9.737218151855469,1.3192051147460937,0,0,0,0
0.2478026389999286,-0.2657563842773437,-9.627084875488281,1.2617442749023438,0,0,0,0
0.2493470360000174,-0.3232172241210937,-9.581595043945311,1.2210428466796874,0,0,0,0
0.2506211190002432,-0.4261678955078125,-9.526528405761718,1.2713210815429687,0,0,0,0
0.2523365699998976,-0.45010991210937495,-9.672574707031249,1.2856862915039062,0,0,0,0
0.2535895060000257,-0.44532150878906246,-9.694122521972655,1.3431471313476562,0,0,0,0
0.2546926270001677,-0.373495458984375,-9.651026892089844,1.2785036865234374,0,0,0,0
0.2557858790000864,-0.26336218261718747,-9.756371765136718,1.2904746948242187,0,0,0,0
0.25828438000007736,-0.2825157958984375,-9.591171850585937,1.3192051147460937,0,0,0,0
0.2593995570000516,-0.28730419921875,-9.576806640625,1.2904746948242187,0,0,0,0
0.2605048270002044,-0.2657563842773437,-9.674968908691406,1.3359645263671873,0,0,0,0
0.26158711600010065,-0.36631285400390623,-9.904812268066406,1.2401964599609374,0,0,0,0
0.2634183440000015,-0.39264907226562495,-9.739612353515625,1.3263877197265623,0,0,0,0
0.2645643910000217,-0.40222587890625,-9.674968908691406,1.3144167114257812,0,0,0,0
0.2656479760003094,-0.36631285400390623,-9.64623848876953,1.3096283081054687,0,0,0,0
0.2667320049999944,-0.24660277099609373,-9.605537060546874,1.3479355346679687,0,0,0,0
0.26991566800006694,-0.3112462158203125,-9.706093530273437,1.2473790649414063,0,0,0,0
0.2714009169999372,-0.3327940307617187,-9.701305126953125,1.254561669921875,0,0,0,0
0.2726629819999289,-0.373495458984375,-9.6917283203125,1.2378022583007813,0,0,0,0
0.27379628900007447,-0.37828386230468747,-9.746794958496093,1.3168109130859373,0,0,0,0
0.2750241880003159,-0.3758896606445312,-9.660603698730467,1.2856862915039062,0,0,0,0
0.2763151230001313,-0.36152445068359373,-9.64623848876953,1.3575123413085937,0,0,0,0
0.2774133930001881,-0.3591302490234375,-9.674968908691406,1.369483349609375,0,0,0,0
0.27850105200013786,-0.33039982910156246,-9.658209497070311,1.3168109130859373,0,0,0,0
0.2795996740001101,-0.39264907226562495,-9.622296472167967,1.3263877197265623,0,0,0,0
0.2807971649999672,-0.38786066894531246,-9.548076220703125,1.3096283081054687,0,0,0,0
0.2820393420001892,-0.30406361083984373,-9.667786303710937,1.2952630981445312,0,0,0,0
0.2831452600003104,-0.30885201416015623,-9.658209497070311,1.2617442749023438,0,0,0,0
0.28424067800006014,-0.296881005859375,-9.679757312011718,1.2425906616210938,0,0,0,0
0.28541904000030627,-0.3112462158203125,-9.734823950195311,1.3263877197265623,0,0,0,0
0.2866555129999142,-0.33518823242187495,-9.797073193359374,1.3862427612304686,0,0,0,0
0.2877684310001314,-0.3136404174804687,-9.773131176757811,1.2497732666015624,0,0,0,0
0.2888597569999547,-0.29927520751953124,-9.667786303710937,1.3551181396484375,0,0,0,0
0.2899524160002329,-0.38786066894531246,-9.548076220703125,1.2808978881835937,0,0,0,0
0.2911577770000804,-0.4381389038085937,-9.545682019042967,1.2497732666015624,0,0,0,0
0.29244989800008625,-0.411802685546875,-9.627084875488281,1.2952630981445312,0,0,0,0
0.2935494270000163,-0.3327940307617187,-9.689334118652344,1.2689268798828124,0,0,0,0
0.294639067999924,-0.25139117431640623,-9.667786303710937,1.3479355346679687,0,0,0,0
0.2957307080000646,-0.1388636962890625,-9.694122521972655,1.3838485595703125,0,0,0,0
0.2969207000001006,-0.239420166015625,-9.708487731933593,1.3120225097656248,0,0,0,0
0.2982128570001805,-0.30885201416015623,-9.677363110351562,1.2832920898437499,0,0,0,0
0.2994036820000474,-0.3854664672851562,-9.679757312011718,1.3239935180664062,0,0,0,0
0.3005048220002209,-0.46208092041015625,-9.672574707031249,1.2976572998046874,0,0,0,0
0.301603704000172,-0.46686932373046874,-9.655815295410155,1.3263877197265623,0,0,0,0
0.3027983619999759,-0.36152445068359373,-9.665392102050781,1.3646949462890625,0,0,0,0
0.30410801900006845,-0.3064578125,-9.586383447265625,1.35990654296875,0,0,0,0
0.30520797400004085,-0.43574470214843747,-9.679757312011718,1.35990654296875,0,0,0,0
0.30630426300012914,-0.316034619140625,-9.610325463867188,1.369483349609375,0,0,0,0
0.30748486600032265,-0.3280056274414062,-9.648632690429688,1.3192051147460937,0,0,0,0
0.30874370900028225,-0.33518823242187495,-9.667786303710937,1.3287819213867187,0,0,0,0
0.30983086800006276,-0.3711012573242187,-9.737218151855469,1.2521674682617188,0,0,0,0
0.31096445200000744,-0.36391865234375,-9.890447058105469,1.218648645019531,0,0,0,0
0.31217642499996145,-0.35673604736328124,-9.679757312011718,1.3215993164062498,0,0,0,0
0.31351528599998346,-0.33758243408203126,-9.631873278808593,1.3455413330078123,0,0,0,0
0.3146387599999798,-0.32561142578124996,-9.6151138671875,1.2665326782226562,0,0,0,0
0.31573880800033294,-0.3495534423828125,-9.567229833984374,1.2665326782226562,0,0,0,0
0.31684585499988316,-0.3399766357421875,-9.555258825683593,1.2976572998046874,0,0,0,0
0.31793836599990755,-0.3232172241210937,-9.634267480468749,1.2856862915039062,0,0,0,0
0.319155432000116,-0.4381389038085937,-9.734823950195311,1.2401964599609374,0,0,0,0
0.3221653180003159,-0.24181436767578124,-9.672574707031249,1.3742717529296875,0,0,0,0
0.323912398000175,-0.35673604736328124,-9.782707983398437,1.2593500732421874,0,0,0,0
0.32562262700002975,-0.3854664672851562,-9.617508068847656,1.3814543579101561,0,0,0,0
0.32726541100009854,-0.40940848388671874,-9.619902270507811,1.3383587280273437,0,0,0,0
0.32848527300029673,-0.3711012573242187,-9.672574707031249,1.1875240234375,0,0,0,0
0.33181410099996356,-0.19632453613281248,-9.694122521972655,1.3383587280273437,0,0,0,0
0.33312098100032017,-0.16519991455078123,-9.6151138671875,1.3407529296874998,0,0,0,0
0.3344530270001087,-0.3687070556640625,-9.651026892089844,1.3168109130859373,0,0,0,0
0.3357426480001777,-0.4644751220703125,-9.701305126953125,1.2641384765625,0,0,0,0
0.3370626569999331,-0.4429273071289062,-9.756371765136718,1.3000515014648437,0,0,0,0
0.3384036659999765,-0.35194764404296874,-9.655815295410155,1.2282254516601563,0,0,0,0
0.33973236000019824,-0.32561142578124996,-9.6151138671875,1.3383587280273437,0,0,0,0
0.34099474000004193,-0.25139117431640623,-9.550470422363281,1.4030021728515625,0,0,0,0
0.3422389170000315,-0.2705447875976562,-9.557653027343749,1.35990654296875,0,0,0,0
0.3435332960002597,-0.28012159423828126,-9.651026892089844,1.2880804931640624,0,0,0,0
0.3448479349999616,-0.3447650390625,-9.749189160156249,1.2282254516601563,0,0,0,0
0.34606598200025473,-0.3447650390625,-9.756371765136718,1.2473790649414063,0,0,0,0
0.3472946960000627,-0.42377369384765623,-9.70369932861328,1.2689268798828124,0,0,0,0
0.3485318719999668,-0.30406361083984373,-9.64623848876953,1.2952630981445312,0,0,0,0
0.349923936000323,-0.2753331909179687,-9.528922607421874,1.254561669921875,0,0,0,0
0.35124685300024794,-0.2825157958984375,-9.473855969238281,1.2306196533203124,0,0,0,0
0.35243825199995626,-0.30406361083984373,-9.572018237304688,1.2521674682617188,0,0,0,0
0.35361517000001186,-0.33518823242187495,-9.6917283203125,1.2617442749023438,0,0,0,0
0.3547938649999196,-0.296881005859375,-9.746794958496093,1.2497732666015624,0,0,0,0
0.3560886710001796,-0.3136404174804687,-9.74200655517578,1.2761094848632812,0,0,0,0
0.3573221990000093,-0.39743747558593745,-9.641450085449218,1.2713210815429687,0,0,0,0
0.3585061349999705,-0.37828386230468747,-9.550470422363281,1.2952630981445312,0,0,0,0
0.3596895159998894,-0.36631285400390623,-9.557653027343749,1.254561669921875,0,0,0,0
0.3608684890000404,-0.3495534423828125,-9.631873278808593,1.3192051147460937,0,0,0,0
0.3621604610002578,-0.3232172241210937,-9.718064538574218,1.3239935180664062,0,0,0,0
0.36339932300006694,-0.2920926025390625,-9.672574707031249,1.24498486328125,0,0,0,0
0.36458422200030327,-0.26815058593749996,-9.701305126953125,1.2641384765625,0,0,0,0
0.365762695000285,-0.19393033447265623,-9.670180505371093,1.3431471313476562,0,0,0,0
0.3669408350001504,-0.258573779296875,-9.600748657226562,1.3431471313476562,0,0,0,0
0.3682301409999127,-0.38307226562499996,-9.6151138671875,1.3407529296874998,0,0,0,0
0.3694620760002181,-0.35194764404296874,-9.696516723632811,1.2976572998046874,0,0,0,0
0.3706554010000218,-0.3399766357421875,-9.706093530273437,1.2018892333984375,0,0,0,0
0.37185861500029205,-0.3711012573242187,-9.643844287109374,1.2665326782226562,0,0,0,0
0.3732389760002661,-0.33758243408203126,-9.720458740234374,1.2641384765625,0,0,0,0
0.37458655899990845,-0.3136404174804687,-9.627084875488281,1.3000515014648437,0,0,0,0
0.37583769799994116,-0.26336218261718747,-9.572018237304688,1.39821376953125,0,0,0,0
0.37702391199991325,-0.24181436767578124,-9.598354455566406,1.3551181396484375,0,0,0,0
0.3782827919999363,-0.28490999755859375,-9.68454571533203,1.2378022583007813,0,0,0,0
0.3796235049999268,-0.2705447875976562,-9.739612353515625,1.235408056640625,0,0,0,0
0.380854422000084,-0.28490999755859375,-9.7683427734375,1.2785036865234374,0,0,0,0
0.38203515400027754,-0.36152445068359373,-9.689334118652344,1.2401964599609374,0,0,0,0
0.38322473800008083,-0.43574470214843747,-9.68454571533203,1.2665326782226562,0,0,0,0
0.3845004519998838,-0.3854664672851562,-9.619902270507811,1.3096283081054687,0,0,0,0
0.38576072000023487,-0.2825157958984375,-9.560047229003906,1.2521674682617188,0,0,0,0
0.3869468230000166,-0.2609679809570312,-9.581595043945311,1.2785036865234374,0,0,0,0
0.3883647950001432,-0.2346317626953125,-9.655815295410155,1.2665326782226562,0,0,0,0
0.38975861800008715,-0.22026655273437498,-9.734823950195311,1.2282254516601563,0,0,0,0
0.39103881300025023,-0.33039982910156246,-9.686939916992188,1.199495031738281,0,0,0,0
0.39223704500000167,-0.354341845703125,-9.68454571533203,1.235408056640625,0,0,0,0
0.39348068400022385,-0.39743747558593745,-9.648632690429688,1.3215993164062498,0,0,0,0
0.39492848899999444,-0.43574470214843747,-9.595960253906249,1.2952630981445312,0,0,0,0
0.3962778130003244,-0.40462008056640625,-9.6151138671875,1.3479355346679687,0,0,0,0
0.39748389700025655,-0.3711012573242187,-9.639055883789062,1.2282254516601563,0,0,0,0
0.39868079600000783,-0.28730419921875,-9.725247143554688,1.1755530151367186,0,0,0,0
0.3998580470001798,-0.23702596435546874,-9.662997900390625,1.3048399047851562,0,0,0,0
0.40102705700019214,-0.22266075439453123,-9.60793126220703,1.254561669921875,0,0,0,0
0.4023074000001543,-0.2920926025390625,-9.658209497070311,1.2856862915039062,0,0,0,0
0.40354705800018564,-0.33518823242187495,-9.667786303710937,1.3527239379882812,0,0,0,0
0.40493367799990665,-0.3806780639648437,-9.751583361816406,1.3359645263671873,0,0,0,0
0.4062564280002334,-0.3447650390625,-9.70369932861328,1.254561669921875,0,0,0,0
0.40755638100017677,-0.35673604736328124,-9.674968908691406,1.24498486328125,0,0,0,0
0.40924879500016687,-0.316034619140625,-9.605537060546874,1.2330138549804688,0,0,0,0
0.4105650270003025,-0.32561142578124996,-9.60793126220703,1.3287819213867187,0,0,0,0
0.4148044970002047,-0.34237083740234375,-9.677363110351562,1.2114660400390624,0,0,0,0
0.4160591550003119,-0.3806780639648437,-9.753977563476562,1.2521674682617188,0,0,0,0
0.4172639789999266,-0.3399766357421875,-9.725247143554688,1.2425906616210938,0,0,0,0
0.4184455640001943,-0.3064578125,-9.677363110351562,1.2497732666015624,0,0,0,0
0.41960753700004716,-0.3280056274414062,-9.564835632324218,1.3527239379882812,0,0,0,0
0.4207901770000717,-0.3327940307617187,-9.548076220703125,1.3072341064453123,0,0,0,0
0.4219224280000162,-0.354341845703125,-9.5384994140625,1.4149731811523436,0,0,0,0
0.4231573820002268,-0.3112462158203125,-9.686939916992188,1.2497732666015624,0,0,0,0
0.4243292810001549,-0.30885201416015623,-9.765948571777344,1.2018892333984375,0,0,0,0
0.4254480700001295,-0.22266075439453123,-9.737218151855469,1.3120225097656248,0,0,0,0
0.4266504500001247,-0.2442085693359375,-9.677363110351562,1.2904746948242187,0,0,0,0
0.4278679970002486,-0.29927520751953124,-9.509768994140625,1.2665326782226562,0,0,0,0
0.4289977110001928,-0.3495534423828125,-9.560047229003906,1.2018892333984375,0,0,0,0
0.43020249900018825,-0.46686932373046874,-9.53131680908203,1.218648645019531,0,0,0,0
0.4313768980000532,-0.469263525390625,-9.586383447265625,1.2042834350585936,0,0,0,0
0.4326306670000122,-0.45968671875,-9.672574707031249,1.139639990234375,0,0,0,0
0.4338023069999508,-0.4261678955078125,-9.725247143554688,1.2593500732421874,0,0,0,0
0.43493302100023357,-0.24181436767578124,-9.70369932861328,1.2713210815429687,0,0,0,0
0.43603701400024875,-0.1388636962890625,-9.679757312011718,1.3096283081054687,0,0,0,0
0.4371412089999467,-0.086191259765625,-9.658209497070311,1.3239935180664062,0,0,0,0
0.4383404600002905,-0.3327940307617187,-9.648632690429688,1.3024457031249999,0,0,0,0
0.43955341500031864,-0.40462008056640625,-9.651026892089844,1.3718775512695311,0,0,0,0
0.4406749810000292,-0.4213794921875,-9.708487731933593,1.2378022583007813,0,0,0,0
0.44177462100014964,-0.5147533569335937,-9.715670336914062,1.2306196533203124,0,0,0,0
0.4428710760003014,-0.48123453369140623,-9.775525378417969,1.3263877197265623,0,0,0,0
0.4439727720000519,-0.3591302490234375,-9.634267480468749,1.2737152832031249,0,0,0,0
0.445162689999961,-0.3399766357421875,-9.655815295410155,1.2689268798828124,0,0,0,0
0.44636551500025234,-0.18914193115234373,-9.622296472167967,1.2282254516601563,0,0,0,0
0.44785694900019735,-0.2561795776367187,-9.572018237304688,1.4101847778320311,0,0,0,0
0.44897281100020336,-0.2537853759765625,-9.60793126220703,1.369483349609375,0,0,0,0
0.4500718960002814,-0.4572925170898437,-9.686939916992188,1.2521674682617188,0,0,0,0
0.45126983199997994,-0.4908113403320312,-9.777919580078125,1.2880804931640624,0,0,0,0
0.4525788599999032,-0.4644751220703125,-9.775525378417969,1.2521674682617188,0,0,0,0
0.45385577700017166,-0.40940848388671874,-9.655815295410155,1.2952630981445312,0,0,0,0
0.4551874339999813,-0.19153613281249998,-9.579200842285156,1.3527239379882812,0,0,0,0
0.456498609999926,-0.1867477294921875,-9.548076220703125,1.3479355346679687,0,0,0,0
0.45790580399989267,-0.2657563842773437,-9.667786303710937,1.2521674682617188,0,0,0,0
0.45935071900021285,-0.4070142822265625,-9.686939916992188,1.2952630981445312,0,0,0,0
0.46074732100032634,-0.36631285400390623,-9.643844287109374,1.3168109130859373,0,0,0,0
0.46197834900021917,-0.34715924072265625,-9.744400756835937,1.2761094848632812,0,0,0,0
0.4631336000002193,-0.3184288208007812,-9.677363110351562,1.2401964599609374,0,0,0,0
0.46437870199997633,-0.28730419921875,-9.617508068847656,1.350329736328125,0,0,0,0
0.4656474530002015,-0.316034619140625,-9.639055883789062,1.3263877197265623,0,0,0,0
0.4669065729999602,-0.33039982910156246,-9.655815295410155,1.3000515014648437,0,0,0,0
0.4684557290001976,-0.3399766357421875,-9.65342109375,1.3335703247070312,0,0,0,0
0.4697633119999409,-0.277727392578125,-9.557653027343749,1.1875240234375,0,0,0,0
0.47106969200012827,-0.16519991455078123,-9.677363110351562,1.2569558715820313,0,0,0,0
0.4725371819999964,-0.3399766357421875,-9.612719665527344,1.3168109130859373,0,0,0,0
0.4738039320000098,-0.40940848388671874,-9.648632690429688,1.3359645263671873,0,0,0,0
0.4750600709999162,-0.5889736083984375,-9.698910925292969,1.2928688964843749,0,0,0,0
0.47648202400023365,-0.4261678955078125,-9.744400756835937,1.3287819213867187,0,0,0,0
0.47777094100001705,-0.3280056274414062,-9.78031378173828,1.3551181396484375,0,0,0,0
0.4789243400000487,-0.2537853759765625,-9.660603698730467,1.3359645263671873,0,0,0,0
0.4800129250002101,-0.201112939453125,-9.543287817382812,1.3623007446289062,0,0,0,0
0.48109512100018037,-0.28969840087890625,-9.495403784179686,1.199495031738281,0,0,0,0
0.4823139650002304,-0.3327940307617187,-9.528922607421874,1.1659762084960936,0,0,0,0
0.48365991800028496,-0.39743747558593745,-9.619902270507811,1.1037269653320312,0,0,0,0
0.4847657620002792,-0.5003881469726562,-9.662997900390625,1.2497732666015624,0,0,0,0
0.48585614300009183,-0.5051765502929687,-9.758765966796874,1.2665326782226562,0,0,0,0
0.48722052299990537,-0.2825157958984375,-9.777919580078125,1.2880804931640624,0,0,0,0
0.48844894000012573,-0.26336218261718747,-9.770736975097655,1.2761094848632812,0,0,0,0
0.4897512820002703,-0.28969840087890625,-9.677363110351562,1.4221557861328125,0,0,0,0
0.4908565340001587,-0.24660277099609373,-9.557653027343749,1.3239935180664062,0,0,0,0
0.49196839600017483,-0.28730419921875,-9.5384994140625,1.2665326782226562,0,0,0,0
0.4931938879999507,-0.39743747558593745,-9.586383447265625,1.2473790649414063,0,0,0,0
0.4944907490003061,-0.3687070556640625,-9.6151138671875,1.180341418457031,0,0,0,0
0.4957415359999686,-0.4285620971679687,-9.641450085449218,1.2952630981445312,0,0,0,0
0.49698236099993665,-0.39743747558593745,-9.734823950195311,1.3359645263671873,0,0,0,0
0.498381370000061,-0.2346317626953125,-9.677363110351562,1.3455413330078123,0,0,0,0
0.4998885810000502,-0.16998831787109375,-9.651026892089844,1.3335703247070312,0,0,0,0
0.5012101269999221,-0.239420166015625,-9.598354455566406,1.22583125,0,0,0,0
0.5025211000001946,-0.28490999755859375,-9.581595043945311,1.1156979736328125,0,0,0,0
0.5037753130000056,-0.38307226562499996,-9.579200842285156,1.2114660400390624,0,0,0,0
0.5051441180003167,-0.40462008056640625,-9.622296472167967,1.2138602416992186,0,0,0,0
0.5067728290000559,-0.35194764404296874,-9.583989245605467,1.3311761230468748,0,0,0,0
0.5079670800000713,-0.316034619140625,-9.627084875488281,1.3383587280273437,0,0,0,0
0.5091231830001561,-0.19393033447265623,-9.70369932861328,1.37906015625,0,0,0,0
0.5102252490000865,-0.28012159423828126,-9.727641345214844,1.369483349609375,0,0,0,0
0.5114297770001031,-0.34237083740234375,-9.672574707031249,1.3000515014648437,0,0,0,0
0.5127929160003077,-0.36391865234375,-9.603142858886718,1.3575123413085937,0,0,0,0
0.5138966489998893,-0.411802685546875,-9.660603698730467,1.2976572998046874,0,0,0,0
0.5149898449999455,-0.47644613037109373,-9.64623848876953,1.2593500732421874,0,0,0,0
0.5161772250003196,-0.3758896606445312,-9.622296472167967,1.24498486328125,0,0,0,0
0.5176538079999773,-0.3447650390625,-9.619902270507811,1.2713210815429687,0,0,0,0
0.5187910960003137,-0.30885201416015623,-9.598354455566406,1.2282254516601563,0,0,0,0
0.5198920329999055,-0.277727392578125,-9.732429748535155,1.254561669921875,0,0,0,0
0.5210704690002785,-0.24181436767578124,-9.749189160156249,1.350329736328125,0,0,0,0
0.5223581820000618,-0.25139117431640623,-9.739612353515625,1.3670891479492187,0,0,0,0
0.523491599999943,-0.36152445068359373,-9.660603698730467,1.3215993164062498,0,0,0,0
0.5245820730001469,-0.38307226562499996,-9.545682019042967,1.2928688964843749,0,0,0,0
0.5256676210001388,-0.4429273071289062,-9.595960253906249,1.2282254516601563,0,0,0,0
0.526758484000311,-0.3902548706054687,-9.627084875488281,1.2665326782226562,0,0,0,0
0.5279709380001805,-0.38786066894531246,-9.543287817382812,1.3096283081054687,0,0,0,0
0.5292184300001281,-0.2657563842773437,-9.648632690429688,1.2976572998046874,0,0,0,0
0.5303173480001533,-0.26336218261718747,-9.696516723632811,1.2617442749023438,0,0,0,0
0.5314121549999982,-0.2537853759765625,-9.706093530273437,1.2018892333984375,0,0,0,0
0.5325079620001816,-0.35673604736328124,-9.70369932861328,1.218648645019531,0,0,0,0
0.5336901939999734,-0.3854664672851562,-9.708487731933593,1.2832920898437499,0,0,0,0
0.5349872410001808,-0.3495534423828125,-9.648632690429688,1.3455413330078123,0,0,0,0
0.5360961589999533,-0.18914193115234373,-9.682151513671874,1.2976572998046874,0,0,0,0
0.5371893179999461,-0.3591302490234375,-9.60793126220703,1.3024457031249999,0,0,0,0
0.5383680869999807,-0.40222587890625,-9.603142858886718,1.199495031738281,0,0,0,0
0.5397067070002777,-0.4429273071289062,-9.593566052246093,1.2042834350585936,0,0,0,0
0.5408236630000829,-0.36152445068359373,-9.521740002441407,1.1707646118164061,0,0,0,0
0.5419140620001599,-0.2537853759765625,-9.674968908691406,1.2473790649414063,0,0,0,0
0.543123942999955,-0.1867477294921875,-9.660603698730467,1.2521674682617188,0,0,0,0
0.5445652100002008,-0.3016694091796875,-9.512163195800781,1.235408056640625,0,0,0,0
0.5470367670000087,-0.4333505004882812,-9.773131176757811,1.2737152832031249,0,0,0,0
0.5483620909999445,-0.430956298828125,-9.730035546875,1.3311761230468748,0,0,0,0
0.5498001179998937,-0.36391865234375,-9.502586389160156,1.2569558715820313,0,0,0,0
0.55108472000029,-0.411802685546875,-9.548076220703125,1.2138602416992186,0,0,0,0
0.5522792300002948,-0.30885201416015623,-9.591171850585937,1.2497732666015624,0,0,0,0
0.553405111000302,-0.2920926025390625,-9.732429748535155,1.3096283081054687,0,0,0,0
0.5544986959998823,-0.2753331909179687,-9.698910925292969,1.3072341064453123,0,0,0,0
0.5555977990002248,-0.1867477294921875,-9.730035546875,1.2737152832031249,0,0,0,0
0.5567706980000366,-0.18914193115234373,-9.670180505371093,1.2785036865234374,0,0,0,0
0.5579442819998803,-0.21308394775390624,-9.662997900390625,1.2737152832031249,0,0,0,0
0.5590739600002053,-0.45010991210937495,-9.610325463867188,1.2569558715820313,0,0,0,0
0.5601597479999327,-0.5051765502929687,-9.588777648925781,1.1372457885742187,0,0,0,0
0.5613139249999222,-0.4860229370117187,-9.572018237304688,1.254561669921875,0,0,0,0
0.5624580280000373,-0.4285620971679687,-9.629479077148437,1.2378022583007813,0,0,0,0
0.5635604090002744,-0.3280056274414062,-9.579200842285156,1.3024457031249999,0,0,0,0
0.56464695700015,-0.29448680419921874,-9.634267480468749,1.3168109130859373,0,0,0,0
0.5665422960000797,-0.201112939453125,-9.581595043945311,1.2593500732421874,0,0,0,0
0.5676808250000249,-0.25139117431640623,-9.574412438964844,1.2808978881835937,0,0,0,0
0.5689015380003184,-0.3711012573242187,-9.672574707031249,1.2617442749023438,0,0,0,0
0.5700863080001,-0.5243301635742187,-9.710881933593749,1.2593500732421874,0,0,0,0
0.5712767810000514,-0.4381389038085937,-9.672574707031249,1.22583125,0,0,0,0
0.572539364000022,-0.33039982910156246,-9.679757312011718,1.3718775512695311,0,0,0,0
0.5737920040000972,-0.28969840087890625,-9.744400756835937,1.3910311645507811,0,0,0,0
0.5749770510001326,-0.2346317626953125,-9.555258825683593,1.3407529296874998,0,0,0,0
0.5761567829999876,-0.2537853759765625,-9.574412438964844,1.3096283081054687,0,0,0,0
0.5774028490000092,-0.3495534423828125,-9.598354455566406,1.2689268798828124,0,0,0,0
0.5786451550002312,-0.3711012573242187,-9.674968908691406,1.197100830078125,0,0,0,0
0.5802769580000131,-0.5051765502929687,-9.689334118652344,1.20667763671875,0,0,0,0
0.581577782000295,-0.39264907226562495,-9.756371765136718,1.0917559570312498,0,0,0,0
0.5828633290002472,-0.30406361083984373,-9.677363110351562,1.2713210815429687,0,0,0,0
0.5847078710003188,-0.24181436767578124,-9.7683427734375,1.3431471313476562,0,0,0,0
0.58603076899999,-0.28490999755859375,-9.56962403564453,1.2569558715820313,0,0,0,0
0.587367297000128,-0.3327940307617187,-9.56962403564453,1.2306196533203124,0,0,0,0
0.5888772120001704,-0.41898529052734373,-9.622296472167967,1.2234370483398436,0,0,0,0
0.5903033499998855,-0.44532150878906246,-9.674968908691406,1.254561669921875,0,0,0,0
0.5929221649998908,-0.36631285400390623,-9.715670336914062,1.3862427612304686,0,0,0,0
0.5946263939999881,-0.2537853759765625,-9.65342109375,1.3455413330078123,0,0,0,0
0.5960354759999973,-0.22266075439453123,-9.519345800781249,1.2904746948242187,0,0,0,0
0.5976678170000014,-0.4285620971679687,-9.543287817382812,1.1444283935546875,0,0,0,0
0.5989360110002053,-0.6105214233398437,-9.648632690429688,1.209071838378906,0,0,0,0
0.6002202620002208,-0.3806780639648437,-9.732429748535155,1.20667763671875,0,0,0,0
0.6015068639999299,-0.24899697265624998,-9.677363110351562,1.3287819213867187,0,0,0,0
0.6027713359999325,-0.13646949462890623,-9.6917283203125,1.2737152832031249,0,0,0,0
0.6041102160002083,-0.2537853759765625,-9.655815295410155,1.2976572998046874,0,0,0,0
0.605392983999991,-0.3184288208007812,-9.658209497070311,1.2952630981445312,0,0,0,0
0.6065781430002062,-0.4333505004882812,-9.583989245605467,1.369483349609375,0,0,0,0
0.6077621899999031,-0.4955997436523437,-9.550470422363281,1.2521674682617188,0,0,0,0
0.6089440519999698,-0.5674257934570313,-9.821015209960937,1.1827356201171875,0,0,0,0
0.6102266540001438,-0.316034619140625,-9.744400756835937,1.1923124267578125,0,0,0,0
0.6115532190001431,-0.19393033447265623,-9.619902270507811,1.3239935180664062,0,0,0,0
0.6127424690002954,-0.2154781494140625,-9.562441430664062,1.3359645263671873,0,0,0,0
0.6139182199999595,-0.20829554443359374,-9.619902270507811,1.3024457031249999,0,0,0,0
0.6151259900002515,-0.29448680419921874,-9.694122521972655,1.2641384765625,0,0,0,0
0.6163764070001889,-0.3495534423828125,-9.758765966796874,1.3766659545898436,0,0,0,0
0.618531503000213,-0.4333505004882812,-9.72285294189453,1.2928688964843749,0,0,0,0
0.6212578170002416,-0.35194764404296874,-9.56962403564453,1.254561669921875,0,0,0,0
0.6236758919999374,-0.2657563842773437,-9.634267480468749,1.2689268798828124,0,0,0,0
0.6258992100001706,-0.35194764404296874,-9.797073193359374,1.3862427612304686,0,0,0,0
0.6279942320002192,-0.3399766357421875,-9.7683427734375,1.2904746948242187,0,0,0,0
0.629624258000149,-0.3711012573242187,-9.701305126953125,1.3168109130859373,0,0,0,0
0.6319211859999996,-0.3711012573242187,-9.514557397460937,1.2665326782226562,0,0,0,0
0.6337535060001755,-0.3687070556640625,-9.514557397460937,1.3431471313476562,0,0,0,0
0.6357698440001514,-0.24181436767578124,-9.737218151855469,1.2737152832031249,0,0,0,0
0.6376656820002609,-0.2561795776367187,-9.715670336914062,1.3263877197265623,0,0,0,0
0.6394006519999493,-0.296881005859375,-9.65342109375,1.3359645263671873,0,0,0,0
0.6406102730002203,-0.3184288208007812,-9.636661682128906,1.2880804931640624,0,0,0,0
0.6421856500001013,-0.46686932373046874,-9.708487731933593,1.2904746948242187,0,0,0,0
0.6437344169999051,-0.39264907226562495,-9.6917283203125,1.218648645019531,0,0,0,0
0.6470820790000289,-0.17238251953125,-9.60793126220703,1.2785036865234374,0,0,0,0
0.6482844219999606,-0.18435352783203124,-9.548076220703125,1.3670891479492187,0,0,0,0
0.6495454870000685,-0.2705447875976562,-9.612719665527344,1.47482822265625,0,0,0,0
0.6508090530001027,-0.316034619140625,-9.70369932861328,1.2569558715820313,0,0,0,0
0.6519271370002571,-0.40940848388671874,-9.739612353515625,1.2138602416992186,0,0,0,0
0.6530222589999539,-0.40940848388671874,-9.749189160156249,1.1875240234375,0,0,0,0
0.6541167880000103,-0.38786066894531246,-9.720458740234374,1.2880804931640624,0,0,0,0
0.655345817000125,-0.3399766357421875,-9.622296472167967,1.3048399047851562,0,0,0,0
0.6566606589999537,-0.26336218261718747,-9.60793126220703,1.3742717529296875,0,0,0,0
0.6577707999999802,-0.34715924072265625,-9.552864624023437,1.2737152832031249,0,0,0,0
0.6588660510001318,-0.3399766357421875,-9.682151513671874,1.1516109985351561,0,0,0,0
0.659960005999892,-0.41898529052734373,-9.674968908691406,1.2497732666015624,0,0,0,0
0.6612031640001987,-0.21068974609375,-9.708487731933593,1.369483349609375,0,0,0,0
0.6625687840000865,-0.30406361083984373,-9.746794958496093,1.3144167114257812,0,0,0,0
0.6637866280002527,-0.354341845703125,-9.674968908691406,1.2785036865234374,0,0,0,0
0.6650004520001858,-0.411802685546875,-9.725247143554688,1.2521674682617188,0,0,0,0
0.6662883140002123,-0.4429273071289062,-9.634267480468749,1.2785036865234374,0,0,0,0
0.667646748000152,-0.33518823242187495,-9.60793126220703,1.3575123413085937,0,0,0,0
0.66882409200025,-0.2561795776367187,-9.595960253906249,1.3048399047851562,0,0,0,0
0.6699219360002644,-0.24660277099609373,-9.643844287109374,1.2904746948242187,0,0,0,0
0.671091854000224,-0.3184288208007812,-9.555258825683593,1.2737152832031249,0,0,0,0
0.6723185490000105,-0.3806780639648437,-9.610325463867188,1.2497732666015624,0,0,0,0
0.6736836499999299,-0.3711012573242187,-9.751583361816406,1.2114660400390624,0,0,0,0
0.6747867349999979,-0.40222587890625,-9.746794958496093,1.3168109130859373,0,0,0,0
0.6758866899999703,-0.32082302246093747,-9.658209497070311,1.3192051147460937,0,0,0,0
0.6769777200001954,-0.3711012573242187,-9.651026892089844,1.3096283081054687,0,0,0,0
0.6782126369998878,-0.3687070556640625,-9.627084875488281,1.3048399047851562,0,0,0,0
0.6796137940000335,-0.4333505004882812,-9.639055883789062,1.2473790649414063,0,0,0,0
0.6807208230002288,-0.40462008056640625,-9.770736975097655,1.3000515014648437,0,0,0,0
0.6818199080003069,-0.3280056274414062,-9.624690673828125,1.2808978881835937,0,0,0,0
0.6829166040001837,-0.23223756103515625,-9.6917283203125,1.2042834350585936,0,0,0,0
0.684158817000025,-0.23223756103515625,-9.634267480468749,1.2018892333984375,0,0,0,0
0.685470197000086,-0.2657563842773437,-9.701305126953125,1.3144167114257812,0,0,0,0
0.6865729850001117,-0.316034619140625,-9.744400756835937,1.2210428466796874,0,0,0,0
0.687716421999994,-0.36152445068359373,-9.662997900390625,1.2497732666015624,0,0,0,0
0.6888194319999457,-0.38307226562499996,-9.662997900390625,1.20667763671875,0,0,0,0
0.6900761639999473,-0.3711012573242187,-9.588777648925781,1.2904746948242187,0,0,0,0
0.6913900620002096,-0.29927520751953124,-9.593566052246093,1.3814543579101561,0,0,0,0
0.6925092770002266,-0.26336218261718747,-9.562441430664062,1.3934253662109375,0,0,0,0
0.6937702860000172,-0.22026655273437498,-9.595960253906249,1.3335703247070312,0,0,0,0
0.694930536999891,-0.296881005859375,-9.641450085449218,1.3431471313476562,0,0,0,0
0.6961541949999628,-0.32082302246093747,-9.643844287109374,1.3263877197265623,0,0,0,0
0.6974626860001081,-0.3016694091796875,-9.775525378417969,1.2617442749023438,0,0,0,0
0.6987701210000523,-0.3280056274414062,-9.662997900390625,1.3048399047851562,0,0,0,0
0.7000098720000096,-0.36631285400390623,-9.639055883789062,1.3479355346679687,0,0,0,0
0.7012555670003167,-0.3591302490234375,-9.610325463867188,1.3024457031249999,0,0,0,0
0.7026007419999587,-0.38307226562499996,-9.6151138671875,1.2856862915039062,0,0,0,0
0.7037606970002344,-0.3399766357421875,-9.686939916992188,1.2473790649414063,0,0,0,0
0.7048725409999861,-0.29927520751953124,-9.715670336914062,1.3311761230468748,0,0,0,0
0.7059722930002863,-0.316034619140625,-9.715670336914062,1.2569558715820313,0,0,0,0
0.7070867480001652,-0.33758243408203126,-9.655815295410155,1.2114660400390624,0,0,0,0
0.7083073870003318,-0.29927520751953124,-9.617508068847656,1.254561669921875,0,0,0,0
0.7096462110002904,-0.3232172241210937,-9.64623848876953,1.2808978881835937,0,0,0,0
0.710925017000136,-0.41898529052734373,-9.677363110351562,1.2689268798828124,0,0,0,0
0.712044139000227,-0.39264907226562495,-9.758765966796874,1.2713210815429687,0,0,0,0
0.7132659630001399,-0.3711012573242187,-9.835380419921874,1.3383587280273437,0,0,0,0
0.7145768059999682,-0.3184288208007812,-9.68454571533203,1.2832920898437499,0,0,0,0
0.7156823539999095,-0.2753331909179687,-9.548076220703125,1.2473790649414063,0,0,0,0
0.7167750870003147,-0.3136404174804687,-9.548076220703125,1.2880804931640624,0,0,0,0
0.7178638939999473,-0.3232172241210937,-9.593566052246093,1.3239935180664062,0,0,0,0
0.7191373290002048,-0.26815058593749996,-9.639055883789062,1.3000515014648437,0,0,0,0
0.7204707460000463,-0.3399766357421875,-9.658209497070311,1.2617442749023438,0,0,0,0
0.7215704790000927,-0.35194764404296874,-9.730035546875,1.3024457031249999,0,0,0,0
0.7226598040001591,-0.3447650390625,-9.68454571533203,1.3168109130859373,0,0,0,0
0.7237600000003113,-0.3064578125,-9.672574707031249,1.3072341064453123,0,0,0,0
0.7250036949999412,-0.34237083740234375,-9.574412438964844,1.3311761230468748,0,0,0,0
0.7263431490000585,-0.38307226562499996,-9.557653027343749,1.2785036865234374,0,0,0,0
0.7274469190001582,-0.36631285400390623,-9.574412438964844,1.24498486328125,0,0,0,0
0.7285389110002143,-0.411802685546875,-9.557653027343749,1.2880804931640624,0,0,0,0
0.7296308290001434,-0.3016694091796875,-9.787496386718749,1.22583125,0,0,0,0
0.7308489320002991,-0.23223756103515625,-9.708487731933593,1.2569558715820313,0,0,0,0
0.732194348000121,-0.22505495605468748,-9.662997900390625,1.2904746948242187,0,0,0,0
0.7332942850002837,-0.33758243408203126,-9.636661682128906,1.2832920898437499,0,0,0,0
0.734386054999959,-0.35194764404296874,-9.572018237304688,1.2880804931640624,0,0,0,0
0.7356079910000517,-0.3902548706054687,-9.636661682128906,1.2808978881835937,0,0,0,0
0.736954889000117,-0.43574470214843747,-9.662997900390625,1.2569558715820313,0,0,0,0
0.7380566219999309,-0.38307226562499996,-9.696516723632811,1.1540052001953125,0,0,0,0
0.7391526139999769,-0.36152445068359373,-9.64623848876953,1.2641384765625,0,0,0,0
0.7406140850002885,-0.30406361083984373,-9.56962403564453,1.369483349609375,0,0,0,0
0.7419708900001751,-0.2346317626953125,-9.583989245605467,1.4030021728515625,0,0,0,0
0.7431039380003313,-0.22505495605468748,-9.595960253906249,1.3814543579101561,0,0,0,0
0.7441990229999647,-0.29448680419921874,-9.694122521972655,1.2665326782226562,0,0,0,0
0.7462723040002857,-0.38786066894531246,-9.746794958496093,1.2713210815429687,0,0,0,0
0.7477115720002985,-0.4429273071289062,-9.655815295410155,1.2808978881835937,0,0,0,0
0.7488503230001697,-0.4261678955078125,-9.617508068847656,1.235408056640625,0,0,0,0
0.7499457040003108,-0.35194764404296874,-9.631873278808593,1.3670891479492187,0,0,0,0
0.7519783380002991,-0.23223756103515625,-9.560047229003906,1.3718775512695311,0,0,0,0
0.7531987180000215,-0.26815058593749996,-9.639055883789062,1.3287819213867187,0,0,0,0
0.7542977850002899,-0.2609679809570312,-9.617508068847656,1.3000515014648437,0,0,0,0
0.7554150920000211,-0.316034619140625,-9.698910925292969,1.2737152832031249,0,0,0,0
0.7566885460000776,-0.316034619140625,-9.655815295410155,1.3192051147460937,0,0,0,0
0.7578139820002434,-0.38307226562499996,-9.65342109375,1.4030021728515625,0,0,0,0
0.7596144879998974,-0.41419688720703124,-9.512163195800781,1.3215993164062498,0,0,0,0
0.7607814240000152,-0.36631285400390623,-9.674968908691406,1.3168109130859373,0,0,0,0
0.7626878920000308,-0.4333505004882812,-9.591171850585937,1.3814543579101561,0,0,0,0
0.764915412999926,-0.30406361083984373,-9.605537060546874,1.2497732666015624,0,0,0,0
0.7661301269999967,-0.3232172241210937,-9.643844287109374,1.2306196533203124,0,0,0,0
0.7673131370002011,-0.33518823242187495,-9.720458740234374,1.2928688964843749,0,0,0,0
0.7684649990001162,-0.3232172241210937,-9.763554370117188,1.1252747802734375,0,0,0,0
0.7695554360002461,-0.3447650390625,-9.751583361816406,1.2952630981445312,0,0,0,0
0.7706360950000999,-0.28969840087890625,-9.720458740234374,1.2593500732421874,0,0,0,0
0.7717445130001579,-0.34715924072265625,-9.660603698730467,1.3383587280273437,0,0,0,0
0.7731102259999716,-0.316034619140625,-9.593566052246093,1.3814543579101561,0,0,0,0
0.7743572730000778,-0.33039982910156246,-9.560047229003906,1.2569558715820313,0,0,0,0
0.7755566900000304,-0.3447650390625,-9.5384994140625,1.2832920898437499,0,0,0,0
0.7766553860001295,-0.2825157958984375,-9.536105212402344,1.2593500732421874,0,0,0,0
0.7777432120001322,-0.2609679809570312,-9.68454571533203,1.149216796875,0,0,0,0
0.7788532590002433,-0.2346317626953125,-9.698910925292969,1.1635820068359375,0,0,0,0
0.7801090650000333,-0.3399766357421875,-9.648632690429688,1.218648645019531,0,0,0,0
0.781288890000269,-0.3758896606445312,-9.627084875488281,1.3048399047851562,0,0,0,0
0.7823858090000613,-0.3447650390625,-9.679757312011718,1.2904746948242187,0,0,0,0
0.7834808560000965,-0.41419688720703124,-9.667786303710937,1.2928688964843749,0,0,0,0
0.7845686450000358,-0.40222587890625,-9.744400756835937,1.2904746948242187,0,0,0,0
0.7857876359998954,-0.3184288208007812,-9.706093530273437,1.37906015625,0,0,0,0
0.7869871460002287,-0.277727392578125,-9.651026892089844,1.3575123413085937,0,0,0,0
0.7880922680001277,-0.24660277099609373,-9.595960253906249,1.3814543579101561,0,0,0,0
0.7892027050002071,-0.23223756103515625,-9.627084875488281,1.3239935180664062,0,0,0,0
0.7904994549999174,-0.2753331909179687,-9.622296472167967,1.2713210815429687,0,0,0,0
0.791800742000305,-0.354341845703125,-9.749189160156249,1.2473790649414063,0,0,0,0
0.7930382889999237,-0.36391865234375,-9.758765966796874,1.24498486328125,0,0,0,0
0.7942612060001011,-0.3495534423828125,-9.753977563476562,1.2425906616210938,0,0,0,0
0.7955622899999071,-0.29927520751953124,-9.665392102050781,1.3527239379882812,0,0,0,0
0.7968491139999969,-0.316034619140625,-9.60793126220703,1.3192051147460937,0,0,0,0
0.7980931239999336,-0.33039982910156246,-9.593566052246093,1.2904746948242187,0,0,0,0
0.7993224850001752,-0.28490999755859375,-9.588777648925781,1.2473790649414063,0,0,0,0
0.8005998100002216,-0.3112462158203125,-9.698910925292969,1.2832920898437499,0,0,0,0
0.8018750410001303,-0.17477672119140625,-9.70369932861328,1.2713210815429687,0,0,0,0
0.8030668850001348,-0.3591302490234375,-9.782707983398437,1.3287819213867187,0,0,0,0
0.8043088389999866,-0.354341845703125,-9.749189160156249,1.3263877197265623,0,0,0,0
0.8056089960000463,-0.2561795776367187,-9.763554370117188,1.3527239379882812,0,0,0,0
0.806859562000227,-0.3854664672851562,-9.605537060546874,1.3383587280273437,0,0,0,0
0.8081138120001015,-0.40462008056640625,-9.672574707031249,1.3144167114257812,0,0,0,0
0.8093915990002643,-0.4165910888671875,-9.662997900390625,1.2617442749023438,0,0,0,0
0.8107425160001185,-0.3687070556640625,-9.605537060546874,1.2665326782226562,0,0,0,0
0.8121258390001458,-0.2920926025390625,-9.627084875488281,1.2234370483398436,0,0,0,0
0.8135857920001399,-0.3112462158203125,-9.627084875488281,1.1947066284179686,0,0,0,0
0.8149491899998793,-0.2561795776367187,-9.710881933593749,1.22583125,0,0,0,0
0.816366976000154,-0.33039982910156246,-9.670180505371093,1.3096283081054687,0,0,0,0
0.8177328179999677,-0.3136404174804687,-9.794678991699218,1.3144167114257812,0,0,0,0
0.8191166229998998,-0.3447650390625,-9.727641345214844,1.3431471313476562,0,0,0,0
0.8203911509999671,-0.3327940307617187,-9.612719665527344,1.3934253662109375,0,0,0,0
0.8217460310002025,-0.36152445068359373,-9.550470422363281,1.2808978881835937,0,0,0,0
0.8230383180002718,-0.3280056274414062,-9.600748657226562,1.218648645019531,0,0,0,0
0.8243308460000662,-0.27293898925781246,-9.648632690429688,1.3144167114257812,0,0,0,0
0.8255667809999068,-0.2609679809570312,-9.665392102050781,1.2761094848632812,0,0,0,0
0.8267960130001484,-0.45010991210937495,-9.80665,1.3024457031249999,0,0,0,0
0.828107374999945,-0.30885201416015623,-9.730035546875,1.3287819213867187,0,0,0,0
0.8293610139999146,-0.3280056274414062,-9.639055883789062,1.3263877197265623,0,0,0,0
0.8305772090002392,-0.38307226562499996,-9.643844287109374,1.369483349609375,0,0,0,0
0.8318247740003244,-0.39743747558593745,-9.6151138671875,1.2976572998046874,0,0,0,0
0.8331966350001494,-0.40940848388671874,-9.660603698730467,1.2928688964843749,0,0,0,0
0.8344869219999964,-0.3327940307617187,-9.660603698730467,1.3096283081054687,0,0,0,0
0.8357288390002395,-0.2753331909179687,-9.631873278808593,1.2785036865234374,0,0,0,0
0.8368308869999055,-0.229843359375,-9.732429748535155,1.2808978881835937,0,0,0,0
0.837917508999908,-0.201112939453125,-9.696516723632811,1.2904746948242187,0,0,0,0
0.8390274270000191,-0.2920926025390625,-9.667786303710937,1.2952630981445312,0,0,0,0
0.8402746410001782,-0.39264907226562495,-9.631873278808593,1.2665326782226562,0,0,0,0
0.8414792990001843,-0.38307226562499996,-9.694122521972655,1.2665326782226562,0,0,0,0
0.8425779389999661,-0.4429273071289062,-9.6917283203125,1.3096283081054687,0,0,0,0
0.8436727830003292,-0.41898529052734373,-9.658209497070311,1.2928688964843749,0,0,0,0
0.8447733870002594,-0.2753331909179687,-9.555258825683593,1.2641384765625,0,0,0,0
0.8460294520000389,-0.24660277099609373,-9.481038574218749,1.2138602416992186,0,0,0,0
0.8472090170002957,-0.3064578125,-9.600748657226562,1.2832920898437499,0,0,0,0
0.8483061950000774,-0.316034619140625,-9.667786303710937,1.3670891479492187,0,0,0,0
0.8493915580002067,-0.28012159423828126,-9.674968908691406,1.3431471313476562,0,0,0,0
0.85047768000004,-0.277727392578125,-9.739612353515625,1.2856862915039062,0,0,0,0
0.8517087449999963,-0.33758243408203126,-9.70369932861328,1.4149731811523436,0,0,0,0
0.8531392529998811,-0.36631285400390623,-9.670180505371093,1.3335703247070312,0,0,0,0
0.8542417090002346,-0.3591302490234375,-9.56962403564453,1.3096283081054687,0,0,0,0
0.8553805340002327,-0.3232172241210937,-9.557653027343749,1.189918225097656,0,0,0,0
0.8566113400001996,-0.3687070556640625,-9.622296472167967,1.2473790649414063,0,0,0,0
0.8578311649998795,-0.36391865234375,-9.651026892089844,1.3311761230468748,0,0,0,0
0.8589629900002365,-0.2753331909179687,-9.665392102050781,1.2665326782226562,0,0,0,0
0.8600851300002432,-0.28490999755859375,-9.639055883789062,1.24498486328125,0,0,0,0
0.8611773080001512,-0.28969840087890625,-9.641450085449218,1.2521674682617188,0,0,0,0
0.8624390400000266,-0.29927520751953124,-9.665392102050781,1.2593500732421874,0,0,0,0
0.8636665490002997,-0.35194764404296874,-9.682151513671874,1.2832920898437499,0,0,0,0
0.8647598560000915,-0.33039982910156246,-9.672574707031249,1.3239935180664062,0,0,0,0
0.8658404410002731,-0.39264907226562495,-9.655815295410155,1.2952630981445312,0,0,0,0
0.8671415799999522,-0.38307226562499996,-9.624690673828125,1.2737152832031249,0,0,0,0
0.8686209590000544,-0.34715924072265625,-9.519345800781249,1.3144167114257812,0,0,0,0
0.8698163019998901,-0.3495534423828125,-9.521740002441407,1.2306196533203124,0,0,0,0
0.8709038320002946,-0.44532150878906246,-9.651026892089844,1.2497732666015624,0,0,0,0
0.8720096570000351,-0.2657563842773437,-9.641450085449218,1.2306196533203124,0,0,0,0
0.8732496669999819,-0.2920926025390625,-9.746794958496093,1.2378022583007813,0,0,0,0
0.874443102999976,-0.2705447875976562,-9.797073193359374,1.3670891479492187,0,0,0,0
0.8756190389999574,-0.28730419921875,-9.689334118652344,1.3742717529296875,0,0,0,0
0.8769085110002379,-0.34237083740234375,-9.545682019042967,1.3215993164062498,0,0,0,0
0.8780780590000177,-0.41898529052734373,-9.49300958251953,1.3431471313476562,0,0,0,0
0.8793407160001152,-0.42377369384765623,-9.579200842285156,1.235408056640625,0,0,0,0
0.8805215970000972,-0.34237083740234375,-9.672574707031249,1.3096283081054687,0,0,0,0
0.8816065149999304,-0.28969840087890625,-9.794678991699218,1.2521674682617188,0,0,0,0
0.8826801190002698,-0.3016694091796875,-9.674968908691406,1.2737152832031249,0,0,0,0
0.8837732590000087,-0.18435352783203124,-9.65342109375,1.35990654296875,0,0,0,0
0.8850290650002535,-0.29927520751953124,-9.555258825683593,1.3287819213867187,0,0,0,0
0.8863086670003213,-0.40222587890625,-9.64623848876953,1.3239935180664062,0,0,0,0
0.8874778439999318,-0.44053310546874996,-9.624690673828125,1.3359645263671873,0,0,0,0
0.8886456140003247,-0.3854664672851562,-9.744400756835937,1.2808978881835937,0,0,0,0
0.8897411800003283,-0.4213794921875,-9.713276135253906,1.3335703247070312,0,0,0,0
0.8909882640000433,-0.26815058593749996,-9.64623848876953,1.3024457031249999,0,0,0,0
0.8921702930001629,-0.19153613281249998,-9.734823950195311,1.2785036865234374,0,0,0,0
0.8932641179999337,-0.27293898925781246,-9.639055883789062,1.3192051147460937,0,0,0,0
0.8943507220001266,-0.30406361083984373,-9.567229833984374,1.3263877197265623,0,0,0,0
0.8954422140000133,-0.3854664672851562,-9.583989245605467,1.254561669921875,0,0,0,0
0.8966931680001835,-0.38786066894531246,-9.708487731933593,1.2880804931640624,0,0,0,0
0.8980058810002447,-0.3064578125,-9.720458740234374,1.197100830078125,0,0,0,0
0.8993466310002987,-0.3064578125,-9.7683427734375,1.16837041015625,0,0,0,0
0.9005567150002207,-0.2705447875976562,-9.686939916992188,1.3263877197265623,0,0,0,0
0.901723910000328,-0.28730419921875,-9.586383447265625,1.3431471313476562,0,0,0,0
0.9028926979999596,-0.35194764404296874,-9.536105212402344,1.35990654296875,0,0,0,0
0.9041717449999851,-0.36391865234375,-9.591171850585937,1.218648645019531,0,0,0,0
0.9053875140002674,-0.39983167724609375,-9.619902270507811,1.24498486328125,0,0,0,0
0.9065000989999135,-0.3687070556640625,-9.689334118652344,1.22583125,0,0,0,0
0.9075910730002761,-0.27293898925781246,-9.76116016845703,1.2952630981445312,0,0,0,0
0.9086716390002039,-0.28730419921875,-9.785102185058593,1.3120225097656248,0,0,0,0
0.909754668000005,-0.3136404174804687,-9.708487731933593,1.3263877197265623,0,0,0,0
0.9110206590003145,-0.2657563842773437,-9.698910925292969,1.3718775512695311,0,0,0,0
0.912198188000275,-0.30885201416015623,-9.595960253906249,1.3287819213867187,0,0,0,0
0.9141112860002067,-0.3711012573242187,-9.634267480468749,1.2737152832031249,0,0,0,0
0.9153457960001106,-0.3854664672851562,-9.660603698730467,1.0989385620117187,0,0,0,0
0.9166258240002207,-0.45010991210937495,-9.617508068847656,1.3120225097656248,0,0,0,0
0.9178185190003205,-0.316034619140625,-9.696516723632811,1.3359645263671873,0,0,0,0
0.9189543070001491,-0.22026655273437498,-9.667786303710937,1.3718775512695311,0,0,0,0
0.920110429000033,-0.19632453613281248,-9.715670336914062,1.3646949462890625,0,0,0,0
0.9212057360000472,-0.16759411621093748,-9.686939916992188,1.3096283081054687,0,0,0,0
0.9224372270000458,-0.21308394775390624,-9.655815295410155,1.2234370483398436,0,0,0,0
0.9236605700002656,-0.36631285400390623,-9.706093530273437,1.2521674682617188,0,0,0,0
0.9247805990003144,-0.46208092041015625,-9.682151513671874,1.2282254516601563,0,0,0,0
0.9259711650001918,-0.47165772705078124,-9.658209497070311,1.2521674682617188,0,0,0,0
0.9271862119999241,-0.3806780639648437,-9.624690673828125,1.3431471313476562,0,0,0,0
0.9284077770003023,-0.33039982910156246,-9.619902270507811,1.3144167114257812,0,0,0,0
0.9296800460001577,-0.23223756103515625,-9.610325463867188,1.350329736328125,0,0,0,0
0.9309784259999105,-0.258573779296875,-9.593566052246093,1.3383587280273437,0,0,0,0
0.9323782490000667,-0.29927520751953124,-9.665392102050781,1.2378022583007813,0,0,0,0
0.933699795999928,-0.3399766357421875,-9.744400756835937,1.1731588134765625,0,0,0,0
0.9350741560001552,-0.39743747558593745,-9.737218151855469,1.2832920898437499,0,0,0,0
0.9361758710001595,-0.38786066894531246,-9.696516723632811,1.3287819213867187,0,0,0,0
0.9372847520003234,-0.37828386230468747,-9.686939916992188,1.3527239379882812,0,0,0,0
0.9385344100001021,-0.3591302490234375,-9.660603698730467,1.254561669921875,0,0,0,0
0.9398946410001372,-0.3232172241210937,-9.564835632324218,1.3215993164062498,0,0,0,0
0.9410024660001,-0.20350714111328125,-9.56962403564453,1.2880804931640624,0,0,0,0
0.9420938100001877,-0.2059013427734375,-9.658209497070311,1.2737152832031249,0,0,0,0
0.9433247460001439,-0.2346317626953125,-9.715670336914062,1.3215993164062498,0,0,0,0
0.9445753300001343,-0.23702596435546874,-9.773131176757811,1.2114660400390624,0,0,0,0
0.9456724330002544,-0.28730419921875,-9.682151513671874,1.2282254516601563,0,0,0,0
0.9467589070000031,-0.36152445068359373,-9.60793126220703,1.2904746948242187,0,0,0,0
0.9478468990000692,-0.4285620971679687,-9.60793126220703,1.3024457031249999,0,0,0,0
0.9490913720001117,-0.4165910888671875,-9.603142858886718,1.2713210815429687,0,0,0,0
0.9503186410001945,-0.3711012573242187,-9.610325463867188,1.158793603515625,0,0,0,0
0.9514155410001877,-0.3806780639648437,-9.622296472167967,1.3239935180664062,0,0,0,0
0.9525018849999469,-0.38307226562499996,-9.658209497070311,1.3000515014648437,0,0,0,0
0.9535873770000762,-0.316034619140625,-9.698910925292969,1.3072341064453123,0,0,0,0
0.9548047580001366,-0.12689268798828124,-9.658209497070311,1.3407529296874998,0,0,0,0
0.9560710630003086,-0.1867477294921875,-9.65342109375,1.3431471313476562,0,0,0,0
0.9571651670003121,-0.3136404174804687,-9.658209497070311,1.3096283081054687,0,0,0,0
0.958251399999881,-0.40462008056640625,-9.660603698730467,1.2378022583007813,0,0,0,0
0.959466132000216,-0.43574470214843747,-9.629479077148437,1.2641384765625,0,0,0,0
0.9606772900001488,-0.4955997436523437,-9.636661682128906,1.3910311645507811,0,0,0,0
0.9617872270000589,-0.45010991210937495,-9.698910925292969,1.369483349609375,0,0,0,0
0.9628766820001147,-0.26336218261718747,-9.715670336914062,1.2641384765625,0,0,0,0
0.9639631190002547,-0.22026655273437498,-9.667786303710937,1.3144167114257812,0,0,0,0
0.9651753140001347,-0.12689268798828124,-9.689334118652344,1.3455413330078123,0,0,0,0
0.9663934539998991,-0.13168109130859373,-9.627084875488281,1.2593500732421874,0,0,0,0
0.9674932240000089,-0.1867477294921875,-9.631873278808593,1.2234370483398436,0,0,0,0
0.968574604999958,-0.21068974609375,-9.631873278808593,1.197100830078125,0,0,0,0
0.9696595420000449,-0.32561142578124996,-9.737218151855469,1.2521674682617188,0,0,0,0
0.9709047920000557,-0.5123591552734374,-9.744400756835937,1.3215993164062498,0,0,0,0
0.9721041540001352,-0.51714755859375,-9.72285294189453,1.3623007446289062,0,0,0,0
0.9731977390001703,-0.4070142822265625,-9.674968908691406,1.3742717529296875,0,0,0,0
0.9742853239999931,-0.26815058593749996,-9.670180505371093,1.2976572998046874,0,0,0,0
0.9755001300000004,-0.22505495605468748,-9.588777648925781,1.37906015625,0,0,0,0
0.9767517509999379,-0.3064578125,-9.593566052246093,1.3670891479492187,0,0,0,0
0.9778444280000258,-0.09816226806640624,-9.662997900390625,1.3431471313476562,0,0,0,0
0.9789318650000496,-0.32561142578124996,-9.70369932861328,1.2904746948242187,0,0,0,0
0.9801352080003198,-0.34237083740234375,-9.732429748535155,1.209071838378906,0,0,0,0
0.9813534959998833,-0.4070142822265625,-9.698910925292969,1.1180921752929687,0,0,0,0
0.9825760990001982,-0.38307226562499996,-9.794678991699218,1.3024457031249999,0,0,0,0
0.983754183000201,-0.316034619140625,-9.65342109375,1.3646949462890625,0,0,0,0
0.9848502489999191,-0.3232172241210937,-9.622296472167967,1.3838485595703125,0,0,0,0
0.9859402970000701,-0.3064578125,-9.651026892089844,1.2880804931640624,0,0,0,0
0.9872296399998959,-0.3232172241210937,-9.627084875488281,1.2904746948242187,0,0,0,0
0.9886325000002216,-0.2537853759765625,-9.715670336914062,1.2904746948242187,0,0,0,0
0.9897561220000171,-0.26815058593749996,-9.68454571533203,1.24498486328125,0,0,0,0
0.9908460219999142,-0.2561795776367187,-9.694122521972655,1.2401964599609374,0,0,0,0
0.9919358289998854,-0.3232172241210937,-9.720458740234374,1.2665326782226562,0,0,0,0
0.9931522649999351,-0.42377369384765623,-9.720458740234374,1.2928688964843749,0,0,0,0
0.9945334590001949,-0.4429273071289062,-9.79946739501953,1.2737152832031249,0,0,0,0
0.9958364680001068,-0.3854664672851562,-9.610325463867188,1.254561669921875,0,0,0,0
0.9972027550002167,-0.296881005859375,-9.651026892089844,1.2521674682617188,0,0,0,0
0.998310099000264,-0.2657563842773437,-9.715670336914062,1.3479355346679687,0,0,0,0
0.999571756000023,-0.23223756103515625,-9.593566052246093,1.3096283081054687,0,0,0,0
1.0008467840002595,-0.3184288208007812,-9.53131680908203,1.2593500732421874,0,0,0,0
1.0019459800000732,-0.38786066894531246,-9.581595043945311,1.2282254516601563,0,0,0,0
1.0030543610000677,-0.4213794921875,-9.696516723632811,1.2210428466796874,0,0,0,0
1.0041454279999016,-0.47165772705078124,-9.727641345214844,1.3072341064453123,0,0,0,0
1.0054893810001886,-0.4381389038085937,-9.737218151855469,1.2737152832031249,0,0,0,0
1.0067493540000214,-0.33758243408203126,-9.734823950195311,1.24498486328125,0,0,0,0
1.0080475300001126,-0.3447650390625,-9.696516723632811,1.3120225097656248,0,0,0,0
1.009329873000297,-0.29927520751953124,-9.667786303710937,1.3407529296874998,0,0,0,0
1.0105627530001584,-0.2657563842773437,-9.564835632324218,1.3479355346679687,0,0,0,0
1.0118903729999147,-0.23702596435546874,-9.53131680908203,1.3048399047851562,0,0,0,0
1.0131976790003137,-0.29448680419921874,-9.598354455566406,1.2665326782226562,0,0,0,0
1.0144618550002633,-0.3687070556640625,-9.53131680908203,1.197100830078125,0,0,0,0
1.017127262000031,-0.4213794921875,-9.758765966796874,1.2689268798828124,0,0,0,0
1.0183716790002109,-0.354341845703125,-9.756371765136718,1.2952630981445312,0,0,0,0
1.0195989849999023,-0.2705447875976562,-9.548076220703125,1.3120225097656248,0,0,0,0
1.0209171430001334,-0.2561795776367187,-9.557653027343749,1.3120225097656248,0,0,0,0
1.0221098750002966,-0.41419688720703124,-9.593566052246093,1.3287819213867187,0,0,0,0
1.0233108289999109,-0.4285620971679687,-9.622296472167967,1.254561669921875,0,0,0,0
1.024507136000011,-0.373495458984375,-9.665392102050781,1.1947066284179686,0,0,0,0
1.0256778680000025,-0.3327940307617187,-9.70369932861328,1.2569558715820313,0,0,0,0
1.0268711749999966,-0.3447650390625,-9.674968908691406,1.2473790649414063,0,0,0,0
1.0280942029999096,-0.2442085693359375,-9.667786303710937,1.2713210815429687,0,0,0,0
1.0294138790000034,-0.36391865234375,-9.72285294189453,1.2497732666015624,0,0,0,0
1.030693722000251,-0.3854664672851562,-9.670180505371093,1.3048399047851562,0,0,0,0
1.0320044350000899,-0.3806780639648437,-9.610325463867188,1.3383587280273437,0,0,0,0
1.0331950740001048,-0.3232172241210937,-9.643844287109374,1.3527239379882812,0,0,0,0
1.034410936000313,-0.28730419921875,-9.586383447265625,1.3144167114257812,0,0,0,0
1.0356905200001165,-0.16519991455078123,-9.643844287109374,1.209071838378906,0,0,0,0
1.0369572520003203,-0.45489831542968745,-9.639055883789062,1.2737152832031249,0,0,0,0
1.038238131000071,-0.3399766357421875,-9.627084875488281,1.0989385620117187,0,0,0,0
1.0394341410001289,-0.30406361083984373,-9.70369932861328,1.37906015625,0,0,0,0
1.04058911500033,-0.28969840087890625,-9.7683427734375,1.3575123413085937,0,0,0,0
1.0419069760000639,-0.28490999755859375,-9.730035546875,1.3168109130859373,0,0,0,0
1.0431015600001956,-0.3280056274414062,-9.619902270507811,1.3144167114257812,0,0,0,0
1.0442913480001152,-0.3758896606445312,-9.581595043945311,1.1133037719726562,0,0,0,0
1.0454118770003333,-0.3806780639648437,-9.576806640625,1.20667763671875,0,0,0,0
1.0465306840001176,-0.39264907226562495,-9.641450085449218,1.24498486328125,0,0,0,0
1.0478338410002834,-0.3280056274414062,-9.641450085449218,1.2593500732421874,0,0,0,0
1.0490529809999316,-0.35673604736328124,-9.636661682128906,1.2473790649414063,0,0,0,0
1.0504614340002263,-0.26336218261718747,-9.727641345214844,1.2330138549804688,0,0,0,0
1.0516353699999854,-0.2920926025390625,-9.694122521972655,1.2569558715820313,0,0,0,0
1.0527669920002154,-0.2657563842773437,-9.710881933593749,1.350329736328125,0,0,0,0
1.0543141289999767,-0.277727392578125,-9.617508068847656,1.2330138549804688,0,0,0,0
1.055533435000143,-0.34237083740234375,-9.512163195800781,1.3646949462890625,0,0,0,0
1.056982183999935,-0.411802685546875,-9.564835632324218,1.2138602416992186,0,0,0,0
1.058311564000178,-0.4525041137695312,-9.598354455566406,1.2497732666015624,0,0,0,0
1.059649869000168,-0.3806780639648437,-9.698910925292969,1.2641384765625,0,0,0,0
1.0608386750000136,-0.2442085693359375,-9.6917283203125,1.3144167114257812,0,0,0,0
1.0621930920001432,-0.229843359375,-9.68454571533203,1.3096283081054687,0,0,0,0
1.063672878000034,-0.296881005859375,-9.64623848876953,1.3742717529296875,0,0,0,0
1.0649345720003112,-0.40940848388671874,-9.627084875488281,1.2282254516601563,0,0,0,0
1.0663201920001484,-0.4477157104492187,-9.674968908691406,1.2785036865234374,0,0,0,0
1.0690155440001945,-0.3184288208007812,-9.65342109375,1.2880804931640624,0,0,0,0
1.0705038660003083,-0.316034619140625,-9.548076220703125,1.2641384765625,0,0,0,0
1.0732249030002095,-0.229843359375,-9.619902270507811,1.3096283081054687,0,0,0,0
1.0745974300002672,-0.2609679809570312,-9.74200655517578,1.3263877197265623,0,0,0,0
1.0759939019999365,-0.3711012573242187,-9.70369932861328,1.3742717529296875,0,0,0,0
1.0773803550000594,-0.38786066894531246,-9.686939916992188,1.3479355346679687,0,0,0,0
1.0786232170003132,-0.36152445068359373,-9.674968908691406,1.3072341064453123,0,0,0,0
1.0799787999999353,-0.36391865234375,-9.6917283203125,1.2378022583007813,0,0,0,0
1.0812971610002933,-0.3399766357421875,-9.639055883789062,1.3575123413085937,0,0,0,0
1.0825399109999125,-0.23223756103515625,-9.610325463867188,1.3575123413085937,0,0,0,0
1.0837249209998845,-0.15562310791015624,-9.600748657226562,1.388636962890625,0,0,0,0
1.0848103210000772,-0.2346317626953125,-9.636661682128906,1.3455413330078123,0,0,0,0
1.085887350000121,-0.316034619140625,-9.744400756835937,1.2713210815429687,0,0,0,0
1.087076898000305,-0.38786066894531246,-9.715670336914062,1.2473790649414063,0,0,0,0
1.088222685999881,-0.39264907226562495,-9.665392102050781,1.1109095703125,0,0,0,0
1.0893083630003275,-0.41419688720703124,-9.679757312011718,1.3551181396484375,0,0,0,0
1.0903812629999265,-0.411802685546875,-9.658209497070311,1.2737152832031249,0,0,0,0
1.091533625000011,-0.3591302490234375,-9.639055883789062,1.3311761230468748,0,0,0,0
1.0926817650001794,-0.38786066894531246,-9.593566052246093,1.2737152832031249,0,0,0,0
1.093828035000115,-0.3016694091796875,-9.627084875488281,1.3000515014648437,0,0,0,0
1.0949107310002546,-0.27293898925781246,-9.665392102050781,1.3072341064453123,0,0,0,0
1.095994760999929,-0.22505495605468748,-9.674968908691406,1.3718775512695311,0,0,0,0
1.0971383820001392,-0.22026655273437498,-9.636661682128906,1.2785036865234374,0,0,0,0
1.098277095999947,-0.2920926025390625,-9.658209497070311,1.22583125,0,0,0,0
1.0993686810002146,-0.3447650390625,-9.651026892089844,1.218648645019531,0,0,0,0
1.1004403030001413,-0.469263525390625,-9.718064538574218,1.16837041015625,0,0,0,0
1.1015169249999417,-0.5003881469726562,-9.672574707031249,1.218648645019531,0,0,0,0
1.1026593060000778,-0.4381389038085937,-9.732429748535155,1.2904746948242187,0,0,0,0
1.103810113000236,-0.2657563842773437,-9.694122521972655,1.4101847778320311,0,0,0,0
1.1048899760003223,-0.19393033447265623,-9.629479077148437,1.3814543579101561,0,0,0,0
1.1061146709998866,-0.21787235107421873,-9.564835632324218,1.3958195678710936,0,0,0,0
1.1073275690000628,-0.316034619140625,-9.598354455566406,1.2617442749023438,0,0,0,0
1.108473172000231,-0.3112462158203125,-9.514557397460937,1.2665326782226562,0,0,0,0
1.1095567760003178,-0.35194764404296874,-9.7683427734375,1.2330138549804688,0,0,0,0
1.1106293790003292,-0.41898529052734373,-9.749189160156249,1.3359645263671873,0,0,0,0
1.1117162420000568,-0.5027823486328125,-9.662997900390625,1.3646949462890625,0,0,0,0
1.1128814560001956,-0.373495458984375,-9.624690673828125,1.4125789794921875,0,0,0,0
1.1140067440001076,-0.3687070556640625,-9.6151138671875,1.3000515014648437,0,0,0,0
1.1151099399999111,-0.29448680419921874,-9.598354455566406,1.2521674682617188,0,0,0,0
1.1161873589999232,-0.28730419921875,-9.593566052246093,1.22583125,0,0,0,0
1.1172606469999664,-0.24899697265624998,-9.56962403564453,1.5011644409179687,0,0,0,0
1.1184086950001983,-0.23223756103515625,-9.552864624023437,1.3192051147460937,0,0,0,0
1.1195692790001885,-0.24660277099609373,-9.64623848876953,1.2832920898437499,0,0,0,0
1.1206685310003195,-0.38786066894531246,-9.713276135253906,1.1755530151367186,0,0,0,0
1.1217555600001106,-0.33758243408203126,-9.74200655517578,1.1851298217773436,0,0,0,0
1.1228472190000502,-0.4644751220703125,-9.720458740234374,1.2904746948242187,0,0,0,0
1.1244999850000568,-0.36152445068359373,-9.689334118652344,1.39821376953125,0,0,0,0
1.125803532000191,-0.16041151123046873,-9.598354455566406,1.4053963745117186,0,0,0,0
1.1269736340000236,-0.13168109130859373,-9.540893615722656,1.3263877197265623,0,0,0,0
1.1280753300002289,-0.22266075439453123,-9.545682019042967,1.3168109130859373,0,0,0,0
1.1297661329999755,-0.4261678955078125,-9.665392102050781,1.2330138549804688,0,0,0,0
1.1310288650001894,-0.39743747558593745,-9.686939916992188,1.2689268798828124,0,0,0,0
1.1322381529998893,-0.40462008056640625,-9.744400756835937,1.120486376953125,0,0,0,0
1.1344149149999794,-0.3495534423828125,-9.512163195800781,1.3263877197265623,0,0,0,0
1.1357415910001691,-0.30885201416015623,-9.648632690429688,1.2904746948242187,0,0,0,0
1.1371033220002573,-0.354341845703125,-9.737218151855469,1.3646949462890625,0,0,0,0
1.1384209050002028,-0.3447650390625,-9.794678991699218,1.2808978881835937,0,0,0,0
1.1396792300001835,-0.26815058593749996,-9.557653027343749,1.2473790649414063,0,0,0,0
1.1410366650002288,-0.2753331909179687,-9.524134204101562,1.2761094848632812,0,0,0,0
1.1422893040003146,-0.33758243408203126,-9.595960253906249,1.218648645019531,0,0,0,0
1.1435635540001385,-0.32561142578124996,-9.627084875488281,1.2904746948242187,0,0,0,0
1.1447722860002614,-0.373495458984375,-9.667786303710937,1.2856862915039062,0,0,0,0
1.1460429070002647,-0.3136404174804687,-9.696516723632811,1.3239935180664062,0,0,0,0
1.1473715639999682,-0.29448680419921874,-9.734823950195311,1.3407529296874998,0,0,0,0
1.1486664070002917,-0.32561142578124996,-9.677363110351562,1.2976572998046874,0,0,0,0
1.149861102000159,-0.39983167724609375,-9.619902270507811,1.2497732666015624,0,0,0,0
1.1511019640001905,-0.4213794921875,-9.6151138671875,1.216254443359375,0,0,0,0
1.152348677000191,-0.3711012573242187,-9.583989245605467,1.2114660400390624,0,0,0,0
1.1536624459999985,-0.2561795776367187,-9.660603698730467,1.2737152832031249,0,0,0,0
1.1549302329999591,-0.296881005859375,-9.658209497070311,1.3072341064453123,0,0,0,0
1.1561634280001272,-0.3232172241210937,-9.734823950195311,1.3000515014648437,0,0,0,0
1.1574143080001704,-0.30406361083984373,-9.744400756835937,1.2856862915039062,0,0,0,0
1.1596713660001114,-0.4572925170898437,-9.694122521972655,1.2785036865234374,0,0,0,0
1.1610922640002173,-0.2920926025390625,-9.658209497070311,1.3096283081054687,0,0,0,0
1.1629506950002906,-0.33758243408203126,-9.528922607421874,1.2761094848632812,0,0,0,0
1.1642810749999626,-0.43574470214843747,-9.588777648925781,1.235408056640625,0,0,0,0
1.166194617000201,-0.40222587890625,-9.636661682128906,1.149216796875,0,0,0,0
1.1677163100002872,-0.229843359375,-9.782707983398437,1.2689268798828124,0,0,0,0
1.1689739120001832,-0.19393033447265623,-9.715670336914062,1.3311761230468748,0,0,0,0
1.1702292550003222,-0.2154781494140625,-9.672574707031249,1.4700398193359374,0,0,0,0
1.1715441710002779,-0.3232172241210937,-9.658209497070311,1.2737152832031249,0,0,0,0
1.1727199410001958,-0.33518823242187495,-9.667786303710937,1.3527239379882812,0,0,0,0
1.1738173040002948,-0.4213794921875,-9.672574707031249,1.2832920898437499,0,0,0,0
1.1749070740002026,-0.39264907226562495,-9.70369932861328,1.199495031738281,0,0,0,0
1.1759991210001317,-0.36152445068359373,-9.603142858886718,1.2617442749023438,0,0,0,0
1.1772254649999923,-0.3016694091796875,-9.622296472167967,1.2569558715820313,0,0,0,0
1.1786571400002686,-0.38307226562499996,-9.677363110351562,1.2617442749023438,0,0,0,0
1.1797815760000958,-0.3136404174804687,-9.708487731933593,1.24498486328125,0,0,0,0
1.1808869020001111,-0.35194764404296874,-9.718064538574218,1.3359645263671873,0,0,0,0
1.1819646160001867,-0.3136404174804687,-9.686939916992188,1.369483349609375,0,0,0,0
1.1832179590001033,-0.3112462158203125,-9.677363110351562,1.2928688964843749,0,0,0,0
1.184629949000282,-0.4381389038085937,-9.593566052246093,1.2138602416992186,0,0,0,0
1.1858552000003328,-0.42377369384765623,-9.600748657226562,1.2497732666015624,0,0,0,0
1.1872291720001158,-0.37828386230468747,-9.667786303710937,1.2761094848632812,0,0,0,0
1.1888278830001582,-0.2657563842773437,-9.636661682128906,1.3215993164062498,0,0,0,0
1.1903302979999353,-0.16519991455078123,-9.610325463867188,1.350329736328125,0,0,0,0
1.191805306000333,-0.2609679809570312,-9.689334118652344,1.2665326782226562,0,0,0,0
1.1932214440003008,-0.34237083740234375,-9.734823950195311,1.4221557861328125,0,0,0,0
1.1947403220001434,-0.46208092041015625,-9.70369932861328,1.197100830078125,0,0,0,0
1.1960253689999263,-0.5363011718749999,-9.624690673828125,1.2018892333984375,0,0,0,0
1.1971886010001072,-0.40462008056640625,-9.667786303710937,1.2497732666015624,0,0,0,0
1.1983220750003056,-0.36152445068359373,-9.794678991699218,1.2401964599609374,0,0,0,0
1.199574307000148,-0.4525041137695312,-9.581595043945311,1.3072341064453123,0,0,0,0
1.2009320750003099,-0.2609679809570312,-9.60793126220703,1.2952630981445312,0,0,0,0
1.2020359379998808,-0.2154781494140625,-9.670180505371093,1.3168109130859373,0,0,0,0
1.2031343369999377,-0.23223756103515625,-9.713276135253906,1.2737152832031249,0,0,0,0
1.204223089000152,-0.23223756103515625,-9.713276135253906,1.2282254516601563,0,0,0,0
1.2054487469999913,-0.30885201416015623,-9.68454571533203,1.2042834350585936,0,0,0,0
1.206735738000134,-0.4644751220703125,-9.639055883789062,1.2497732666015624,0,0,0,0
1.2078476000001501,-0.4644751220703125,-9.593566052246093,1.2641384765625,0,0,0,0
1.2089424260002488,-0.44053310546874996,-9.605537060546874,1.2306196533203124,0,0,0,0
1.2101532690003296,-0.4070142822265625,-9.636661682128906,1.2832920898437499,0,0,0,0
1.2114936860002672,-0.24899697265624998,-9.564835632324218,1.3311761230468748,0,0,0,0
1.2125986410001133,-0.3064578125,-9.562441430664062,1.3646949462890625,0,0,0,0
1.2136870409999574,-0.18435352783203124,-9.591171850585937,1.3048399047851562,0,0,0,0
1.2147683110001708,-0.30885201416015623,-9.610325463867188,1.2737152832031249,0,0,0,0
1.2158585070001209,-0.42377369384765623,-9.636661682128906,1.1875240234375,0,0,0,0
1.2171060900000157,-0.4525041137695312,-9.777919580078125,1.2593500732421874,0,0,0,0
1.2183973960000003,-0.45968671875,-9.734823950195311,1.2761094848632812,0,0,0,0
1.219684554000196,-0.34237083740234375,-9.660603698730467,1.2425906616210938,0,0,0,0
1.2208053790000122,-0.3280056274414062,-9.64623848876953,1.2713210815429687,0,0,0,0
1.2218985009999415,-0.2825157958984375,-9.648632690429688,1.2569558715820313,0,0,0,0
1.2229841600001237,-0.28730419921875,-9.651026892089844,1.3431471313476562,0,0,0,0
1.2242215960000067,-0.16280571289062498,-9.629479077148437,1.2952630981445312,0,0,0,0
1.2255936790002124,-0.16041151123046873,-9.610325463867188,1.2832920898437499,0,0,0,0
1.226691652000227,-0.3806780639648437,-9.634267480468749,1.2617442749023438,0,0,0,0
1.2279307180001524,-0.4261678955078125,-9.674968908691406,1.2880804931640624,0,0,0,0
1.2290656909999598,-0.3591302490234375,-9.68454571533203,1.254561669921875,0,0,0,0
1.2302966450001804,-0.44532150878906246,-9.713276135253906,1.2976572998046874,0,0,0,0
1.2316916540003149,-0.2705447875976562,-9.64623848876953,1.3527239379882812,0,0,0,0
1.2329416080001465,-0.16759411621093748,-9.600748657226562,1.3814543579101561,0,0,0,0
1.2342417100003331,-0.239420166015625,-9.557653027343749,1.2952630981445312,0,0,0,0
1.2354863870000372,-0.2825157958984375,-9.603142858886718,1.2569558715820313,0,0,0,0
1.2368803210001715,-0.3447650390625,-9.593566052246093,1.2401964599609374,0,0,0,0
1.238198218999969,-0.35194764404296874,-9.639055883789062,1.2473790649414063,0,0,0,0
1.2395197099999677,-0.40462008056640625,-9.749189160156249,1.2330138549804688,0,0,0,0
1.240767200999926,-0.42377369384765623,-9.763554370117188,1.2832920898437499,0,0,0,0
1.2420809509999344,-0.40462008056640625,-9.706093530273437,1.2976572998046874,0,0,0,0
1.2433808680002585,-0.39743747558593745,-9.509768994140625,1.3527239379882812,0,0,0,0
1.2445448230000693,-0.44053310546874996,-9.639055883789062,1.3168109130859373,0,0,0,0
1.2456537040002331,-0.3112462158203125,-9.622296472167967,1.3072341064453123,0,0,0,0
1.246744974000194,-0.3399766357421875,-9.617508068847656,1.3096283081054687,0,0,0,0
1.2478431140002613,-0.30885201416015623,-9.667786303710937,1.2378022583007813,0,0,0,0
1.2490975499999877,-0.3495534423828125,-9.667786303710937,1.369483349609375,0,0,0,0
1.2502787270000226,-0.32561142578124996,-9.679757312011718,1.216254443359375,0,0,0,0
1.2513929589999861,-0.3591302490234375,-9.749189160156249,1.2138602416992186,0,0,0,0
1.2524825810000948,-0.33758243408203126,-9.665392102050781,1.2018892333984375,0,0,0,0
1.2535737960001825,-0.3495534423828125,-9.6151138671875,1.2856862915039062,0,0,0,0
1.254799732000265,-0.40462008056640625,-9.667786303710937,1.3646949462890625,0,0,0,0
1.2560005939999428,-0.32561142578124996,-9.631873278808593,1.3623007446289062,0,0,0,0
1.2571054380000533,-0.2753331909179687,-9.677363110351562,1.2689268798828124,0,0,0,0
1.2582052450002266,-0.32082302246093747,-9.603142858886718,1.2569558715820313,0,0,0,0
1.25943771700031,-0.30406361083984373,-9.605537060546874,1.2138602416992186,0,0,0,0
1.2606452089999038,-0.28969840087890625,-9.603142858886718,1.1444283935546875,0,0,0,0
1.2617499600000883,-0.33039982910156246,-9.6917283203125,1.1827356201171875,0,0,0,0
1.26284508200024,-0.3327940307617187,-9.6917283203125,1.1875240234375,0,0,0,0
1.263944000000265,-0.33518823242187495,-9.70369932861328,1.2689268798828124,0,0,0,0
1.2651713620002738,-0.316034619140625,-9.80665,1.3024457031249999,0,0,0,0
1.266380835000291,-0.32082302246093747,-9.665392102050781,1.3000515014648437,0,0,0,0
1.2674869570000737,-0.29448680419921874,-9.629479077148437,1.3455413330078123,0,0,0,0
1.2685679490000439,-0.17956512451171874,-9.605537060546874,1.429338391113281,0,0,0,0
1.269642775000193,-0.3902548706054687,-9.548076220703125,1.3287819213867187,0,0,0,0
1.2708800260002135,-0.42377369384765623,-9.627084875488281,1.209071838378906,0,0,0,0
1.2720626469999843,-0.34237083740234375,-9.682151513671874,1.209071838378906,0,0,0,0
1.2731642690000626,-0.316034619140625,-9.713276135253906,1.2832920898437499,0,0,0,0
1.2742533170003298,-0.30885201416015623,-9.730035546875,1.3144167114257812,0,0,0,0
1.2753591790001337,-0.28012159423828126,-9.72285294189453,1.3814543579101561,0,0,0,0
1.2765835220002373,-0.29927520751953124,-9.662997900390625,1.35990654296875,0,0,0,0
1.2777763839999352,-0.3112462158203125,-9.6151138671875,1.3311761230468748,0,0,0,0
1.2789063019999958,-0.40940848388671874,-9.622296472167967,1.3048399047851562,0,0,0,0
1.2800753870001245,-0.42377369384765623,-9.624690673828125,1.3215993164062498,0,0,0,0
1.281300488999932,-0.40222587890625,-9.634267480468749,1.2042834350585936,0,0,0,0
1.2824994620000325,-0.3591302490234375,-9.667786303710937,1.3215993164062498,0,0,0,0
1.2836419909999677,-0.3232172241210937,-9.713276135253906,1.2617442749023438,0,0,0,0
1.2847392050002782,-0.2657563842773437,-9.708487731933593,1.2952630981445312,0,0,0,0
1.2858354009999857,-0.24181436767578124,-9.686939916992188,1.3144167114257812,0,0,0,0
1.2871428000003107,-0.296881005859375,-9.667786303710937,1.4053963745117186,0,0,0,0
1.2883411610000621,-0.25139117431640623,-9.507374792480467,1.3359645263671873,0,0,0,0
1.2895421719999831,-0.19153613281249998,-9.674968908691406,1.3000515014648437,0,0,0,0
1.2907026820003011,-0.5003881469726562,-9.64623848876953,1.2785036865234374,0,0,0,0
1.2920664500002204,-0.4740519287109375,-9.629479077148437,1.2114660400390624,0,0,0,0
1.2933417560002454,-0.40940848388671874,-9.636661682128906,1.2808978881835937,0,0,0,0
1.2945382289999543,-0.4261678955078125,-9.677363110351562,1.2713210815429687,0,0,0,0
1.2956508689999282,-0.26336218261718747,-9.64623848876953,1.3527239379882812,0,0,0,0
1.2967362500003219,-0.277727392578125,-9.674968908691406,1.2737152832031249,0,0,0,0
1.2978292239999973,-0.34237083740234375,-9.737218151855469,1.2665326782226562,0,0,0,0
1.299101363000318,-0.3495534423828125,-9.696516723632811,1.2425906616210938,0,0,0,0
1.3002887070001634,-0.3280056274414062,-9.667786303710937,1.2473790649414063,0,0,0,0
1.3016952520001723,-0.354341845703125,-9.670180505371093,1.2713210815429687,0,0,0,0
1.3029011329999776,-0.3711012573242187,-9.624690673828125,1.2928688964843749,0,0,0,0
1.3040930500001195,-0.3447650390625,-9.56962403564453,1.3551181396484375,0,0,0,0
1.3054156329999387,-0.34237083740234375,-9.639055883789062,1.2952630981445312,0,0,0,0
1.3067698089998885,-0.28969840087890625,-9.670180505371093,1.199495031738281,0,0,0,0
1.307883153000148,-0.21308394775390624,-9.605537060546874,1.2497732666015624,0,0,0,0
1.3090707930000463,-0.27293898925781246,-9.665392102050781,1.2832920898437499,0,0,0,0
1.310266877000231,-0.296881005859375,-9.706093530273437,1.2521674682617188,0,0,0,0
1.3114902760003133,-0.3854664672851562,-9.643844287109374,1.2521674682617188,0,0,0,0
1.3128122289999737,-0.47644613037109373,-9.581595043945311,1.2856862915039062,0,0,0,0
1.3139322960000754,-0.507570751953125,-9.622296472167967,1.2976572998046874,0,0,0,0
1.3150594170001568,-0.45010991210937495,-9.648632690429688,1.2976572998046874,0,0,0,0
1.3161592800001927,-0.35194764404296874,-9.670180505371093,1.3048399047851562,0,0,0,0
1.3173701230002735,-0.3495534423828125,-9.595960253906249,1.2976572998046874,0,0,0,0
1.3187008360000618,-0.22744915771484372,-9.68454571533203,1.2737152832031249,0,0,0,0
1.319808254000236,-0.2154781494140625,-9.651026892089844,1.3168109130859373,0,0,0,0
1.32089289500027,-0.27293898925781246,-9.72285294189453,1.3144167114257812,0,0,0,0
1.32202307200032,-0.3016694091796875,-9.734823950195311,1.2521674682617188,0,0,0,0
1.3232379340001899,-0.3327940307617187,-9.619902270507811,1.2521674682617188,0,0,0,0
1.3245470350002506,-0.32561142578124996,-9.595960253906249,1.2617442749023438,0,0,0,0
1.3256470649998846,-0.40222587890625,-9.648632690429688,1.22583125,0,0,0,0
1.3267268720001084,-0.4429273071289062,-9.631873278808593,1.2737152832031249,0,0,0,0
1.327815383000143,-0.42377369384765623,-9.658209497070311,1.2521674682617188,0,0,0,0
1.328913244999967,-0.29927520751953124,-9.576806640625,1.2761094848632812,0,0,0,0
1.3301539029998821,-0.22266075439453123,-9.655815295410155,1.2617442749023438,0,0,0,0
1.331454653000037,-0.28730419921875,-9.686939916992188,1.2785036865234374,0,0,0,0
1.3325529230000939,-0.18435352783203124,-9.679757312011718,1.3120225097656248,0,0,0,0
1.3336356560002969,-0.40940848388671874,-9.65342109375,1.3096283081054687,0,0,0,0
1.3347207970000454,-0.430956298828125,-9.651026892089844,1.3168109130859373,0,0,0,0
1.3359675659999084,-0.3902548706054687,-9.686939916992188,1.2928688964843749,0,0,0,0
1.337242298000092,-0.39743747558593745,-9.749189160156249,1.3048399047851562,0,0,0,0
1.3383392159998948,-0.3902548706054687,-9.667786303710937,1.2880804931640624,0,0,0,0
1.339431801000046,-0.2920926025390625,-9.519345800781249,1.3048399047851562,0,0,0,0
1.3405180340000697,-0.430956298828125,-9.588777648925781,1.3335703247070312,0,0,0,0
1.3418782650001049,-0.2059013427734375,-9.610325463867188,1.2378022583007813,0,0,0,0
1.3432127549999677,-0.2561795776367187,-9.770736975097655,1.2808978881835937,0,0,0,0
1.344445672999882,-0.22744915771484372,-9.686939916992188,1.369483349609375,0,0,0,0
1.3455612940001629,-0.5027823486328125,-9.706093530273437,1.2306196533203124,0,0,0,0
1.3467920080001932,-0.40462008056640625,-9.74200655517578,1.24498486328125,0,0,0,0
1.348114925000118,-0.296881005859375,-9.749189160156249,1.4341267944335936,0,0,0,0
1.3492213800000172,-0.36152445068359373,-9.730035546875,1.3359645263671873,0,0,0,0
1.3504181120001704,-0.40940848388671874,-9.552864624023437,1.3407529296874998,0,0,0,0
1.352664874000311,-0.2753331909179687,-9.56962403564453,1.2018892333984375,0,0,0,0
1.3538911989999178,-0.36152445068359373,-9.65342109375,1.235408056640625,0,0,0,0
1.3551445420002892,-0.4381389038085937,-9.662997900390625,1.189918225097656,0,0,0,0
1.3563714030001393,-0.3854664672851562,-9.746794958496093,1.22583125,0,0,0,0
1.3575377470001513,-0.4333505004882812,-9.64623848876953,1.3048399047851562,0,0,0,0
1.3586424610002723,-0.3232172241210937,-9.617508068847656,1.3862427612304686,0,0,0,0
1.359820063999905,-0.26815058593749996,-9.660603698730467,1.3407529296874998,0,0,0,0
1.3609287970002697,-0.28490999755859375,-9.682151513671874,1.3575123413085937,0,0,0,0
1.362125214000116,-0.2537853759765625,-9.674968908691406,1.2785036865234374,0,0,0,0
1.363328021000143,-0.32082302246093747,-9.60793126220703,1.2665326782226562,0,0,0,0
1.3644532719999916,-0.16998831787109375,-9.583989245605467,1.254561669921875,0,0,0,0
1.3657826520002345,-0.34237083740234375,-9.600748657226562,1.199495031738281,0,0,0,0
1.367089845999999,-0.28730419921875,-9.634267480468749,1.2713210815429687,0,0,0,0
1.3683557080003084,-0.316034619140625,-9.737218151855469,1.3287819213867187,0,0,0,0
1.369533439999941,-0.26336218261718747,-9.749189160156249,1.3215993164062498,0,0,0,0
1.3706461540000419,-0.2705447875976562,-9.758765966796874,1.37906015625,0,0,0,0
1.3717327760000444,-0.2561795776367187,-9.658209497070311,1.3431471313476562,0,0,0,0
1.3728364349999538,-0.3447650390625,-9.576806640625,1.3287819213867187,0,0,0,0
1.3739171870001883,-0.3758896606445312,-9.576806640625,1.2641384765625,0,0,0,0
1.3751809370000956,-0.41898529052734373,-9.588777648925781,1.2808978881835937,0,0,0,0
1.3763472989999173,-0.44053310546874996,-9.612719665527344,1.1923124267578125,0,0,0,0
1.377433142999962,-0.3447650390625,-9.660603698730467,1.24498486328125,0,0,0,0
1.378503468999952,-0.36391865234375,-9.713276135253906,1.2521674682617188,0,0,0,0
1.3796178870002223,-0.2154781494140625,-9.744400756835937,1.2617442749023438,0,0,0,0
1.380826934000197,-0.15562310791015624,-9.758765966796874,1.3263877197265623,0,0,0,0
1.3820251110000754,-0.2442085693359375,-9.730035546875,1.5083470458984374,0,0,0,0
1.383157807000316,-0.3495534423828125,-9.792284790039062,1.3168109130859373,0,0,0,0
1.3842499100001078,-0.43574470214843747,-9.572018237304688,1.3120225097656248,0,0,0,0
1.3854662720000306,-0.469263525390625,-9.56962403564453,1.2378022583007813,0,0,0,0
1.3866658189999725,-0.40462008056640625,-9.598354455566406,1.2138602416992186,0,0,0,0
1.3877733670001362,-0.34715924072265625,-9.622296472167967,1.3048399047851562,0,0,0,0
1.3888602659999378,-0.23223756103515625,-9.68454571533203,1.3263877197265623,0,0,0,0
1.389945999000247,-0.2346317626953125,-9.730035546875,1.3024457031249999,0,0,0,0
1.391198286999952,-0.22744915771484372,-9.658209497070311,1.3144167114257812,0,0,0,0
1.3924083340002653,-0.28490999755859375,-9.660603698730467,1.3575123413085937,0,0,0,0
1.393552233000264,-0.28490999755859375,-9.694122521972655,1.3431471313476562,0,0,0,0
1.3946418180003093,-0.38786066894531246,-9.713276135253906,1.2808978881835937,0,0,0,0
1.3957351809999636,-0.4213794921875,-9.6917283203125,1.2282254516601563,0,0,0,0
1.3969741539999632,-0.4955997436523437,-9.667786303710937,1.2880804931640624,0,0,0,0
1.3981497380000292,-0.4644751220703125,-9.739612353515625,1.3072341064453123,0,0,0,0
1.3992521929999384,-0.3806780639648437,-9.605537060546874,1.2952630981445312,0,0,0,0
1.400342036999973,-0.29927520751953124,-9.655815295410155,1.369483349609375,0,0,0,0
1.4014254550002079,-0.24899697265624998,-9.634267480468749,1.4006079711914061,0,0,0,0
1.4027197979999073,-0.25139117431640623,-9.619902270507811,1.3287819213867187,0,0,0,0
1.4039799930001209,-0.30406361083984373,-9.696516723632811,1.2808978881835937,0,0,0,0
1.4050944479999998,-0.3327940307617187,-9.730035546875,1.2521674682617188,0,0,0,0
1.4061833660002776,-0.3806780639648437,-9.713276135253906,1.2425906616210938,0,0,0,0
1.4074078389999158,-0.33039982910156246,-9.641450085449218,1.3000515014648437,0,0,0,0
1.4086050340001748,-0.4525041137695312,-9.536105212402344,1.3263877197265623,0,0,0,0
1.4096985820001464,-0.33039982910156246,-9.548076220703125,1.2808978881835937,0,0,0,0
1.4107815010002014,-0.30406361083984373,-9.56962403564453,1.2808978881835937,0,0,0,0
1.4119089559999338,-0.22505495605468748,-9.651026892089844,1.3431471313476562,0,0,0,0
1.4131642239999564,-0.20350714111328125,-9.718064538574218,1.3623007446289062,0,0,0,0
1.4143621050002366,-0.16519991455078123,-9.694122521972655,1.3192051147460937,0,0,0,0
1.416619958999945,-0.3447650390625,-9.682151513671874,1.2665326782226562,0,0,0,0
1.4178119510002034,-0.3902548706054687,-9.639055883789062,1.3144167114257812,0,0,0,0
1.4190636640000776,-0.45968671875,-9.648632690429688,1.3144167114257812,0,0,0,0
1.4202481560000706,-0.430956298828125,-9.660603698730467,1.39821376953125,0,0,0,0
1.421369426000183,-0.430956298828125,-9.718064538574218,1.3766659545898436,0,0,0,0
1.4225156770003196,-0.143652099609375,-9.708487731933593,1.3910311645507811,0,0,0,0
1.423727167999914,-0.14125789794921875,-9.710881933593749,1.407790576171875,0,0,0,0
1.424851179000143,-0.229843359375,-9.612719665527344,1.3910311645507811,0,0,0,0
1.4260442449999573,-0.28969840087890625,-9.622296472167967,1.3072341064453123,0,0,0,0
1.4273083650000444,-0.33758243408203126,-9.64623848876953,1.2832920898437499,0,0,0,0
1.42843889400001,-0.3136404174804687,-9.679757312011718,1.3335703247070312,0,0,0,0
1.4295658310002182,-0.4644751220703125,-9.679757312011718,1.2282254516601563,0,0,0,0
1.4307361370001672,-0.4070142822265625,-9.698910925292969,1.2401964599609374,0,0,0,0
1.4318430550001722,-0.33758243408203126,-9.670180505371093,1.3192051147460937,0,0,0,0
1.4333797479998793,-0.258573779296875,-9.593566052246093,1.3575123413085937,0,0,0,0
1.4346786099999917,-0.19871873779296872,-9.576806640625,1.3311761230468748,0,0,0,0
1.4357761199999004,-0.2609679809570312,-9.583989245605467,1.2689268798828124,0,0,0,0
1.4368653350002205,-0.277727392578125,-9.593566052246093,1.199495031738281,0,0,0,0
1.437949179000043,-0.30406361083984373,-9.674968908691406,1.2617442749023438,0,0,0,0
1.4397422770002777,-0.411802685546875,-9.749189160156249,1.3144167114257812,0,0,0,0
1.4416091900002357,-0.33039982910156246,-9.713276135253906,1.3455413330078123,0,0,0,0
1.4427089790001446,-0.33518823242187495,-9.732429748535155,1.3407529296874998,0,0,0,0
1.4438319149999188,-0.26336218261718747,-9.598354455566406,1.3168109130859373,0,0,0,0
1.445409552000001,-0.28490999755859375,-9.560047229003906,1.2689268798828124,0,0,0,0
1.4468107090001467,-0.354341845703125,-9.545682019042967,1.2330138549804688,0,0,0,0
1.4479173859999719,-0.38786066894531246,-9.591171850585937,1.235408056640625,0,0,0,0
1.449014656000145,-0.3711012573242187,-9.758765966796874,1.2210428466796874,0,0,0,0
1.4507048850000501,-0.3495534423828125,-9.758765966796874,1.2665326782226562,0,0,0,0
1.4519024320002245,-0.26336218261718747,-9.70369932861328,1.3168109130859373,0,0,0,0
1.4530267580003056,-0.25139117431640623,-9.682151513671874,1.2593500732421874,0,0,0,0
1.454123102000267,-0.354341845703125,-9.639055883789062,1.3192051147460937,0,0,0,0
1.455812442000024,-0.33758243408203126,-9.572018237304688,1.35990654296875,0,0,0,0
1.4571997279999778,-0.3280056274414062,-9.586383447265625,1.2617442749023438,0,0,0,0
1.4583089980001205,-0.3232172241210937,-9.56962403564453,1.2832920898437499,0,0,0,0
1.4594220829999358,-0.24899697265624998,-9.605537060546874,1.2521674682617188,0,0,0,0
1.4612395330000254,-0.28730419921875,-9.665392102050781,1.2473790649414063,0,0,0,0
1.462379673000214,-0.28969840087890625,-9.694122521972655,1.2569558715820313,0,0,0,0
1.463472980000006,-0.34715924072265625,-9.708487731933593,1.2737152832031249,0,0,0,0
1.4645619540001462,-0.2705447875976562,-9.725247143554688,1.3670891479492187,0,0,0,0
1.466295645000173,-0.1867477294921875,-9.641450085449218,1.3838485595703125,0,0,0,0
1.468310909000138,-0.36152445068359373,-9.583989245605467,1.2234370483398436,0,0,0,0
1.4695666040001925,-0.33039982910156246,-9.557653027343749,1.3072341064453123,0,0,0,0
1.4713265730001694,-0.33039982910156246,-9.662997900390625,1.3215993164062498,0,0,0,0
1.4726555450001797,-0.28969840087890625,-9.631873278808593,1.2665326782226562,0,0,0,0
1.4737399630002983,-0.32561142578124996,-9.701305126953125,1.2665326782226562,0,0,0,0
1.474857232999966,-0.3591302490234375,-9.739612353515625,1.2425906616210938,0,0,0,0
1.4759570770002028,-0.3854664672851562,-9.7683427734375,1.3120225097656248,0,0,0,0
1.4776605840002048,-0.3687070556640625,-9.674968908691406,1.3048399047851562,0,0,0,0
1.478917205000016,-0.3447650390625,-9.588777648925781,1.3192051147460937,0,0,0,0
1.4814573530002235,-0.3495534423828125,-9.593566052246093,1.3359645263671873,0,0,0,0
1.4828187699999944,-0.3854664672851562,-9.639055883789062,1.2521674682617188,0,0,0,0
1.4840745940000488,-0.4213794921875,-9.715670336914062,1.3048399047851562,0,0,0,0
1.4852845670002353,-0.41419688720703124,-9.785102185058593,1.2808978881835937,0,0,0,0
1.486409225999978,-0.19871873779296872,-9.758765966796874,1.2928688964843749,0,0,0,0
1.4875449770001978,-0.22505495605468748,-9.701305126953125,1.35990654296875,0,0,0,0
1.4886433209999268,-0.28969840087890625,-9.605537060546874,1.3287819213867187,0,0,0,0
1.4897401650000575,-0.3711012573242187,-9.651026892089844,1.3072341064453123,0,0,0,0
1.4909740820003208,-0.4860229370117187,-9.64623848876953,1.2641384765625,0,0,0,0
1.4921640370002933,-0.4836287353515625,-9.64623848876953,1.2497732666015624,0,0,0,0
1.493270844000108,-0.3399766357421875,-9.605537060546874,1.2521674682617188,0,0,0,0
1.494368040000154,-0.32082302246093747,-9.595960253906249,1.2785036865234374,0,0,0,0
1.4954631430000518,-0.2609679809570312,-9.567229833984374,1.24498486328125,0,0,0,0
1.496555950000129,-0.24899697265624998,-9.610325463867188,1.350329736328125,0,0,0,0
1.497789923000255,-0.2657563842773437,-9.689334118652344,1.2665326782226562,0,0,0,0
1.498961507000331,-0.28969840087890625,-9.777919580078125,1.39821376953125,0,0,0,0
1.5000791659999777,-0.34237083740234375,-9.777919580078125,1.2880804931640624,0,0,0,0
1.5011743439999918,-0.42377369384765623,-9.701305126953125,1.2976572998046874,0,0,0,0
1.5022712429999956,-0.4429273071289062,-9.68454571533203,1.2880804931640624,0,0,0,0
1.5034710130003077,-0.4285620971679687,-9.64623848876953,1.209071838378906,0,0,0,0
1.5047266520000449,-0.40462008056640625,-9.598354455566406,1.2665326782226562,0,0,0,0
1.5058418480002729,-0.29448680419921874,-9.540893615722656,1.2282254516601563,0,0,0,0
1.5069397840002239,-0.2657563842773437,-9.636661682128906,1.2737152832031249,0,0,0,0
1.5080399250000482,-0.18435352783203124,-9.694122521972655,1.3623007446289062,0,0,0,0
1.5092288979999466,-0.18914193115234373,-9.7683427734375,1.3383587280273437,0,0,0,0
1.5104890000002342,-0.277727392578125,-9.739612353515625,1.369483349609375,0,0,0,0
1.5116160659999878,-0.40222587890625,-9.689334118652344,1.3838485595703125,0,0,0,0
1.5127555029998803,-0.48123453369140623,-9.651026892089844,1.2617442749023438,0,0,0,0
1.5138525320003282,-0.45968671875,-9.651026892089844,1.2521674682617188,0,0,0,0
1.5149425059998975,-0.3399766357421875,-9.631873278808593,1.2665326782226562,0,0,0,0
1.5161494419999144,-0.32561142578124996,-9.651026892089844,1.3383587280273437,0,0,0,0
1.5173540810001214,-0.25139117431640623,-9.576806640625,1.3575123413085937,0,0,0,0
1.5184722770000008,-0.22026655273437498,-9.667786303710937,1.3144167114257812,0,0,0,0
1.5195898619999753,-0.24660277099609373,-9.682151513671874,1.35990654296875,0,0,0,0
1.5206752610001786,-0.239420166015625,-9.679757312011718,1.3766659545898436,0,0,0,0
1.5217577720000008,-0.26815058593749996,-9.674968908691406,1.369483349609375,0,0,0,0
1.5231727989998944,-0.28730419921875,-9.662997900390625,1.2282254516601563,0,0,0,0
1.524450938999962,-0.40462008056640625,-9.727641345214844,1.235408056640625,0,0,0,0
1.525567931000296,-0.3902548706054687,-9.70369932861328,1.2306196533203124,0,0,0,0
1.5266804410002806,-0.41898529052734373,-9.624690673828125,1.3048399047851562,0,0,0,0
1.5277998219999063,-0.33518823242187495,-9.643844287109374,1.3431471313476562,0,0,0,0
1.5290662760003215,-0.2825157958984375,-9.617508068847656,1.3120225097656248,0,0,0,0
1.5303762670000651,-0.23702596435546874,-9.674968908691406,1.3407529296874998,0,0,0,0
1.5317370719999417,-0.3016694091796875,-9.672574707031249,1.2880804931640624,0,0,0,0
1.533052859000236,-0.36631285400390623,-9.720458740234374,1.2808978881835937,0,0,0,0
1.5342554620001465,-0.3327940307617187,-9.665392102050781,1.2880804931640624,0,0,0,0
1.5355065829999148,-0.354341845703125,-9.751583361816406,1.3168109130859373,0,0,0,0
1.53667975999997,-0.3399766357421875,-9.727641345214844,1.3455413330078123,0,0,0,0
1.537880806999965,-0.3016694091796875,-9.617508068847656,1.3263877197265623,0,0,0,0
1.5389680580001368,-0.3711012573242187,-9.56962403564453,1.3096283081054687,0,0,0,0
1.5400589020000552,-0.4860229370117187,-9.617508068847656,1.2737152832031249,0,0,0,0
1.5412760419999358,-0.373495458984375,-9.6917283203125,1.1563994018554686,0,0,0,0
1.5425066259999767,-0.30885201416015623,-9.765948571777344,1.2018892333984375,0,0,0,0
1.5436108590001822,-0.28730419921875,-9.734823950195311,1.2521674682617188,0,0,0,0
1.5446957210001528,-0.2825157958984375,-9.68454571533203,1.2378022583007813,0,0,0,0
1.5457729360000485,-0.34715924072265625,-9.682151513671874,1.3407529296874998,0,0,0,0
1.5468569280001248,-0.3591302490234375,-9.68454571533203,1.3527239379882812,0,0,0,0
1.5480986600000506,-0.39743747558593745,-9.698910925292969,1.3263877197265623,0,0,0,0
1.5493262630002391,-0.411802685546875,-9.651026892089844,1.3144167114257812,0,0,0,0
1.5504191069999251,-0.35194764404296874,-9.658209497070311,1.2904746948242187,0,0,0,0
1.5515102290000868,-0.33518823242187495,-9.667786303710937,1.2880804931640624,0,0,0,0
1.5525941290002265,-0.2561795776367187,-9.6151138671875,1.3072341064453123,0,0,0,0
1.5536772320001546,-0.22744915771484372,-9.639055883789062,1.3742717529296875,0,0,0,0
1.55491922300007,-0.2657563842773437,-9.682151513671874,1.3072341064453123,0,0,0,0
1.5561176589999377,-0.2753331909179687,-9.725247143554688,1.3144167114257812,0,0,0,0
1.5572086520000994,-0.3184288208007812,-9.701305126953125,1.3359645263671873,0,0,0,0
1.5582892550000906,-0.18914193115234373,-9.708487731933593,1.3646949462890625,0,0,0,0
1.5593745070000296,-0.39983167724609375,-9.670180505371093,1.2665326782226562,0,0,0,0
1.560555554000075,-0.4213794921875,-9.660603698730467,1.2282254516601563,0,0,0,0
1.5618693040000835,-0.4213794921875,-9.718064538574218,1.2282254516601563,0,0,0,0
1.5632363130002886,-0.30885201416015623,-9.631873278808593,1.2569558715820313,0,0,0,0
1.5644345270002304,-0.2753331909179687,-9.624690673828125,1.3287819213867187,0,0,0,0
1.5657290170001943,-0.20829554443359374,-9.694122521972655,1.3192051147460937,0,0,0,0
1.5672327850002148,-0.18435352783203124,-9.672574707031249,1.2282254516601563,0,0,0,0
1.5686963670000296,-0.44532150878906246,-9.710881933593749,1.3120225097656248,0,0,0,0
1.5700014130002273,-0.46686932373046874,-9.732429748535155,1.2785036865234374,0,0,0,0
1.571285644999989,-0.316034619140625,-9.725247143554688,1.2856862915039062,0,0,0,0
1.5725891540000703,-0.32082302246093747,-9.725247143554688,1.3479355346679687,0,0,0,0
1.5739969780001957,-0.2609679809570312,-9.53131680908203,1.2904746948242187,0,0,0,0
1.5753161719999298,-0.4285620971679687,-9.488221179199218,1.3120225097656248,0,0,0,0
1.5766234400002759,-0.36631285400390623,-9.516951599121093,1.2880804931640624,0,0,0,0
1.5781409109999913,-0.3591302490234375,-9.696516723632811,1.3144167114257812,0,0,0,0
1.5800151200000982,-0.2753331909179687,-9.74200655517578,1.3096283081054687,0,0,0,0
1.5813628700002482,-0.28012159423828126,-9.727641345214844,1.3072341064453123,0,0,0,0
1.5827698600000986,-0.2920926025390625,-9.789890588378906,1.3479355346679687,0,0,0,0
1.5846461250002903,-0.3495534423828125,-9.572018237304688,1.2617442749023438,0,0,0,0
1.5874551970000539,-0.3399766357421875,-9.591171850585937,1.2497732666015624,0,0,0,0
1.5887637989999348,-0.33039982910156246,-9.6151138671875,1.2737152832031249,0,0,0,0
1.5899577539998972,-0.28012159423828126,-9.674968908691406,1.2521674682617188,0,0,0,0
1.5910798570002953,-0.19632453613281248,-9.725247143554688,1.2976572998046874,0,0,0,0
1.5921712750000552,-0.2537853759765625,-9.689334118652344,1.369483349609375,0,0,0,0
1.5934291550001944,-0.34715924072265625,-9.655815295410155,1.2880804931640624,0,0,0,0
1.5951683650000632,-0.36391865234375,-9.658209497070311,1.2617442749023438,0,0,0,0
1.5963426719999916,-0.3758896606445312,-9.701305126953125,1.22583125,0,0,0,0
1.5975884780000342,-0.2920926025390625,-9.70369932861328,1.2641384765625,0,0,0,0
1.598974171000009,-0.2825157958984375,-9.560047229003906,1.2976572998046874,0,0,0,0
1.600121088999913,-0.3064578125,-9.634267480468749,1.235408056640625,0,0,0,0
1.6012168590000329,-0.26336218261718747,-9.624690673828125,1.1947066284179686,0,0,0,0
1.6023111479998988,-0.296881005859375,-9.639055883789062,1.22583125,0,0,0,0
1.6034846950001338,-0.30885201416015623,-9.739612353515625,1.2904746948242187,0,0,0,0
1.6046444829999018,-0.4261678955078125,-9.732429748535155,1.2952630981445312,0,0,0,0
1.6057461420000436,-0.40940848388671874,-9.763554370117188,1.3359645263671873,0,0,0,0
1.6068407090001529,-0.3495534423828125,-9.765948571777344,1.3551181396484375,0,0,0,0
1.6079182749999745,-0.3280056274414062,-9.737218151855469,1.3239935180664062,0,0,0,0
1.6090666190002594,-0.33039982910156246,-9.6151138671875,1.3168109130859373,0,0,0,0
1.6102123509999728,-0.16280571289062498,-9.579200842285156,1.2521674682617188,0,0,0,0
1.6113088619999871,-0.33518823242187495,-9.560047229003906,1.1707646118164061,0,0,0,0
1.6123983920001592,-0.36152445068359373,-9.564835632324218,1.1923124267578125,0,0,0,0
1.6134898469999825,-0.3399766357421875,-9.686939916992188,1.2521674682617188,0,0,0,0
1.6146414869999717,-0.3064578125,-9.753977563476562,1.2473790649414063,0,0,0,0
1.6158075710000048,-0.28969840087890625,-9.804255798339844,1.2425906616210938,0,0,0,0
1.6169069709999349,-0.3136404174804687,-9.734823950195311,1.407790576171875,0,0,0,0
1.617994519000149,-0.24181436767578124,-9.758765966796874,1.3287819213867187,0,0,0,0
1.6191120850003244,-0.3447650390625,-9.603142858886718,1.2904746948242187,0,0,0,0
1.6202583920003235,-0.4213794921875,-9.588777648925781,1.2641384765625,0,0,0,0
1.621398087000216,-0.39743747558593745,-9.648632690429688,1.180341418457031,0,0,0,0
1.622479857000144,-0.3495534423828125,-9.660603698730467,1.2593500732421874,0,0,0,0
1.623614145999909,-0.22505495605468748,-9.651026892089844,1.3335703247070312,0,0,0,0
1.624689120000312,-0.19393033447265623,-9.715670336914062,1.2617442749023438,0,0,0,0
1.6258498340002916,-0.21308394775390624,-9.662997900390625,1.2856862915039062,0,0,0,0
1.6269762699998864,-0.2537853759765625,-9.624690673828125,1.3479355346679687,0,0,0,0
1.6280827250002403,-0.354341845703125,-9.622296472167967,1.2761094848632812,0,0,0,0
1.6291680690001158,-0.45489831542968745,-9.706093530273437,1.197100830078125,0,0,0,0
1.6302973760002715,-0.3854664672851562,-9.660603698730467,1.2665326782226562,0,0,0,0
1.631576423000297,-0.41898529052734373,-9.710881933593749,1.3646949462890625,0,0,0,0
1.632820821000223,-0.3687070556640625,-9.715670336914062,1.2832920898437499,0,0,0,0
1.6339891650000027,-0.3112462158203125,-9.751583361816406,1.3287819213867187,0,0,0,0
1.6351755270002286,-0.2154781494140625,-9.588777648925781,1.2928688964843749,0,0,0,0
1.636353741000221,-0.22744915771484372,-9.572018237304688,1.3024457031249999,0,0,0,0
1.6376086020000002,-0.29448680419921874,-9.562441430664062,1.2569558715820313,0,0,0,0
1.6388557420000325,-0.3399766357421875,-9.639055883789062,1.2856862915039062,0,0,0,0
1.6401507880000281,-0.33039982910156246,-9.713276135253906,1.209071838378906,0,0,0,0
1.6413338719999047,-0.39264907226562495,-9.756371765136718,1.2114660400390624,0,0,0,0
1.642887471999984,-0.30885201416015623,-9.715670336914062,1.3000515014648437,0,0,0,0
1.6442376479999439,-0.4333505004882812,-9.622296472167967,1.3096283081054687,0,0,0,0
1.6457343410002068,-0.30885201416015623,-9.574412438964844,1.3742717529296875,0,0,0,0
1.6470917760002521,-0.3687070556640625,-9.495403784179686,1.2665326782226562,0,0,0,0
1.6484501550003188,-0.3806780639648437,-9.567229833984374,1.2641384765625,0,0,0,0
1.6497546830000829,-0.32082302246093747,-9.72285294189453,1.254561669921875,0,0,0,0
1.6509397859999808,-0.30406361083984373,-9.842563024902343,1.2401964599609374,0,0,0,0
1.6521164630003113,-0.33039982910156246,-9.718064538574218,1.2617442749023438,0,0,0,0
1.653702304000035,-0.26815058593749996,-9.605537060546874,1.254561669921875,0,0,0,0
1.654950405999898,-0.3136404174804687,-9.562441430664062,1.3718775512695311,0,0,0,0
1.656127435000144,-0.3854664672851562,-9.605537060546874,1.3431471313476562,0,0,0,0
1.6575259800001731,-0.40462008056640625,-9.622296472167967,1.2665326782226562,0,0,0,0
1.6589440630000354,-0.38307226562499996,-9.524134204101562,1.2497732666015624,0,0,0,0
1.6602493870000217,-0.22744915771484372,-9.674968908691406,1.2761094848632812,0,0,0,0
1.6614732860002732,-0.18914193115234373,-9.641450085449218,1.3311761230468748,0,0,0,0
1.6626563330000863,-0.23702596435546874,-9.651026892089844,1.2785036865234374,0,0,0,0
1.6639160280001306,-0.2920926025390625,-9.622296472167967,1.2378022583007813,0,0,0,0
1.6651585560002786,-0.44532150878906246,-9.643844287109374,1.3144167114257812,0,0,0,0
1.6669609320001655,-0.47884033203125,-9.634267480468749,1.2569558715820313,0,0,0,0
1.6684389400002146,-0.39264907226562495,-9.696516723632811,1.2617442749023438,0,0,0,0
1.6697967820000486,-0.3064578125,-9.725247143554688,1.3311761230468748,0,0,0,0
1.6712805679999292,-0.12449848632812499,-9.591171850585937,1.3144167114257812,0,0,0,0
1.6727591869998832,-0.13168109130859373,-9.507374792480467,1.3766659545898436,0,0,0,0
1.674138899999889,-0.22505495605468748,-9.674968908691406,1.3910311645507811,0,0,0,0
1.6756248890001189,-0.411802685546875,-9.756371765136718,1.2713210815429687,0,0,0,0
1.676837973000147,-0.45968671875,-9.777919580078125,1.2282254516601563,0,0,0,0
1.6780545569999958,-0.4429273071289062,-9.689334118652344,1.2473790649414063,0,0,0,0
1.679281881999941,-0.28490999755859375,-9.567229833984374,1.3742717529296875,0,0,0,0
1.6806276870001966,-0.239420166015625,-9.543287817382812,1.2593500732421874,0,0,0,0
1.682210287000089,-0.15562310791015624,-9.524134204101562,1.3431471313476562,0,0,0,0
1.6835109450003074,-0.3447650390625,-9.593566052246093,1.2928688964843749,0,0,0,0
1.684770010000193,-0.39743747558593745,-9.60793126220703,1.3407529296874998,0,0,0,0
1.6860893339999166,-0.33758243408203126,-9.868899243164062,1.2976572998046874,0,0,0,0
1.6876371560001644,-0.24899697265624998,-9.739612353515625,1.2832920898437499,0,0,0,0
1.6889112399999249,-0.27293898925781246,-9.610325463867188,1.3120225097656248,0,0,0,0
1.690171231000022,-0.354341845703125,-9.6151138671875,1.3192051147460937,0,0,0,0
1.6914596850001544,-0.3711012573242187,-9.588777648925781,1.2593500732421874,0,0,0,0
1.6928572310002892,-0.39264907226562495,-9.785102185058593,1.199495031738281,0,0,0,0
1.69448409000006,-0.3327940307617187,-9.70369932861328,1.2713210815429687,0,0,0,0
1.6956762110003183,-0.296881005859375,-9.718064538574218,1.139639990234375,0,0,0,0
1.6968350540000756,-0.2442085693359375,-9.6917283203125,1.2904746948242187,0,0,0,0
1.6980116019999514,-0.21068974609375,-9.629479077148437,1.3215993164062498,0,0,0,0
1.6993600740001966,-0.4070142822265625,-9.636661682128906,1.3072341064453123,0,0,0,0
1.7010484319998795,-0.41898529052734373,-9.682151513671874,1.3479355346679687,0,0,0,0
1.7023008490000393,-0.4333505004882812,-9.70369932861328,1.2521674682617188,0,0,0,0
1.7035182300000997,-0.4213794921875,-9.744400756835937,1.24498486328125,0,0,0,0
1.7051642360002006,-0.33518823242187495,-9.651026892089844,1.3455413330078123,0,0,0,0
1.7064976710003066,-0.277727392578125,-9.631873278808593,1.2928688964843749,0,0,0,0
1.7076769959999183,-0.229843359375,-9.579200842285156,1.3000515014648437,0,0,0,0
1.7091212830000586,-0.2825157958984375,-9.574412438964844,1.3263877197265623,0,0,0,0
1.710219404000327,-0.3902548706054687,-9.660603698730467,1.2928688964843749,0,0,0,0
1.7113135630002034,-0.5219359619140624,-9.737218151855469,1.2521674682617188,0,0,0,0
1.7125342399999681,-0.5147533569335937,-9.80665,1.2593500732421874,0,0,0,0
1.7139246560000174,-0.4381389038085937,-9.718064538574218,1.350329736328125,0,0,0,0
1.7153095540002141,-0.2657563842773437,-9.622296472167967,1.3383587280273437,0,0,0,0
1.7165686000003006,-0.296881005859375,-9.576806640625,1.3575123413085937,0,0,0,0
1.7179039239999838,-0.25139117431640623,-9.478644372558593,1.2904746948242187,0,0,0,0
1.7190958420001152,-0.2657563842773437,-9.682151513671874,1.2904746948242187,0,0,0,0
1.7201878900000338,-0.2753331909179687,-9.76116016845703,1.2832920898437499,0,0,0,0
1.7212774370000261,-0.411802685546875,-9.72285294189453,1.1947066284179686,0,0,0,0
1.722445448000144,-0.430956298828125,-9.710881933593749,1.2497732666015624,0,0,0,0
1.7236641980002787,-0.373495458984375,-9.773131176757811,1.197100830078125,0,0,0,0
1.7247602279999228,-0.3758896606445312,-9.715670336914062,1.2378022583007813,0,0,0,0
1.725847387000158,-0.354341845703125,-9.572018237304688,1.22583125,0,0,0,0
1.7269295640003293,-0.3064578125,-9.634267480468749,1.2904746948242187,0,0,0,0
1.728096686000299,-0.34715924072265625,-9.631873278808593,1.3239935180664062,0,0,0,0
1.7293154730000424,-0.23223756103515625,-9.686939916992188,1.2665326782226562,0,0,0,0
1.730407131999982,-0.2561795776367187,-9.744400756835937,1.3168109130859373,0,0,0,0
1.7314929950002806,-0.19393033447265623,-9.708487731933593,1.3311761230468748,0,0,0,0
1.7325762089999444,-0.239420166015625,-9.679757312011718,1.3072341064453123,0,0,0,0
1.7337294240001029,-0.37828386230468747,-9.643844287109374,1.2808978881835937,0,0,0,0
1.7348979520002104,-0.4381389038085937,-9.636661682128906,1.2641384765625,0,0,0,0
1.7359920190001503,-0.40940848388671874,-9.677363110351562,1.3096283081054687,0,0,0,0
1.7370782329999201,-0.373495458984375,-9.756371765136718,1.3215993164062498,0,0,0,0
1.7382315400000152,-0.3495534423828125,-9.665392102050781,1.2569558715820313,0,0,0,0
1.7394235689998823,-0.3399766357421875,-9.679757312011718,1.22583125,0,0,0,0
1.7405139500001496,-0.38307226562499996,-9.677363110351562,1.2737152832031249,0,0,0,0
1.7415970900001412,-0.17956512451171874,-9.658209497070311,1.3144167114257812,0,0,0,0
1.7426794900002278,-0.19871873779296872,-9.64623848876953,1.3311761230468748,0,0,0,0
1.7438606109999455,-0.24181436767578124,-9.514557397460937,1.2641384765625,0,0,0,0
1.7450185110001257,-0.2753331909179687,-9.74200655517578,1.2330138549804688,0,0,0,0
1.7461063920000015,-0.44053310546874996,-9.708487731933593,1.2330138549804688,0,0,0,0
1.7471952360001524,-0.4285620971679687,-9.739612353515625,1.2401964599609374,0,0,0,0
1.7483527459999095,-0.39983167724609375,-9.698910925292969,1.2641384765625,0,0,0,0
1.7495148120001431,-0.33518823242187495,-9.694122521972655,1.3383587280273437,0,0,0,0
1.7506048780001038,-0.25139117431640623,-9.662997900390625,1.4006079711914061,0,0,0,0
1.751693852000244,-0.22744915771484372,-9.639055883789062,1.2808978881835937,0,0,0,0
1.7530493429999296,-0.16041151123046873,-9.564835632324218,1.2473790649414063,0,0,0,0
1.7542272599998796,-0.3232172241210937,-9.643844287109374,1.209071838378906,0,0,0,0
1.7554532889998882,-0.373495458984375,-9.74200655517578,1.3000515014648437,0,0,0,0
1.7566043730003003,-0.3687070556640625,-9.753977563476562,1.2401964599609374,0,0,0,0
1.7576999759999126,-0.38307226562499996,-9.76116016845703,1.3263877197265623,0,0,0,0
1.7592686689999937,-0.39743747558593745,-9.634267480468749,1.3359645263671873,0,0,0,0
1.7604744380000739,-0.3447650390625,-9.660603698730467,1.3551181396484375,0,0,0,0
1.761827318000087,-0.2920926025390625,-9.617508068847656,1.3718775512695311,0,0,0,0
1.7629845690003094,-0.296881005859375,-9.65342109375,1.2665326782226562,0,0,0,0
1.7641814490002616,-0.3016694091796875,-9.670180505371093,1.24498486328125,0,0,0,0
1.7655214030000934,-0.28730419921875,-9.6917283203125,1.2617442749023438,0,0,0,0
1.766638895000142,-0.28730419921875,-9.6151138671875,1.3215993164062498,0,0,0,0
1.7677539800001796,-0.354341845703125,-9.636661682128906,1.2761094848632812,0,0,0,0
1.7688282310000432,-0.39743747558593745,-9.641450085449218,1.216254443359375,0,0,0,0
1.7699034460001712,-0.43574470214843747,-9.701305126953125,1.369483349609375,0,0,0,0
