Time (s),Accel X,Accel Y,Accel Z,Gyro X,Gyro Y,Gyro Z,Temperature (C)
0.015690504005760886,0.011971008300781249,-9.95987890625,1.0821791503906248,0,0,0,0
0.018590840001706965,0.0909796630859375,-9.873687646484374,1.13006318359375,0,0,0,0
0.021602730004815385,0.06464344482421874,-9.809044201660155,0.9816226806640624,0,0,0,0
0.024913008004659787,0.1005564697265625,-9.809044201660155,1.1013327636718748,0,0,0,0
0.03063230900443159,0.10295067138671875,-9.847351428222655,1.1851298217773436,0,0,0,0
0.03568783600348979,0.0047884033203125,-9.86411083984375,0.9528922607421875,0,0,0,0
0.040718512012972496,0.086191259765625,-9.89523546142578,1.1516109985351561,0,0,0,0
0.04487735900329426,0.10773907470703124,-9.708487731933593,1.216254443359375,0,0,0,0
0.04844002400932368,0.11731588134765625,-9.852139831542969,1.0702081420898437,0,0,0,0
0.05121010100992862,0.07900865478515624,-9.931148486328125,1.1013327636718748,0,0,0,0
0.0557996490097139,0.0718260498046875,-9.792284790039062,1.149216796875,0,0,0,0
0.058655985005316325,0.16041151123046873,-9.871293444824218,1.1444283935546875,0,0,0,0
0.061683505002292804,0.08140285644531249,-9.9215716796875,1.0582371337890624,0,0,0,0
0.06645673701132182,0.06703764648437499,-9.706093530273437,1.1420341918945311,0,0,0,0
0.07051475100161042,0.00239420166015625,-9.835380419921874,1.1085153686523437,0,0,0,0
0.07349029000033624,0.086191259765625,-9.885658654785155,1.1468225952148436,0,0,0,0
0.0763251080061309,0.0430956298828125,-9.8449572265625,1.149216796875,0,0,0,0
0.0784687810082687,0.10295067138671875,-9.770736975097655,1.158793603515625,0,0,0,0
0.08088113700796384,0.076614453125,-9.789890588378906,1.0726023437499999,0,0,0,0
0.08266223900136538,0.08140285644531249,-9.82580361328125,1.1444283935546875,0,0,0,0
0.08483774500200525,0.12689268798828124,-9.85692823486328,1.0127473022460938,0,0,0,0
0.08702428800461348,0.03591302490234375,-9.868899243164062,1.1516109985351561,0,0,0,0
0.08879518600588199,0.10295067138671875,-9.842563024902343,1.0462661254882812,0,0,0,0
0.09091278500272892,0.04548983154296875,-9.861716638183593,1.1061211669921875,0,0,0,0
0.09310951300722081,0.0,-9.804255798339844,1.1228805786132812,0,0,0,0
0.09498548400006257,0.05027823486328125,-9.897629663085937,1.1348515869140625,0,0,0,0
0.09697193600004539,0.08379705810546874,-9.892841259765625,1.1372457885742187,0,0,0,0
0.09896838800341357,0.08140285644531249,-9.919177478027343,1.0486603271484374,0,0,0,0
0.1008455070113996,0.02154781494140625,-9.82580361328125,1.1252747802734375,0,0,0,0
0.10291449500073213,0.07422025146484375,-9.804255798339844,1.2378022583007813,0,0,0,0
0.10575160900771152,0.062249243164062495,-9.871293444824218,1.0534487304687499,0,0,0,0
0.10802644801151473,0.00718260498046875,-9.861716638183593,1.0606313354492187,0,0,0,0
0.10996371500368696,0.28012159423828126,-9.849745629882811,1.1276689819335937,0,0,0,0
0.11268099601147696,0.040701428222656245,-9.880870251464843,1.0295067138671874,0,0,0,0
0.11517259301035665,0.05985504150390625,-9.797073193359374,1.1013327636718748,0,0,0,0
0.11724126600893214,0.1484405029296875,-9.828197814941406,1.189918225097656,0,0,0,0
0.11932669900124893,0.13168109130859373,-9.847351428222655,1.0845733520507812,0,0,0,0
0.12191583300591446,0.033518823242187495,-9.911994873046874,1.0965443603515623,0,0,0,0
0.12404587600030936,0.0143652099609375,-9.85692823486328,1.0175357055664063,0,0,0,0
0.12683367500721943,0.09337386474609374,-9.868899243164062,1.0917559570312498,0,0,0,0
0.1298171210073633,0.12449848632812499,-9.821015209960937,1.1156979736328125,0,0,0,0
0.1319869050057605,0.143652099609375,-9.85692823486328,1.13006318359375,0,0,0,0
0.13400004200229887,0.016759411621093748,-9.89523546142578,1.1540052001953125,0,0,0,0
0.13603180900099687,0.05985504150390625,-9.888052856445311,1.139639990234375,0,0,0,0
0.1380572970083449,0.09576806640624999,-9.866505041503906,1.1707646118164061,0,0,0,0
0.14001782301056664,0.1292868896484375,-9.892841259765625,1.1085153686523437,0,0,0,0
0.14184962800936773,0.09576806640624999,-9.866505041503906,1.16837041015625,0,0,0,0
0.14384293100738432,0.10773907470703124,-9.938331091308592,1.0630255371093749,0,0,0,0
0.14578734600218013,0.07422025146484375,-9.888052856445311,1.0319009155273438,0,0,0,0
0.1475561330007622,0.0383072265625,-9.938331091308592,1.1133037719726562,0,0,0,0
0.14929247500549536,0.12449848632812499,-9.698910925292969,1.0773907470703123,0,0,0,0
0.15156825800659135,0.0526724365234375,-9.83777462158203,1.1372457885742187,0,0,0,0
0.15339324800879695,0.055066638183593745,-9.854534033203125,1.2114660400390624,0,0,0,0
0.15566162401228212,0.1149216796875,-9.868899243164062,1.0319009155273438,0,0,0,0
0.1578349449991947,0.05027823486328125,-9.9215716796875,1.0821791503906248,0,0,0,0
0.15961569400678854,0.1197100830078125,-9.87608184814453,1.1133037719726562,0,0,0,0
0.16192458900331985,0.12210428466796874,-9.804255798339844,1.1923124267578125,0,0,0,0
0.16393000401149038,0.047884033203124995,-9.813832604980469,1.0726023437499999,0,0,0,0
0.16568684500816744,0.07900865478515624,-9.935936889648437,1.1851298217773436,0,0,0,0
0.16742770600831136,0.06464344482421874,-9.919177478027343,1.0510545288085937,0,0,0,0
0.16995191400928888,0.062249243164062495,-9.950302099609374,1.1013327636718748,0,0,0,0
0.17315911799960304,0.13168109130859373,-9.890447058105469,1.1635820068359375,0,0,0,0
0.1752217730099801,0.105344873046875,-9.79946739501953,1.1731588134765625,0,0,0,0
0.17655663601181004,0.15322890625,-9.787496386718749,1.2282254516601563,0,0,0,0
0.17765116700320505,0.06464344482421874,-9.835380419921874,1.1923124267578125,0,0,0,0
0.17874292000487912,0.055066638183593745,-9.85692823486328,1.0869675537109373,0,0,0,0
0.18035505901207216,0.05985504150390625,-9.85692823486328,1.0845733520507812,0,0,0,0
0.18152642300992738,0.076614453125,-9.890447058105469,1.1228805786132812,0,0,0,0
0.18272389800404198,0.011971008300781249,-9.885658654785155,1.1827356201171875,0,0,0,0
0.18389659500098787,0.05985504150390625,-9.789890588378906,0.9911994873046874,0,0,0,0
0.18502342200372368,0.0047884033203125,-9.835380419921874,1.0175357055664063,0,0,0,0
0.1865793020115234,0.011971008300781249,-9.797073193359374,1.0103531005859374,0,0,0,0
0.18774638800823595,0.12210428466796874,-9.828197814941406,1.197100830078125,0,0,0,0
0.19059835300140548,0.1292868896484375,-9.828197814941406,1.209071838378906,0,0,0,0
0.1918364580051275,0.11013327636718749,-9.86411083984375,1.0414777221679687,0,0,0,0
0.1933268940047128,0.04548983154296875,-9.90241806640625,1.0079588989257813,0,0,0,0
0.19446309100021608,0.06943184814453125,-9.880870251464843,1.0223241088867188,0,0,0,0
0.19559915900754277,0.12689268798828124,-9.892841259765625,1.1228805786132812,0,0,0,0
0.19677202201273758,0.05985504150390625,-9.885658654785155,1.20667763671875,0,0,0,0
0.19792872000834905,0.07422025146484375,-9.789890588378906,1.0510545288085937,0,0,0,0
0.19939808201161213,0.1005564697265625,-9.753977563476562,1.0223241088867188,0,0,0,0
0.2005884270038223,0.08140285644531249,-9.789890588378906,1.0510545288085937,0,0,0,0
0.2017767720099073,0.05746083984375,-9.794678991699218,1.1180921752929687,0,0,0,0
0.20292082100058906,0.01915361328125,-9.811438403320311,1.1635820068359375,0,0,0,0
0.20401585201034322,0.0143652099609375,-10.014945544433592,1.1372457885742187,0,0,0,0
0.20530164100637194,0.06464344482421874,-9.859322436523437,1.1037269653320312,0,0,0,0
0.20655174501007423,0.033518823242187495,-9.883264453125,1.0678139404296874,0,0,0,0
0.20772246101114433,0.028730419921875,-9.880870251464843,1.1133037719726562,0,0,0,0
0.20887849100108724,0.08140285644531249,-9.823409411621093,1.0917559570312498,0,0,0,0
0.20998078100092243,0.12210428466796874,-9.81862100830078,1.1013327636718748,0,0,0,0
0.21106609000707977,0.08379705810546874,-9.787496386718749,1.158793603515625,0,0,0,0
0.21251076699991245,0.08858546142578125,-9.785102185058593,1.1013327636718748,0,0,0,0
0.21370885299984366,0.0383072265625,-9.866505041503906,1.1468225952148436,0,0,0,0
0.21487236500252038,0.047884033203124995,-9.859322436523437,1.0917559570312498,0,0,0,0
0.2159693400026299,0.031124621582031248,-9.890447058105469,1.0534487304687499,0,0,0,0
0.21758255299937446,0.086191259765625,-9.828197814941406,1.0582371337890624,0,0,0,0
0.2187336400093045,0.03591302490234375,-9.81862100830078,1.1827356201171875,0,0,0,0
0.2199095960095292,0.02633621826171875,-9.832986218261718,1.0917559570312498,0,0,0,0
0.22109357100271154,0.08140285644531249,-9.809044201660155,1.2042834350585936,0,0,0,0
0.2221896390110487,0.12210428466796874,-9.763554370117188,1.2378022583007813,0,0,0,0
0.22328805801225826,0.1197100830078125,-9.87608184814453,1.1563994018554686,0,0,0,0
0.22440855200693477,0.12210428466796874,-9.82580361328125,1.1635820068359375,0,0,0,0
0.22567137800797354,0.11731588134765625,-9.821015209960937,1.1516109985351561,0,0,0,0
0.2268432980054058,0.05027823486328125,-9.883264453125,1.0678139404296874,0,0,0,0
0.22793838400684763,0.11731588134765625,-9.919177478027343,1.0630255371093749,0,0,0,0
0.22943419001239818,0.06943184814453125,-9.991003527832031,1.1659762084960936,0,0,0,0
0.23056935099884868,0.031124621582031248,-9.87608184814453,1.1635820068359375,0,0,0,0
0.23209995300567243,0.05027823486328125,-9.821015209960937,1.1611878051757811,0,0,0,0
0.23332200200820807,0.016759411621093748,-9.756371765136718,1.0678139404296874,0,0,0,0
0.23444799600110855,0.08379705810546874,-9.756371765136718,1.1252747802734375,0,0,0,0
0.23553424900455866,0.07422025146484375,-9.87608184814453,1.199495031738281,0,0,0,0
0.23661718700896017,0.10295067138671875,-9.926360083007811,1.1731588134765625,0,0,0,0
0.23771088500507176,0.13646949462890623,-9.890447058105469,1.0845733520507812,0,0,0,0
0.23888954501308035,0.04548983154296875,-9.888052856445311,1.0917559570312498,0,0,0,0
0.24086729300324805,0.086191259765625,-9.866505041503906,1.199495031738281,0,0,0,0
0.2421251190098701,0.06703764648437499,-9.911994873046874,1.1827356201171875,0,0,0,0
0.2432227240060456,0.1197100830078125,-9.91438907470703,1.0654197387695312,0,0,0,0
0.24437884701183066,0.076614453125,-9.809044201660155,1.177947216796875,0,0,0,0
0.24553210000158288,0.040701428222656245,-9.823409411621093,1.209071838378906,0,0,0,0
0.24706781300483271,0.14125789794921875,-9.82580361328125,1.0534487304687499,0,0,0,0
0.24825893600063864,0.023942016601562498,-9.828197814941406,0.9935936889648437,0,0,0,0
0.24945055900025181,0.03591302490234375,-9.897629663085937,1.0534487304687499,0,0,0,0
0.2505967010074528,0.09576806640624999,-9.907206469726562,1.0773907470703123,0,0,0,0
0.2525139310018858,0.05027823486328125,-9.907206469726562,1.0989385620117187,0,0,0,0
0.25378666500910185,0.07422025146484375,-9.945513696289062,1.2018892333984375,0,0,0,0
0.25489102900610305,0.033518823242187495,-9.928754284667969,1.1468225952148436,0,0,0,0
0.25606500401045196,0.07900865478515624,-9.923965881347655,1.1563994018554686,0,0,0,0
0.2572012010059552,0.10773907470703124,-9.739612353515625,1.13006318359375,0,0,0,0
0.25858850800432265,0.08140285644531249,-9.830592016601562,1.1516109985351561,0,0,0,0
0.25969326100312173,0.086191259765625,-9.888052856445311,1.13006318359375,0,0,0,0
0.2613936590059893,0.08140285644531249,-9.888052856445311,1.0366893188476562,0,0,0,0
0.26365112799976487,0.0718260498046875,-9.923965881347655,1.1228805786132812,0,0,0,0
0.2653430990030756,-0.0143652099609375,-9.871293444824218,1.1180921752929687,0,0,0,0
0.26695483100775164,0.011971008300781249,-9.840168823242188,1.0726023437499999,0,0,0,0
0.26945900201098993,0.086191259765625,-9.866505041503906,1.1444283935546875,0,0,0,0
0.2708601980120875,0.15083470458984374,-9.758765966796874,1.1372457885742187,0,0,0,0
0.2720302470115712,0.08379705810546874,-9.885658654785155,1.1444283935546875,0,0,0,0
0.27313892600068357,0.10773907470703124,-9.840168823242188,1.1635820068359375,0,0,0,0
0.27429403000860475,0.062249243164062495,-9.86411083984375,1.1324573852539062,0,0,0,0
0.2754887270129984,0.05985504150390625,-9.952696301269532,1.180341418457031,0,0,0,0
0.2767687020095764,0.08858546142578125,-9.928754284667969,1.1276689819335937,0,0,0,0
0.2779423250030959,0.04548983154296875,-9.828197814941406,1.1827356201171875,0,0,0,0
0.2791049290099181,0.0143652099609375,-9.9215716796875,1.2042834350585936,0,0,0,0
0.28033866301120725,0.08858546142578125,-9.78031378173828,1.216254443359375,0,0,0,0
0.2816099710034905,0.0430956298828125,-9.792284790039062,1.2138602416992186,0,0,0,0
0.28281237100600265,0.09576806640624999,-9.8449572265625,1.0989385620117187,0,0,0,0
0.28405240100983065,0.0526724365234375,-9.859322436523437,1.1228805786132812,0,0,0,0
0.28522537600656506,0.08858546142578125,-9.91438907470703,1.1276689819335937,0,0,0,0
0.2864474620000692,0.17477672119140625,-9.916783276367187,1.1324573852539062,0,0,0,0
0.2875421040080255,0.06703764648437499,-9.911994873046874,1.1444283935546875,0,0,0,0
0.28883670800132677,0.023942016601562498,-9.911994873046874,1.1827356201171875,0,0,0,0
0.29006992300855927,0.0718260498046875,-9.89523546142578,1.1444283935546875,0,0,0,0
0.2912791760027176,0.1388636962890625,-9.842563024902343,1.1156979736328125,0,0,0,0
0.29259968700353056,0.13407529296874998,-9.76116016845703,1.1923124267578125,0,0,0,0
0.2937232360127382,0.05985504150390625,-9.756371765136718,1.3024457031249999,0,0,0,0
0.2950100060115801,0.08858546142578125,-9.868899243164062,1.2018892333984375,0,0,0,0
0.2962973690009676,0.13407529296874998,-9.873687646484374,1.0462661254882812,0,0,0,0
0.29761912100366317,0.1197100830078125,-9.849745629882811,1.1037269653320312,0,0,0,0
0.29871859701233916,0.13168109130859373,-9.852139831542969,1.1276689819335937,0,0,0,0
0.29990692299907096,0.0526724365234375,-9.842563024902343,1.0271125122070313,0,0,0,0
0.3011699720082106,-0.028730419921875,-9.892841259765625,1.2330138549804688,0,0,0,0
0.30252126000414137,0.076614453125,-9.885658654785155,1.2210428466796874,0,0,0,0
0.3039508820074843,0.076614453125,-9.900023864746093,1.0941501586914062,0,0,0,0
0.30516630101192277,0.06703764648437499,-9.81862100830078,1.1276689819335937,0,0,0,0
0.30668364401208237,0.11731588134765625,-9.919177478027343,1.120486376953125,0,0,0,0
0.3078467860032106,0.0430956298828125,-9.854534033203125,1.1228805786132812,0,0,0,0
0.3091758340015076,0.12210428466796874,-9.888052856445311,1.0127473022460938,0,0,0,0
0.3104082339996239,0.14125789794921875,-9.911994873046874,1.0749965454101562,0,0,0,0
0.3116621160006616,0.05027823486328125,-9.9215716796875,1.0893617553710937,0,0,0,0
0.3127597400016384,0.02633621826171875,-9.909600671386718,1.1252747802734375,0,0,0,0
0.3138491780118784,0.06703764648437499,-9.897629663085937,1.1635820068359375,0,0,0,0
0.3150682450068416,0.08379705810546874,-9.955090502929687,1.1923124267578125,0,0,0,0
0.3163464050012408,0.0718260498046875,-9.885658654785155,1.1109095703125,0,0,0,0
0.31760837900219485,0.1292868896484375,-9.823409411621093,1.0702081420898437,0,0,0,0
0.3187072990112938,0.12210428466796874,-9.792284790039062,1.1324573852539062,0,0,0,0
0.31979240399959963,0.086191259765625,-9.885658654785155,1.0702081420898437,0,0,0,0
0.3208773049991578,0.15083470458984374,-9.868899243164062,1.0414777221679687,0,0,0,0
0.3222205570054939,0.11252747802734374,-9.854534033203125,1.1180921752929687,0,0,0,0
0.3234286049992079,0.0718260498046875,-9.93354268798828,1.1851298217773436,0,0,0,0
0.32476741301070433,0.03591302490234375,-9.849745629882811,1.120486376953125,0,0,0,0
0.3258709250076208,0.09337386474609374,-9.8449572265625,1.0845733520507812,0,0,0,0
0.32695864100242034,0.07900865478515624,-9.873687646484374,1.0749965454101562,0,0,0,0
0.32811365299858153,0.09816226806640624,-9.928754284667969,1.197100830078125,0,0,0,0
0.32935357200040016,0.0718260498046875,-9.765948571777344,1.2378022583007813,0,0,0,0
0.3304472510062624,0.10295067138671875,-9.816226806640625,1.1563994018554686,0,0,0,0
0.33153117100300733,0.13168109130859373,-9.782707983398437,1.1228805786132812,0,0,0,0
0.3326190350053366,0.06703764648437499,-9.86411083984375,1.13006318359375,0,0,0,0
0.33377738000126556,0.04548983154296875,-9.907206469726562,1.1061211669921875,0,0,0,0
0.33514702100364957,0.11252747802734374,-9.897629663085937,1.1516109985351561,0,0,0,0
0.3362439960037591,0.13646949462890623,-9.926360083007811,1.0965443603515623,0,0,0,0
0.3373399340052856,0.12689268798828124,-9.943119494628906,1.1013327636718748,0,0,0,0
0.33957799601193983,0.055066638183593745,-9.835380419921874,1.2401964599609374,0,0,0,0
0.3407094340072945,0.09816226806640624,-9.79946739501953,1.2018892333984375,0,0,0,0
0.3418099280097522,0.15083470458984374,-9.804255798339844,1.1611878051757811,0,0,0,0
0.34402273000159767,0.086191259765625,-9.868899243164062,1.0941501586914062,0,0,0,0
0.34515657600422855,0.04548983154296875,-9.871293444824218,1.0199299072265624,0,0,0,0
0.3462440880102804,0.07900865478515624,-9.888052856445311,0.9864110839843749,0,0,0,0
0.3473260080063483,0.11731588134765625,-9.911994873046874,1.0917559570312498,0,0,0,0
0.34841261300607584,-0.15322890625,-9.897629663085937,1.0845733520507812,0,0,0,0
0.3495018100074958,0.07900865478515624,-9.919177478027343,1.158793603515625,0,0,0,0
0.3514335590007249,0.03591302490234375,-9.885658654785155,1.1252747802734375,0,0,0,0
0.35252977500203997,0.06703764648437499,-9.840168823242188,1.20667763671875,0,0,0,0
0.3536217869987013,0.1005564697265625,-9.900023864746093,1.0965443603515623,0,0,0,0
0.35470961401006207,0.10773907470703124,-9.85692823486328,1.0917559570312498,0,0,0,0
0.35643738201179076,0.06464344482421874,-9.919177478027343,1.1085153686523437,0,0,0,0
0.3576159869990079,0.0430956298828125,-9.928754284667969,1.0582371337890624,0,0,0,0
0.3587067580083385,0.07422025146484375,-9.923965881347655,1.1085153686523437,0,0,0,0
0.3597907520015724,0.08858546142578125,-9.964667309570311,1.0486603271484374,0,0,0,0
0.3608756350004114,0.055066638183593745,-9.904812268066406,1.0941501586914062,0,0,0,0
0.362591829005396,0.12210428466796874,-9.83777462158203,1.1228805786132812,0,0,0,0
0.3637445260101231,0.06703764648437499,-9.80665,1.189918225097656,0,0,0,0
0.36483222400420345,0.040701428222656245,-9.868899243164062,1.0773907470703123,0,0,0,0
0.36596203201042954,0.2609679809570312,-10.429142431640624,0.7589619262695312,0,0,0,0
0.3677023370109964,2.612074011230469,-11.250353601074218,0.031124621582031248,0,0,0,0
0.3688900900015142,2.8850130004882812,-10.759542260742187,-0.6775590698242188,0,0,0,0
0.3699920100043528,2.1930887207031247,-11.051634863281249,-3.727771984863281,0,0,0,0
0.3710839660052443,0.9193734375,-10.922347973632812,-5.068524914550781,0,0,0,0
0.37216922000516206,-1.0079588989257813,-9.83777462158203,-6.380547424316406,0,0,0,0
0.3736991740006488,-1.7262193969726563,-9.708487731933593,-6.900089184570312,0,0,0,0
0.374892482010182,-1.714248388671875,-9.548076220703125,-7.338228088378906,0,0,0,0
0.3760088280105265,-2.3223756103515623,-8.86812294921875,-7.651868505859374,0,0,0,0
0.3771090810041642,-2.291250988769531,-9.765948571777344,-7.831433630371094,0,0,0,0
0.3786349610018078,0.26815058593749996,-9.746794958496093,-7.182604980468749,0,0,0,0
0.37982895399909467,-0.4261678955078125,-9.583989245605467,-7.0461354858398435,0,0,0,0
0.3809317070117686,-0.5817910034179687,-10.388441003417968,-7.237671618652343,0,0,0,0
0.38202310900669545,0.1005564697265625,-9.904812268066406,-6.552929943847656,0,0,0,0
0.38359935900371056,1.2114660400390624,-11.269507214355468,-6.509834313964843,0,0,0,0
0.3848564810032258,-1.139639990234375,-8.913612780761719,-5.468356591796875,0,0,0,0
0.38597704900894314,-3.976768957519531,-6.904877587890625,-1.177947216796875,0,0,0,0
0.388396313006524,-4.036623999023437,-8.221688500976562,1.1348515869140625,0,0,0,0
0.38970478701230604,0.3806780639648437,-8.698134631347656,3.248931652832031,0,0,0,0
0.39085478099877946,3.399766357421875,-8.429984045410155,5.987898352050781,0,0,0,0
0.3919465159997344,6.610390783691406,-9.370905297851563,7.884106066894531,0,0,0,0
0.3930601940082852,7.857769848632812,-10.726023437499999,8.109161022949218,0,0,0,0
0.39421874401159585,6.562506750488281,-10.627861169433594,7.067683300781249,0,0,0,0
0.395376718006446,2.674323254394531,-11.590330236816406,5.662286926269531,0,0,0,0
0.396468860009918,0.9097966308593749,-11.719617126464843,4.594472985839843,0,0,0,0
0.39755922500626184,0.2154781494140625,-11.353304272460937,4.185064501953125,0,0,0,0
0.39864505200239364,1.1085153686523437,-10.924742175292968,3.8139632446289062,0,0,0,0
0.3998035270051332,1.4628572143554686,-10.694898815917968,1.8842367065429686,0,0,0,0
0.4012541109987069,1.1755530151367186,-8.508992700195313,0.25139117431640623,0,0,0,0
0.4024110680038575,-0.8906430175781249,-8.183381274414062,-1.0079588989257813,0,0,0,0
0.4035164320084732,-3.9743747558593747,-9.560047229003906,-2.6192566162109374,0,0,0,0
0.40467442500812467,-4.4196962646484375,-11.018116040039061,-3.5529952636718747,0,0,0,0
0.40585706700221635,-3.5697546752929687,-12.466608044433594,-3.833116857910156,0,0,0,0
0.40723304101265967,-2.114080065917969,-14.255076684570312,-2.2098481323242187,0,0,0,0
0.4086289960105205,0.055066638183593745,-13.728352319335936,-1.3144167114257812,0,0,0,0
0.4099991920083994,0.22744915771484372,-12.052411157226562,-0.2609679809570312,0,0,0,0
0.4112131660076557,-0.5099649536132812,-10.256759912109374,1.4508862060546874,0,0,0,0
0.4123987710045185,-1.5155296508789062,-8.662221606445312,2.0757728393554684,0,0,0,0
0.41358765300537925,-0.105344873046875,-8.319850769042969,2.834734765625,0,0,0,0
0.41477416500856634,1.8124106567382812,-8.386888415527343,3.9647979492187497,0,0,0,0
0.41612889801035635,3.2154128295898436,-9.629479077148437,3.845087866210937,0,0,0,0
0.41746920500008855,3.4452561889648434,-9.65342109375,3.438073583984375,0,0,0,0
0.41869468000368215,1.3383587280273437,-9.399635717773437,2.925714428710937,0,0,0,0
0.4198726360045839,0.09816226806640624,-9.282319836425781,2.090138049316406,0,0,0,0
0.4210824070032686,-0.4477157104492187,-8.329427575683594,1.5131354492187499,0,0,0,0
0.42249939900648315,1.6735469604492186,-7.438784558105469,1.599326708984375,0,0,0,0
0.42380865100130904,2.128445275878906,-8.118737829589843,1.1228805786132812,0,0,0,0
0.4250239590037381,1.4221557861328125,-7.6279264892578125,0.5626373901367188,0,0,0,0
0.42619998900045175,-0.2657563842773437,-7.268796240234375,-1.1324573852539062,0,0,0,0
0.4273874080099631,-2.0374656127929685,-9.512163195800781,-1.89620771484375,0,0,0,0
0.42867404900607653,-3.778050219726562,-10.060435375976562,-1.9608511596679685,0,0,0,0
0.42997752300288994,-1.7453730102539062,-10.443507641601562,-1.2425906616210938,0,0,0,0
0.4311885350034572,0.469263525390625,-10.31661495361328,0.488417138671875,0,0,0,0
0.4323875840054825,2.0350714111328125,-10.09395419921875,0.9265560424804687,0,0,0,0
0.43367165100062266,1.2904746948242187,-9.624690673828125,1.22583125,0,0,0,0
0.4349774580041412,-0.6871358764648438,-9.53131680908203,1.458068811035156,0,0,0,0
0.4363458209991222,-2.1116858642578125,-10.522516296386717,1.848323681640625,0,0,0,0
0.43760424001084175,-0.411802685546875,-11.006145031738281,2.73896669921875,0,0,0,0
0.43895589900785126,1.9488801513671874,-11.556811413574218,3.708618371582031,0,0,0,0
0.4403650390013354,2.858676782226562,-11.219228979492186,3.5769372802734374,0,0,0,0
0.4418021980090998,1.944091748046875,-10.352527978515624,2.9975404785156248,0,0,0,0
0.44300546900194604,-0.076614453125,-10.177751257324218,1.917755529785156,0,0,0,0
0.44419711000227835,-1.7693150268554687,-10.658985791015624,0.45968671875,0,0,0,0
0.4455651020107325,-0.4908113403320312,-11.049240661621093,0.5003881469726562,0,0,0,0
0.446921224007383,1.7501614135742187,-11.200075366210937,1.1659762084960936,0,0,0,0
0.44817403200431727,2.463633508300781,-11.291055029296874,0.43574470214843747,0,0,0,0
0.4493665250047343,1.6615759521484375,-9.782707983398437,-0.28490999755859375,0,0,0,0
0.45054559300479013,-2.9472622436523435,-9.3852705078125,-1.0462661254882812,0,0,0,0
0.4519571960117901,-4.7884033203125,-9.720458740234374,-1.5705962890624998,0,0,0,0
0.4533912250044523,-4.44363828125,-10.096348400878906,-0.4908113403320312,0,0,0,0
0.45484938300796784,1.4820108276367188,-10.187328063964843,0.7134720947265625,0,0,0,0
0.4560352840053383,3.265691064453125,-10.194510668945313,1.3838485595703125,0,0,0,0
0.45721255500393454,3.411737365722656,-9.787496386718749,1.7429788085937499,0,0,0,0
0.45861893601249903,-0.5865794067382812,-8.250418920898436,1.4030021728515625,0,0,0,0
0.4600174650113331,-2.6575638427734374,-8.259995727539062,1.0821791503906248,0,0,0,0
0.4614615680038696,-2.4779987182617185,-8.86094034423828,2.2864625854492187,0,0,0,0
0.4626997459999984,2.3343466186523436,-9.433154541015625,3.284844677734375,0,0,0,0
0.4641539980075322,3.5122938354492184,-9.533711010742186,3.5242648437499997,0,0,0,0
0.46549356399918906,3.6655227416992187,-8.37012900390625,2.6958710693359373,0,0,0,0
0.4669393150106771,-0.277727392578125,-8.33182177734375,1.599326708984375,0,0,0,0
0.46812558600504417,-2.442085693359375,-8.89924757080078,0.040701428222656245,0,0,0,0
0.46932737600582186,-2.422932080078125,-10.172962854003906,0.296881005859375,0,0,0,0
0.47086096000566613,1.7597382202148437,-10.496180078124999,1.1228805786132812,0,0,0,0
0.47328389099857304,2.4875755249023435,-10.390835205078124,0.10295067138671875,0,0,0,0
0.474611902012839,-2.4301146850585935,-9.368511096191405,-0.689530078125,0,0,0,0
0.4762647070019739,-4.802768530273437,-10.065223779296874,-1.209071838378906,0,0,0,0
0.4777822910109535,-2.4301146850585935,-10.773907470703124,-0.3064578125,0,0,0,0
0.4791978200082667,0.82360537109375,-11.968614099121092,1.944091748046875,0,0,0,0
0.4809231250110315,3.727771984863281,-11.470620153808593,2.27927998046875,0,0,0,0
0.4824231350066839,2.971204260253906,-9.591171850585937,1.608903515625,0,0,0,0
0.4836741280014394,-2.9376854370117185,-9.935936889648437,0.814028564453125,0,0,0,0
0.48490650999883655,-3.6631285400390623,-10.038887561035155,1.5251064575195312,0,0,0,0
0.48647537200304214,-1.9608511596679685,-10.687716210937499,2.693476867675781,0,0,0,0
0.487733254005434,2.4875755249023435,-11.099518896484375,3.1962592163085937,0,0,0,0
0.48891452500538435,3.5242648437499997,-10.953472595214842,3.2058360229492187,0,0,0,0
0.49034562800079584,2.7198130859375,-8.923189587402343,1.678335363769531,0,0,0,0
0.491632732009748,-2.8467057739257813,-8.678981018066406,0.4381389038085937,0,0,0,0
0.4929911130020628,-3.3446997192382812,-8.710105639648438,-0.143652099609375,0,0,0,0
0.49441386401304044,-1.7741034301757812,-9.813832604980469,0.8810662109374999,0,0,0,0
0.4964831490069628,2.418143676757812,-9.866505041503906,1.6998831787109374,0,0,0,0
0.4978492340014782,3.0933085449218747,-8.741230261230468,1.448492004394531,0,0,0,0
0.4990380230010487,-0.35673604736328124,-7.979874133300781,0.6679822631835937,0,0,0,0
0.5002216280117864,-3.1507693847656246,-8.556876733398436,-0.9720458740234375,0,0,0,0
0.5018787849985529,-2.7150246826171873,-9.873687646484374,-0.5339069702148437,0,0,0,0
0.5034306099987589,-0.3950432739257812,-10.670956799316405,1.2378022583007813,0,0,0,0
0.5046884360053809,3.6367923217773437,-10.491391674804687,1.9225439331054686,0,0,0,0
0.5060149280034238,3.418919970703125,-9.306261853027344,2.221819140625,0,0,0,0
0.5072648100031074,1.1755530151367186,-8.614337573242187,1.1013327636718748,0,0,0,0
0.508882005000487,-2.288856787109375,-8.858546142578124,0.7038952880859375,0,0,0,0
0.5100816090125591,-1.8004396484374998,-9.552864624023437,1.5179238525390624,0,0,0,0
0.5116060630098218,2.1691467041015624,-11.034875451660156,2.0638018310546875,0,0,0,0
0.5129152230074396,3.6080619018554687,-11.077971081542968,2.128445275878906,0,0,0,0
0.51410406800278,2.7557261108398436,-10.0748005859375,1.7118541870117185,0,0,0,0
0.5152077280072263,-0.3232172241210937,-9.612719665527344,-0.076614453125,0,0,0,0
0.5164484810084105,-2.6336218261718747,-10.058041174316406,-0.55545478515625,0,0,0,0
0.517890843009809,-2.319981408691406,-10.55364091796875,-0.296881005859375,0,0,0,0
0.5189927440078463,-0.06464344482421874,-11.087547888183593,0.5099649536132812,0,0,0,0
0.5201657930010697,1.2306196533203124,-11.307814440917968,1.5418658691406248,0,0,0,0
0.5214282119995914,2.3535002319335936,-10.115502014160155,1.5801730957031248,0,0,0,0
0.5228863520023879,-0.41419688720703124,-9.430760339355468,1.2306196533203124,0,0,0,0
0.5240613640053198,-2.176329309082031,-9.60793126220703,0.6488286499023437,0,0,0,0
0.5253127080068225,-3.047818713378906,-9.603142858886718,0.8954314208984374,0,0,0,0
0.5264729059999809,-2.2577321655273437,-10.68053360595703,1.6903063720703124,0,0,0,0
0.5278156200074591,2.013523596191406,-11.106701501464842,2.39420166015625,0,0,0,0
0.5289083180105081,3.404554760742187,-10.75714805908203,2.825157958984375,0,0,0,0
0.5301578479993623,3.162740393066406,-9.509768994140625,1.9919757812499999,0,0,0,0
0.5314326000079745,0.8451531860351562,-8.817844714355468,0.8547299926757812,0,0,0,0
0.5328529620019253,-2.5522189697265625,-8.817844714355468,0.258573779296875,0,0,0,0
0.5339477710076608,-1.9871873779296874,-9.205705383300781,0.3495534423828125,0,0,0,0
0.535036820001551,-0.13407529296874998,-9.464279162597656,0.9983820922851562,0,0,0,0
0.536246536008548,1.2761094848632812,-10.199299072265624,1.47482822265625,0,0,0,0
0.5376024730067002,2.3774422485351563,-9.560047229003906,1.2473790649414063,0,0,0,0
0.5386941890028538,0.10295067138671875,-9.205705383300781,0.584185205078125,0,0,0,0
0.5397814970056061,-1.7764976318359373,-9.088389501953124,0.02633621826171875,0,0,0,0
0.5411475270084338,-2.4564509033203126,-8.987833032226561,-0.15562310791015624,0,0,0,0
0.5427531099994667,-0.36152445068359373,-9.6151138671875,0.5674257934570313,0,0,0,0
0.5438853630039375,0.8810662109374999,-10.271125122070313,1.1252747802734375,0,0,0,0
0.545000116006122,2.291250988769531,-10.17056865234375,1.6998831787109374,0,0,0,0
0.5460933690046659,2.47081611328125,-9.619902270507811,2.1116858642578125,0,0,0,0
0.5472722880076617,1.005564697265625,-9.68454571533203,1.20667763671875,0,0,0,0
0.5485595030040713,-0.7829039428710937,-9.751583361816406,0.8571241943359375,0,0,0,0
0.5496617010066984,-1.6328455322265625,-10.0748005859375,0.9457096557617187,0,0,0,0
0.5507490099989809,-0.3495534423828125,-10.139444030761718,1.4796166259765624,0,0,0,0
0.5518359109992161,0.9217676391601562,-10.673351000976561,1.886630908203125,0,0,0,0
0.553637567005353,2.039859814453125,-9.809044201660155,2.070984436035156,0,0,0,0
0.5549998370115645,0.46208092041015625,-9.677363110351562,1.5705962890624998,0,0,0,0
0.5561250160099007,-1.2210428466796874,-9.80665,0.9337386474609375,0,0,0,0
0.5572188430087408,-2.090138049316406,-9.988609326171874,0.7733271362304687,0,0,0,0
0.5587994090019492,0.01915361328125,-10.582371337890624,1.3383587280273437,0,0,0,0
0.5600127540092217,0.9361328491210937,-11.051634863281249,1.4891934326171874,0,0,0,0
0.5612536730041029,1.608903515625,-10.836156713867187,1.4413093994140624,0,0,0,0
0.5623441290081246,1.4604630126953124,-10.024522351074218,1.0654197387695312,0,0,0,0
0.5635152340109926,-0.1005564697265625,-9.677363110351562,0.5961562133789062,0,0,0,0
0.5650325770111522,-2.195482922363281,-9.737218151855469,0.17238251953125,0,0,0,0
0.5662518300086958,-1.2665326782226562,-9.794678991699218,1.0702081420898437,0,0,0,0
0.5673473790084245,0.18914193115234373,-9.809044201660155,1.3168109130859373,0,0,0,0
0.5684996130003128,1.369483349609375,-10.220846887207031,1.5251064575195312,0,0,0,0
0.5699706790037453,2.020706201171875,-9.315838659667968,1.5490484741210937,0,0,0,0
0.5712054500036174,0.4955997436523437,-9.284714038085937,0.39264907226562495,0,0,0,0
0.5724617580126505,-1.1923124267578125,-9.485826977539062,-0.076614453125,0,0,0,0
0.573627010002383,-2.291250988769531,-9.945513696289062,0.086191259765625,0,0,0,0
0.5748898550082231,-0.076614453125,-10.065223779296874,0.7493851196289062,0,0,0,0
0.5759785340051167,0.8499415893554687,-10.137049829101562,1.0630255371093749,0,0,0,0
0.5770962680107914,1.9800047729492187,-9.710881933593749,1.5179238525390624,0,0,0,0
0.5782436880108435,2.1021090576171875,-9.18655177001953,1.2737152832031249,0,0,0,0
0.5795199960120954,0.584185205078125,-9.07163009033203,0.6512228515624999,0,0,0,0
0.580610434000846,-0.814028564453125,-9.236830004882812,0.3806780639648437,0,0,0,0
0.5817138720012736,-0.7110778930664062,-9.634267480468749,0.6296750366210937,0,0,0,0
0.5831121049996,0.16998831787109375,-10.005368737792969,1.455674609375,0,0,0,0
0.584591671009548,0.38786066894531246,-10.156203442382813,1.7812860351562498,0,0,0,0
0.5857423859997652,1.0510545288085937,-9.64623848876953,1.9608511596679685,0,0,0,0
0.5868288430065149,0.11013327636718749,-9.81862100830078,1.7334020019531249,0,0,0,0
0.589025423003477,-0.8475473876953125,-9.9215716796875,1.4700398193359374,0,0,0,0
0.5902165090083145,0.30406361083984373,-9.967061511230469,1.8507178833007811,0,0,0,0
0.5914842800120823,1.1468225952148436,-10.041281762695311,1.5921441040039062,0,0,0,0
0.5925813659996493,0.8307879760742187,-10.09395419921875,1.2617442749023438,0,0,0,0
0.5936735270079225,0.7589619262695312,-9.804255798339844,1.0510545288085937,0,0,0,0
0.5947599840001203,-1.3096283081054687,-10.263942517089843,0.6440402465820312,0,0,0,0
0.5971493780089077,-1.2976572998046874,-10.673351000976561,1.1252747802734375,0,0,0,0
0.5985690550005529,0.1580173095703125,-10.390835205078124,1.388636962890625,0,0,0,0
0.59967110400612,1.2282254516601563,-10.165780249023436,1.3718775512695311,0,0,0,0
0.6007611350069055,0.3064578125,-9.5384994140625,1.0223241088867188,0,0,0,0
0.6018728510098299,-0.23223756103515625,-9.208099584960937,0.5195417602539062,0,0,0,0
0.6034936200012453,-1.0702081420898437,-10.01733974609375,0.5123591552734374,0,0,0,0
0.604865001005237,-0.8906430175781249,-10.242394702148436,0.6057330200195312,0,0,0,0
0.6061336230050074,0.6584054565429687,-9.988609326171874,1.9488801513671874,0,0,0,0
0.6079356320115039,1.7429788085937499,-9.619902270507811,1.8626888916015625,0,0,0,0
0.6092227360059042,1.2832920898437499,-8.916006982421875,1.6831237670898436,0,0,0,0
0.610402618010994,0.258573779296875,-8.544905725097657,0.7038952880859375,0,0,0,0
0.6114935750083532,-1.2641384765625,-9.648632690429688,0.373495458984375,0,0,0,0
0.6126259760058019,-1.898601916503906,-9.9981861328125,0.3184288208007812,0,0,0,0
0.6138353580026887,0.47165772705078124,-10.024522351074218,0.97683427734375,0,0,0,0
0.6150569989986252,1.886630908203125,-9.957484704589843,1.5729904907226562,0,0,0,0
0.6162086040130816,1.9919757812499999,-9.753977563476562,1.5466542724609373,0,0,0,0
0.6173023940064013,1.5825672973632812,-9.141061938476563,0.8930372192382812,0,0,0,0
0.618547905003652,0.373495458984375,-9.490615380859374,0.43574470214843747,0,0,0,0
0.6196688990021357,-1.3311761230468748,-9.679757312011718,0.2346317626953125,0,0,0,0
0.621222038011183,-1.6448165405273436,-10.292672937011718,1.149216796875,0,0,0,0
0.6224880869995104,0.277727392578125,-10.488997473144531,1.7381904052734374,0,0,0,0
0.6236848580010701,1.5634136840820312,-10.091559997558592,1.8698714965820311,0,0,0,0
0.6249064810108393,1.3646949462890625,-9.342174877929686,1.8267758666992187,0,0,0,0
0.6262219550117152,0.4381389038085937,-9.057264880371093,1.0917559570312498,0,0,0,0
0.6274331510066986,-1.0726023437499999,-9.670180505371093,0.8930372192382812,0,0,0,0
0.6286788300058106,-1.886630908203125,-10.764330664062498,1.0175357055664063,0,0,0,0
0.6299020080041373,0.63206923828125,-11.173739147949219,1.484405029296875,0,0,0,0
0.6312190560129238,2.068590234375,-10.934318981933593,1.8555062866210936,0,0,0,0
0.632340476004174,2.0542250244140625,-10.484209069824217,1.407790576171875,0,0,0,0
0.6334427100082394,1.5801730957031248,-10.08677159423828,0.7829039428710937,0,0,0,0
0.6345242600073107,-0.201112939453125,-9.392453112792968,0.15083470458984374,0,0,0,0
0.6358692520007025,-3.0909143432617188,-9.622296472167967,-0.12689268798828124,0,0,0,0
0.6370538940100232,-2.1164742675781247,-10.129867224121092,-0.1771709228515625,0,0,0,0
0.6383304600021802,0.1292868896484375,-10.275913525390624,1.429338391113281,0,0,0,0
0.6397146189992782,1.8531120849609375,-9.880870251464843,1.7669208251953124,0,0,0,0
0.6408186129992828,2.128445275878906,-9.332598071289063,1.608903515625,0,0,0,0
0.6418946440098807,0.7996633544921875,-8.796296899414061,1.197100830078125,0,0,0,0
0.6429656010004692,-1.6112977172851561,-9.042899670410156,0.622492431640625,0,0,0,0
0.6441041870129993,-3.0526071166992184,-9.49300958251953,0.055066638183593745,0,0,0,0
0.6454257350123953,-2.3151930053710936,-10.002974536132811,1.4939818359375,0,0,0,0
0.6465038770111278,0.21308394775390624,-10.565611926269531,2.442085693359375,0,0,0,0
0.6475776680017589,2.47081611328125,-9.643844287109374,2.626439221191406,0,0,0,0
0.648649810013012,3.0214824951171875,-9.107543115234375,2.346317626953125,0,0,0,0
0.6498051360104,1.20667763671875,-8.585607153320312,1.7094599853515624,0,0,0,0
0.6511346660117852,-1.7166425903320313,-8.717288244628906,0.7062894897460937,0,0,0,0
0.6522394560015528,-3.394977954101562,-9.210493786621093,0.0,0,0,0,0
0.6533352460101014,-2.7198130859375,-10.299855541992187,0.842758984375,0,0,0,0
0.654493629001081,-0.07422025146484375,-10.9175595703125,1.5107412475585937,0,0,0,0
0.6557760660070926,2.6144682128906247,-10.307038146972655,1.7836802368164062,0,0,0,0
0.6568764670082601,2.3630770385742186,-9.70369932861328,1.5346832641601562,0,0,0,0
0.6579659609997179,0.5698199951171875,-8.93755479736328,0.97683427734375,0,0,0,0
0.6597628400049871,-3.5817256835937497,-9.181763366699219,-0.2346317626953125,0,0,0,0
0.6609555739996722,-2.3343466186523436,-10.122684619140625,-0.14604630126953125,0,0,0,0
0.6620392710028682,0.011971008300781249,-10.658985791015624,0.8259995727539062,0,0,0,0
0.6631099869991885,1.8531120849609375,-11.066000073242186,1.697488977050781,0,0,0,0
0.6642430370120564,2.3582886352539063,-10.907982763671875,2.0638018310546875,0,0,0,0
0.6655648250016384,2.195482922363281,-9.234435803222656,1.6519991455078125,0,0,0,0
0.6666570790112019,0.7493851196289062,-9.325415466308593,1.0486603271484374,0,0,0,0
0.667741017008666,-1.4532804077148436,-9.732429748535155,0.5722141967773438,0,0,0,0
0.6688282140094088,-2.0087351928710935,-10.158597644042969,0.7422025146484375,0,0,0,0
0.670013930008281,0.08379705810546874,-10.433930834960936,1.448492004394531,0,0,0,0
0.6713030340033583,2.1739351074218747,-10.486603271484375,2.042254016113281,0,0,0,0
0.6723958610091358,2.7940333374023436,-10.084377392578125,1.9943699829101562,0,0,0,0
0.6734752810007194,2.8036101440429686,-9.686939916992188,1.158793603515625,0,0,0,0
0.6745580160059035,1.01514150390625,-9.117119921875,0.4381389038085937,0,0,0,0
0.6756924170040293,-1.8100164550781248,-9.579200842285156,-0.41898529052734373,0,0,0,0
0.6770572980021825,-3.0119056884765625,-10.350133776855468,-0.4908113403320312,0,0,0,0
0.6786236220068531,-0.8451531860351562,-10.577582934570312,1.388636962890625,0,0,0,0
0.6799243560089963,2.559401574707031,-10.168174450683592,1.9608511596679685,0,0,0,0
0.6816778270003852,3.1387983764648437,-8.789114294433594,1.6831237670898436,0,0,0,0
0.6831476520019351,-0.814028564453125,-8.82981572265625,0.8068459594726562,0,0,0,0
0.6842879050091142,-3.1196447631835937,-9.267954626464844,0.02633621826171875,0,0,0,0
0.6853913430095417,-3.239354846191406,-10.067617980957031,0.8571241943359375,0,0,0,0
0.6865678739995928,-1.1755530151367186,-10.326191760253906,1.9536685546875,0,0,0,0
0.6882500310020987,3.0214824951171875,-10.024522351074218,2.5641899780273434,0,0,0,0
0.6894896910089301,3.9719805541992184,-9.658209497070311,2.243366955566406,0,0,0,0
0.6916922710079234,-0.5386953735351562,-9.397241516113281,-0.016759411621093748,0,0,0,0
0.6933343170094304,-3.4668040039062498,-10.283096130371094,0.12449848632812499,0,0,0,0
0.6944466630084207,-1.7764976318359373,-10.79545528564453,0.9696516723632812,0,0,0,0
0.6955766190076247,0.5267243652343749,-10.338162768554687,1.66636435546875,0,0,0,0
0.6966656500007957,2.001552587890625,-9.483432775878907,1.9680337646484374,0,0,0,0
0.6978889770107344,2.4756045166015626,-9.028534460449219,1.5586252807617187,0,0,0,0
0.6991007850010647,-0.3232172241210937,-8.999804040527343,0.7733271362304687,0,0,0,0
0.7001955750019988,-3.1699229980468746,-9.129090930175781,-0.0430956298828125,0,0,0,0
0.701760751006077,-3.892971899414062,-10.749965454101561,0.28490999755859375,0,0,0,0
0.7029290040081833,0.1197100830078125,-11.3006318359375,1.2042834350585936,0,0,0,0
0.7041843670012895,1.9728221679687499,-11.49216796875,2.0254946044921875,0,0,0,0
0.7053644160041586,3.5482068603515624,-10.687716210937499,2.5570073730468748,0,0,0,0
0.7065398170088883,2.6982652709960937,-9.028534460449219,1.6543933471679686,0,0,0,0
0.7078496060130419,-2.2768857788085937,-9.066841687011719,0.7757213378906249,0,0,0,0
0.7091911910101771,-2.779668127441406,-9.409212524414063,0.1867477294921875,0,0,0,0
0.7106288490031147,-1.3144167114257812,-10.060435375976562,1.4341267944335936,0,0,0,0
0.7119081010023365,1.9033903198242186,-10.110713610839843,1.7932570434570312,0,0,0,0
0.7130325580073986,3.124433166503906,-9.890447058105469,1.9321207397460936,0,0,0,0
0.7141464220039779,2.1906945190429687,-9.382876306152344,1.6017209106445311,0,0,0,0
0.7153899520053528,-0.47165772705078124,-9.26316622314453,-0.062249243164062495,0,0,0,0
0.7165149830107111,-2.9975404785156248,-9.33978067626953,-0.258573779296875,0,0,0,0
0.7176863650092855,-3.4356793823242184,-10.352527978515624,0.2561795776367187,0,0,0,0
0.7188882100017508,0.4644751220703125,-10.682927807617187,1.3120225097656248,0,0,0,0
0.7201076290075434,1.956062756347656,-10.551246716308594,1.886630908203125,0,0,0,0
0.7213011970015941,3.287238879394531,-10.27830772705078,2.1787235107421874,0,0,0,0
0.7224104130000342,2.6216508178710938,-9.5001921875,1.3072341064453123,0,0,0,0
0.7235672950046137,0.21068974609375,-9.490615380859374,0.5003881469726562,0,0,0,0
0.7247806950035738,-2.2768857788085937,-9.311050256347656,0.25139117431640623,0,0,0,0
0.7260667439986719,-2.020706201171875,-9.787496386718749,0.7852981445312499,0,0,0,0
0.7272837740019895,0.39983167724609375,-10.20169327392578,1.6208745239257811,0,0,0,0
0.7284009900031378,1.9536685546875,-10.242394702148436,2.3918074584960936,0,0,0,0
0.7295569090056233,3.318363500976562,-10.39322940673828,2.133233679199219,0,0,0,0
0.7309692530106986,0.5003881469726562,-9.60793126220703,1.1707646118164061,0,0,0,0
0.7323232460039435,-1.927332336425781,-9.60793126220703,0.033518823242187495,0,0,0,0
0.7336238490097458,-2.8203695556640622,-9.890447058105469,-0.1292868896484375,0,0,0,0
0.7347273990017129,-2.0278888061523435,-10.364498986816406,0.49799394531249996,0,0,0,0
0.7361186870111851,0.8188169677734375,-10.216058483886718,1.0295067138671874,0,0,0,0
0.7372827360086376,1.9680337646484374,-9.811438403320311,1.4963760375976562,0,0,0,0
0.7386481360008474,1.9488801513671874,-9.732429748535155,1.0510545288085937,0,0,0,0
0.7399855360126821,-1.4963760375976562,-9.627084875488281,0.4165910888671875,0,0,0,0
0.7411520660098176,-2.3726538452148436,-9.7683427734375,-0.09337386474609374,0,0,0,0
0.7424927250103792,-1.5945383056640625,-9.919177478027343,1.0989385620117187,0,0,0,0
0.7437579960096627,0.06943184814453125,-10.374075793457031,1.5275006591796874,0,0,0,0
0.7449325260095065,2.0087351928710935,-10.050858569335936,1.9704279663085937,0,0,0,0
0.7462637780117802,2.0063409912109376,-9.37808790283203,2.224213342285156,0,0,0,0
0.7473594760085689,0.9026140258789062,-9.452308154296874,1.2306196533203124,0,0,0,0
0.7488915970025118,-1.1516109985351561,-9.521740002441407,0.7924807495117187,0,0,0,0
0.7501947190030478,-0.7158662963867187,-9.765948571777344,0.7876923461914062,0,0,0,0
0.7514712670090375,-0.0526724365234375,-10.141838232421874,1.158793603515625,0,0,0,0
0.7526416129985591,0.32561142578124996,-10.117896215820313,1.1324573852539062,0,0,0,0
0.7540468640072504,0.9959878906249999,-9.751583361816406,1.1109095703125,0,0,0,0
0.7552240790100768,-0.07900865478515624,-9.56962403564453,0.6368576416015624,0,0,0,0
0.7573151230026269,-1.1324573852539062,-9.533711010742186,0.39264907226562495,0,0,0,0
0.7585324870015029,-0.45968671875,-9.794678991699218,1.0103531005859374,0,0,0,0
0.7596468690026086,0.16280571289062498,-10.297461340332031,1.2330138549804688,0,0,0,0
0.7612803970114328,1.3623007446289062,-10.211270080566406,1.4796166259765624,0,0,0,0
0.762469224006054,0.9097966308593749,-9.639055883789062,1.2856862915039062,0,0,0,0
0.7636271990049863,-0.17956512451171874,-9.70369932861328,1.0414777221679687,0,0,0,0
0.7652167080086656,-1.5634136840820312,-9.756371765136718,1.0414777221679687,0,0,0,0
0.766504627012182,-0.3280056274414062,-9.852139831542969,2.01112939453125,0,0,0,0
0.7677508050110191,0.7948749511718749,-10.01733974609375,2.1691467041015624,0,0,0,0
0.7688484660029644,1.3838485595703125,-9.935936889648437,2.013523596191406,0,0,0,0
0.7700773850083351,1.254561669921875,-9.49300958251953,1.7860744384765623,0,0,0,0
0.7713139330007834,-0.4165910888671875,-9.660603698730467,0.9864110839843749,0,0,0,0
0.7724103159998776,-1.6256629272460936,-9.74200655517578,0.4860229370117187,0,0,0,0
0.7735010320029687,-1.4891934326171874,-10.089165795898436,0.5889736083984375,0,0,0,0
0.7745840440038592,-0.612915625,-10.20169327392578,0.9169792358398436,0,0,0,0
0.7757888710038969,0.28012159423828126,-10.103531005859374,1.0965443603515623,0,0,0,0
0.777167530002771,1.5921441040039062,-9.974244116210937,1.209071838378906,0,0,0,0
0.7783161900006235,0.7517793212890624,-9.380482104492186,1.1540052001953125,0,0,0,0
0.7794246100093005,-0.5817910034179687,-9.4618849609375,0.35194764404296874,0,0,0,0
0.7806274180038599,-1.6041151123046875,-9.545682019042967,0.201112939453125,0,0,0,0
0.7818280960054835,-1.2904746948242187,-10.002974536132811,0.7038952880859375,0,0,0,0
0.7829290900117485,0.7733271362304687,-10.005368737792969,1.13006318359375,0,0,0,0
0.7840115280123428,0.8667010009765624,-9.94072529296875,1.4891934326171874,0,0,0,0
0.7850991330051329,1.3646949462890625,-10.000580334472655,1.3958195678710936,0,0,0,0
0.7862994780007284,0.7302315063476562,-9.428366137695312,1.5155296508789062,0,0,0,0
0.7874820830038516,-0.411802685546875,-9.437942944335937,1.197100830078125,0,0,0,0
0.7885762430087198,-0.8283937744140625,-9.868899243164062,1.0654197387695312,0,0,0,0
0.7897454220073996,-0.26336218261718747,-9.785102185058593,1.3814543579101561,0,0,0,0
0.7909658040007344,1.0582371337890624,-9.859322436523437,1.369483349609375,0,0,0,0
0.7922325380059192,0.8068459594726562,-9.8449572265625,1.2306196533203124,0,0,0,0
0.7934325680107577,0.8499415893554687,-9.866505041503906,0.93852705078125,0,0,0,0
0.7945280249987263,-0.15083470458984374,-9.519345800781249,0.469263525390625,0,0,0,0
0.7956164810020709,-1.2497732666015624,-9.947907897949218,0.38307226562499996,0,0,0,0
0.796709105008631,-1.5394716674804687,-10.338162768554687,0.584185205078125,0,0,0,0
0.797920413009706,-0.5913678100585937,-10.445901843261717,1.0007762939453124,0,0,0,0
0.7991560910013504,1.0606313354492187,-10.369287390136718,1.3359645263671873,0,0,0,0
0.8003881580079906,0.7589619262695312,-9.883264453125,1.2521674682617188,0,0,0,0
0.8015269300085492,0.8499415893554687,-9.516951599121093,1.180341418457031,0,0,0,0
0.8027811450010631,0.02633621826171875,-9.390058911132812,0.8259995727539062,0,0,0,0
0.8040225639997516,-1.8195932617187498,-10.117896215820313,0.718260498046875,0,0,0,0
0.8053463340038434,-0.5578489868164063,-10.58476553955078,0.93852705078125,0,0,0,0
0.8066048080072505,0.8810662109374999,-10.572794531249999,2.0566192260742184,0,0,0,0
0.8078608570067445,1.7357962036132812,-10.228029492187499,2.01112939453125,0,0,0,0
0.8091692940070061,1.6352397338867186,-9.773131176757811,1.6352397338867186,0,0,0,0
0.8102996210072888,-0.02154781494140625,-8.875305554199219,1.2018892333984375,0,0,0,0
0.8113938000024064,-1.9512743530273435,-8.51617530517578,0.622492431640625,0,0,0,0
0.812706311000511,-2.032677209472656,-9.842563024902343,0.63206923828125,0,0,0,0
0.8139651930105174,0.7134720947265625,-9.928754284667969,1.218648645019531,0,0,0,0
0.8150841680035228,1.3766659545898436,-9.756371765136718,1.4508862060546874,0,0,0,0
0.8162557169998763,1.37906015625,-9.509768994140625,1.458068811035156,0,0,0,0
0.817396414000541,1.3958195678710936,-9.469067565917967,1.3742717529296875,0,0,0,0
0.8185975740052527,0.13168109130859373,-9.435548742675781,0.3232172241210937,0,0,0,0
0.819857160007814,-1.8842367065429686,-10.180145458984374,0.1484405029296875,0,0,0,0
0.8209575979999499,-1.1444283935546875,-10.673351000976561,0.44532150878906246,0,0,0,0
0.822052462011925,0.6631938598632812,-10.606313354492187,1.37906015625,0,0,0,0
0.8232413440127857,1.5849614990234373,-10.237606298828124,2.0063409912109376,0,0,0,0
0.824494947999483,1.4915876342773438,-10.24000050048828,1.6472107421875,0,0,0,0
0.8257646999991266,1.3144167114257812,-9.150638745117186,1.4006079711914061,0,0,0,0
0.8268757129990263,-0.047884033203124995,-9.356540087890625,0.9097966308593749,0,0,0,0
0.8279640770051628,-1.7190367919921874,-9.897629663085937,0.9409212524414062,0,0,0,0
0.8292491620086366,-0.4908113403320312,-10.723629235839843,1.0390835205078124,0,0,0,0
0.8304957660002401,0.7038952880859375,-10.658985791015624,1.879448303222656,0,0,0,0
0.8316856300079962,1.4867992309570313,-10.43871923828125,1.7549498168945312,0,0,0,0
0.8327868830092484,1.6112977172851561,-10.084377392578125,1.37906015625,0,0,0,0
0.8338830249995226,1.7980454467773437,-9.53131680908203,0.8164227661132812,0,0,0,0
0.83496051900147,-0.14125789794921875,-9.672574707031249,0.02154781494140625,0,0,0,0
0.8362159190000966,-2.8802245971679685,-9.897629663085937,-0.2059013427734375,0,0,0,0
0.8375141160067869,-1.2785036865234374,-10.223241088867187,1.0390835205078124,0,0,0,0
0.8387642940069782,0.59376201171875,-9.770736975097655,1.6424223388671875,0,0,0,0
0.8398722880083369,1.7932570434570312,-9.37808790283203,1.6424223388671875,0,0,0,0
0.8409672440029681,2.061407629394531,-9.447519750976562,1.2282254516601563,0,0,0,0
0.8421707750094356,-0.028730419921875,-8.79150849609375,0.814028564453125,0,0,0,0
0.8433595640090061,-2.1906945190429687,-9.14824454345703,0.3016694091796875,0,0,0,0
0.8444581140065566,-2.901772412109375,-9.689334118652344,0.27293898925781246,0,0,0,0
0.8455513850058196,-1.668758557128906,-10.156203442382813,1.5418658691406248,0,0,0,0
0.846717582011479,0.46208092041015625,-10.251971508789062,2.398990063476562,0,0,0,0
0.847898261010414,2.6767174560546874,-9.70369932861328,2.6695348510742187,0,0,0,0
0.849175698007457,2.925714428710937,-9.521740002441407,2.1116858642578125,0,0,0,0
0.8503534510091413,0.7206546997070312,-9.006986645507812,1.3862427612304686,0,0,0,0
0.8514464629988652,-2.2481553588867187,-9.133879333496093,0.1580173095703125,0,0,0,0
0.8527113630116219,-3.2728736694335936,-10.625466967773438,0.0909796630859375,0,0,0,0
0.8540610040072352,0.02154781494140625,-10.805032092285156,0.8978256225585937,0,0,0,0
0.8552951080055209,1.7166425903320313,-10.409988818359375,1.4772224243164063,0,0,0,0
0.8564007310051238,2.3056161987304686,-9.900023864746093,1.5945383056640625,0,0,0,0
0.8574927070003469,2.427720483398437,-9.756371765136718,1.4700398193359374,0,0,0,0
0.858579589999863,0.28490999755859375,-9.138667736816405,0.21787235107421873,0,0,0,0
0.8596595830022125,-2.398990063476562,-9.239224206542968,0.047884033203124995,0,0,0,0
0.8609227429988096,-3.0693665283203124,-10.251971508789062,0.33518823242187495,0,0,0,0
0.862088385008974,0.1149216796875,-10.627861169433594,1.2401964599609374,0,0,0,0
0.8632321000040974,1.618480322265625,-10.790666882324219,1.7932570434570312,0,0,0,0
0.8643230200104881,2.2361843505859373,-10.498574279785156,2.1452046874999997,0,0,0,0
0.8654868100129534,2.6479870361328124,-10.141838232421874,2.142810485839844,0,0,0,0
0.866685099012102,0.9648632690429687,-9.344569079589844,1.0869675537109373,0,0,0,0
0.8682874980004271,-2.6479870361328124,-9.53131680908203,0.5458779785156249,0,0,0,0
0.869564528009505,-1.5083470458984374,-10.108319409179687,1.438915197753906,0,0,0,0
0.8706845030101249,0.09337386474609374,-10.268730920410155,1.7788918334960937,0,0,0,0
0.8722580680041574,2.4253262817382812,-10.172962854003906,2.01112939453125,0,0,0,0
0.8736784300126601,2.308010400390625,-9.907206469726562,1.0438719238281249,0,0,0,0
0.8752343290107092,-2.2649147705078123,-8.99501563720703,0.15322890625,0,0,0,0
0.8764988770126365,-3.1028853515624997,-9.327809667968749,-0.296881005859375,0,0,0,0
0.8776335380098317,-1.8339584716796873,-9.911994873046874,0.7541735229492187,0,0,0,0
0.8788126240106067,-0.1149216796875,-10.500968481445312,1.3287819213867187,0,0,0,0
0.8800057840126101,1.4700398193359374,-10.445901843261717,1.6112977172851561,0,0,0,0
0.8815192200127058,2.5139117431640625,-10.079588989257813,1.20667763671875,0,0,0,0
0.8827588240092155,0.6536170532226562,-9.138667736816405,0.5219359619140624,0,0,0,0
0.8839454650005791,-2.1547814941406247,-9.227253198242186,0.1867477294921875,0,0,0,0
0.8851080880122026,-2.039859814453125,-9.885658654785155,0.49799394531249996,0,0,0,0
0.8862058780068764,-0.15322890625,-10.058041174316406,1.608903515625,0,0,0,0
0.8881145530031063,3.2920272827148436,-10.098742602539062,2.6503812377929687,0,0,0,0
0.8893393420003122,3.746925598144531,-9.95987890625,2.3774422485351563,0,0,0,0
0.8904902060021413,1.5059528442382812,-9.112331518554686,1.8459294799804686,0,0,0,0
0.891565181009355,-1.8938135131835936,-9.085995300292968,-0.033518823242187495,0,0,0,0
0.8927008790051332,-3.3973721557617185,-9.509768994140625,-0.031124621582031248,0,0,0,0
0.8939872790069785,-2.4756045166015626,-10.24000050048828,0.7900865478515624,0,0,0,0
0.8951453650079202,0.9696516723632812,-10.326191760253906,1.4772224243164063,0,0,0,0
0.896336877005524,2.35589443359375,-10.182539660644531,1.8722656982421875,0,0,0,0
0.8975954440102214,3.4859576171874997,-9.816226806640625,1.6735469604492186,0,0,0,0
0.8988042890123324,1.9943699829101562,-8.961496813964843,0.6153098266601562,0,0,0,0
0.89998254099919,-1.2425906616210938,-9.423577734375,-0.14125789794921875,0,0,0,0
0.9010973870026646,-2.9831752685546875,-10.340556970214843,-0.4381389038085937,0,0,0,0
0.9023509910039138,-1.4437036010742186,-11.116278308105468,0.28730419921875,0,0,0,0
0.903479522006819,0.2561795776367187,-11.221623181152344,1.177947216796875,0,0,0,0
0.9047202740039211,1.9393033447265624,-10.453084448242187,2.214636535644531,0,0,0,0
0.9061771550041158,2.3127988037109373,-9.193734375,2.1978771240234374,0,0,0,0
0.9074251480051316,-0.6368576416015624,-8.67658681640625,1.3455413330078123,0,0,0,0
0.908649900011369,-2.233790148925781,-8.839392529296875,0.3711012573242187,0,0,0,0
0.9098224300105358,-2.1021090576171875,-10.211270080566406,0.7972691528320313,0,0,0,0
0.9126123040041421,1.9009961181640624,-10.766724865722656,1.649604943847656,0,0,0,0
0.913971500005573,3.0526071166992184,-9.6151138671875,1.4772224243164063,0,0,0,0
0.91538326900627,-1.1540052001953125,-9.004592443847656,0.6368576416015624,0,0,0,0
0.9166716510080732,-2.1978771240234374,-8.992621435546875,-0.08379705810546874,0,0,0,0
0.9180137729999842,-2.0470424194335934,-9.612719665527344,0.5315127685546874,0,0,0,0
0.9193103030120255,0.5267243652343749,-10.01015714111328,1.1013327636718748,0,0,0,0
0.9207912020065123,1.659181750488281,-10.237606298828124,1.6065093139648436,0,0,0,0
0.9221176020073472,1.3455413330078123,-9.260772021484375,1.5418658691406248,0,0,0,0
0.9235527970013209,-1.005564697265625,-9.459490759277344,0.842758984375,0,0,0,0
0.9248388090054505,-2.070984436035156,-9.828197814941406,0.4477157104492187,0,0,0,0
0.9260790240077768,-1.0103531005859374,-9.804255798339844,1.0965443603515623,0,0,0,0
0.9273345350084128,0.7685387329101562,-10.187328063964843,1.5873557006835937,0,0,0,0
0.9285854170011589,2.0350714111328125,-10.110713610839843,2.114080065917969,0,0,0,0
0.9298831690102816,2.93050283203125,-9.306261853027344,1.7669208251953124,0,0,0,0
0.9311768470070092,-0.842758984375,-9.270348828125,0.8714894042968749,0,0,0,0
0.932463283999823,-2.080561242675781,-9.612719665527344,0.3854664672851562,0,0,0,0
0.9337116110109491,-2.0638018310546875,-10.256759912109374,0.6200982299804687,0,0,0,0
0.9348908630054211,-1.1348515869140625,-10.445901843261717,1.0726023437499999,0,0,0,0
0.9362445220031077,1.1109095703125,-10.426748229980468,1.5131354492187499,0,0,0,0
0.9375280890089925,2.2840683837890623,-10.110713610839843,1.5610194824218748,0,0,0,0
0.938792804008699,1.3623007446289062,-9.294290844726563,0.7398083129882812,0,0,0,0
0.9399745010014158,-0.5626373901367188,-9.643844287109374,0.44053310546874996,0,0,0,0
0.9414095120009733,-1.6519991455078125,-10.196904870605469,0.7422025146484375,0,0,0,0
0.9439254790049745,-0.040701428222656245,-10.347739575195313,1.649604943847656,0,0,0,0
0.9450914720073342,1.9919757812499999,-10.211270080566406,1.9728221679687499,0,0,0,0
0.9461835399997653,1.1947066284179686,-9.210493786621093,2.020706201171875,0,0,0,0
0.9476421990111703,-0.21308394775390624,-9.119514123535156,1.3958195678710936,0,0,0,0
0.9490062100085197,-0.5985504150390625,-10.115502014160155,1.1109095703125,0,0,0,0
0.9501418510044459,-0.35194764404296874,-10.266336718749999,1.1755530151367186,0,0,0,0
0.9512610120000318,-0.11013327636718749,-10.242394702148436,1.1252747802734375,0,0,0,0
0.9526404110074509,0.49799394531249996,-10.256759912109374,1.24498486328125,0,0,0,0
0.9542467170103919,0.9648632690429687,-9.545682019042967,1.1420341918945311,0,0,0,0
0.955551765000564,-0.7015010864257812,-9.315838659667968,0.6823474731445313,0,0,0,0
0.9567056110099657,-1.39821376953125,-9.042899670410156,0.229843359375,0,0,0,0
0.9580172880087048,-1.1851298217773436,-9.852139831542969,0.5578489868164063,0,0,0,0
0.9595208910031943,0.05746083984375,-10.01015714111328,1.0678139404296874,0,0,0,0
0.9611804740125081,1.6352397338867186,-10.158597644042969,1.3335703247070312,0,0,0,0
0.962508559008711,0.9026140258789062,-9.595960253906249,1.426944189453125,0,0,0,0
0.9636359420110239,-0.6464344482421874,-9.610325463867188,1.0582371337890624,0,0,0,0
0.9649346380028874,-1.218648645019531,-9.811438403320311,1.0989385620117187,0,0,0,0
0.9662077980028698,0.239420166015625,-9.811438403320311,1.678335363769531,0,0,0,0
0.9675195870077005,0.9361328491210937,-9.830592016601562,1.8411410766601561,0,0,0,0
0.968696636002278,1.4006079711914061,-10.115502014160155,1.7549498168945312,0,0,0,0
0.9697979810007382,2.109291662597656,-10.177751257324218,1.3359645263671873,0,0,0,0
0.9712006960035069,-0.8738836059570312,-9.804255798339844,0.8020575561523438,0,0,0,0
0.9724628180119907,-1.6136919189453125,-9.86411083984375,0.5889736083984375,0,0,0,0
0.9737060330080567,-1.2306196533203124,-10.256759912109374,0.6584054565429687,0,0,0,0
0.9748043600120582,-0.33518823242187495,-10.156203442382813,0.8379705810546875,0,0,0,0
0.9758907990035368,0.05027823486328125,-10.149020837402343,1.0606313354492187,0,0,0,0
0.9770247740088962,0.7517793212890624,-10.225635290527343,1.0295067138671874,0,0,0,0
0.9783298040129011,0.411802685546875,-9.495403784179686,0.9911994873046874,0,0,0,0
0.9795568150002509,-1.1085153686523437,-9.411606726074218,0.7278373046875,0,0,0,0
0.9806612350075739,-1.3168109130859373,-9.469067565917967,0.5985504150390625,0,0,0,0
0.9817517100018449,-0.6009446166992187,-10.081983190917969,1.0869675537109373,0,0,0,0
0.9828394260111963,0.4740519287109375,-10.493785876464843,1.2904746948242187,0,0,0,0
0.9840186420042301,0.33758243408203126,-9.976638317871092,1.4796166259765624,0,0,0,0
0.9852326170075685,1.3335703247070312,-9.91438907470703,1.6136919189453125,0,0,0,0
0.9863297030096874,0.373495458984375,-9.37808790283203,1.6472107421875,0,0,0,0
0.9874130860116566,-0.7565677246093749,-9.370905297851563,1.5562310791015623,0,0,0,0
0.988493376004044,-0.6607996582031249,-9.425971936035156,1.4221557861328125,0,0,0,0
0.9898730160057312,0.258573779296875,-9.97903251953125,1.6448165405273436,0,0,0,0
0.9911789350007894,0.6919242797851562,-10.105925207519531,1.4006079711914061,0,0,0,0
0.9924817610008176,0.46686932373046874,-10.28549033203125,1.16837041015625,0,0,0,0
0.9936698840028839,0.7398083129882812,-10.026916552734374,0.7733271362304687,0,0,0,0
0.9948448220093269,-0.6200982299804687,-9.33978067626953,0.3399766357421875,0,0,0,0
0.9961124810070032,-1.9105729248046874,-9.521740002441407,0.4285620971679687,0,0,0,0
0.9973709000041708,-0.19871873779296872,-10.098742602539062,0.6823474731445313,0,0,0,0
0.9985398560093017,0.9433154541015625,-9.957484704589843,1.35990654296875,0,0,0,0
1.0000492920080433,1.3670891479492187,-9.919177478027343,1.3239935180664062,0,0,0,0
1.0014165809989208,0.9217676391601562,-9.919177478027343,1.1228805786132812,0,0,0,0
1.0027188140084036,-0.44532150878906246,-9.60793126220703,0.7158662963867187,0,0,0,0
1.0039629920065636,-1.5394716674804687,-10.072406384277343,0.8978256225585937,0,0,0,0
1.0055443910096074,-0.2442085693359375,-10.134655627441406,1.2761094848632812,0,0,0,0
1.0068189760058885,1.13006318359375,-10.244788903808594,2.142810485839844,0,0,0,0
1.0081125060096383,1.5538368774414062,-9.519345800781249,2.104503259277344,0,0,0,0
1.0092993510043016,1.7310078002929687,-9.471461767578125,1.7214309936523438,0,0,0,0
1.010850250007934,-0.05746083984375,-9.10993731689453,0.5386953735351562,0,0,0,0
1.0122173160052625,-2.013523596191406,-10.139444030761718,0.3399766357421875,0,0,0,0
1.013432976003969,-0.6871358764648438,-10.939107385253905,0.47644613037109373,0,0,0,0
1.01494556000398,0.699106884765625,-9.957484704589843,1.2641384765625,0,0,0,0
1.0162398490065243,1.3479355346679687,-9.789890588378906,1.1923124267578125,0,0,0,0
1.0175123049994,1.6472107421875,-9.734823950195311,1.0127473022460938,0,0,0,0
1.018695872000535,-0.63206923828125,-9.038111267089842,0.15562310791015624,0,0,0,0
1.0202705670089927,-2.1930887207031247,-9.919177478027343,0.05027823486328125,0,0,0,0
1.0216408190026414,-0.3806780639648437,-10.79545528564453,0.6057330200195312,0,0,0,0
1.0229507930052932,0.9983820922851562,-9.765948571777344,1.5945383056640625,0,0,0,0
1.0243139330123086,1.139639990234375,-9.471461767578125,1.9393033447265624,0,0,0,0
1.0256458520016167,1.4604630126953124,-9.536105212402344,1.5107412475585937,0,0,0,0
1.0269847150048008,-0.18435352783203124,-9.131485131835937,1.3431471313476562,0,0,0,0
1.0282858550053788,-0.9720458740234375,-9.718064538574218,1.4508862060546874,0,0,0,0
1.0302423070097575,1.6472107421875,-10.709264025878905,1.8028338500976562,0,0,0,0
1.032911922011408,1.2761094848632812,-9.78031378173828,0.9935936889648437,0,0,0,0
1.0341754700057209,-0.7900865478515624,-9.124302526855468,0.5027823486328125,0,0,0,0
1.0354421850061044,-2.844311572265625,-9.045293872070312,-0.08140285644531249,0,0,0,0
1.0366141600097762,-2.750937707519531,-9.564835632324218,-0.09576806640624999,0,0,0,0
1.0378001170029165,-0.9888052856445312,-10.311826550292968,1.1659762084960936,0,0,0,0
1.0390976650087396,1.1372457885742187,-10.189722265624999,1.467645617675781,0,0,0,0
1.0403110280021792,1.946485949707031,-10.01733974609375,1.5921441040039062,0,0,0,0
1.0416155020066071,1.956062756347656,-9.919177478027343,1.2282254516601563,0,0,0,0
1.0427673850063002,-0.6584054565429687,-9.191340173339842,0.076614453125,0,0,0,0
1.0439319150027586,-2.8993782104492185,-9.916783276367187,0.28490999755859375,0,0,0,0
1.0452061490068445,-1.0366893188476562,-10.412383020019531,0.86191259765625,0,0,0,0
1.0464469569997163,0.7876923461914062,-10.1131078125,1.9728221679687499,0,0,0,0
1.0475975610024761,1.6927005737304686,-9.727641345214844,2.492363928222656,0,0,0,0
1.0487131289992249,2.798821740722656,-10.254365710449218,2.5570073730468748,0,0,0,0
1.0498395300091943,3.347093920898437,-10.601524951171875,1.5801730957031248,0,0,0,0
1.05106157901173,0.8403647827148437,-8.82981572265625,0.7422025146484375,0,0,0,0
1.0524581270001363,-3.23696064453125,-8.978256225585938,0.16280571289062498,0,0,0,0
1.0537106380070327,-1.8171990600585937,-10.268730920410155,0.842758984375,0,0,0,0
1.0549544270033948,0.23223756103515625,-10.850521923828124,1.3527239379882812,0,0,0,0
1.0561177909985418,1.6017209106445311,-9.81862100830078,1.5394716674804687,0,0,0,0
1.0573171730065951,2.7557261108398436,-9.452308154296874,1.4149731811523436,0,0,0,0
1.0584899630048312,0.258573779296875,-9.05965908203125,0.8068459594726562,0,0,0,0
1.059672308008885,-2.882618798828125,-9.327809667968749,-0.09816226806640624,0,0,0,0
1.0609663930081297,-3.517082238769531,-10.189722265624999,-0.033518823242187495,0,0,0,0
1.0623525890114252,0.3327940307617187,-10.474632263183594,1.0486603271484374,0,0,0,0
1.06368193399976,1.7525556152343749,-10.596736547851561,1.5131354492187499,0,0,0,0
1.0648674270050833,2.176329309082031,-10.307038146972655,2.0254946044921875,0,0,0,0
1.0661753640015377,2.4205378784179685,-8.872911352539061,1.6735469604492186,0,0,0,0
1.067479468008969,-1.5394716674804687,-8.741230261230468,1.2401964599609374,0,0,0,0
1.068695405003382,-1.9009961181640624,-9.26316622314453,0.8379705810546875,0,0,0,0
1.0699364540050738,-0.8116343627929687,-10.13226142578125,1.618480322265625,0,0,0,0
1.0712863170047058,1.5490484741210937,-10.752359655761719,1.8243816650390623,0,0,0,0
1.0725680690084118,2.109291662597656,-10.20169327392578,2.023100402832031,0,0,0,0
1.0739076720055891,1.9800047729492187,-9.698910925292969,0.97683427734375,0,0,0,0
1.0751804610044928,0.02154781494140625,-9.466673364257812,0.04548983154296875,0,0,0,0
1.076430954009993,-3.1507693847656246,-9.196128576660156,-0.143652099609375,0,0,0,0
1.077931094012456,-2.061407629394531,-10.062829577636718,0.9361328491210937,0,0,0,0
1.0793476230028318,1.85790048828125,-10.59194814453125,1.4915876342773438,0,0,0,0
1.0806708560121479,2.3487118286132813,-10.625466967773438,1.6112977172851561,0,0,0,0
1.0819775340060005,2.3870190551757813,-9.524134204101562,1.1252747802734375,0,0,0,0
1.0832796010072343,-1.9919757812499999,-9.65342109375,0.4525041137695312,0,0,0,0
1.084503890000633,-3.066972326660156,-9.732429748535155,0.24181436767578124,0,0,0,0
1.0858501420007087,-2.2026655273437497,-10.026916552734374,1.5059528442382812,0,0,0,0
1.0871389500098303,-0.17477672119140625,-10.158597644042969,2.133233679199219,0,0,0,0
1.0882803510030499,2.9951462768554684,-9.770736975097655,2.521094348144531,0,0,0,0
1.0894766220008023,3.430890979003906,-9.488221179199218,2.3439234252929686,0,0,0,0
1.0906542080047075,1.5538368774414062,-9.296685046386719,1.7788918334960937,0,0,0,0
1.0917999600060284,-1.199495031738281,-9.437942944335937,0.0383072265625,0,0,0,0
1.0929665280127665,-3.0454245117187497,-9.591171850585937,-0.06464344482421874,0,0,0,0
1.0940621140034636,-2.588131994628906,-10.17056865234375,0.6560112548828124,0,0,0,0
1.0952704960072879,0.9241618408203125,-10.12507882080078,1.39821376953125,0,0,0,0
1.0963856010057498,2.568978381347656,-9.842563024902343,1.9943699829101562,0,0,0,0
1.0976522980054142,3.2728736694335936,-9.198522778320312,1.9536685546875,0,0,0,0
1.098830810005893,1.388636962890625,-8.774749084472656,0.469263525390625,0,0,0,0
1.0999144330126,-1.5442600708007812,-9.193734375,-0.18914193115234373,0,0,0,0
1.1010965560126351,-3.134009973144531,-10.484209069824217,-0.35194764404296874,0,0,0,0
1.1022788830014179,-1.0414777221679687,-10.819397302246093,0.46208092041015625,0,0,0,0
1.1034641910082428,0.8092401611328125,-11.030087048339842,1.16837041015625,0,0,0,0
1.1046359989995835,2.3918074584960936,-10.556035119628906,1.917755529785156,0,0,0,0
1.1058346040081233,3.1004911499023438,-9.528922607421874,1.9297265380859374,0,0,0,0
1.1072404660080792,-1.149216796875,-8.571241943359375,1.1156979736328125,0,0,0,0
1.1086570510087768,-2.6623522460937497,-8.992621435546875,0.6464344482421874,0,0,0,0
1.1099229690007633,-1.675941162109375,-10.204087475585936,1.2330138549804688,0,0,0,0
1.1116731820075074,1.139639990234375,-10.939107385253905,1.5562310791015623,0,0,0,0
1.1132504510023864,2.4157494750976563,-9.919177478027343,1.6400281372070311,0,0,0,0
1.1144409070111578,0.9217676391601562,-9.244012609863281,1.369483349609375,0,0,0,0
1.1157768440025393,-1.3287819213867187,-9.129090930175781,0.13407529296874998,0,0,0,0
1.1174786310002673,-2.133233679199219,-9.593566052246093,0.3016694091796875,0,0,0,0
1.1187954930064734,-0.48123453369140623,-10.216058483886718,1.438915197753906,0,0,0,0
1.1199881530046696,0.7972691528320313,-10.790666882324219,1.8315642700195311,0,0,0,0
1.121609496010933,2.703053674316406,-10.242394702148436,1.944091748046875,0,0,0,0
1.1227218420099234,1.254561669921875,-9.478644372558593,1.6136919189453125,0,0,0,0
1.1237950210052077,-1.2569558715820313,-9.22485899658203,0.8690952026367187,0,0,0,0
1.1249413110053865,-2.5665841796874997,-9.91438907470703,0.37828386230468747,0,0,0,0
1.126711745004286,-0.29927520751953124,-10.275913525390624,1.6831237670898436,0,0,0,0
1.128315977010061,2.5234885498046875,-10.175357055664062,2.039859814453125,0,0,0,0
1.1294953040051041,2.8562825805664063,-9.753977563476562,1.8722656982421875,0,0,0,0
1.1305727600120008,0.9600748657226562,-9.229647399902344,1.3239935180664062,0,0,0,0
1.1317331430036575,-1.5634136840820312,-9.260772021484375,0.5315127685546874,0,0,0,0
1.132889470012742,-2.645592834472656,-9.560047229003906,0.00239420166015625,0,0,0,0
1.134238536003977,-1.9608511596679685,-10.338162768554687,0.5027823486328125,0,0,0,0
1.1356810460129054,0.4429273071289062,-10.682927807617187,0.9600748657226562,0,0,0,0
1.1368292810075218,1.2138602416992186,-10.620678564453124,1.5849614990234373,0,0,0,0
1.1379250150057487,2.1643583007812497,-10.060435375976562,1.43652099609375,0,0,0,0
1.139072935009608,1.209071838378906,-9.188945971679686,0.9816226806640624,0,0,0,0
1.1403524280030979,-1.7453730102539062,-9.368511096191405,0.5626373901367188,0,0,0,0
1.1414794770098524,-1.5490484741210937,-10.019733947753906,0.5339069702148437,0,0,0,0
1.1425656190112932,-0.5410895751953124,-10.455478649902343,1.1348515869140625,0,0,0,0
1.1436540389986476,0.4836287353515625,-10.728417639160156,1.4891934326171874,0,0,0,0
1.1448271430126624,1.2689268798828124,-10.31661495361328,2.195482922363281,0,0,0,0
1.1463459860096918,1.22583125,-9.006986645507812,1.9895815795898437,0,0,0,0
1.1475570910115493,-0.086191259765625,-8.820238916015624,1.5011644409179687,0,0,0,0
1.1488276020099875,-0.8858546142578124,-8.765172277832031,1.0534487304687499,0,0,0,0
1.1499280770076439,-0.612915625,-9.047688073730468,1.218648645019531,0,0,0,0
1.1510904599999776,-0.1388636962890625,-10.510545288085936,1.120486376953125,0,0,0,0
1.1523574520106195,1.13006318359375,-11.0707884765625,1.1013327636718748,0,0,0,0
1.1534612610121258,1.3551181396484375,-10.848127722167968,0.9361328491210937,0,0,0,0
1.1546936619997723,0.13407529296874998,-10.156203442382813,0.7685387329101562,0,0,0,0
1.1557889890100341,-1.1563994018554686,-9.5384994140625,0.3711012573242187,0,0,0,0
1.1569515190058155,-1.7597382202148437,-9.052476477050782,0.29448680419921874,0,0,0,0
1.1582539750088472,-1.2737152832031249,-9.191340173339842,0.6440402465820312,0,0,0,0
1.159646651998628,0.22744915771484372,-9.89523546142578,0.9864110839843749,0,0,0,0
1.1608318490034435,1.2473790649414063,-10.345345373535155,1.2856862915039062,0,0,0,0
1.1619289910013322,1.8435352783203125,-10.500968481445312,1.3335703247070312,0,0,0,0
1.1630852250091266,0.612915625,-10.259154113769531,0.9241618408203125,0,0,0,0
1.1643879400071455,-1.8435352783203125,-10.038887561035155,0.814028564453125,0,0,0,0
1.166137300999253,-1.0462661254882812,-9.770736975097655,1.7812860351562498,0,0,0,0
1.1682912149990443,0.93852705078125,-9.801861596679688,2.2673089721679687,0,0,0,0
1.170881570011261,0.8307879760742187,-9.358934289550781,1.0414777221679687,0,0,0,0
1.1726903380040312,-1.714248388671875,-9.662997900390625,0.6081272216796875,0,0,0,0
1.1742054960050154,-1.3120225097656248,-10.271125122070313,0.699106884765625,0,0,0,0
1.1759445600036997,0.21787235107421873,-10.43871923828125,0.9528922607421875,0,0,0,0
1.1779764560051262,1.62805712890625,-9.56962403564453,1.01514150390625,0,0,0,0
1.1794979660044191,-0.9840168823242187,-9.272743029785156,0.5578489868164063,0,0,0,0
1.1813993260002462,-0.6775590698242188,-9.94072529296875,0.40222587890625,0,0,0,0
1.1830058350024046,0.1484405029296875,-10.319009155273436,0.8643067993164062,0,0,0,0
1.1845468640094623,0.3232172241210937,-10.450690246582031,0.9888052856445312,0,0,0,0
1.1868962580047082,-0.4572925170898437,-9.991003527832031,1.3479355346679687,0,0,0,0
1.1883554160012864,-0.46208092041015625,-9.847351428222655,1.6615759521484375,0,0,0,0
1.189653075998649,0.7062894897460937,-9.782707983398437,1.8842367065429686,0,0,0,0
1.190891846010345,1.4341267944335936,-9.555258825683593,1.2856862915039062,0,0,0,0
1.1944397710030898,-0.5817910034179687,-8.93755479736328,0.9911994873046874,0,0,0,0
1.1958181150112068,-1.3910311645507811,-9.682151513671874,0.51714755859375,0,0,0,0
1.197084312007064,-1.0031704956054688,-10.024522351074218,0.842758984375,0,0,0,0
1.1982743789994856,0.3327940307617187,-9.993397729492187,1.1635820068359375,0,0,0,0
1.19947344600223,1.1563994018554686,-10.139444030761718,1.1180921752929687,0,0,0,0
1.20077927201055,0.6057330200195312,-10.007762939453125,0.8858546142578124,0,0,0,0
1.201988673012238,0.16280571289062498,-9.732429748535155,0.25139117431640623,0,0,0,0
1.203077056008624,-1.199495031738281,-9.526528405761718,0.086191259765625,0,0,0,0
1.2042645860055927,-2.214636535644531,-9.897629663085937,0.30406361083984373,0,0,0,0
1.205745374012622,-0.28969840087890625,-9.87608184814453,0.8044517578125,0,0,0,0
1.2071140699990792,0.8475473876953125,-9.526528405761718,1.8124106567382812,0,0,0,0
1.2083923400059575,1.8267758666992187,-10.05564697265625,1.8602946899414061,0,0,0,0
1.2096449070086237,1.70467158203125,-9.87608184814453,1.7286135986328124,0,0,0,0
1.2107987160125049,0.16998831787109375,-9.660603698730467,1.4053963745117186,0,0,0,0
1.212031264003599,-1.458068811035156,-9.89523546142578,0.6416460449218749,0,0,0,0
1.2133820900053252,-1.697488977050781,-10.589553942871094,0.9457096557617187,0,0,0,0
1.2144783800031291,0.45968671875,-10.268730920410155,1.4532804077148436,0,0,0,0
1.2155626330059022,1.0223241088867188,-9.859322436523437,1.637633935546875,0,0,0,0
1.216643589999876,1.3670891479492187,-9.552864624023437,1.6041151123046875,0,0,0,0
1.2177325840020785,1.2832920898437499,-9.239224206542968,1.3958195678710936,0,0,0,0
1.2189563920110231,-0.27293898925781246,-9.016563452148437,0.6823474731445313,0,0,0,0
1.220308162010042,-1.8363526733398436,-10.342951171874999,0.29927520751953124,0,0,0,0
1.2214222670008894,-0.29927520751953124,-10.93671318359375,0.5626373901367188,0,0,0,0
1.2225087420083582,0.7326257080078125,-10.64222637939453,1.2306196533203124,0,0,0,0
1.2235940140089951,1.3479355346679687,-10.656591589355468,1.3814543579101561,0,0,0,0
1.2248005630099215,1.2976572998046874,-10.302249743652343,1.1707646118164061,0,0,0,0
1.2264013690000866,-0.5746083984375,-8.66940421142578,1.01514150390625,0,0,0,0
1.227530492004007,-1.3838485595703125,-8.971073620605468,0.6584054565429687,0,0,0,0
1.2286638190125814,-1.388636962890625,-9.373299499511718,0.7709329345703124,0,0,0,0
1.2299014599993825,-0.229843359375,-10.002974536132811,1.0223241088867188,0,0,0,0
1.231170249011484,0.7661445312499999,-10.213664282226562,1.5035586425781249,0,0,0,0
1.2324623900058214,1.908178723144531,-10.330980163574218,1.3024457031249999,0,0,0,0
1.23386023400235,1.218648645019531,-9.617508068847656,1.0797849487304687,0,0,0,0
1.2352836700010812,-0.93852705078125,-9.756371765136718,0.1484405029296875,0,0,0,0
1.236594996007625,-2.269703173828125,-10.096348400878906,0.30885201416015623,0,0,0,0
1.2377072680101264,-0.7565677246093749,-10.058041174316406,0.9504980590820312,0,0,0,0
1.238794836011948,1.120486376953125,-10.058041174316406,1.7094599853515624,0,0,0,0
1.2398789410071913,2.35589443359375,-10.084377392578125,2.0925322509765625,0,0,0,0
1.2413970990019152,2.4301146850585935,-9.150638745117186,1.7310078002929687,0,0,0,0
1.2427152580057736,-0.8259995727539062,-8.635885388183594,1.0678139404296874,0,0,0,0
1.243933066012687,-2.521094348144531,-9.253589416503905,0.3687070556640625,0,0,0,0
1.2450963740120642,-2.5234885498046875,-9.83777462158203,0.9265560424804687,0,0,0,0
1.246366052000667,-0.7398083129882812,-10.692504614257812,1.889025109863281,0,0,0,0
1.2475411010091193,2.2601263671875,-10.867281335449219,2.221819140625,0,0,0,0
1.248686021004687,2.3726538452148436,-10.522516296386717,2.0542250244140625,0,0,0,0
1.24981031101197,1.7238251953125,-9.53131680908203,1.7310078002929687,0,0,0,0
1.2509970079991035,-0.3950432739257812,-9.215282189941405,0.3711012573242187,0,0,0,0
1.25218961200153,-2.2457611572265623,-9.82580361328125,0.11252747802734374,0,0,0,0
1.2534904380008811,-1.2761094848632812,-10.002974536132811,0.36391865234375,0,0,0,0
1.2545905620063422,0.6248866333007812,-10.295067138671874,0.9935936889648437,0,0,0,0
1.2556762960011838,1.7645266235351562,-10.479420666503906,1.3120225097656248,0,0,0,0
1.2567588460078696,1.8363526733398436,-10.225635290527343,1.3168109130859373,0,0,0,0
1.25784489500802,1.0630255371093749,-9.445125549316407,0.9433154541015625,0,0,0,0
1.2590819250035565,-0.9528922607421875,-8.95670841064453,0.22266075439453123,0,0,0,0
1.260295676998794,-2.0757728393554684,-9.943119494628906,0.28730419921875,0,0,0,0
1.2614171160093974,-1.9033903198242186,-10.002974536132811,0.82360537109375,0,0,0,0
1.2625001280102879,1.0103531005859374,-9.955090502929687,1.6208745239257811,0,0,0,0
1.2635888630029513,2.109291662597656,-10.105925207519531,1.9129671264648436,0,0,0,0
1.264790745000937,2.1595698974609374,-9.873687646484374,1.7980454467773437,0,0,0,0
1.2660398860025452,1.5083470458984374,-9.394847314453125,1.1563994018554686,0,0,0,0
1.267191916005686,-0.6200982299804687,-9.277531433105468,0.6584054565429687,0,0,0,0
1.2684007240022765,-2.3223756103515623,-9.60793126220703,0.8068459594726562,0,0,0,0
1.2696292730106506,-0.33518823242187495,-10.13226142578125,1.2713210815429687,0,0,0,0
1.2709138030040776,1.3766659545898436,-10.27830772705078,2.1906945190429687,0,0,0,0
1.27222661000269,2.5546131713867184,-10.20169327392578,1.8555062866210936,0,0,0,0
1.273519121008576,1.2832920898437499,-9.428366137695312,1.149216796875,0,0,0,0
1.274907280007028,-1.3024457031249999,-8.975862023925782,0.6057330200195312,0,0,0,0
1.2760293110040948,-2.935291235351562,-9.509768994140625,-0.28012159423828126,0,0,0,0
1.2772280260105617,-2.750937707519531,-9.943119494628906,0.29927520751953124,0,0,0,0
1.2783547610015376,-1.37906015625,-10.110713610839843,1.2593500732421874,0,0,0,0
1.2794893100071931,2.0638018310546875,-10.869675537109375,1.608903515625,0,0,0,0
1.2806922660092823,2.664746447753906,-11.03248125,1.7788918334960937,0,0,0,0
1.281934573999024,1.8914193115234375,-10.05564697265625,1.5227122558593749,0,0,0,0
1.2830292160069803,-0.4525041137695312,-9.41639512939453,0.20829554443359374,0,0,0,0
1.284186283010058,-2.710236279296875,-9.706093530273437,0.23223756103515625,0,0,0,0
1.2854069060122129,-3.1004911499023438,-9.91438907470703,0.699106884765625,0,0,0,0
1.286661066013039,0.3016694091796875,-10.000580334472655,1.8219874633789062,0,0,0,0
1.2878557440126315,2.3247698120117186,-10.1131078125,2.5809493896484375,0,0,0,0
1.2891691070108209,3.641580725097656,-10.213664282226562,2.4684219116210935,0,0,0,0
1.2903808410046622,3.3159692993164063,-9.200916979980468,1.6735469604492186,0,0,0,0
1.2915225940087112,-2.1356278808593747,-9.555258825683593,0.6823474731445313,0,0,0,0
1.2927283460012404,-3.2632968627929686,-9.682151513671874,0.22505495605468748,0,0,0,0
1.2941714309999952,-2.1978771240234374,-10.24718310546875,0.9409212524414062,0,0,0,0
1.2955137940007262,1.4891934326171874,-10.388441003417968,1.4341267944335936,0,0,0,0
1.2968530080106575,2.825157958984375,-10.180145458984374,1.6065093139648436,0,0,0,0
1.298078298001201,2.7533319091796873,-9.282319836425781,0.9935936889648437,0,0,0,0
1.2994267530011712,0.5746083984375,-8.726865051269531,0.016759411621093748,0,0,0,0
1.3007711160025792,-3.1124621582031247,-9.236830004882812,-0.5051765502929687,0,0,0,0
1.3020505530002993,-2.281674182128906,-9.983820922851562,0.6751648681640625,0,0,0,0
1.303253398000379,-0.679953271484375,-11.056423266601563,1.2928688964843749,0,0,0,0
1.3045718909997959,2.7629087158203123,-11.044452258300781,1.7621324218749999,0,0,0,0
1.3056951250036946,2.6767174560546874,-9.801861596679688,1.9656395629882812,0,0,0,0
1.306947229008074,0.5051765502929687,-8.935160595703124,1.6112977172851561,0,0,0,0
1.308271259011235,-1.6807295654296874,-8.726865051269531,0.8571241943359375,0,0,0,0
1.3097038429987151,-1.350329736328125,-9.574412438964844,0.9169792358398436,0,0,0,0
1.3111110940080835,0.28730419921875,-9.9215716796875,1.924938134765625,0,0,0,0
1.312460920002195,1.4508862060546874,-10.740388647460938,2.152387292480469,0,0,0,0
1.3138365230115596,2.6192566162109374,-10.16338604736328,1.9656395629882812,0,0,0,0
1.3150455170107307,0.32082302246093747,-9.418789331054686,0.5722141967773438,0,0,0,0
1.3163920090009924,-1.6711527587890624,-9.198522778320312,0.27293898925781246,0,0,0,0
1.3174911690002773,-2.31758720703125,-9.5384994140625,0.28969840087890625,0,0,0,0
1.3188620880100643,-0.430956298828125,-10.172962854003906,0.6344634399414062,0,0,0,0
1.320055988006061,0.718260498046875,-10.632649572753905,1.458068811035156,0,0,0,0
1.321558758005267,2.300827795410156,-9.801861596679688,1.4891934326171874,0,0,0,0
1.3226750110043213,0.5003881469726562,-9.550470422363281,0.97683427734375,0,0,0,0
1.3237684670020826,-1.6328455322265625,-9.598354455566406,0.32561142578124996,0,0,0,0
1.3250798119988758,-2.4660277099609376,-9.91438907470703,0.0430956298828125,0,0,0,0
1.3263018230063608,-2.0183119995117185,-10.714052429199219,0.9145850341796874,0,0,0,0
1.3278265000117244,0.7757213378906249,-10.512939489746094,2.0254946044921875,0,0,0,0
1.3294716020027408,2.0278888061523435,-10.096348400878906,2.0374656127929685,0,0,0,0
1.33104881500185,0.6943184814453125,-9.038111267089842,1.2569558715820313,0,0,0,0
1.333179099005065,-1.4724340209960938,-9.3086560546875,0.8762778076171874,0,0,0,0
1.3343955000018468,-0.9888052856445312,-9.9981861328125,1.2689268798828124,0,0,0,0
1.3355738450045465,0.6344634399414062,-10.242394702148436,1.5538368774414062,0,0,0,0
1.3374493900046218,1.6472107421875,-9.715670336914062,1.4772224243164063,0,0,0,0
1.3386751240032027,0.36391865234375,-9.062053283691405,0.5602431884765625,0,0,0,0
1.3407688160077669,-1.4963760375976562,-8.892064965820312,0.2442085693359375,0,0,0,0
1.3422326220024843,-1.0414777221679687,-9.622296472167967,0.8188169677734375,0,0,0,0
1.3433316160080722,-0.41898529052734373,-9.7683427734375,1.3215993164062498,0,0,0,0
1.3457614540093346,1.9297265380859374,-9.445125549316407,1.484405029296875,0,0,0,0
1.34699705800449,0.7254431030273437,-9.062053283691405,0.9217676391601562,0,0,0,0
1.3483572539989837,-0.7924807495117187,-8.951920007324219,0.7637503295898437,0,0,0,0
1.3498049500049092,-0.8259995727539062,-9.5384994140625,0.814028564453125,0,0,0,0
1.3510497950046556,-0.0909796630859375,-10.12507882080078,1.5322890624999999,0,0,0,0
1.3522425840055803,0.3327940307617187,-11.018116040039061,1.5610194824218748,0,0,0,0
1.3535456509998767,1.6615759521484375,-10.893617553710937,1.7812860351562498,0,0,0,0
1.3546523120021448,0.47644613037109373,-10.639832177734375,1.5490484741210937,0,0,0,0
1.3557472310058074,-0.9840168823242187,-10.08677159423828,0.9265560424804687,0,0,0,0
1.356838225008687,-1.7980454467773437,-9.504980590820312,0.5386953735351562,0,0,0,0
1.3580006820120616,-1.3239935180664062,-9.679757312011718,1.0654197387695312,0,0,0,0
1.3594417100102874,-0.43574470214843747,-10.28549033203125,1.2234370483398436,0,0,0,0
1.3608473510103067,1.446097802734375,-10.927136376953124,1.5107412475585937,0,0,0,0
1.3619621410034597,1.8435352783203125,-10.548852514648438,1.5586252807617187,0,0,0,0
1.3630502640007762,0.4908113403320312,-10.54645831298828,1.235408056640625,0,0,0,0
1.3641419250052422,-1.3623007446289062,-10.577582934570312,0.6200982299804687,0,0,0,0
1.3653238250117283,-2.7269956909179687,-10.079588989257813,1.0606313354492187,0,0,0,0
1.3666505590081215,-1.944091748046875,-9.081206896972656,2.3032219970703123,0,0,0,0
1.3677549970016116,-1.6615759521484375,-8.506598498535157,3.5960908935546874,0,0,0,0
1.3688523800083203,-0.8092401611328125,-8.480262280273436,4.876988781738281,0,0,0,0
1.3700031690095784,0.70868369140625,-8.975862023925782,7.592013464355468,0,0,0,0
1.3714883089996874,1.0295067138671874,-9.406818322753905,8.441955053710936,0,0,0,0
1.372892153012799,2.224213342285156,-9.466673364257812,9.107543115234375,0,0,0,0
1.3740007020096527,1.917755529785156,-9.251195214843749,9.813832604980469,0,0,0,0
1.375092863003374,2.403778466796875,-10.69968721923828,10.01015714111328,0,0,0,0
1.376242986007128,2.6719290527343746,-10.08677159423828,9.777919580078125,0,0,0,0
1.3779826800018782,1.5705962890624998,-10.115502014160155,9.184157568359375,0,0,0,0
1.379168469007709,1.5346832641601562,-9.119514123535156,7.987056738281249,0,0,0,0
1.3804270360124065,0.9600748657226562,-9.967061511230469,7.098807922363281,0,0,0,0
1.381538123008795,1.139639990234375,-9.318232861328125,5.9017070922851556,0,0,0,0
1.3831081140087917,-1.1755530151367186,-9.734823950195311,3.6296097167968746,0,0,0,0
1.3844604030018672,-0.8547299926757812,-10.194510668945313,2.844311572265625,0,0,0,0
1.385571841005003,-0.7852981445312499,-10.742782849121093,2.288856787109375,0,0,0,0
1.38665855700674,0.3687070556640625,-10.960655200195312,1.5251064575195312,0,0,0,0
1.3877484030090272,0.6416460449218749,-11.003750830078124,1.149216796875,0,0,0,0
1.3896514840016607,-0.316034619140625,-10.955866796875,-0.33039982910156246,0,0,0,0
1.390817274004803,-1.7788918334960937,-10.723629235839843,-0.8188169677734375,0,0,0,0
1.391957027008175,-2.39420166015625,-10.654197387695312,-1.2761094848632812,0,0,0,0
1.3930796320055379,-2.2026655273437497,-10.527304699707031,-1.3479355346679687,0,0,0,0
1.3942608659999678,-1.9033903198242186,-9.907206469726562,-0.38307226562499996,0,0,0,0
1.3958678750059335,-0.07900865478515624,-9.686939916992188,0.04548983154296875,0,0,0,0
1.3970907390030334,-0.15322890625,-9.208099584960937,0.5770026000976562,0,0,0,0
1.3981745100027183,0.1292868896484375,-9.181763366699219,0.9983820922851562,0,0,0,0
1.3996603539999342,0.08379705810546874,-9.203311181640624,1.7405846069335937,0,0,0,0
1.4013621590129333,0.5339069702148437,-9.639055883789062,2.176329309082031,0,0,0,0
1.402542338008061,0.9576806640625,-9.701305126953125,2.492363928222656,0,0,0,0
1.4036468679987593,1.4963760375976562,-9.495403784179686,2.530671154785156,0,0,0,0
1.404875713007641,1.2856862915039062,-9.196128576660156,2.540247961425781,0,0,0,0
1.4061185400059912,1.0175357055664063,-8.939948999023438,2.1906945190429687,0,0,0,0
1.4072124590020394,0.40222587890625,-9.004592443847656,1.24498486328125,0,0,0,0
1.4083056200033752,-0.0909796630859375,-8.987833032226561,0.7254431030273437,0,0,0,0
1.409517557010986,-0.32082302246093747,-9.655815295410155,0.3687070556640625,0,0,0,0
1.4107084770075744,-0.1867477294921875,-9.801861596679688,0.08140285644531249,0,0,0,0
1.4118196190102026,-0.22266075439453123,-9.840168823242188,-0.1484405029296875,0,0,0,0
1.4130445379996672,-0.39264907226562495,-9.969455712890625,-0.15562310791015624,0,0,0,0
1.41431758600811,-0.39264907226562495,-10.026916552734374,0.047884033203124995,0,0,0,0
1.4155189680022886,-0.4213794921875,-10.019733947753906,0.3950432739257812,0,0,0,0
1.4166198510065442,-0.2609679809570312,-10.189722265624999,0.6703764648437499,0,0,0,0
1.4177145110006677,-0.17238251953125,-10.357316381835936,1.0582371337890624,0,0,0,0
1.4187998010020237,-0.07900865478515624,-10.582371337890624,1.3072341064453123,0,0,0,0
1.419887499010656,0.1388636962890625,-10.69968721923828,1.5753846923828123,0,0,0,0
1.4211479180085007,0.3064578125,-10.639832177734375,2.0566192260742184,0,0,0,0
1.4223647809994873,0.3758896606445312,-10.565611926269531,2.2002713256835937,0,0,0,0
1.4234574970032554,0.4525041137695312,-10.297461340332031,2.252943762207031,0,0,0,0
1.4245551760104718,0.469263525390625,-10.290278735351562,2.2744915771484373,0,0,0,0
1.425749836009345,0.5339069702148437,-10.31661495361328,2.109291662597656,0,0,0,0
1.4270687180105597,0.5482721801757812,-10.31661495361328,1.9009961181640624,0,0,0,0
1.428275359008694,0.5099649536132812,-10.122684619140625,1.3718775512695311,0,0,0,0
1.4293963530071778,0.239420166015625,-10.002974536132811,0.8690952026367187,0,0,0,0
1.430690160006634,-0.5482721801757812,-9.847351428222655,0.5722141967773438,0,0,0,0
1.4319662640045863,-0.737414111328125,-9.713276135253906,0.3399766357421875,0,0,0,0
1.4332089610106777,-0.7158662963867187,-9.651026892089844,0.02633621826171875,0,0,0,0
1.4343121950078057,-0.5410895751953124,-9.550470422363281,0.02154781494140625,0,0,0,0
1.4354115960013587,-0.38307226562499996,-9.548076220703125,0.14604630126953125,0,0,0,0
1.4366991999995662,-0.26815058593749996,-9.5384994140625,0.3280056274414062,0,0,0,0
1.4379640450060833,-0.09576806640624999,-9.447519750976562,0.59376201171875,0,0,0,0
1.439296723008738,-0.0047884033203125,-9.392453112792968,1.1444283935546875,0,0,0,0
1.4406467340013478,0.39743747558593745,-9.279925634765624,1.3623007446289062,0,0,0,0
1.4432116259995382,0.39983167724609375,-9.421183532714844,1.7357962036132812,0,0,0,0
1.4447175990062533,0.2154781494140625,-9.572018237304688,1.6927005737304686,0,0,0,0
1.446111703000497,0.25139117431640623,-9.737218151855469,1.7980454467773437,0,0,0,0
1.4473227140115341,0.3184288208007812,-9.849745629882811,1.7094599853515624,0,0,0,0
1.4484928190067876,0.3184288208007812,-9.911994873046874,1.4867992309570313,0,0,0,0
1.4496671640081331,0.3806780639648437,-9.981426721191406,1.5035586425781249,0,0,0,0
1.4508383979991777,0.2059013427734375,-9.962273107910155,1.2928688964843749,0,0,0,0
1.452159891006886,0.0047884033203125,-10.000580334472655,0.8882488159179687,0,0,0,0
1.4535093279991997,-0.13407529296874998,-10.199299072265624,0.7781155395507812,0,0,0,0
1.4550429670052836,-0.2657563842773437,-10.378864196777343,0.6272808349609375,0,0,0,0
1.4564882740087342,-0.35194764404296874,-10.565611926269531,0.59376201171875,0,0,0,0
1.4578758220013697,-0.3280056274414062,-10.426748229980468,0.74699091796875,0,0,0,0
1.4591473330074223,-0.296881005859375,-10.266336718749999,0.8762778076171874,0,0,0,0
1.460398900002474,-0.25139117431640623,-10.141838232421874,0.97683427734375,0,0,0,0
1.461599838003167,-0.14604630126953125,-9.866505041503906,1.1276689819335937,0,0,0,0
1.4628737380116945,-0.016759411621093748,-9.832986218261718,1.2856862915039062,0,0,0,0
1.464166693011066,0.13646949462890623,-9.842563024902343,1.4149731811523436,0,0,0,0
1.4655992780026281,0.22744915771484372,-9.828197814941406,1.455674609375,0,0,0,0
1.4670379730087006,0.2346317626953125,-9.849745629882811,1.4532804077148436,0,0,0,0
1.46831917000236,0.05985504150390625,-9.660603698730467,1.1707646118164061,0,0,0,0
1.4697324030130403,-0.0047884033203125,-9.576806640625,1.1252747802734375,0,0,0,0
1.4712883750034962,0.016759411621093748,-9.490615380859374,1.1013327636718748,0,0,0,0
1.472860848007258,0.13646949462890623,-9.337386474609374,0.7589619262695312,0,0,0,0
1.4746220050001284,0.11731588134765625,-9.409212524414063,0.8068459594726562,0,0,0,0
1.4759289420035202,0.1388636962890625,-9.37808790283203,0.7852981445312499,0,0,0,0
1.4774914520094171,0.03591302490234375,-9.579200842285156,0.7996633544921875,0,0,0,0
1.4788519810099388,0.15562310791015624,-9.65342109375,0.7972691528320313,0,0,0,0
1.4801496220025,0.01915361328125,-9.751583361816406,0.9026140258789062,0,0,0,0
1.4815653910045512,-0.11252747802734374,-9.97184991455078,1.0271125122070313,0,0,0,0
1.4827590700006112,0.1867477294921875,-10.041281762695311,1.1707646118164061,0,0,0,0
1.4842365060030716,0.22026655273437498,-10.046070166015625,1.388636962890625,0,0,0,0
1.485517332010204,0.28969840087890625,-9.87608184814453,1.3862427612304686,0,0,0,0
1.4867638620053185,0.32082302246093747,-10.007762939453125,1.4006079711914061,0,0,0,0
1.4881878910091473,0.19632453613281248,-10.12507882080078,1.455674609375,0,0,0,0
1.489424940009485,0.09576806640624999,-9.935936889648437,1.209071838378906,0,0,0,0
1.4910914120118832,0.16041151123046873,-10.220846887207031,0.9744400756835937,0,0,0,0
1.4928476060013054,-0.2705447875976562,-10.235212097167969,1.0007762939453124,0,0,0,0
1.4942493200069293,-0.05985504150390625,-10.244788903808594,1.0031704956054688,0,0,0,0
1.4961587350117043,-0.06703764648437499,-9.911994873046874,0.8954314208984374,0,0,0,0
1.4981579640007112,-0.21787235107421873,-9.947907897949218,0.8667010009765624,0,0,0,0
1.499509012006456,-0.22744915771484372,-10.007762939453125,0.8690952026367187,0,0,0,0
1.5010259300033795,-0.07422025146484375,-9.746794958496093,1.1156979736328125,0,0,0,0
1.5028874190029455,0.0143652099609375,-9.751583361816406,1.0989385620117187,0,0,0,0
1.5043931330001215,0.0047884033203125,-9.6917283203125,1.3144167114257812,0,0,0,0
1.505747440009145,0.023942016601562498,-9.667786303710937,1.3407529296874998,0,0,0,0
1.507114525011275,0.062249243164062495,-9.658209497070311,1.2713210815429687,0,0,0,0
1.508517906011548,0.00239420166015625,-9.80665,1.1947066284179686,0,0,0,0
1.5101010270009283,-0.09576806640624999,-9.655815295410155,1.1923124267578125,0,0,0,0
1.511415704007959,0.086191259765625,-9.595960253906249,1.2306196533203124,0,0,0,0
1.5131627500086324,0.28012159423828126,-9.734823950195311,1.0917559570312498,0,0,0,0
1.514879018010106,-0.08858546142578125,-9.770736975097655,1.218648645019531,0,0,0,0
1.516222344012931,-0.13646949462890623,-10.058041174316406,1.0630255371093749,0,0,0,0
1.5174972070090007,-0.031124621582031248,-9.95987890625,1.0534487304687499,0,0,0,0
1.5188187919993652,0.086191259765625,-9.935936889648437,1.0414777221679687,0,0,0,0
1.520218414007104,0.13407529296874998,-10.053252770996092,1.0295067138671874,0,0,0,0
1.5217013869987568,0.0,-9.777919580078125,0.9911994873046874,0,0,0,0
1.5229057140095392,0.16519991455078123,-9.744400756835937,1.0486603271484374,0,0,0,0
1.5243227610044414,0.3112462158203125,-9.89523546142578,1.13006318359375,0,0,0,0
1.5258965860120952,0.08858546142578125,-9.947907897949218,0.9959878906249999,0,0,0,0
1.5271552080084803,-0.07422025146484375,-9.976638317871092,1.0079588989257813,0,0,0,0
1.528336905001197,-0.0143652099609375,-10.041281762695311,0.9816226806640624,0,0,0,0
1.52953952801181,0.09816226806640624,-9.955090502929687,1.0582371337890624,0,0,0,0
1.5307855030114297,0.1771709228515625,-9.8449572265625,1.0893617553710937,0,0,0,0
1.5322120690107113,0.15562310791015624,-9.89523546142578,1.0989385620117187,0,0,0,0
1.5334199690114474,0.08379705810546874,-9.737218151855469,1.0941501586914062,0,0,0,0
1.5345957770041423,0.13646949462890623,-9.65342109375,1.0366893188476562,0,0,0,0
1.5361078429996269,0.00239420166015625,-9.672574707031249,1.0390835205078124,0,0,0,0
1.5375262980087427,-0.0383072265625,-9.660603698730467,0.9840168823242187,0,0,0,0
1.538712421010132,0.08140285644531249,-9.689334118652344,0.967257470703125,0,0,0,0
1.5398899880092358,0.0047884033203125,-9.859322436523437,1.005564697265625,0,0,0,0
1.541423646005569,-0.0383072265625,-9.955090502929687,1.0773907470703123,0,0,0,0
1.5428688050014898,-0.06943184814453125,-9.964667309570311,1.0989385620117187,0,0,0,0
1.5442191300098784,-0.05746083984375,-9.981426721191406,1.2234370483398436,0,0,0,0
1.54541412400431,0.00239420166015625,-9.765948571777344,1.1755530151367186,0,0,0,0
1.546661172003951,-0.08379705810546874,-9.70369932861328,1.2330138549804688,0,0,0,0
1.5484131250123028,0.11013327636718749,-9.70369932861328,1.218648645019531,0,0,0,0
1.5496272300079,0.09576806640624999,-9.883264453125,1.1635820068359375,0,0,0,0
1.551081203011563,0.0,-10.031704956054687,1.120486376953125,0,0,0,0
1.5525214720109943,-0.076614453125,-10.16338604736328,1.120486376953125,0,0,0,0
1.5537735210091341,-0.07422025146484375,-9.983820922851562,1.1611878051757811,0,0,0,0
1.5557895470119547,0.10773907470703124,-9.763554370117188,1.1635820068359375,0,0,0,0
1.5570105770020746,0.09816226806640624,-9.600748657226562,1.2210428466796874,0,0,0,0
1.5582814580120612,0.0,-9.773131176757811,1.1611878051757811,0,0,0,0
1.559963930005324,0.0047884033203125,-9.861716638183593,1.1851298217773436,0,0,0,0
1.5612515899993014,-0.040701428222656245,-9.861716638183593,1.1611878051757811,0,0,0,0
1.5624924350122456,0.05746083984375,-10.034099157714843,1.0606313354492187,0,0,0,0
1.5637508910003817,0.0526724365234375,-10.002974536132811,1.0319009155273438,0,0,0,0
1.5654340290057007,-0.11252747802734374,-9.950302099609374,1.2689268798828124,0,0,0,0
1.566784873008146,-0.05985504150390625,-9.751583361816406,1.2330138549804688,0,0,0,0
1.5680395520030288,0.05746083984375,-9.689334118652344,1.2210428466796874,0,0,0,0
1.5693021560000489,0.11731588134765625,-9.6917283203125,1.199495031738281,0,0,0,0
1.5706119440001203,0.17956512451171874,-9.730035546875,1.1276689819335937,0,0,0,0
1.5717859380092705,-0.00718260498046875,-9.868899243164062,1.0941501586914062,0,0,0,0
1.5729596720047994,-0.076614453125,-9.866505041503906,1.1156979736328125,0,0,0,0
1.5742042019992368,-0.08379705810546874,-9.811438403320311,1.0414777221679687,0,0,0,0
1.5756296010076767,-0.1484405029296875,-9.713276135253906,1.0726023437499999,0,0,0,0
1.5768312610016437,0.031124621582031248,-9.710881933593749,1.0390835205078124,0,0,0,0
1.578190161002567,0.07422025146484375,-9.76116016845703,1.2018892333984375,0,0,0,0
1.579579820012441,0.13168109130859373,-9.789890588378906,1.024718310546875,0,0,0,0
1.5808491460047662,0.0430956298828125,-9.734823950195311,1.01514150390625,0,0,0,0
1.5825497660116525,-0.00239420166015625,-9.751583361816406,0.9888052856445312,0,0,0,0
1.58387262900942,-0.016759411621093748,-9.770736975097655,0.9337386474609375,0,0,0,0
1.585201677007717,0.05746083984375,-9.80665,1.0702081420898437,0,0,0,0
1.586434985001688,0.07422025146484375,-10.110713610839843,1.0127473022460938,0,0,0,0
1.587859440012835,0.0,-10.105925207519531,1.0630255371093749,0,0,0,0
1.5892518020118587,0.00239420166015625,-10.012551342773437,1.1228805786132812,0,0,0,0
1.5906482940044953,0.03591302490234375,-9.847351428222655,1.0749965454101562,0,0,0,0
1.5925285060075112,0.16041151123046873,-9.686939916992188,1.2306196533203124,0,0,0,0
1.5937524800101528,0.12210428466796874,-9.789890588378906,1.1707646118164061,0,0,0,0
1.5951644720043987,0.143652099609375,-9.878476049804688,1.1228805786132812,0,0,0,0
1.596593798007234,0.1484405029296875,-9.859322436523437,1.218648645019531,0,0,0,0
1.5981856590078678,0.0718260498046875,-9.957484704589843,1.0726023437499999,0,0,0,0
1.5994058000069344,0.08140285644531249,-9.923965881347655,1.1109095703125,0,0,0,0
1.6006656079989625,0.12210428466796874,-9.87608184814453,1.1348515869140625,0,0,0,0
1.6020099520101212,0.06464344482421874,-9.868899243164062,1.1180921752929687,0,0,0,0
1.6034080370009178,0.076614453125,-9.753977563476562,1.1755530151367186,0,0,0,0
1.6046533629996702,0.00718260498046875,-9.710881933593749,1.2713210815429687,0,0,0,0
1.6058425790106412,0.040701428222656245,-9.682151513671874,1.2473790649414063,0,0,0,0
1.6070199800014962,0.02633621826171875,-9.730035546875,1.158793603515625,0,0,0,0
1.6082660840038443,-0.01915361328125,-9.9215716796875,1.1013327636718748,0,0,0,0
1.6097029090014985,-0.047884033203124995,-9.897629663085937,1.0199299072265624,0,0,0,0
1.610932606010465,-0.06703764648437499,-9.957484704589843,1.0869675537109373,0,0,0,0
1.612414412011276,-0.07422025146484375,-9.974244116210937,1.1348515869140625,0,0,0,0
1.6138900710066082,0.0718260498046875,-9.849745629882811,1.2282254516601563,0,0,0,0
1.6151182670000708,0.0430956298828125,-9.888052856445311,1.2521674682617188,0,0,0,0
1.616290261008544,-0.06703764648437499,-9.888052856445311,1.2832920898437499,0,0,0,0
1.6177080860070419,-0.033518823242187495,-9.852139831542969,1.1755530151367186,0,0,0,0
1.619197559004533,-0.1005564697265625,-9.928754284667969,0.9433154541015625,0,0,0,0
1.6205158850061707,0.023942016601562498,-10.108319409179687,1.1755530151367186,0,0,0,0
1.6217675260122633,0.02633621826171875,-9.962273107910155,1.0749965454101562,0,0,0,0
1.6232764060114278,-0.055066638183593745,-10.022128149414062,1.1109095703125,0,0,0,0
1.624836064002011,0.0,-9.897629663085937,1.1037269653320312,0,0,0,0
1.6260556500055827,-0.047884033203124995,-9.83777462158203,1.0749965454101562,0,0,0,0
1.6272291430068435,0.06703764648437499,-9.847351428222655,1.0893617553710937,0,0,0,0
1.6284360810095677,0.08379705810546874,-9.804255798339844,1.149216796875,0,0,0,0
1.6303266630129656,0.1484405029296875,-9.935936889648437,1.1180921752929687,0,0,0,0
1.6317697470076382,0.2825157958984375,-9.787496386718749,1.149216796875,0,0,0,0
1.6329576300049666,0.0383072265625,-9.854534033203125,1.0893617553710937,0,0,0,0
1.6345984720101114,0.07900865478515624,-9.919177478027343,1.0438719238281249,0,0,0,0
1.6358787610079162,0.05985504150390625,-9.873687646484374,1.0726023437499999,0,0,0,0
1.637085106005543,0.11731588134765625,-9.813832604980469,1.1516109985351561,0,0,0,0
1.6382610810105689,0.1580173095703125,-9.792284790039062,1.2018892333984375,0,0,0,0
1.6397026100021321,0.08379705810546874,-9.821015209960937,1.0869675537109373,0,0,0,0
1.641276120004477,0.1292868896484375,-9.821015209960937,1.0893617553710937,0,0,0,0
1.6426256679988,0.08858546142578125,-9.90241806640625,1.0127473022460938,0,0,0,0
1.6439014940115158,0.076614453125,-9.873687646484374,0.9696516723632812,0,0,0,0
1.6454631330125267,-0.0143652099609375,-9.897629663085937,1.0031704956054688,0,0,0,0
1.6470372910116566,0.040701428222656245,-9.952696301269532,1.0295067138671874,0,0,0,0
1.649318685012986,0.02633621826171875,-9.878476049804688,1.0558429321289062,0,0,0,0
1.6510500459989998,-0.00239420166015625,-9.880870251464843,1.0319009155273438,0,0,0,0
1.6524698710127268,-0.016759411621093748,-9.900023864746093,1.139639990234375,0,0,0,0
1.6542518610076513,0.086191259765625,-9.9215716796875,1.1923124267578125,0,0,0,0
1.656131980009377,0.06464344482421874,-9.907206469726562,1.1468225952148436,0,0,0,0
1.6575017499999376,-0.0047884033203125,-10.1131078125,1.139639990234375,0,0,0,0
1.6586854660126846,-0.009576806640625,-9.911994873046874,1.1228805786132812,0,0,0,0
