Time (s),Accel X1,Accel Y1,Accel Z1,Accel X2,Accel Y2,Accel Z2
0.00011453600006916531,0,0,1.3335703247070312,0,0,1.1484375
0.015694365000058497,0,0,1.3814543579101561,0,0,0.765625
0.031317915000045105,0,0,1.43652099609375,0,0,0.9953125
0.04685744800008251,0,0,1.3407529296874998,0,0,0.45937500000000003
0.06551108300004671,0,0,1.5275006591796874,0,0,0.6890625
0.07777668100004576,0,0,1.47482822265625,0,0,0.8421875000000001
0.08925413800000115,0,0,1.4341267944335936,0,0,0.6890625
0.10064433600007305,0,0,1.2593500732421874,0,0,0.45937500000000003
0.1120369779999919,0,0,1.3670891479492187,0,0,0.9187500000000001
0.12340997300009349,0,0,1.5370774658203123,0,0,0.6125
0.13482472600003348,0,0,1.4101847778320311,0,0,0.8421875000000001
0.14618999800006804,0,0,1.4963760375976562,0,0,1.225
0.1576595480000833,0,0,1.350329736328125,0,0,0.765625
0.16912622699999247,0,0,1.2880804931640624,0,0,0.6125
0.18048881400000027,0,0,1.3000515014648437,0,0,0.153125
0.19187747500006935,0,0,1.2425906616210938,0,0,0.9953125
0.20326943200007008,0,0,1.2928688964843749,0,0,0.9187500000000001
0.21475196300002608,0,0,1.4101847778320311,0,0,0.6125
0.22614179000004242,0,0,1.3024457031249999,0,0,0.9953125
0.23755132100006904,0,0,1.35990654296875,0,0,0.8421875000000001
0.24896163000005345,0,0,1.448492004394531,0,0,1.225
0.260365810000053,0,0,1.4221557861328125,0,0,0.9953125
0.27213472700009333,0,0,1.4101847778320311,0,0,0.765625
0.2846234150000555,0,0,1.467645617675781,0,0,0.8421875000000001
0.29718567700001586,0,0,1.3455413330078123,0,0,0.8421875000000001
0.3099202900000364,0,0,1.350329736328125,0,0,1.225
0.32257060699998874,0,0,1.1635820068359375,0,0,0.6125
0.3351095540000415,0,0,1.3718775512695311,0,0,1.1484375
0.3476387790000217,0,0,1.458068811035156,0,0,0.8421875000000001
0.36011713499999587,0,0,1.4053963745117186,0,0,0.9953125
0.3715499990000808,0,0,1.4317325927734375,0,0,1.225
0.38111734200003866,0,0,1.2856862915039062,0,0,0.9187500000000001
0.39074103699999796,0,0,1.3814543579101561,0,0,0.765625
0.4003276949999872,0,0,1.4604630126953124,0,0,0.8421875000000001
0.41104673200004527,0,0,1.3670891479492187,0,0,1.225
0.4206699830000389,0,0,1.2856862915039062,0,0,0.765625
0.43036567700005435,0,0,1.2713210815429687,0,0,0.9187500000000001
0.44002955600001314,0,0,1.235408056640625,0,0,0.3828125
0.44973545400000603,0,0,1.3048399047851562,0,0,0.8421875000000001
0.45944288900000174,0,0,1.3096283081054687,0,0,0.6890625
0.4692700260000038,0,0,1.3862427612304686,0,0,0.8421875000000001
0.48198313900002177,0,0,1.2832920898437499,0,0,0.9187500000000001
0.4934164660000988,0,0,1.3096283081054687,0,0,0.9953125
0.5166143769999962,0,0,1.35990654296875,0,0,0.8421875000000001
0.528956067000081,0,0,1.254561669921875,0,0,0.8421875000000001
0.5404228749999902,0,0,1.5203180541992187,0,0,1.225
0.5517924069999935,0,0,1.4891934326171874,0,0,0.9187500000000001
0.5631274390000272,0,0,1.467645617675781,0,0,1.0718750000000001
0.5744741380000278,0,0,1.4796166259765624,0,0,0.9187500000000001
0.5861277779999909,0,0,1.3431471313476562,0,0,1.378125
0.5975356980000015,0,0,1.3072341064453123,0,0,0.765625
0.6089163780000035,0,0,1.4437036010742186,0,0,0.6125
0.6202840949999882,0,0,1.4006079711914061,0,0,0.765625
0.6316142930000979,0,0,1.2880804931640624,0,0,0.8421875000000001
0.6430140649999885,0,0,1.2713210815429687,0,0,1.1484375
0.6544199109999909,0,0,1.3192051147460937,0,0,0.3828125
0.6657644430000573,0,0,1.3096283081054687,0,0,0.9953125
0.6781956140000602,0,0,1.4532804077148436,0,0,0.6125
0.6908674860000019,0,0,1.4341267944335936,0,0,1.0718750000000001
0.703591154000037,0,0,1.43652099609375,0,0,0.6125
0.7162483050000219,0,0,1.429338391113281,0,0,0.765625
0.7301555550000103,0,0,1.3646949462890625,0,0,0.3828125
0.7428544830000874,0,0,1.2785036865234374,0,0,0.45937500000000003
0.7555697800000871,0,0,1.2569558715820313,0,0,1.1484375
0.7682319310000594,0,0,1.5227122558593749,0,0,0.6125
0.7787347100000943,0,0,1.5107412475585937,0,0,1.378125
0.7884256450000748,0,0,1.3838485595703125,0,0,0.9953125
0.7981603580000183,0,0,1.2785036865234374,0,0,1.0718750000000001
0.8078732370000807,0,0,1.3766659545898436,0,0,0.9187500000000001
0.8174998389999928,0,0,1.3431471313476562,0,0,0.6125
0.8271466080000209,0,0,1.4867992309570313,0,0,0.9187500000000001
0.8367722660000254,0,0,1.2761094848632812,0,0,1.225
0.8464668120000169,0,0,1.6735469604492186,0,0,0.765625
0.8561195060000273,0,0,1.4820108276367188,0,0,1.0718750000000001
0.8657670530000132,0,0,1.6639701538085936,0,0,0.8421875000000001
0.8773869340000147,0,0,1.3551181396484375,0,0,0.9187500000000001
0.8899815290000106,0,0,1.3814543579101561,0,0,1.6078125
0.9027229200000875,0,0,1.6017209106445311,0,0,0.6890625
0.9153521260000161,0,0,1.5275006591796874,0,0,0.5359375000000001
0.9279495540000653,0,0,1.3646949462890625,0,0,0.765625
0.9403713730000618,0,0,1.5370774658203123,0,0,0.5359375000000001
0.9528243949999933,0,0,1.4604630126953124,0,0,1.3015625000000002
0.9653101580000794,0,0,1.3407529296874998,0,0,0.6890625
0.9765778940000018,0,0,1.4317325927734375,0,0,0.765625
0.9871022849999918,0,0,1.4101847778320311,0,0,0.5359375000000001
0.9975693430000092,0,0,1.5059528442382812,0,0,0.765625
1.0080801970000266,0,0,1.5538368774414062,0,0,0.9187500000000001
1.0187170120000246,0,0,1.608903515625,0,0,0.8421875000000001
1.0292539399999896,0,0,1.5227122558593749,0,0,1.1484375
1.0398485709999932,0,0,1.6424223388671875,0,0,0.8421875000000001
1.0503137590000051,0,0,1.2785036865234374,0,0,0.6125
1.060797502000014,0,0,1.419761584472656,0,0,0.8421875000000001
1.0710859690000234,0,0,1.2306196533203124,0,0,0.8421875000000001
1.0774923760000092,0,0,1.4006079711914061,0,0,1.225
1.0839279690000012,0,0,1.8363526733398436,0,0,0.765625
1.0903135990000692,0,0,1.2042834350585936,0,0,0.153125
1.0966278970000758,0,0,1.3407529296874998,0,0,1.7609375
1.1028897130000814,0,0,1.9871873779296874,0,0,1.0718750000000001
1.1092372690000047,0,0,1.1468225952148436,0,0,1.0718750000000001
1.1156131220000134,0,0,1.5466542724609373,0,0,1.7609375
1.1219706410000754,0,0,1.7214309936523438,0,0,0.9187500000000001
1.128397975000098,0,0,0.9265560424804687,0,0,0.9187500000000001
1.1346834020000642,0,0,1.70467158203125,0,0,0.9953125
1.141024903000016,0,0,1.254561669921875,0,0,0.6125
1.147516476000078,0,0,1.4867992309570313,0,0,1.1484375
1.1538825140000881,0,0,1.6472107421875,0,0,0.9187500000000001
1.1602300150000247,0,0,1.149216796875,0,0,1.3015625000000002
1.1665810160000092,0,0,1.6927005737304686,0,0,1.0718750000000001
1.1728929980000657,0,0,1.2378022583007813,0,0,1.225
1.1792230550000795,0,0,1.4987702392578124,0,0,1.1484375
1.1855471119999947,0,0,1.3168109130859373,0,0,1.0718750000000001
1.191804095000066,0,0,1.8243816650390623,0,0,0.6125
1.198132077000082,0,0,1.467645617675781,0,0,1.225
1.204454634000058,0,0,1.4891934326171874,0,0,0.8421875000000001
1.2108085790000587,0,0,1.1755530151367186,0,0,0.9953125
1.2171091730000398,0,0,1.5466542724609373,0,0,1.3015625000000002
1.2234731920000286,0,0,1.47482822265625,0,0,1.0718750000000001
1.2298048040000822,0,0,1.4987702392578124,0,0,1.378125
1.2361676010000338,0,0,1.209071838378906,0,0,0.6890625
1.2424252510000997,0,0,1.5658078857421873,0,0,2.1437500000000003
1.2487402520000614,0,0,1.4149731811523436,0,0,0.45937500000000003
1.2550390680000874,0,0,1.2952630981445312,0,0,1.225
1.2613399580000078,0,0,1.5059528442382812,0,0,0.6890625
1.267655237000099,0,0,1.4149731811523436,0,0,1.0718750000000001
1.2741087930000958,0,0,1.6065093139648436,0,0,0.9953125
1.2805780890000733,0,0,1.467645617675781,0,0,0.9953125
1.286865368000008,0,0,1.7214309936523438,0,0,0.765625
1.2932532199999969,0,0,1.419761584472656,0,0,1.0718750000000001
1.2995525360000784,0,0,1.446097802734375,0,0,0.9953125
1.3058712410000908,0,0,1.4101847778320311,0,0,0.6890625
1.3121989460000805,0,0,1.39821376953125,0,0,1.1484375
1.3185789469999918,0,0,1.4053963745117186,0,0,1.3015625000000002
1.3248644290000584,0,0,1.3024457031249999,0,0,0.5359375000000001
1.3314360580000084,0,0,1.6831237670898436,0,0,1.0718750000000001
1.337819651000018,0,0,1.5466542724609373,0,0,1.8375000000000001
1.3442320960000416,0,0,1.209071838378906,0,0,0.5359375000000001
1.3507494660000248,0,0,0.8954314208984374,0,0,0.0765625
1.3570889110000053,0,0,1.924938134765625,0,0,1.6078125
1.3633788200000936,0,0,2.138022082519531,0,0,1.53125
1.3697765610000943,0,0,0.7062894897460937,0,0,0.45937500000000003
1.3761194880000858,0,0,1.2138602416992186,0,0,0.6125
1.382471970000097,0,0,1.3311761230468748,0,0,0.765625
1.388776971000084,0,0,1.8435352783203125,0,0,1.1484375
1.3951455270000679,0,0,1.9823989746093749,0,0,1.1484375
1.401567731,0,0,1.1947066284179686,0,0,1.0718750000000001
1.4083025810000436,0,0,1.0295067138671874,0,0,0.765625
1.4147205990000202,0,0,0.7852981445312499,0,0,0.153125
1.4211061739999877,0,0,1.678335363769531,0,0,1.1484375
1.4274295449999954,0,0,1.6711527587890624,0,0,1.1484375
1.4337484540000105,0,0,1.5921441040039062,0,0,1.1484375
1.4400468810000575,0,0,1.6711527587890624,0,0,0.8421875000000001
1.4463507160000972,0,0,1.2282254516601563,0,0,1.8375000000000001
1.4526571610000474,0,0,1.9009961181640624,0,0,1.3015625000000002
1.4589693850000458,0,0,1.2306196533203124,0,0,1.4546875000000001
1.4653506079999943,0,0,1.0534487304687499,0,0,0.5359375000000001
1.4717151270000386,0,0,0.8738836059570312,0,0,1.0718750000000001
1.4781081830000176,0,0,1.4245499877929686,0,0,1.6078125
1.484474256999988,0,0,1.0462661254882812,0,0,0.9953125
1.4908144990000665,0,0,1.3431471313476562,0,0,1.225
1.4971203520000245,0,0,0.7781155395507812,0,0,0.9953125
1.5033970760000557,0,0,1.2976572998046874,0,0,1.3015625000000002
1.5097205399999893,0,0,1.2808978881835937,0,0,0.9953125
1.5159910040000568,0,0,1.4939818359375,0,0,1.0718750000000001
1.522303672000021,0,0,0.7254431030273437,0,0,0.8421875000000001
1.5287107100000412,0,0,1.2114660400390624,0,0,0.9953125
1.5350401740000734,0,0,1.5945383056640625,0,0,1.378125
1.5413456380000525,0,0,1.5011644409179687,0,0,0.765625
1.5477590640000471,0,0,1.6017209106445311,0,0,1.4546875000000001
1.554136268000093,0,0,1.5442600708007812,0,0,1.1484375
1.5604743800000733,0,0,1.5418658691406248,0,0,1.4546875000000001
1.5668041590000712,0,0,1.608903515625,0,0,0.6890625
1.57318271500003,0,0,1.3239935180664062,0,0,0.6890625
1.5795496609999873,0,0,1.7453730102539062,0,0,0.765625
1.5858323290000271,0,0,0.8738836059570312,0,0,0.22968750000000002
1.5921761630000901,0,0,0.7134720947265625,0,0,1.4546875000000001
1.5984375350000164,0,0,1.35990654296875,0,0,1.6843750000000002
1.6047722210000757,0,0,1.714248388671875,0,0,1.0718750000000001
1.6110486300000275,0,0,1.177947216796875,0,0,0.6890625
1.617378389999999,0,0,1.369483349609375,0,0,0.765625
1.6236570400000119,0,0,2.195482922363281,0,0,1.378125
1.6299927260000686,0,0,1.0414777221679687,0,0,9.4171875
1.6363177090000818,0,0,1.254561669921875,0,0,1.53125
1.6426859500001,0,0,2.1164742675781247,0,0,1.53125
1.6491157840000596,0,0,1.0175357055664063,0,0,0.153125
1.6554870810000466,0,0,0.9169792358398436,0,0,2.2203125000000004
1.6618205260000423,0,0,1.7501614135742187,0,0,1.6078125
1.6681407680000575,0,0,1.7022773803710936,0,0,-8.6515625
1.6744502320000265,0,0,0.93852705078125,0,0,0.6125
1.6807501410000896,0,0,0.8259995727539062,0,0,1.1484375
1.6870614760000535,0,0,2.528276953125,0,0,2.3734375
1.6933503660000042,0,0,1.0414777221679687,0,0,9.5703125
1.6997479220000287,0,0,0.7278373046875,0,0,1.53125
1.7059673310000107,0,0,2.521094348144531,0,0,1.53125
1.7122696100000212,0,0,1.0390835205078124,0,0,0.30625
1.7185609080000859,0,0,1.1324573852539062,0,0,1.4546875000000001
1.724871594000092,0,0,2.4013842651367185,0,0,1.3015625000000002
1.7317127020000953,0,0,1.005564697265625,0,0,0.0
1.7379981110000244,0,0,0.59376201171875,0,0,0.9953125
1.744297520000032,0,0,2.7365724975585937,0,0,-7.9625
1.7506770940000251,0,0,1.1133037719726562,0,0,0.765625
1.756996688000072,0,0,0.8810662109374999,0,0,0.765625
1.7634291699999949,0,0,2.2936451904296873,0,0,1.6843750000000002
1.769846985000072,0,0,1.7214309936523438,0,0,1.1484375
1.7761873930001002,0,0,0.689530078125,0,0,1.0718750000000001
1.7825582640000448,0,0,1.7094599853515624,0,0,-9.49375
1.7888545800000202,0,0,1.5801730957031248,0,0,1.225
1.7954597090000561,0,0,1.0893617553710937,0,0,2.296875
1.8020079120000219,0,0,0.39743747558593745,0,0,-9.8
1.8083532830000877,0,0,1.4915876342773438,0,0,1.3015625000000002
1.8147032650000483,0,0,2.741360900878906,0,0,1.225
1.82105260000003,0,0,0.4644751220703125,0,0,0.6890625
1.8274235449999878,0,0,0.8954314208984374,0,0,1.4546875000000001
1.8337837860000263,0,0,1.656787548828125,0,0,-9.646875000000001
1.840219083000079,0,0,1.8602946899414061,0,0,1.8375000000000001
1.846721971000079,0,0,2.3582886352539063,0,0,1.9140625000000002
1.853164027000048,0,0,0.07900865478515624,0,0,0.5359375000000001
1.8596606560000737,0,0,1.70467158203125,0,0,1.6078125
1.8660126010000795,0,0,2.389413256835937,0,0,0.153125
1.872579915000074,0,0,1.1276689819335937,0,0,1.378125
1.8789406570000438,0,0,1.7836802368164062,0,0,1.225
1.885412656000085,0,0,0.5386953735351562,0,0,0.765625
1.8917442870000514,0,0,1.6160861206054686,0,0,1.4546875000000001
1.8981036580000819,0,0,2.0638018310546875,0,0,-9.340625000000001
1.9045045290000644,0,0,1.905784521484375,0,0,1.4546875000000001
1.9109101410000449,0,0,2.327164013671875,0,0,1.0718750000000001
1.9173292890000084,0,0,-0.09816226806640624,0,0,0.6125
1.923878418000072,0,0,0.9265560424804687,0,0,1.3015625000000002
1.9301979930000925,0,0,2.360682836914062,0,0,-9.1875
1.9366461410000966,0,0,1.678335363769531,0,0,1.378125
1.9429178460000003,0,0,2.0087351928710935,0,0,2.75625
1.9493359020000298,0,0,0.277727392578125,0,0,0.3828125
1.9556704029999992,0,0,0.9624690673828125,0,0,0.8421875000000001
1.9619699790000595,0,0,2.1068974609374997,0,0,1.0718750000000001
1.9683198680000942,0,0,1.6112977172851561,0,0,0.9187500000000001
1.9747489430000087,0,0,1.16837041015625,0,0,1.6078125
1.9811191660000986,0,0,0.25139117431640623,0,0,0.8421875000000001
1.987378167000088,0,0,1.5083470458984374,0,0,1.1484375
1.9936756500000001,0,0,1.838746875,0,0,-9.1109375
1.9999053740000363,0,0,1.5849614990234373,0,0,1.53125
2.0061713759999975,0,0,1.3958195678710936,0,0,1.8375000000000001
2.012412470000072,0,0,1.209071838378906,0,0,9.1109375
2.018703935000076,0,0,0.928950244140625,0,0,0.8421875000000001
2.0249590839999883,0,0,2.1308394775390624,0,0,1.4546875000000001
2.0312626780000755,0,0,1.5131354492187499,0,0,1.0718750000000001
2.0375687720000997,0,0,0.8714894042968749,0,0,1.4546875000000001
2.043835996000098,0,0,1.7597382202148437,0,0,-9.646875000000001
2.050096386000064,0,0,1.254561669921875,0,0,1.53125
2.0563516660000687,0,0,1.9608511596679685,0,0,1.6843750000000002
2.0626596120000613,0,0,0.51714755859375,0,0,0.5359375000000001
2.0689148730000397,0,0,0.6560112548828124,0,0,0.6890625
2.0751839110000674,0,0,1.7788918334960937,0,0,1.1484375
2.0814176910000697,0,0,1.7549498168945312,0,0,1.6843750000000002
2.0876989150000327,0,0,1.8148048583984373,0,0,0.6890625
2.0941884510000364,0,0,0.45489831542968745,0,0,0.153125
2.1006333220000215,0,0,0.9552864624023437,0,0,0.6125
2.1069977670000526,0,0,1.8243816650390623,0,0,-8.3453125
2.113292824000041,0,0,1.6400281372070311,0,0,1.6078125
2.119569529000046,0,0,1.7429788085937499,0,0,1.6078125
2.1258119200000465,0,0,0.08379705810546874,0,0,0.22968750000000002
2.132081736000032,0,0,0.5817910034179687,0,0,0.9187500000000001
2.138334812000039,0,0,2.4516625,0,0,-8.421875
2.144603906000043,0,0,2.2002713256835937,0,0,0.8421875000000001
2.1509105370000725,0,0,0.8403647827148437,0,0,0.9953125
2.1572964450000427,0,0,-0.08140285644531249,0,0,0.22968750000000002
2.1636317610000333,0,0,1.9129671264648436,0,0,0.6890625
2.170374610000067,0,0,2.1404162841796874,0,0,-8.881250000000001
2.176716481000085,0,0,1.656787548828125,0,0,1.225
2.1831075740000188,0,0,1.8435352783203125,0,0,1.378125
2.1894453529999964,0,0,-0.17477672119140625,0,0,9.264062500000001
2.1958053910000217,0,0,1.6735469604492186,0,0,0.765625
2.2021467620000976,0,0,2.4875755249023435,0,0,-8.728125
2.2084535600000663,0,0,1.8148048583984373,0,0,0.6890625
2.2147700060000943,0,0,1.0295067138671874,0,0,0.9953125
2.2210735250000653,0,0,-0.023942016601562498,0,0,0.9953125
2.2274214710000706,0,0,1.5322890624999999,0,0,0.765625
2.233899119000057,0,0,1.7214309936523438,0,0,-8.575000000000001
2.2402769900000976,0,0,1.8315642700195311,0,0,1.9140625000000002
2.2466196569999966,0,0,1.1133037719726562,0,0,1.0718750000000001
2.2530529720000914,0,0,0.01915361328125,0,0,0.153125
2.2593244180000056,0,0,1.4820108276367188,0,0,1.225
2.265831677000051,0,0,2.1116858642578125,0,0,-9.340625000000001
2.27217836300008,0,0,1.446097802734375,0,0,1.0718750000000001
2.278546215999995,0,0,1.3239935180664062,0,0,1.7609375
2.2848935130000427,0,0,0.9337386474609375,0,0,9.49375
2.291283976000045,0,0,1.2617442749023438,0,0,0.5359375000000001
2.297691568999994,0,0,2.01112939453125,0,0,-8.728125
2.3040334410000014,0,0,1.5801730957031248,0,0,2.2203125000000004
2.310277979000034,0,0,0.8092401611328125,0,0,0.30625
2.316643257999999,0,0,0.22744915771484372,0,0,9.264062500000001
2.323198868000077,0,0,1.7980454467773437,0,0,1.6078125
2.3297063680000747,0,0,2.269703173828125,0,0,-9.8
2.336302329000091,0,0,1.3455413330078123,0,0,1.0718750000000001
2.3427833660000488,0,0,1.5705962890624998,0,0,1.9140625000000002
2.3492644030000065,0,0,-0.09337386474609374,0,0,0.30625
2.3558076610000853,0,0,1.2689268798828124,0,0,0.9187500000000001
2.3621368660000144,0,0,2.2601263671875,0,0,-9.034375
2.368564218000074,0,0,1.7453730102539062,0,0,1.1484375
2.3749207560000514,0,0,1.0869675537109373,0,0,0.9187500000000001
2.381227109000065,0,0,0.21308394775390624,0,0,0.45937500000000003
2.3877225720000297,0,0,1.24498486328125,0,0,1.0718750000000001
2.394023129000061,0,0,2.252943762207031,0,0,-9.034375
2.4005227019999893,0,0,1.9225439331054686,0,0,0.9953125
2.406846574000042,0,0,1.3263877197265623,0,0,2.1437500000000003
2.413255593000031,0,0,-0.25139117431640623,0,0,0.153125
2.4195814830000018,0,0,1.4341267944335936,0,0,1.3015625000000002
2.4259062990000757,0,0,2.7437551025390623,0,0,-9.1875
2.4323918720000393,0,0,1.5538368774414062,0,0,0.9187500000000001
2.4386694480000415,0,0,1.0390835205078124,0,0,1.6078125
2.4450990779999984,0,0,0.9624690673828125,0,0,0.30625
2.451434801000005,0,0,1.1875240234375,0,0,1.1484375
2.4578074680000555,0,0,2.3295582153320313,0,0,-8.498437500000001
2.4642789130000438,0,0,1.7621324218749999,0,0,1.225
2.4707637640000257,0,0,0.8954314208984374,0,0,1.225
2.477042284000049,0,0,0.7972691528320313,0,0,0.8421875000000001
2.4834522470000593,0,0,1.6711527587890624,0,0,0.765625
2.489710897000009,0,0,2.2673089721679687,0,0,-8.6515625
2.4962589890000118,0,0,1.6065093139648436,0,0,1.0718750000000001
2.502666137999995,0,0,1.0869675537109373,0,0,1.225
2.5092726920000814,0,0,0.09576806640624999,0,0,0.765625
2.5156782850000354,0,0,1.1013327636718748,0,0,0.765625
2.5219331940000984,0,0,2.5426421630859375,0,0,-8.26875
2.528366361000053,0,0,1.714248388671875,0,0,1.225
2.5348250640000742,0,0,1.0414777221679687,0,0,1.6078125
2.5412160090000953,0,0,1.0438719238281249,0,0,0.765625
2.547571306000009,0,0,1.24498486328125,0,0,0.0
2.5542144720000124,0,0,2.0278888061523435,0,0,-8.728125
2.5605140650000067,0,0,2.0566192260742184,0,0,1.378125
2.5670378060000303,0,0,1.1827356201171875,0,0,0.8421875000000001
2.5733272330001,0,0,0.10773907470703124,0,0,0.22968750000000002
2.579633012000045,0,0,1.1659762084960936,0,0,0.9187500000000001
2.5858944770000107,0,0,2.3127988037109373,0,0,-9.1875
2.592201793000072,0,0,1.7094599853515624,0,0,1.3015625000000002
2.59873312600007,0,0,1.5083470458984374,0,0,1.3015625000000002
2.604969460999996,0,0,0.2609679809570312,0,0,0.0765625
2.6112020740000617,0,0,1.4867992309570313,0,0,0.6125
2.6175746860000118,0,0,2.166752502441406,0,0,-8.421875
2.6238392430000204,0,0,1.9201497314453124,0,0,1.6843750000000002
2.630186485000081,0,0,0.36152445068359373,0,0,1.378125
2.6364258940000127,0,0,-0.03591302490234375,0,0,9.1875
2.642931949000058,0,0,1.68551796875,0,0,1.8375000000000001
2.6495682070000157,0,0,2.5234885498046875,0,0,-8.8046875
2.6558541160000004,0,0,1.37906015625,0,0,1.225
2.662166931999991,0,0,0.7230489013671875,0,0,1.378125
2.6684463960000357,0,0,0.4070142822265625,0,0,8.8046875
2.6747824160000846,0,0,1.4772224243164063,0,0,2.2203125000000004
2.6810499169999957,0,0,2.473210314941406,0,0,1.7609375
2.687391326000011,0,0,1.3239935180664062,0,0,1.4546875000000001
2.693635402000041,0,0,0.5482721801757812,0,0,1.0718750000000001
2.700239993000082,0,0,1.209071838378906,0,0,8.881250000000001
2.706651271000055,0,0,1.465251416015625,0,0,1.7609375
2.7130015310000317,0,0,2.530671154785156,0,0,2.0671875
2.719282792000058,0,0,0.5889736083984375,0,0,1.3015625000000002
2.725619423000012,0,0,0.9121908325195311,0,0,1.0718750000000001
2.7326103440000225,0,0,0.45010991210937495,0,0,8.8046875
2.7388874570000326,0,0,1.2569558715820313,0,0,0.9187500000000001
2.745202754000047,0,0,2.7629087158203123,0,0,1.6078125
2.7515079960001003,0,0,1.1923124267578125,0,0,1.0718750000000001
2.757843775000083,0,0,0.7829039428710937,0,0,1.3015625000000002
2.7641625730000214,0,0,1.3239935180664062,0,0,8.8046875
2.770573517999992,0,0,1.2641384765625,0,0,1.225
2.7769453700000213,0,0,2.5809493896484375,0,0,1.990625
2.7832465200000343,0,0,1.2401964599609374,0,0,1.1484375
2.789591946000087,0,0,0.8068459594726562,0,0,0.30625
2.79590496600008,0,0,1.2904746948242187,0,0,0.0765625
2.8021443009999984,0,0,1.3383587280273437,0,0,1.378125
2.808429396000065,0,0,2.530671154785156,0,0,1.4546875000000001
2.8146943790000023,0,0,1.0654197387695312,0,0,0.6125
2.820996917000002,0,0,0.39743747558593745,0,0,0.9187500000000001
2.8272949550000703,0,0,2.2840683837890623,0,0,0.3828125
2.8335482350000802,0,0,1.1540052001953125,0,0,1.8375000000000001
2.8397962180000604,0,0,2.43250888671875,0,0,0.9953125
2.8460769420000815,0,0,0.10295067138671875,0,0,9.4171875
2.852346925000006,0,0,0.6296750366210937,0,0,0.8421875000000001
2.8586581300000944,0,0,2.24097275390625,0,0,-8.8046875
2.864908538999998,0,0,2.0757728393554684,0,0,1.378125
2.87118770699999,0,0,1.2737152832031249,0,0,1.3015625000000002
2.877420728000061,0,0,0.2920926025390625,0,0,0.0
2.8837306920000856,0,0,0.9433154541015625,0,0,0.45937500000000003
2.8899718420000227,0,0,2.549824768066406,0,0,-8.575000000000001
2.8963150840000935,0,0,1.7860744384765623,0,0,1.9140625000000002
2.902635511000085,0,0,1.1516109985351561,0,0,1.1484375
2.908953605000079,0,0,0.6344634399414062,0,0,-1.4546875000000001
2.915284624000037,0,0,1.3024457031249999,0,0,1.0718750000000001
2.921647440000015,0,0,2.6886884643554687,0,0,1.4546875000000001
2.9279846819999875,0,0,0.6440402465820312,0,0,0.30625
2.9342844420000347,0,0,0.33039982910156246,0,0,0.6125
2.9406440540000176,0,0,1.8219874633789062,0,0,-9.646875000000001
2.9470026290000533,0,0,1.7884686401367187,0,0,1.4546875000000001
2.9533509080000613,0,0,0.7134720947265625,0,0,1.1484375
2.9596563170000536,0,0,0.6607996582031249,0,0,0.0
2.9659577620000164,0,0,1.1037269653320312,0,0,0.6890625
2.972316263000039,0,0,2.6862942626953124,0,0,2.1437500000000003
2.9788228740000022,0,0,0.32082302246093747,0,0,8.881250000000001
2.9853897250000045,0,0,0.34237083740234375,0,0,0.0
2.991891891000023,0,0,2.7629087158203123,0,0,-8.115625000000001
2.998276836000059,0,0,0.16759411621093748,0,0,0.765625
3.0045549300000403,0,0,1.0534487304687499,0,0,0.45937500000000003
3.0108445800000254,0,0,1.7956512451171873,0,0,-9.5703125
3.017164785000091,0,0,0.8307879760742187,0,0,1.6843750000000002
3.0234944900000755,0,0,1.1468225952148436,0,0,1.1484375
3.0297542690000228,0,0,1.4939818359375,0,0,-9.49375
3.0360694000000876,0,0,0.7541735229492187,0,0,1.6078125
3.0423191800000495,0,0,0.9864110839843749,0,0,0.0765625
3.0486322730000666,0,0,1.5346832641601562,0,0,-9.723437500000001
3.0548617379999996,0,0,0.7398083129882812,0,0,1.1484375
3.061169962000008,0,0,0.9433154541015625,0,0,0.30625
3.067530777999991,0,0,2.346317626953125,0,0,1.0718750000000001
3.0738870559999896,0,0,0.7781155395507812,0,0,0.0
3.08018000200002,0,0,0.8690952026367187,0,0,1.225
3.086447948,0,0,2.1164742675781247,0,0,-8.881250000000001
3.0927480240000023,0,0,0.9552864624023437,0,0,0.45937500000000003
3.098997266000083,0,0,1.5370774658203123,0,0,1.6078125
3.105310323000026,0,0,2.0566192260742184,0,0,0.5359375000000001
3.1115645470000572,0,0,0.4285620971679687,0,0,0.22968750000000002
3.1178603260000273,0,0,1.2234370483398436,0,0,0.9953125
3.124112328000024,0,0,2.094926452636719,0,0,0.765625
3.1307040670000106,0,0,1.6807295654296874,0,0,0.8421875000000001
3.13700799500009,0,0,1.0199299072265624,0,0,0.8421875000000001
3.143625901000064,0,0,1.4772224243164063,0,0,1.990625
3.149951013000077,0,0,1.6112977172851561,0,0,-8.728125
3.15634108800009,0,0,0.7709329345703124,0,0,0.22968750000000002
3.162692014000072,0,0,1.4149731811523436,0,0,1.6078125
3.1690233670000225,0,0,1.7717092285156248,0,0,0.6890625
3.1760162890000174,0,0,1.1540052001953125,0,0,0.3828125
3.1824245300000484,0,0,1.3096283081054687,0,0,0.765625
3.188762327000063,0,0,1.2832920898437499,0,0,0.30625
3.1950541060000432,0,0,1.4101847778320311,0,0,1.3015625000000002
3.2013879590000442,0,0,0.6751648681640625,0,0,0.6125
3.207678609000027,0,0,0.565031591796875,0,0,0.9187500000000001
3.2140023140000267,0,0,1.0175357055664063,0,0,0.6125
3.220318333000023,0,0,1.2425906616210938,0,0,0.6890625
3.2268180370000437,0,0,1.43652099609375,0,0,0.6890625
3.2331494640000074,0,0,0.9696516723632812,0,0,1.225
3.239687204000006,0,0,1.3048399047851562,0,0,0.6125
3.246080038000059,0,0,1.1420341918945311,0,0,0.765625
3.2524744830000145,0,0,1.4245499877929686,0,0,0.5359375000000001
3.258767373000069,0,0,0.8379705810546875,0,0,0.765625
3.2651123000000553,0,0,1.0079588989257813,0,0,0.5359375000000001
3.2713885790000177,0,0,1.149216796875,0,0,0.3828125
3.277667303000044,0,0,0.948103857421875,0,0,0.5359375000000001
3.2839370640000425,0,0,0.7613561279296874,0,0,0.22968750000000002
3.290257880000013,0,0,1.158793603515625,0,0,0.6125
3.296549196000001,0,0,1.9752163696289062,0,0,0.45937500000000003
3.302973419000068,0,0,1.5729904907226562,0,0,1.1484375
3.309284772000069,0,0,1.2737152832031249,0,0,0.5359375000000001
3.3156067539999867,0,0,1.9512743530273435,0,0,1.6078125
3.3218897740000557,0,0,1.5682020874023437,0,0,0.765625
3.328242885999998,0,0,0.7134720947265625,0,0,0.6125
3.33458840600008,0,0,0.9552864624023437,0,0,0.153125
3.3409232029999885,0,0,0.70868369140625,0,0,0.3828125
3.3474145550000003,0,0,1.668758557128906,0,0,0.6890625
3.3537523340000917,0,0,2.2481553588867187,0,0,1.225
3.360037779000095,0,0,1.8411410766601561,0,0,1.6843750000000002
3.3662955770000735,0,0,0.814028564453125,0,0,0.6125
3.3725328020000234,0,0,0.6536170532226562,0,0,0.0
3.378800970000043,0,0,1.5825672973632812,0,0,0.6125
3.385103897000022,0,0,2.3056161987304686,0,0,0.9953125
3.3913606030000665,0,0,1.484405029296875,0,0,0.6125
3.397607808000089,0,0,0.7038952880859375,0,0,0.30625
3.4038213470000755,0,0,1.3575123413085937,0,0,0.45937500000000003
3.410460642000089,0,0,1.7741034301757812,0,0,1.225
3.4170676960000037,0,0,1.936909143066406,0,0,1.378125
3.4235352150000153,0,0,0.6775590698242188,0,0,0.153125
3.429935826000019,0,0,0.928950244140625,0,0,0.6890625
3.4363369750000174,0,0,1.7334020019531249,0,0,1.1484375
3.442661864999991,0,0,0.70868369140625,0,0,0.45937500000000003
3.449204716000054,0,0,0.9313444458007812,0,0,0.5359375000000001
3.455887028999996,0,0,1.5873557006835937,0,0,0.8421875000000001
3.4623842140000534,0,0,1.369483349609375,0,0,1.3015625000000002
3.468938435000041,0,0,1.0366893188476562,0,0,0.45937500000000003
3.4753123430000414,0,0,1.2401964599609374,0,0,0.5359375000000001
3.481674122000072,0,0,1.2976572998046874,0,0,0.6125
3.487971901000037,0,0,1.1372457885742187,0,0,0.30625
3.4943093840000756,0,0,1.407790576171875,0,0,0.6890625
3.500679403000049,0,0,1.5155296508789062,0,0,0.8421875000000001
3.506987034000076,0,0,1.24498486328125,0,0,0.45937500000000003
3.5134300519999897,0,0,1.4341267944335936,0,0,0.3828125
3.519873960000041,0,0,1.0390835205078124,0,0,0.0765625
3.526209553000058,0,0,1.3862427612304686,0,0,0.6125
3.5326788309999984,0,0,1.1516109985351561,0,0,0.5359375000000001
3.5390700730000617,0,0,1.0630255371093749,0,0,1.0718750000000001
3.54539988800002,0,0,1.7908628417968748,0,0,0.8421875000000001
3.551709464000055,0,0,1.1923124267578125,0,0,0.8421875000000001
3.5580194469999924,0,0,1.3096283081054687,0,0,0.765625
3.564433521000069,0,0,1.4413093994140624,0,0,0.5359375000000001
3.570748485000081,0,0,1.3455413330078123,0,0,0.6890625
3.5770979490000627,0,0,1.1180921752929687,0,0,0.6125
3.5834084690000054,0,0,1.2401964599609374,0,0,0.6890625
3.589770174000023,0,0,1.3670891479492187,0,0,0.6890625
3.596078304999992,0,0,1.6065093139648436,0,0,1.0718750000000001
3.6025006749999875,0,0,1.4245499877929686,0,0,0.45937500000000003
3.6088557130000254,0,0,1.1420341918945311,0,0,0.9953125
3.615136530000086,0,0,1.3575123413085937,0,0,0.6890625
3.621478604999993,0,0,1.5035586425781249,0,0,0.6890625
3.628038697000079,0,0,1.3431471313476562,0,0,0.45937500000000003
3.634316661000071,0,0,1.1707646118164061,0,0,0.45937500000000003
3.6406634950000125,0,0,1.4867992309570313,0,0,0.9953125
3.6468885350000164,0,0,1.3623007446289062,0,0,0.8421875000000001
3.6533954600000698,0,0,1.177947216796875,0,0,0.22968750000000002
3.6597374799999898,0,0,1.350329736328125,0,0,1.53125
3.6660498510000252,0,0,1.4173673828125,0,0,0.6125
3.6724202410000544,0,0,1.2018892333984375,0,0,0.30625
3.678684854000039,0,0,1.35990654296875,0,0,1.0718750000000001
3.685006391999991,0,0,1.5466542724609373,0,0,0.9953125
3.6913051160000805,0,0,0.9433154541015625,0,0,0.22968750000000002
3.6977010240000254,0,0,1.5083470458984374,0,0,1.1484375
3.7041015980000793,0,0,1.6735469604492186,0,0,0.6125
3.710423100000071,0,0,0.9983820922851562,0,0,0.45937500000000003
3.7168910249999954,0,0,1.2641384765625,0,0,0.9187500000000001
3.723358544000007,0,0,1.3287819213867187,0,0,0.6125
3.7298898400000553,0,0,1.6160861206054686,0,0,0.6890625
3.7369973340000797,0,0,1.2904746948242187,0,0,0.3828125
3.7433046130000776,0,0,1.2210428466796874,0,0,0.6125
3.7498495750000984,0,0,1.1444283935546875,0,0,0.6890625
3.7561667800000578,0,0,1.2042834350585936,0,0,0.45937500000000003
3.7624909849999995,0,0,1.4221557861328125,0,0,0.9187500000000001
3.769016337000039,0,0,1.388636962890625,0,0,0.765625
3.775335597000094,0,0,1.2808978881835937,0,0,0.8421875000000001
3.7817412090000744,0,0,1.5035586425781249,0,0,1.1484375
3.7880719510000063,0,0,1.1731588134765625,0,0,0.30625
3.7944372290000956,0,0,1.429338391113281,0,0,0.8421875000000001
3.800783693000085,0,0,1.458068811035156,0,0,0.30625
3.807112380000035,0,0,1.3168109130859373,0,0,0.765625
3.8136412310000196,0,0,1.4053963745117186,0,0,0.9953125
3.8201198600000907,0,0,1.120486376953125,0,0,0.6125
3.8264509540000518,0,0,1.5586252807617187,0,0,0.6890625
3.8327689920000694,0,0,1.0917559570312498,0,0,1.0718750000000001
3.839039716000002,0,0,0.7829039428710937,0,0,0.45937500000000003
3.8453166990000227,0,0,1.4891934326171874,0,0,0.6890625
3.8516043300001,0,0,1.4604630126953124,0,0,1.0718750000000001
3.8579475170000705,0,0,1.2785036865234374,0,0,0.8421875000000001
3.8641953150000745,0,0,0.8188169677734375,0,0,0.153125
3.8704775020000852,0,0,1.2904746948242187,0,0,1.225
3.8767142070000773,0,0,1.4628572143554686,0,0,0.3828125
3.882987968000066,0,0,1.1731588134765625,0,0,0.5359375000000001
3.8892359140000963,0,0,1.47482822265625,0,0,1.1484375
3.8955135460000747,0,0,1.3934253662109375,0,0,0.3828125
3.9017724920000774,0,0,1.4030021728515625,0,0,0.6890625
3.9082287880000877,0,0,1.3742717529296875,0,0,0.5359375000000001
3.914578104000043,0,0,1.3024457031249999,0,0,0.5359375000000001
3.9208570870000585,0,0,1.3910311645507811,0,0,0.8421875000000001
3.927118255000096,0,0,1.1180921752929687,0,0,0.765625
3.9334083859999964,0,0,1.4006079711914061,0,0,0.765625
3.93973466500006,0,0,1.5179238525390624,0,0,0.6890625
3.9462612949999993,0,0,1.2401964599609374,0,0,0.9953125
3.952699869000071,0,0,1.5298948608398437,0,0,0.8421875000000001
3.958988333000093,0,0,1.2665326782226562,0,0,0.765625
3.9652954640000644,0,0,1.3575123413085937,0,0,0.6890625
3.9716059290000203,0,0,1.4173673828125,0,0,0.6125
3.9778973370000585,0,0,1.47482822265625,0,0,0.765625
3.9847148900000775,0,0,1.5490484741210937,0,0,0.3828125
3.991000058000054,0,0,1.3024457031249999,0,0,0.45937500000000003
3.997273023000048,0,0,1.3144167114257812,0,0,0.9953125
4.003610227000081,0,0,1.3263877197265623,0,0,0.765625
4.009876544000008,0,0,1.4317325927734375,0,0,0.5359375000000001
4.0161365090000345,0,0,1.2473790649414063,0,0,0.9187500000000001
4.022367974000076,0,0,1.2904746948242187,0,0,0.5359375000000001
4.028602198000044,0,0,1.6160861206054686,0,0,0.9187500000000001
4.0348194410000815,0,0,1.2928688964843749,0,0,0.9187500000000001
4.041063609000048,0,0,1.3814543579101561,0,0,1.1484375
4.047320944000035,0,0,1.2665326782226562,0,0,0.45937500000000003
4.053782667000064,0,0,1.5083470458984374,0,0,0.9953125
4.0600635380000085,0,0,1.484405029296875,0,0,0.6125
4.066560927000069,0,0,1.2282254516601563,0,0,0.6125
4.07282568800008,0,0,1.4891934326171874,0,0,0.9187500000000001
4.079281558000048,0,0,1.2617442749023438,0,0,0.8421875000000001
4.085599300000013,0,0,1.5322890624999999,0,0,0.765625
4.091851321000036,0,0,1.407790576171875,0,0,0.6125
4.0983079320000115,0,0,1.3623007446289062,0,0,0.765625
4.104620193000073,0,0,1.4245499877929686,0,0,0.8421875000000001
4.110895583000001,0,0,1.2378022583007813,0,0,0.765625
4.117248825000047,0,0,1.2761094848632812,0,0,0.6890625
4.123491141000045,0,0,1.2785036865234374,0,0,0.8421875000000001
4.129791032000071,0,0,1.429338391113281,0,0,1.0718750000000001
4.136040348000051,0,0,1.407790576171875,0,0,0.6125
4.142359516000056,0,0,1.2210428466796874,0,0,0.6890625
4.148623573999998,0,0,1.2952630981445312,0,0,0.765625
4.155015185000025,0,0,1.3718775512695311,0,0,0.5359375000000001
4.161362668000038,0,0,1.5466542724609373,0,0,0.9953125
4.1677271320000955,0,0,1.3024457031249999,0,0,0.6125
4.174094855000021,0,0,1.13006318359375,0,0,0.5359375000000001
4.180393597000034,0,0,1.4437036010742186,0,0,0.6890625
4.186738857000023,0,0,1.2665326782226562,0,0,0.765625
4.19302239600006,0,0,1.5179238525390624,0,0,0.5359375000000001
4.199291008000046,0,0,1.2880804931640624,0,0,0.6125
4.205606102000047,0,0,1.2497732666015624,0,0,0.8421875000000001
4.211848734,0,0,1.47482822265625,0,0,0.765625
4.218163254000046,0,0,1.2641384765625,0,0,0.765625
4.224406459000079,0,0,1.3910311645507811,0,0,0.6890625
4.230756330000077,0,0,1.2737152832031249,0,0,0.30625
4.237087535000001,0,0,1.62805712890625,0,0,0.6125
4.243398314000046,0,0,1.2641384765625,0,0,0.3828125
4.249667612000053,0,0,1.235408056640625,0,0,0.5359375000000001
4.2559913540000025,0,0,1.4939818359375,0,0,0.9187500000000001
4.262240856000062,0,0,1.3766659545898436,0,0,0.9953125
4.268539486999998,0,0,1.5825672973632812,0,0,0.6125
4.274780415000009,0,0,1.3024457031249999,0,0,0.9953125
4.281126842000049,0,0,1.3742717529296875,0,0,1.1484375
4.287383436000027,0,0,1.4939818359375,0,0,0.6125
4.293768418000013,0,0,1.2378022583007813,0,0,0.6125
4.300060994000091,0,0,1.438915197753906,0,0,0.8421875000000001
4.306296829000075,0,0,1.3527239379882812,0,0,0.30625
4.312651756000037,0,0,1.5179238525390624,0,0,0.8421875000000001
4.3190214420000075,0,0,1.3407529296874998,0,0,0.8421875000000001
4.3256991810000045,0,0,1.3383587280273437,0,0,0.9187500000000001
4.332034496999995,0,0,1.5131354492187499,0,0,1.3015625000000002
4.338420219999989,0,0,1.369483349609375,0,0,0.5359375000000001
4.344750425000029,0,0,1.5322890624999999,0,0,0.6125
4.351072703999989,0,0,1.24498486328125,0,0,0.6890625
4.357379353000056,0,0,1.3168109130859373,0,0,0.765625
4.363660577000019,0,0,1.5035586425781249,0,0,0.6890625
4.369955782000034,0,0,1.2713210815429687,0,0,0.9187500000000001
4.376228895000054,0,0,1.3527239379882812,0,0,0.6890625
4.3824996190001,0,0,1.1731588134765625,0,0,0.765625
4.38877426800002,0,0,1.2785036865234374,0,0,0.765625
4.395041733000085,0,0,1.4437036010742186,0,0,0.45937500000000003
4.40128082800004,0,0,1.2832920898437499,0,0,0.5359375000000001
4.408185064999998,0,0,1.39821376953125,0,0,1.225
4.414665527000011,0,0,1.2976572998046874,0,0,0.9187500000000001
4.420976472999996,0,0,1.3623007446289062,0,0,0.6890625
4.427260345000036,0,0,1.467645617675781,0,0,0.0765625
4.43354238400002,0,0,1.369483349609375,0,0,0.6125
4.43982371900006,0,0,1.467645617675781,0,0,0.9187500000000001
4.446094442000003,0,0,1.3144167114257812,0,0,0.30625
4.452384091999988,0,0,1.3910311645507811,0,0,0.6125
4.458660408000014,0,0,1.3862427612304686,0,0,0.9953125
4.465011169000036,0,0,1.254561669921875,0,0,0.9953125
4.471305355000027,0,0,1.407790576171875,0,0,0.6890625
4.477711819000092,0,0,1.254561669921875,0,0,0.6125
4.48458149999999,0,0,1.47482822265625,0,0,0.5359375000000001
4.491039649000072,0,0,1.2617442749023438,0,0,0.9187500000000001
4.497348149999993,0,0,1.3718775512695311,0,0,0.6890625
