Times,Accel X1,Accel Y1,Accel Z1,Accel X2,Accel Y2,Accel Z2
0.00010351800301577896,0,0,1.2689268798828124,0,0,0.6125
0.0035736100035137497,0,0,1.5011644409179687,0,0,0.765625
0.007961414001329103,0,0,1.3407529296874998,0,0,0.9187500000000001
0.011352970002917573,0,0,1.2617442749023438,0,0,832.69375
0.015095282000402221,0,0,1.22583125,0,0,1.0718750000000001
0.01853902200309676,0,0,1.3766659545898436,0,0,0.765625
0.02204302200334496,0,0,1.388636962890625,0,0,1.0718750000000001
0.02571881500261952,0,0,1.3527239379882812,0,0,0.765625
0.02928107300249394,0,0,1.1707646118164061,0,0,0.30625
0.033025736000126926,0,0,1.5227122558593749,0,0,0.45937500000000003
0.03656293900348828,0,0,1.5921441040039062,0,0,0.8421875000000001
0.040125882002030266,0,0,1.4341267944335936,0,0,0.8421875000000001
0.04372984300061944,0,0,1.3407529296874998,0,0,0.765625
0.047239768002327764,0,0,1.4149731811523436,0,0,1.1484375
0.050746341003105044,0,0,1.1611878051757811,0,0,0.6125
0.054788501001894474,0,0,1.5442600708007812,0,0,0.8421875000000001
0.058495072000368964,0,0,1.3024457031249999,0,0,0.6890625
0.061920572003145935,0,0,1.4604630126953124,0,0,0.9187500000000001
0.06522327800121275,0,0,1.3958195678710936,0,0,0.9953125
0.06797797000035644,0,0,1.24498486328125,0,0,1.378125
0.07073645900163683,0,0,1.0941501586914062,0,0,0.6125
0.07356742800038774,0,0,1.3144167114257812,0,0,0.5359375000000001
0.07630817600147566,0,0,1.3311761230468748,0,0,1.0718750000000001
0.07910177600206225,0,0,1.35990654296875,0,0,0.5359375000000001
0.08232374100043671,0,0,1.2880804931640624,0,0,1.4546875000000001
0.08534017100100755,0,0,1.4173673828125,0,0,0.8421875000000001
0.08827623200340895,0,0,1.3000515014648437,0,0,1.6843750000000002
0.09108846100207302,0,0,1.3048399047851562,0,0,0.6125
0.09450768400347442,0,0,1.455674609375,0,0,0.9953125
0.0973338750009134,0,0,1.6711527587890624,0,0,0.6890625
0.10088189300222439,0,0,1.3311761230468748,0,0,0.765625
0.10365149200151791,0,0,1.4149731811523436,0,0,0.22968750000000002
0.1068590499999118,0,0,1.369483349609375,0,0,1.3015625000000002
0.10972346400012611,0,0,1.3263877197265623,0,0,0.45937500000000003
0.11301020600149059,0,0,1.3311761230468748,0,0,1.7609375
0.11584960100299213,0,0,1.484405029296875,0,0,0.6125
0.11935954500222579,0,0,1.2521674682617188,0,0,0.6890625
0.12221810700066271,0,0,1.4532804077148436,0,0,0.9953125
0.1255707930031349,0,0,1.465251416015625,0,0,0.5359375000000001
0.12946219500008738,0,0,1.3072341064453123,0,0,0.9953125
0.13234947900127736,0,0,1.5179238525390624,0,0,0.9187500000000001
0.1351232640008675,0,0,1.465251416015625,0,0,0.9953125
0.137832790001994,0,0,1.3670891479492187,0,0,1.1484375
0.14076264700270258,0,0,1.3718775512695311,0,0,1.1484375
0.14359770900045987,0,0,1.3431471313476562,0,0,1.4546875000000001
0.14648506700177677,0,0,1.438915197753906,0,0,1.0718750000000001
0.14943190500343917,0,0,1.5011644409179687,0,0,0.6125
0.1524239660029707,0,0,1.2593500732421874,0,0,1.1484375
0.1555635800032178,0,0,1.484405029296875,0,0,0.6890625
0.15854049200061127,0,0,1.6304513305664061,0,0,0.45937500000000003
0.1615313860020251,0,0,1.24498486328125,0,0,0.45937500000000003
0.16458574200078147,0,0,1.3024457031249999,0,0,0.45937500000000003
0.1679606870020507,0,0,1.3383587280273437,0,0,1.0718750000000001
0.17079974900116213,0,0,1.3479355346679687,0,0,0.45937500000000003
0.17415565700139268,0,0,1.37906015625,0,0,1.378125
0.1771354770025937,0,0,1.419761584472656,0,0,0.9187500000000001
0.1799596870005189,0,0,1.5705962890624998,0,0,1.225
0.18278361900229356,0,0,1.2521674682617188,0,0,0.5359375000000001
0.1855219600001874,0,0,1.2832920898437499,0,0,0.5359375000000001
0.1883784480014583,0,0,1.3287819213867187,0,0,1.0718750000000001
0.1912672870021197,0,0,1.3551181396484375,0,0,0.765625
0.19419199600088177,0,0,1.2737152832031249,0,0,1.378125
0.1969918550021248,0,0,1.4053963745117186,0,0,0.6125
0.19984508300331072,0,0,1.6639701538085936,0,0,0.9187500000000001
0.20282944000064163,0,0,1.16837041015625,0,0,0.8421875000000001
0.20578520400158595,0,0,1.5131354492187499,0,0,0.30625
0.2085528970019368,0,0,1.1324573852539062,0,0,1.0718750000000001
0.21134018100201502,0,0,1.3335703247070312,0,0,0.45937500000000003
0.21409850400232244,0,0,1.3048399047851562,0,0,0.3828125
0.2169795840018196,0,0,1.4149731811523436,0,0,0.45937500000000003
0.2203386210021563,0,0,1.3838485595703125,0,0,1.4546875000000001
0.22342231000220636,0,0,1.3766659545898436,0,0,0.8421875000000001
0.22636085300109698,0,0,1.388636962890625,0,0,0.9187500000000001
0.22925580300216097,0,0,1.4341267944335936,0,0,1.0718750000000001
0.23202584700266016,0,0,1.3168109130859373,0,0,0.9187500000000001
0.23490424200281268,0,0,1.5275006591796874,0,0,1.6078125
0.23775093299991568,0,0,1.3862427612304686,0,0,0.6890625
0.24058123600116232,0,0,1.4772224243164063,0,0,0.765625
0.24328494800283806,0,0,1.1851298217773436,0,0,0.30625
0.24608484300188138,0,0,1.3239935180664062,0,0,0.22968750000000002
0.24961586100107525,0,0,1.2521674682617188,0,0,1.1484375
0.2525819400034379,0,0,1.22583125,0,0,0.9187500000000001
0.25584407100177486,0,0,1.3192051147460937,0,0,1.0718750000000001
0.25883011300174985,0,0,1.4030021728515625,0,0,0.45937500000000003
0.26204717100335984,0,0,1.350329736328125,0,0,0.5359375000000001
0.2650721200006956,0,0,1.2761094848632812,0,0,0.5359375000000001
0.26784829400276067,0,0,1.5011644409179687,0,0,0.765625
0.27100583400169853,0,0,1.2928688964843749,0,0,0.5359375000000001
0.2737139710006886,0,0,1.1180921752929687,0,0,0.5359375000000001
0.27624472200113814,0,0,1.2473790649414063,0,0,0.6125
0.2790362650011957,0,0,1.467645617675781,0,0,0.9187500000000001
0.2816454040003009,0,0,1.2713210815429687,0,0,0.9187500000000001
0.2842945980009972,0,0,1.2713210815429687,0,0,0.3828125
0.2869233650017122,0,0,1.235408056640625,0,0,0.3828125
0.2896047810027085,0,0,1.2401964599609374,0,0,0.45937500000000003
0.2923392330012575,0,0,1.2473790649414063,0,0,0.6890625
0.2950136860017665,0,0,1.35990654296875,0,0,0.9953125
0.2976538980001351,0,0,1.4413093994140624,0,0,0.9187500000000001
0.3003421650028031,0,0,1.446097802734375,0,0,1.0718750000000001
0.3028440080015571,0,0,1.3144167114257812,0,0,0.30625
0.30571455100289313,0,0,1.2904746948242187,0,0,0.45937500000000003
0.3084246329999587,0,0,1.465251416015625,0,0,0.6125
0.31090955100080464,0,0,1.2521674682617188,0,0,1.225
0.31336848700084374,0,0,1.3575123413085937,0,0,0.6890625
0.3159564590023365,0,0,1.4341267944335936,0,0,0.3828125
0.3184486919999472,0,0,1.4508862060546874,0,0,0.765625
0.32091027600108646,0,0,1.2856862915039062,0,0,1.225
0.3235668400011491,0,0,1.2521674682617188,0,0,0.765625
0.32614675700096996,0,0,1.209071838378906,0,0,0.0
0.3287480620019778,0,0,1.5203180541992187,0,0,0.6125
0.331249276001472,0,0,1.5873557006835937,0,0,0.8421875000000001
0.33420685500095715,0,0,1.24498486328125,0,0,1.1484375
0.3372422300017206,0,0,1.4963760375976562,0,0,0.9187500000000001
0.3399622190008813,0,0,1.4437036010742186,0,0,0.9187500000000001
0.34267670800181804,0,0,1.2689268798828124,0,0,1.3015625000000002
0.3454175300030329,0,0,1.3215993164062498,0,0,0.5359375000000001
0.3481071680034802,0,0,1.448492004394531,0,0,0.6125
0.35095078500307864,0,0,1.2521674682617188,0,0,0.9187500000000001
0.35366044100010186,0,0,1.254561669921875,0,0,1.0718750000000001
0.356829814001685,0,0,1.3287819213867187,0,0,0.153125
0.35950002600293374,0,0,1.5921441040039062,0,0,0.6125
0.3625161970012414,0,0,1.455674609375,0,0,0.45937500000000003
0.36526381600197055,0,0,1.3623007446289062,0,0,0.30625
0.3680561930013937,0,0,1.3838485595703125,0,0,0.0765625
0.37085020000085933,0,0,1.2952630981445312,0,0,0.3828125
0.37372905800293665,0,0,1.0821791503906248,0,0,0.30625
0.3770859290016233,0,0,1.2114660400390624,0,0,1.225
0.3799593050025578,0,0,1.407790576171875,0,0,0.9953125
0.3832002150011249,0,0,1.350329736328125,0,0,0.9953125
0.3860126100007619,0,0,1.4221557861328125,0,0,1.1484375
0.38856563800072763,0,0,1.438915197753906,0,0,0.45937500000000003
0.39120372100296663,0,0,1.2378022583007813,0,0,0.45937500000000003
0.39384895200055325,0,0,1.3431471313476562,0,0,0.6125
0.3965168120012095,0,0,1.3431471313476562,0,0,1.0718750000000001
0.3991924310030299,0,0,1.438915197753906,0,0,0.8421875000000001
0.40168677500332706,0,0,1.2880804931640624,0,0,0.765625
0.4042667470021115,0,0,1.1851298217773436,0,0,0.6125
0.40681570100059616,0,0,1.3407529296874998,0,0,0.765625
0.40956904100312386,0,0,1.429338391113281,0,0,0.8421875000000001
0.4122475310032314,0,0,1.5538368774414062,0,0,1.3015625000000002
0.4149244840009487,0,0,1.350329736328125,0,0,0.5359375000000001
0.41750593700271565,0,0,1.3000515014648437,0,0,0.3828125
0.42007955700319144,0,0,1.5394716674804687,0,0,0.8421875000000001
0.42258136400050716,0,0,1.4963760375976562,0,0,1.1484375
0.4251911130013468,0,0,1.209071838378906,0,0,0.8421875000000001
0.42778630800239625,0,0,1.3239935180664062,0,0,0.6890625
0.4304103530012071,0,0,1.678335363769531,0,0,0.6890625
0.4328867710028135,0,0,1.3838485595703125,0,0,0.6125
0.43572222200236865,0,0,1.3455413330078123,0,0,1.378125
0.4382889350017649,0,0,1.3455413330078123,0,0,1.0718750000000001
0.4409234810009366,0,0,1.4006079711914061,0,0,1.1484375
0.44346250900343875,0,0,1.3934253662109375,0,0,0.45937500000000003
0.4462995520007098,0,0,1.2689268798828124,0,0,0.45937500000000003
0.4489548380006454,0,0,1.4796166259765624,0,0,0.765625
0.4514542560027621,0,0,1.4891934326171874,0,0,0.9187500000000001
0.4542452070018044,0,0,1.1061211669921875,0,0,1.1484375
0.4568072910005867,0,0,1.3479355346679687,0,0,0.0765625
0.4592901340001845,0,0,1.467645617675781,0,0,0.45937500000000003
0.4619978640002955,0,0,1.3311761230468748,0,0,0.5359375000000001
0.4646768720012915,0,0,1.3072341064453123,0,0,1.225
0.46713873500266345,0,0,1.350329736328125,0,0,0.45937500000000003
0.4695823010006279,0,0,1.2569558715820313,0,0,0.30625
0.47203749700202025,0,0,1.2832920898437499,0,0,0.8421875000000001
0.4745250620035222,0,0,1.429338391113281,0,0,0.8421875000000001
0.4769272030025604,0,0,1.2880804931640624,0,0,0.765625
0.4792486780024774,0,0,1.4245499877929686,0,0,1.225
0.4816819290026615,0,0,1.5346832641601562,0,0,1.1484375
0.4841624030013918,0,0,1.438915197753906,0,0,0.0
0.48657019100210164,0,0,1.4963760375976562,0,0,0.8421875000000001
0.4890685900027165,0,0,1.3766659545898436,0,0,0.6125
0.49140695400274126,0,0,1.419761584472656,0,0,0.6890625
0.49374970700228005,0,0,1.6328455322265625,0,0,1.1484375
0.49625212400133023,0,0,1.24498486328125,0,0,0.6890625
0.49862272800237406,0,0,1.4963760375976562,0,0,0.45937500000000003
0.5079568680012017,0,0,1.3575123413085937,0,0,0.9953125
0.5106208390025131,0,0,1.3263877197265623,0,0,0.5359375000000001
0.5129489990031288,0,0,1.4915876342773438,0,0,0.6890625
0.5155114900007902,0,0,1.2832920898437499,0,0,1.53125
0.5182015540012799,0,0,1.3718775512695311,0,0,1.0718750000000001
0.5210424670003704,0,0,1.4915876342773438,0,0,0.6890625
0.5235697360003542,0,0,1.3144167114257812,0,0,0.765625
0.5258647300033772,0,0,1.2904746948242187,0,0,1.53125
0.5282788710028399,0,0,1.3862427612304686,0,0,0.8421875000000001
0.530659715001093,0,0,1.5275006591796874,0,0,0.6125
0.5335612030030461,0,0,1.3455413330078123,0,0,0.765625
0.5360436020018824,0,0,1.2761094848632812,0,0,1.53125
0.5383295030005684,0,0,1.3096283081054687,0,0,0.765625
0.5408114950005256,0,0,1.2641384765625,0,0,0.0765625
0.5432748020029976,0,0,1.2856862915039062,0,0,0.8421875000000001
0.545659257000807,0,0,1.2569558715820313,0,0,1.53125
0.5483599130020593,0,0,1.3359645263671873,0,0,0.5359375000000001
0.5507321840013901,0,0,1.24498486328125,0,0,0.0
0.5530831400028546,0,0,1.209071838378906,0,0,0.9187500000000001
0.5553718380033388,0,0,1.4006079711914061,0,0,0.5359375000000001
0.5580320500012022,0,0,1.2593500732421874,0,0,0.8421875000000001
0.56039093200161,0,0,1.24498486328125,0,0,1.6078125
0.5627120550016116,0,0,1.4987702392578124,0,0,0.5359375000000001
0.5651717690016085,0,0,1.5849614990234373,0,0,0.30625
0.5676483160023054,0,0,1.4604630126953124,0,0,1.0718750000000001
0.5702306769999268,0,0,1.3239935180664062,0,0,1.7609375
0.5728150009999808,0,0,1.5658078857421873,0,0,0.8421875000000001
0.5754338430015196,0,0,1.6112977172851561,0,0,0.5359375000000001
0.5779444460022205,0,0,1.350329736328125,0,0,0.9187500000000001
0.5805656030024693,0,0,1.3670891479492187,0,0,1.4546875000000001
0.5831927960025496,0,0,1.407790576171875,0,0,1.225
0.5858736560003308,0,0,1.6711527587890624,0,0,0.30625
0.5884129620026215,0,0,1.2976572998046874,0,0,0.6125
0.5909927120010252,0,0,1.419761584472656,0,0,0.6125
0.5938721440033987,0,0,1.446097802734375,0,0,0.8421875000000001
0.5965413930025534,0,0,1.3479355346679687,0,0,1.3015625000000002
0.599030440000206,0,0,1.2641384765625,0,0,0.5359375000000001
0.6016579860006459,0,0,1.4030021728515625,0,0,0.0
0.6045423989999108,0,0,1.3455413330078123,0,0,0.6125
0.6072032410011161,0,0,1.24498486328125,0,0,0.6125
0.6098486940027215,0,0,1.4963760375976562,0,0,0.6125
0.6128618840011768,0,0,1.2976572998046874,0,0,0.9187500000000001
0.6154957440012367,0,0,1.6065093139648436,0,0,1.0718750000000001
0.6181455300029484,0,0,1.3646949462890625,0,0,0.5359375000000001
0.6215426050002861,0,0,1.3407529296874998,0,0,0.45937500000000003
0.6242047610030568,0,0,1.3263877197265623,0,0,0.9187500000000001
0.6268667690019356,0,0,1.407790576171875,0,0,0.9953125
0.6293661870004144,0,0,1.3287819213867187,0,0,0.8421875000000001
0.6321810640001786,0,0,1.3646949462890625,0,0,0.45937500000000003
0.6348105540018878,0,0,1.2617442749023438,0,0,0.8421875000000001
0.6374471000017365,0,0,1.2832920898437499,0,0,0.8421875000000001
0.6400833490006335,0,0,1.429338391113281,0,0,0.8421875000000001
0.6425808960011636,0,0,1.37906015625,0,0,1.0718750000000001
0.6454541430030076,0,0,1.3096283081054687,0,0,0.9953125
0.6479449680009566,0,0,1.2785036865234374,0,0,0.5359375000000001
0.6506845490002888,0,0,1.2737152832031249,0,0,0.9187500000000001
0.653180893001263,0,0,1.4628572143554686,0,0,1.0718750000000001
0.65581188300348,0,0,1.16837041015625,0,0,0.9953125
0.6587141850031912,0,0,1.350329736328125,0,0,0.9187500000000001
0.6616373940014455,0,0,1.2904746948242187,0,0,1.4546875000000001
0.6641701630032912,0,0,1.5059528442382812,0,0,0.8421875000000001
0.666771376003453,0,0,1.5873557006835937,0,0,0.6125
0.6692737370030954,0,0,1.3168109130859373,0,0,1.225
0.6719104870026058,0,0,1.3000515014648437,0,0,1.378125
0.6747427340014838,0,0,1.448492004394531,0,0,1.3015625000000002
0.6773667060006119,0,0,1.3814543579101561,0,0,0.8421875000000001
0.680052029001672,0,0,1.22583125,0,0,0.45937500000000003
0.6826407780026784,0,0,1.3072341064453123,0,0,0.0
0.6851077520004765,0,0,1.2928688964843749,0,0,0.6890625
0.6876752610005497,0,0,1.5275006591796874,0,0,1.1484375
0.6904006020013185,0,0,1.2928688964843749,0,0,0.5359375000000001
0.6929979440028546,0,0,1.22583125,0,0,0.22968750000000002
0.6956786750015453,0,0,1.3072341064453123,0,0,1.0718750000000001
0.698970454002847,0,0,1.1540052001953125,0,0,0.6890625
0.7025326930015581,0,0,1.388636962890625,0,0,1.7609375
0.7051932570029749,0,0,1.4221557861328125,0,0,0.9187500000000001
0.7086111460012035,0,0,1.2928688964843749,0,0,0.6125
0.7114739490025386,0,0,1.2497732666015624,0,0,0.9187500000000001
0.7139969950003433,0,0,1.4963760375976562,0,0,1.0718750000000001
0.71658072700302,0,0,1.254561669921875,0,0,1.3015625000000002
0.7190970510018815,0,0,1.4030021728515625,0,0,0.22968750000000002
0.7219257060023665,0,0,1.39821376953125,0,0,0.9953125
0.7245519370007969,0,0,1.4341267944335936,0,0,1.0718750000000001
0.7272133530022984,0,0,1.5538368774414062,0,0,1.1484375
0.729778584001906,0,0,1.0821791503906248,0,0,0.6890625
0.7324375930002134,0,0,1.3646949462890625,0,0,0.5359375000000001
0.7351345450006193,0,0,1.5251064575195312,0,0,0.5359375000000001
0.7376648140016187,0,0,1.5394716674804687,0,0,0.9953125
0.7402563790019485,0,0,1.1659762084960936,0,0,0.9953125
0.742752759000723,0,0,1.2904746948242187,0,0,1.4546875000000001
0.7457796340022469,0,0,1.47482822265625,0,0,0.765625
0.7483585690024483,0,0,1.3838485595703125,0,0,0.6125
0.7510101330008183,0,0,1.2306196533203124,0,0,0.6890625
0.7538126950021251,0,0,1.3527239379882812,0,0,0.45937500000000003
0.7565395360034017,0,0,1.3575123413085937,0,0,0.5359375000000001
0.759057194001798,0,0,1.3024457031249999,0,0,1.0718750000000001
0.7619624780018057,0,0,1.1923124267578125,0,0,1.1484375
0.764668078001705,0,0,1.4221557861328125,0,0,0.6890625
0.7672864200030745,0,0,1.3096283081054687,0,0,0.6890625
0.7697867260030762,0,0,1.3575123413085937,0,0,1.0718750000000001
0.7723805130008259,0,0,1.4796166259765624,0,0,0.9187500000000001
0.7750045960019634,0,0,1.3958195678710936,0,0,0.8421875000000001
0.7776085310033523,0,0,1.1013327636718748,0,0,0.9953125
0.7801928550034063,0,0,1.3263877197265623,0,0,0.6125
0.7829237140031182,0,0,1.3215993164062498,0,0,0.45937500000000003
0.7855581490002805,0,0,1.5179238525390624,0,0,1.0718750000000001
0.7881548060031491,0,0,1.5945383056640625,0,0,1.225
0.790797111003485,0,0,1.2808978881835937,0,0,0.45937500000000003
0.7932862870002282,0,0,1.3000515014648437,0,0,0.30625
0.7959508510029991,0,0,1.3024457031249999,0,0,0.765625
0.7985216750021209,0,0,1.6328455322265625,0,0,1.0718750000000001
0.8010080560015922,0,0,1.3048399047851562,0,0,0.6125
0.803595232002408,0,0,1.484405029296875,0,0,0.5359375000000001
0.8062236290024885,0,0,1.5227122558593749,0,0,0.6890625
0.8088959340020665,0,0,1.37906015625,0,0,0.765625
0.8115297200019995,0,0,1.3000515014648437,0,0,0.8421875000000001
0.8147934630032978,0,0,1.43652099609375,0,0,0.8421875000000001
0.8174580820013944,0,0,1.3910311645507811,0,0,0.8421875000000001
0.820069332003186,0,0,1.235408056640625,0,0,0.8421875000000001
0.8226333970014821,0,0,1.2210428466796874,0,0,0.6125
0.8252139240030374,0,0,1.388636962890625,0,0,0.153125
0.8278296000025875,0,0,1.4772224243164063,0,0,0.5359375000000001
0.8304246640000201,0,0,1.3024457031249999,0,0,1.1484375
0.8330074880032043,0,0,1.189918225097656,0,0,0.30625
0.8355379050008196,0,0,1.5275006591796874,0,0,0.0
0.838133896002546,0,0,1.3120225097656248,0,0,0.765625
0.8407282200023474,0,0,1.3670891479492187,0,0,1.4546875000000001
0.8433154700032901,0,0,1.3742717529296875,0,0,0.9187500000000001
0.8458472390011593,0,0,1.4891934326171874,0,0,0.0
0.8484030440013157,0,0,1.3527239379882812,0,0,0.45937500000000003
0.8510074790028739,0,0,1.4963760375976562,0,0,0.9953125
0.8536223400005838,0,0,1.2617442749023438,0,0,0.6890625
0.8561471640023228,0,0,1.3455413330078123,0,0,0.6125
0.8587210810001125,0,0,1.2401964599609374,0,0,0.5359375000000001
0.8613800340026501,0,0,1.2282254516601563,0,0,2.1437500000000003
0.8641405040034442,0,0,1.9584569580078124,0,0,5.589062500000001
0.8667039580031997,0,0,4.879382983398437,0,0,831.0859375000001
0.8695603710002615,0,0,7.637503295898437,0,0,-853.4421875
0.8723335820031934,0,0,7.582436657714843,0,0,8.26875
0.875998506002361,0,0,10.275913525390624,0,0,20.365625
0.8808377310015203,0,0,9.885658654785155,0,0,828.6359375000001
0.884373360000609,0,0,0.29448680419921874,0,0,-8.6515625
0.8883594460021413,0,0,3.3494881225585935,0,0,-855.2796875
0.8919101120009145,0,0,-6.026205578613281,0,0,8.115625000000001
0.895009078001749,0,0,-3.6367923217773437,0,0,0.8421875000000001
0.8980653600010555,0,0,5.389347937011719,0,0,829.5546875000001
0.9009394029999385,0,0,5.161898779296875,0,0,828.2531250000001
0.9039445930029615,0,0,2.109291662597656,0,0,831.0859375000001
0.9068675430025905,0,0,2.674323254394531,0,0,830.5500000000001
0.9097287340009643,0,0,1.0869675537109373,0,0,1.1484375
0.9124739080034487,0,0,-1.2641384765625,0,0,-0.153125
0.9154512280001654,0,0,-1.5227122558593749,0,0,0.0
0.9183192890013743,0,0,3.878606689453125,0,0,4.134375
0.921135481003148,0,0,3.421314172363281,0,0,2.9093750000000003
0.923890026002482,0,0,1.3958195678710936,0,0,-1.1484375
0.9267971240005863,0,0,3.028665100097656,0,0,-0.9187500000000001
0.9296985370019684,0,0,0.7972691528320313,0,0,-852.8296875000001
0.9325841170029889,0,0,-2.288856787109375,0,0,0.6125
0.9361736520004342,0,0,2.408566870117187,0,0,2.5265625000000003
0.9400122960032604,0,0,1.458068811035156,0,0,1.990625
0.9429500980004377,0,0,3.4356793823242184,0,0,0.9953125
0.9462951730019995,0,0,0.9935936889648437,0,0,-853.4421875
0.949309825002274,0,0,-0.12210428466796874,0,0,0.0
0.9523428110005625,0,0,0.5219359619140624,0,0,0.765625
0.9552885750017595,0,0,-0.9552864624023437,0,0,0.45937500000000003
0.9583634130030987,0,0,3.0406361083984375,0,0,4.2109375
0.9611170130010578,0,0,3.9839515624999997,0,0,3.4453125000000004
0.9638730010010477,0,0,1.6831237670898436,0,0,0.0765625
0.9666612300025008,0,0,3.361459130859375,0,0,1.4546875000000001
0.9696191060029378,0,0,2.142810485839844,0,0,-0.8421875000000001
0.9721342450029624,0,0,-1.5753846923828123,0,0,-1.378125
0.9747905130025174,0,0,0.18435352783203124,0,0,1.0718750000000001
0.977279875001841,0,0,1.1875240234375,0,0,1.6843750000000002
0.9800823080004193,0,0,-0.2561795776367187,0,0,0.9187500000000001
0.9826470760017401,0,0,2.4349030883789062,0,0,2.45
0.9851178460012306,0,0,3.038241906738281,0,0,1.6078125
0.9877686510008061,0,0,1.1635820068359375,0,0,-0.6125
0.9903670300009253,0,0,1.8746598999023436,0,0,1.1484375
0.9931030750012724,0,0,2.0781670410156248,0,0,1.1484375
0.9955882700014627,0,0,-0.43574470214843747,0,0,-1.4546875000000001
0.9983791840022604,0,0,1.2976572998046874,0,0,1.3015625000000002
1.0009755450009834,0,0,3.4859576171874997,0,0,2.1437500000000003
1.0037104790026206,0,0,0.8307879760742187,0,0,-9.723437500000001
1.0063911350007402,0,0,1.7741034301757812,0,0,1.4546875000000001
1.0092370300008042,0,0,3.1555577880859373,0,0,1.3015625000000002
1.0120385920017725,0,0,0.584185205078125,0,0,0.0
1.014686527003505,0,0,0.8834604125976562,0,0,0.8421875000000001
1.0173785720035085,0,0,2.379836450195312,0,0,0.8421875000000001
1.0201980410020042,0,0,0.08379705810546874,0,0,1.225
1.0229908820001583,0,0,2.2649147705078123,0,0,1.378125
1.025740074001078,0,0,2.2266075439453124,0,0,0.0765625
1.0286121540011663,0,0,-0.32082302246093747,0,0,-9.646875000000001
1.0313258470014262,0,0,2.1308394775390624,0,0,1.4546875000000001
1.0338879490009276,0,0,1.656787548828125,0,0,1.8375000000000001
1.036551439003233,0,0,-0.6153098266601562,0,0,0.45937500000000003
1.0392187430006743,0,0,2.528276953125,0,0,2.1437500000000003
1.0419616400031373,0,0,3.172317199707031,0,0,2.5265625000000003
1.044506131001981,0,0,0.13407529296874998,0,0,0.9187500000000001
1.047188972002914,0,0,2.5067291381835934,0,0,1.225
1.0498596290017304,0,0,2.9855694702148434,0,0,1.6843750000000002
1.0526292470021872,0,0,-0.316034619140625,0,0,-9.4171875
1.055212848001247,0,0,0.8714894042968749,0,0,0.3828125
1.0579240229999414,0,0,1.7525556152343749,0,0,1.6078125
1.0606371600006241,0,0,0.4740519287109375,0,0,1.1484375
1.063390427003469,0,0,2.3343466186523436,0,0,0.9187500000000001
1.0660944530027336,0,0,1.4604630126953124,0,0,1.4546875000000001
1.068178727000486,0,0,0.00718260498046875,0,0,-0.6890625
1.0698672460021044,0,0,0.4477157104492187,0,0,0.6890625
1.0715327830002934,0,0,2.27927998046875,0,0,1.53125
1.0732446720030566,0,0,2.080561242675781,0,0,2.1437500000000003
1.0749352470011218,0,0,1.254561669921875,0,0,1.7609375
1.076570007000555,0,0,-0.2920926025390625,0,0,-0.45937500000000003
1.0782193780032685,0,0,1.68551796875,0,0,0.45937500000000003
1.0798860450013308,0,0,2.446874096679687,0,0,2.1437500000000003
1.081512824002857,0,0,2.5857377929687497,0,0,1.4546875000000001
1.0831331580011465,0,0,1.6065093139648436,0,0,2.3734375
1.0847718069999246,0,0,0.016759411621093748,0,0,0.0
1.0864119380021293,0,0,1.3551181396484375,0,0,0.0
1.0880055870002252,0,0,1.7501614135742187,0,0,0.3828125
1.0896287550021952,0,0,1.7166425903320313,0,0,0.0
1.0912628670012054,0,0,1.2330138549804688,0,0,1.378125
1.0929725890018744,0,0,0.28969840087890625,0,0,0.6125
1.0946090900033596,0,0,1.7741034301757812,0,0,1.1484375
1.0962530350007,0,0,1.7908628417968748,0,0,1.6843750000000002
1.097797463000461,0,0,1.2521674682617188,0,0,0.3828125
1.0992978540016338,0,0,0.9097966308593749,0,0,1.6843750000000002
1.1008492260007188,0,0,0.5243301635742187,0,0,0.30625
1.1025013010003022,0,0,2.588131994628906,0,0,1.6843750000000002
1.1041397280023375,0,0,2.6767174560546874,0,0,2.0671875
1.1056587110033433,0,0,1.2737152832031249,0,0,0.6890625
1.1072534160011855,0,0,0.10295067138671875,0,0,0.8421875000000001
1.1087960290024057,0,0,0.1197100830078125,0,0,-0.6890625
1.1102787350027938,0,0,2.602497204589844,0,0,0.0765625
1.111799015001452,0,0,2.786850732421875,0,0,2.2203125000000004
1.113382516999991,0,0,1.2689268798828124,0,0,1.8375000000000001
1.1150861470014206,0,0,-0.37828386230468747,0,0,1.8375000000000001
1.1167053140015923,0,0,-0.6607996582031249,0,0,0.22968750000000002
1.1183780000028491,0,0,2.2361843505859373,0,0,0.6890625
1.1199522240021906,0,0,2.999934680175781,0,0,1.6078125
1.1214679479999177,0,0,2.3511060302734372,0,0,0.3828125
1.1230551900007413,0,0,1.7310078002929687,0,0,1.8375000000000001
1.1246243400019011,0,0,0.15562310791015624,0,0,0.0
1.1261091940032202,0,0,1.4891934326171874,0,0,0.153125
1.1277116210003442,0,0,1.8770541015625,0,0,1.6078125
1.1293502150001586,0,0,1.7645266235351562,0,0,1.1484375
1.1309158460026083,0,0,1.1133037719726562,0,0,1.378125
1.1323867380015145,0,0,-0.3184288208007812,0,0,0.0
1.1338549250031065,0,0,0.47644613037109373,0,0,0.765625
1.1353803530000732,0,0,2.4660277099609376,0,0,2.45
1.1369627620006213,0,0,2.6815058593749996,0,0,1.990625
1.1386339850032527,0,0,0.9026140258789062,0,0,0.6125
1.1401834130010684,0,0,-0.1484405029296875,0,0,-0.765625
1.1417462110002816,0,0,1.197100830078125,0,0,1.225
1.1432498610010953,0,0,2.887407202148437,0,0,2.2203125000000004
1.1447517890010204,0,0,3.0310593017578125,0,0,1.9140625000000002
1.1463819010023144,0,0,0.469263525390625,0,0,0.0
1.1480122730026778,0,0,-0.2561795776367187,0,0,-1.378125
1.1495443300009356,0,0,0.6823474731445313,0,0,0.6890625
1.151186516002781,0,0,3.318363500976562,0,0,2.9093750000000003
1.1527786280021246,0,0,3.4859576171874997,0,0,2.2203125000000004
1.1542667240028095,0,0,0.5458779785156249,0,0,0.765625
1.155785355000262,0,0,-0.25139117431640623,0,0,-0.5359375000000001
1.1574446890008403,0,0,0.45968671875,0,0,1.0718750000000001
1.1590220240032068,0,0,2.3487118286132813,0,0,1.9140625000000002
1.1605963590009196,0,0,3.737348791503906,0,0,2.1437500000000003
1.1621974160007085,0,0,1.5275006591796874,0,0,0.9953125
1.1637910470017232,0,0,0.05746083984375,0,0,-9.5703125
1.1652839930029586,0,0,0.028730419921875,0,0,0.0765625
1.1667947550013196,0,0,1.5490484741210937,0,0,0.765625
1.1683698860033473,0,0,3.239354846191406,0,0,1.6843750000000002
1.1699191470033838,0,0,2.051830822753906,0,0,0.9953125
1.1717898310016608,0,0,-0.06943184814453125,0,0,-1.0718750000000001
1.1735602190019563,0,0,0.20350714111328125,0,0,0.3828125
1.1751246460007678,0,0,3.057395520019531,0,0,1.3015625000000002
1.1765981490025297,0,0,3.1938650146484373,0,0,1.4546875000000001
1.178066355001647,0,0,1.915361328125,0,0,0.765625
1.179761467003118,0,0,0.22744915771484372,0,0,-0.30625
1.1815716510027414,0,0,0.41898529052734373,0,0,0.9187500000000001
1.1834463530030916,0,0,3.0430303100585934,0,0,1.990625
1.185311425000691,0,0,2.2649147705078123,0,0,1.4546875000000001
1.1869642040001054,0,0,1.3144167114257812,0,0,0.6890625
1.1887442960032786,0,0,-0.7685387329101562,0,0,8.6515625
1.1902278720008326,0,0,1.5514426757812498,0,0,0.0
1.1918409850004537,0,0,2.4588451049804685,0,0,2.75625
1.1935051330001443,0,0,2.3439234252929686,0,0,1.7609375
1.1950661720002245,0,0,1.2641384765625,0,0,0.9187500000000001
1.197349332000158,0,0,-0.4070142822265625,0,0,-0.5359375000000001
1.1989966110013484,0,0,1.4915876342773438,0,0,1.378125
1.2006105380023655,0,0,3.5601778686523438,0,0,1.53125
1.202149984001153,0,0,1.9800047729492187,0,0,2.0671875
1.2039130390003265,0,0,0.5602431884765625,0,0,-9.4171875
1.2055115220027801,0,0,-0.2537853759765625,0,0,0.0
1.20705635700142,0,0,1.4700398193359374,0,0,1.225
1.2085328780012787,0,0,3.4859576171874997,0,0,1.1484375
1.2103056560008554,0,0,2.214636535644531,0,0,1.6843750000000002
1.2119269340000756,0,0,0.8403647827148437,0,0,0.0
1.213484084000811,0,0,-0.17956512451171874,0,0,-0.153125
1.2149750310018135,0,0,0.9840168823242187,0,0,-8.728125
1.2164459410014388,0,0,2.664746447753906,0,0,0.6890625
1.2182007740011613,0,0,1.6998831787109374,0,0,1.0718750000000001
1.2198041830015427,0,0,0.4908113403320312,0,0,0.45937500000000003
1.2214512570026272,0,0,0.0718260498046875,0,0,1.1484375
1.223118758000055,0,0,2.2936451904296873,0,0,1.225
1.2246599820027768,0,0,2.748543505859375,0,0,1.1484375
1.2261924100021133,0,0,2.205059729003906,0,0,0.8421875000000001
1.2277665970032103,0,0,0.9265560424804687,0,0,0.153125
1.2293276540003717,0,0,-0.00718260498046875,0,0,0.153125
1.2311690780006757,0,0,1.9919757812499999,0,0,1.1484375
1.2327027100000123,0,0,2.327164013671875,0,0,1.53125
1.2342619150003884,0,0,1.9823989746093749,0,0,0.6125
1.2357857510032773,0,0,0.6512228515624999,0,0,0.3828125
1.2372572350031987,0,0,0.02633621826171875,0,0,0.765625
1.2387821260017517,0,0,0.9648632690429687,0,0,1.3015625000000002
1.2404243670025608,0,0,2.50912333984375,0,0,1.378125
1.2420111470019037,0,0,2.3582886352539063,0,0,1.6843750000000002
1.2434901490014454,0,0,1.6232687255859375,0,0,0.8421875000000001
1.245078984000429,0,0,0.47884033203125,0,0,0.5359375000000001
1.2466339300008258,0,0,1.4317325927734375,0,0,0.9953125
1.2481183400013833,0,0,2.3247698120117186,0,0,1.1484375
1.2496466750017134,0,0,2.2098481323242187,0,0,1.378125
1.2512153620009485,0,0,0.7445967163085937,0,0,1.4546875000000001
1.252747308000835,0,0,-0.20350714111328125,0,0,-0.9187500000000001
1.2542342550004832,0,0,0.9337386474609375,0,0,-0.9187500000000001
1.2558768490016519,0,0,1.8076222534179687,0,0,0.8421875000000001
1.2575837750009669,0,0,2.35589443359375,0,0,0.9953125
1.2591329990027589,0,0,0.8714894042968749,0,0,1.8375000000000001
1.2606050570029765,0,0,-0.016759411621093748,0,0,0.22968750000000002
1.2622134650009684,0,0,1.13006318359375,0,0,1.0718750000000001
1.2637404120032443,0,0,1.8267758666992187,0,0,0.9187500000000001
1.2656235580034263,0,0,1.6424223388671875,0,0,0.45937500000000003
1.2673327070006053,0,0,1.429338391113281,0,0,2.0671875
1.2688600050023524,0,0,0.7541735229492187,0,0,0.5359375000000001
1.2703359150000324,0,0,1.5298948608398437,0,0,1.0718750000000001
1.2725223730012658,0,0,2.3774422485351563,0,0,0.9187500000000001
1.2742779460022575,0,0,1.158793603515625,0,0,9.646875000000001
1.2761385740013793,0,0,-0.25139117431640623,0,0,-0.3828125
1.2776843540013942,0,0,0.5291185668945312,0,0,0.30625
1.2801152720021491,0,0,2.6982652709960937,0,0,0.3828125
1.2819426970017958,0,0,2.1739351074218747,0,0,0.9953125
1.2835039760029758,0,0,0.6560112548828124,0,0,1.9140625000000002
1.2851323660033813,0,0,-0.1867477294921875,0,0,0.0
1.287354898002377,0,0,2.729389892578125,0,0,1.378125
1.28906939800072,0,0,2.93050283203125,0,0,0.8421875000000001
1.2906452880015422,0,0,1.5490484741210937,0,0,1.0718750000000001
1.2927139700004773,0,0,-0.062249243164062495,0,0,0.0
1.294590875000722,0,0,1.2473790649414063,0,0,0.30625
1.2962721530020644,0,0,1.9033903198242186,0,0,0.3828125
1.2981248190008046,0,0,1.8291700683593748,0,0,0.765625
1.2997021900009713,0,0,1.448492004394531,0,0,1.990625
1.3016445210014354,0,0,0.7541735229492187,0,0,1.3015625000000002
1.3034805010029231,0,0,1.608903515625,0,0,1.378125
1.30505691000144,0,0,1.465251416015625,0,0,0.0
1.306792631999997,0,0,1.0342951171875,0,0,0.3828125
1.3083175420033513,0,0,0.8738836059570312,0,0,-0.9187500000000001
1.3099151360001997,0,0,0.8475473876953125,0,0,1.53125
1.3115302110018092,0,0,2.2960393920898436,0,0,2.9093750000000003
1.3130880090029677,0,0,2.0254946044921875,0,0,2.45
1.3145653630017478,0,0,0.2825157958984375,0,0,0.3828125
1.3161512720034807,0,0,0.07900865478515624,0,0,-0.22968750000000002
1.3176815700026054,0,0,0.82360537109375,0,0,-0.9187500000000001
1.3191474990017014,0,0,3.3782185424804685,0,0,2.3734375
1.320668853000825,0,0,3.5889082885742187,0,0,1.9140625000000002
1.3222155770017707,0,0,1.2952630981445312,0,0,1.990625
1.3237781530006032,0,0,-0.3591302490234375,0,0,-0.3828125
1.3253223950014217,0,0,-0.02633621826171875,0,0,-0.8421875000000001
1.3269040450031753,0,0,1.9919757812499999,0,0,0.30625
1.3284658980010136,0,0,3.411737365722656,0,0,1.8375000000000001
1.3300739550031722,0,0,2.1260510742187497,0,0,1.225
1.3316231050011993,0,0,-0.3399766357421875,0,0,0.9187500000000001
1.3331858840028872,0,0,-0.2753331909179687,0,0,0.30625
1.3346713680002722,0,0,1.66636435546875,0,0,1.4546875000000001
1.336151797000639,0,0,3.284844677734375,0,0,1.0718750000000001
1.3376765210014128,0,0,2.346317626953125,0,0,2.0671875
1.339220503999968,0,0,0.2753331909179687,0,0,0.9187500000000001
1.340699840002344,0,0,-0.2537853759765625,0,0,0.0
1.3421654910016514,0,0,2.540247961425781,0,0,1.3015625000000002
1.3436896780003735,0,0,3.1004911499023438,0,0,2.296875
1.3452318650015513,0,0,1.5131354492187499,0,0,1.3015625000000002
1.3468094039999414,0,0,0.6512228515624999,0,0,0.45937500000000003
1.3484515710006235,0,0,-0.258573779296875,0,0,-1.225
1.350119202001224,0,0,2.3415292236328122,0,0,0.6890625
1.351756017000298,0,0,2.959233251953125,0,0,2.6031250000000004
1.3533083710026403,0,0,1.608903515625,0,0,1.8375000000000001
1.3549131500003568,0,0,0.316034619140625,0,0,0.9187500000000001
1.3565430400012701,0,0,-0.8164227661132812,0,0,-0.9953125
1.3581029670021962,0,0,3.1938650146484373,0,0,0.0
1.3596428400014702,0,0,4.084508032226562,0,0,1.8375000000000001
1.3612853960003122,0,0,2.5665841796874997,0,0,2.75625
1.3628832490030618,0,0,1.189918225097656,0,0,1.8375000000000001
1.3644266030023573,0,0,-1.8363526733398436,0,0,-2.2203125000000004
1.3661119180032983,0,0,1.9512743530273435,0,0,8.3453125
1.3676946410014352,0,0,3.402160559082031,0,0,0.8421875000000001
1.3692409770010272,0,0,2.8945898071289062,0,0,2.2203125000000004
1.370856626002933,0,0,1.467645617675781,0,0,2.1437500000000003
1.3731015090015717,0,0,-0.6512228515624999,0,0,0.3828125
1.374680510001781,0,0,0.8786720092773437,0,0,0.22968750000000002
1.3762304380034038,0,0,3.1483751831054687,0,0,-0.45937500000000003
1.377863421002985,0,0,2.4660277099609376,0,0,1.0718750000000001
1.379485792000196,0,0,1.3359645263671873,0,0,1.9140625000000002
1.3811299220033106,0,0,0.3399766357421875,0,0,0.6125
1.3827379610011121,0,0,1.3383587280273437,0,0,0.6125
1.3843868320000183,0,0,2.446874096679687,0,0,1.378125
1.3859846480008855,0,0,1.8746598999023436,0,0,0.5359375000000001
1.3875279830026557,0,0,0.7757213378906249,0,0,1.4546875000000001
1.3891651690028084,0,0,0.13168109130859373,0,0,0.45937500000000003
1.3907425590005005,0,0,1.8243816650390623,0,0,0.22968750000000002
1.3922833390024607,0,0,3.1675287963867187,0,0,1.6078125
1.3938801370022702,0,0,2.43250888671875,0,0,1.1484375
1.3955147670021688,0,0,0.36631285400390623,0,0,1.6078125
1.3970612690027338,0,0,-1.1109095703125,0,0,0.0
1.3987075660006667,0,0,1.3670891479492187,0,0,0.0765625
1.4005601570024737,0,0,3.3207577026367185,0,0,1.8375000000000001
1.4021491400017112,0,0,2.403778466796875,0,0,2.0671875
1.4036828080024861,0,0,1.3311761230468748,0,0,1.7609375
1.405527807000908,0,0,-0.8930372192382812,0,0,-0.30625
1.4076154880021932,0,0,2.8802245971679685,0,0,0.0
1.4105572160005977,0,0,1.7956512451171873,0,0,1.8375000000000001
1.4125394350012357,0,0,-1.0510545288085937,0,0,-1.0718750000000001
1.4147100780028268,0,0,0.258573779296875,0,0,0.3828125
1.416969035002694,0,0,2.5258827514648434,0,0,1.8375000000000001
1.4199361330029205,0,0,2.3223756103515623,0,0,0.8421875000000001
1.4218727970001055,0,0,-0.28012159423828126,0,0,0.765625
1.42356868600109,0,0,1.8602946899414061,0,0,2.3734375
1.425098762003472,0,0,2.473210314941406,0,0,1.8375000000000001
1.4265624870022293,0,0,1.908178723144531,0,0,1.1484375
1.428110804001335,0,0,-0.2561795776367187,0,0,-853.4421875
1.4296883800016076,0,0,-0.2154781494140625,0,0,-0.6125
1.4311553640000056,0,0,2.068590234375,0,0,1.1484375
1.4326711810026609,0,0,2.748543505859375,0,0,1.378125
1.4343818289999035,0,0,1.7741034301757812,0,0,0.9953125
1.4358586280031886,0,0,0.5123591552734374,0,0,1.225
1.4373227050018613,0,0,-0.22266075439453123,0,0,0.0765625
1.4388806510032737,0,0,1.448492004394531,0,0,0.6890625
1.440416986002674,0,0,3.845087866210937,0,0,1.7609375
1.4419724880026479,0,0,3.1675287963867187,0,0,1.6078125
1.4434428420026961,0,0,1.0366893188476562,0,0,2.2203125000000004
1.4452569340028276,0,0,-1.2928688964843749,0,0,832.69375
1.4469045640034892,0,0,0.44053310546874996,0,0,0.45937500000000003
1.44851638000182,0,0,3.1220389648437497,0,0,1.1484375
1.4504718400021375,0,0,2.5354595581054684,0,0,1.4546875000000001
1.4521338780032238,0,0,-0.2154781494140625,0,0,832.3109375
1.453663102001883,0,0,-0.9193734375,0,0,-852.8296875000001
1.4551366420018894,0,0,1.5155296508789062,0,0,0.45937500000000003
1.4567781430014293,0,0,2.8562825805664063,0,0,1.225
1.4584083660010947,0,0,2.607285607910156,0,0,1.6843750000000002
1.4599105350025638,0,0,1.9225439331054686,0,0,0.9953125
1.4613800370025274,0,0,0.055066638183593745,0,0,1.378125
1.4629668910019973,0,0,0.7062894897460937,0,0,0.6890625
1.464803575003316,0,0,1.707065783691406,0,0,0.30625
1.466376743002911,0,0,1.7357962036132812,0,0,0.0
1.4679978180029138,0,0,1.7238251953125,0,0,0.0
1.4700598510025884,0,0,0.4908113403320312,0,0,0.6890625
1.471926609003276,0,0,1.6400281372070311,0,0,1.6078125
1.4736302760029503,0,0,1.2952630981445312,0,0,1.225
1.4755497360019945,0,0,0.9074024291992187,0,0,0.6125
1.4772161440014315,0,0,1.1923124267578125,0,0,0.5359375000000001
1.4787759050013847,0,0,2.9448680419921875,0,0,0.6890625
1.4804973500031338,0,0,3.1771056030273437,0,0,1.6843750000000002
1.4820721840005717,0,0,2.142810485839844,0,0,0.9953125
1.483742352000263,0,0,0.09816226806640624,0,0,-9.49375
1.4856710900021426,0,0,-0.41898529052734373,0,0,0.0
1.487272906000726,0,0,2.308010400390625,0,0,1.0718750000000001
1.4888295930031745,0,0,2.9640216552734375,0,0,1.4546875000000001
1.4903828170026827,0,0,1.3670891479492187,0,0,1.3015625000000002
1.4922665560006863,0,0,-0.43574470214843747,0,0,-0.765625
1.4939030940004159,0,0,0.19632453613281248,0,0,0.153125
1.4954583550024836,0,0,2.437297290039062,0,0,1.990625
1.4972309840013622,0,0,1.7453730102539062,0,0,1.225
1.498972520003008,0,0,1.388636962890625,0,0,1.990625
1.5005688370001735,0,0,0.0,0,0,-0.3828125
1.5024959270012914,0,0,2.2385785522460937,0,0,0.3828125
1.504167242001131,0,0,2.427720483398437,0,0,1.7609375
1.5057343550033693,0,0,1.3168109130859373,0,0,0.8421875000000001
1.5072897640020528,0,0,0.239420166015625,0,0,1.53125
1.509014653001941,0,0,-0.17477672119140625,0,0,0.0
1.5106660050005303,0,0,2.1404162841796874,0,0,0.6125
1.5122961910019512,0,0,2.9640216552734375,0,0,2.1437500000000003
1.5139645990020654,0,0,1.5514426757812498,0,0,1.0718750000000001
1.515633841001545,0,0,-0.02154781494140625,0,0,0.0
1.5172197120009514,0,0,0.5027823486328125,0,0,0.6125
1.5187733810016653,0,0,2.6001030029296874,0,0,0.30625
1.5203961780025566,0,0,3.366247534179687,0,0,1.6843750000000002
1.5220267350014183,0,0,2.24097275390625,0,0,1.3015625000000002
1.5235740140014968,0,0,-0.23702596435546874,0,0,0.765625
1.525319958000182,0,0,-0.5027823486328125,0,0,0.5359375000000001
1.5270521990023553,0,0,1.4532804077148436,0,0,1.4546875000000001
1.5287899950017163,0,0,3.4931402221679684,0,0,2.296875
1.531221135002852,0,0,-0.062249243164062495,0,0,1.8375000000000001
1.5329231540017645,0,0,-1.0726023437499999,0,0,0.30625
1.5345196920025046,0,0,1.8746598999023436,0,0,0.9187500000000001
1.5366368550021434,0,0,3.7205893798828122,0,0,0.8421875000000001
1.538286226001219,0,0,1.8100164550781248,0,0,1.3015625000000002
1.5398517640023783,0,0,0.18435352783203124,0,0,-0.153125
1.5415756160000456,0,0,-0.21787235107421873,0,0,0.0
1.5434043190034572,0,0,3.3016040893554686,0,0,2.296875
1.5450251900001604,0,0,3.7205893798828122,0,0,2.0671875
1.5467286720013362,0,0,0.7733271362304687,0,0,1.1484375
1.5484675050029182,0,0,-1.68551796875,0,0,-1.7609375
1.5500993020032183,0,0,-0.18914193115234373,0,0,0.153125
1.5530484180017083,0,0,4.556165759277343,0,0,2.45
1.554717270002584,0,0,1.5275006591796874,0,0,2.8328125
1.5563689750015328,0,0,-1.9584569580078124,0,0,-0.765625
1.558021994002047,0,0,-1.0797849487304687,0,0,-0.6125
1.5596711060024973,0,0,3.7158009765625,0,0,1.8375000000000001
1.5612231630002498,0,0,3.323151904296875,0,0,2.1437500000000003
1.56286996000199,0,0,2.8419173706054686,0,0,3.215625
1.564503091001825,0,0,-1.9393033447265624,0,0,-0.3828125
1.566171665002912,0,0,0.6536170532226562,0,0,-1.3015625000000002
1.5677370560006239,0,0,2.7653029174804686,0,0,1.6843750000000002
1.5695491840015166,0,0,2.817975354003906,0,0,2.3734375
1.5711921110014373,0,0,0.28490999755859375,0,0,2.45
1.5727348720029113,0,0,-1.3311761230468748,0,0,0.22968750000000002
1.5748389240034157,0,0,0.6105214233398437,0,0,1.6843750000000002
1.5765984050012776,0,0,3.35188232421875,0,0,0.765625
1.5783001449999574,0,0,2.731784094238281,0,0,1.6843750000000002
1.5799197020023712,0,0,1.216254443359375,0,0,0.30625
1.5819030700004078,0,0,-0.6943184814453125,0,0,0.0
1.5835801260000153,0,0,3.1507693847656246,0,0,2.6796875
1.585250348001864,0,0,2.473210314941406,0,0,1.9140625000000002
1.5869006450011511,0,0,1.8004396484374998,0,0,2.5265625000000003
1.5885561640025117,0,0,-1.3934253662109375,0,0,-1.4546875000000001
1.590223461000278,0,0,1.2473790649414063,0,0,-1.6843750000000002
1.5918659990020387,0,0,2.834734765625,0,0,2.1437500000000003
1.5934499080030946,0,0,2.882618798828125,0,0,2.6031250000000004
1.596101750001253,0,0,0.25139117431640623,0,0,-1.1484375
1.5982176340003207,0,0,1.1468225952148436,0,0,-0.9187500000000001
1.6000630030030152,0,0,3.2561142578125,0,0,2.0671875
1.6016861710013472,0,0,3.2561142578125,0,0,2.9093750000000003
1.6032910419999098,0,0,0.8882488159179687,0,0,2.6031250000000004
1.6049524690024555,0,0,-1.5945383056640625,0,0,8.6515625
1.606530211000063,0,0,0.46208092041015625,0,0,-2.296875
1.6081265830034681,0,0,3.8570588745117185,0,0,0.5359375000000001
1.6097069550014567,0,0,3.019088293457031,0,0,2.296875
1.6113461410022865,0,0,0.6607996582031249,0,0,2.5265625000000003
1.6130004930018913,0,0,-1.350329736328125,0,0,-0.45937500000000003
1.6145990500008338,0,0,0.6727706665039062,0,0,-1.1484375
1.6160756450008193,0,0,2.3774422485351563,0,0,2.1437500000000003
1.6175975360019947,0,0,3.2249896362304686,0,0,2.9093750000000003
1.6191720380011247,0,0,1.2234370483398436,0,0,3.521875
1.6207191500034241,0,0,-0.35673604736328124,0,0,-1.3015625000000002
1.622301856001286,0,0,0.6703764648437499,0,0,-1.0718750000000001
1.6239406160020735,0,0,2.4133552734375,0,0,0.9187500000000001
1.6255637090034725,0,0,2.8131869506835936,0,0,2.2203125000000004
1.6272364320029737,0,0,1.1109095703125,0,0,2.6031250000000004
1.6288214520027395,0,0,-0.5051765502929687,0,0,-0.45937500000000003
1.6305140820004453,0,0,0.354341845703125,0,0,-0.765625
1.6321018420021574,0,0,1.8124106567382812,0,0,0.8421875000000001
1.6336575850000372,0,0,2.518700146484375,0,0,2.2203125000000004
1.635324215003493,0,0,0.9433154541015625,0,0,2.5265625000000003
1.6369063650017779,0,0,-0.16041151123046873,0,0,-0.3828125
1.638397682003415,0,0,1.0414777221679687,0,0,-0.45937500000000003
1.6399957760004327,0,0,1.8171990600585937,0,0,0.6890625
1.6419386440029484,0,0,2.8898014038085935,0,0,1.6843750000000002
1.6435581450023165,0,0,1.5083470458984374,0,0,2.0671875
1.6451057020021835,0,0,0.45010991210937495,0,0,0.5359375000000001
1.6466563330031931,0,0,0.5363011718749999,0,0,-0.22968750000000002
1.648160317003203,0,0,2.4516625,0,0,0.22968750000000002
1.6497813740024867,0,0,2.04943662109375,0,0,1.3015625000000002
1.6514010040009452,0,0,1.2018892333984375,0,0,1.0718750000000001
1.6529184140017605,0,0,-0.08140285644531249,0,0,0.0
1.6544064720001188,0,0,1.1324573852539062,0,0,-0.6125
1.6559653440017428,0,0,1.9321207397460936,0,0,0.8421875000000001
1.6575165120011661,0,0,2.2098481323242187,0,0,2.296875
1.6589859600026102,0,0,2.2840683837890623,0,0,1.3015625000000002
1.6604835360012657,0,0,0.16759411621093748,0,0,-0.22968750000000002
1.6620697780017508,0,0,-0.2825157958984375,0,0,-0.5359375000000001
1.663782074003393,0,0,2.1930887207031247,0,0,0.6890625
1.6653419840004062,0,0,2.5043349365234375,0,0,1.8375000000000001
1.6669079670027713,0,0,2.4109610717773435,0,0,2.2203125000000004
1.6684528940022574,0,0,-0.45489831542968745,0,0,-0.9187500000000001
1.669938823000848,0,0,-0.6153098266601562,0,0,-0.22968750000000002
1.6714071030000923,0,0,1.936909143066406,0,0,1.6078125
1.6729577900005097,0,0,2.712630480957031,0,0,1.3015625000000002
1.6744988480022585,0,0,2.272097375488281,0,0,1.3015625000000002
1.6759601650010154,0,0,1.3048399047851562,0,0,1.0718750000000001
1.6774938520029536,0,0,-0.076614453125,0,0,1.7609375
1.6791326490019856,0,0,2.3367408203125,0,0,1.4546875000000001
1.6806270590022905,0,0,2.528276953125,0,0,0.30625
1.6820988950021274,0,0,1.5490484741210937,0,0,0.6890625
1.6837780990026658,0,0,0.4261678955078125,0,0,-0.5359375000000001
1.6853561750031076,0,0,0.0430956298828125,0,0,0.8421875000000001
1.6869520280015422,0,0,1.867477294921875,0,0,1.1484375
1.6884585120023985,0,0,2.50912333984375,0,0,0.8421875000000001
1.6900312910001958,0,0,1.3024457031249999,0,0,1.378125
1.6918187530027353,0,0,0.2705447875976562,0,0,-0.3828125
1.6935732530000678,0,0,-0.13407529296874998,0,0,0.9953125
1.6952119390007283,0,0,2.9735984619140625,0,0,2.5265625000000003
1.69775754100192,0,0,2.3511060302734372,0,0,1.8375000000000001
1.6993670980009483,0,0,0.93852705078125,0,0,2.3734375
1.7009265619999496,0,0,-0.2059013427734375,0,0,-0.6890625
1.7024663790034538,0,0,1.7717092285156248,0,0,-1.225
1.703952678002679,0,0,2.674323254394531,0,0,0.6125
1.7054971430006844,0,0,1.8124106567382812,0,0,1.7609375
1.7070739220034739,0,0,1.3455413330078123,0,0,1.4546875000000001
1.7085645540028054,0,0,-0.29448680419921874,0,0,-1.0718750000000001
1.7100456490006763,0,0,-0.32082302246093747,0,0,0.22968750000000002
1.7115641700002016,0,0,2.0566192260742184,0,0,2.1437500000000003
1.713118616000429,0,0,1.7956512451171873,0,0,1.8375000000000001
1.7146018040002673,0,0,1.7501614135742187,0,0,1.3015625000000002
1.716360803002317,0,0,0.201112939453125,0,0,-0.6125
1.7179607120015135,0,0,0.43574470214843747,0,0,0.45937500000000003
1.7194963620022463,0,0,2.7365724975585937,0,0,2.296875
1.721141437003098,0,0,1.6304513305664061,0,0,0.9953125
1.722670161001588,0,0,1.4101847778320311,0,0,0.6890625
1.7242526810005074,0,0,-0.7158662963867187,0,0,-1.9140625000000002
1.725796201000776,0,0,0.062249243164062495,0,0,-0.5359375000000001
1.7277237920025073,0,0,2.9640216552734375,0,0,1.9140625000000002
1.7294611430006626,0,0,1.3000515014648437,0,0,2.0671875
1.7309421640020446,0,0,1.0678139404296874,0,0,1.990625
1.7325710540026193,0,0,-1.0654197387695312,0,0,-1.8375000000000001
1.7342026850019465,0,0,2.291250988769531,0,0,-0.6125
1.7357412790006492,0,0,4.000710974121094,0,0,2.8328125
1.7372129110008245,0,0,2.8036101440429686,0,0,3.2921875000000003
1.739051428001403,0,0,1.7669208251953124,0,0,2.75625
1.7405705420023878,0,0,-1.6639701538085936,0,0,-1.990625
1.7420540630009782,0,0,-1.5825672973632812,0,0,-0.765625
1.7435217320016818,0,0,3.6655227416992187,0,0,1.4546875000000001
1.7450761970030726,0,0,4.328716601562499,0,0,2.3734375
1.7469839350014809,0,0,2.0446482177734375,0,0,2.2203125000000004
1.7485084930012817,0,0,-1.5514426757812498,0,0,-2.0671875
1.7502512710016163,0,0,1.2713210815429687,0,0,-0.8421875000000001
1.752355044001888,0,0,4.024652990722656,0,0,1.225
1.7542315420032537,0,0,1.9584569580078124,0,0,1.378125
1.7558040440017066,0,0,0.32082302246093747,0,0,-0.22968750000000002
1.7578139480028767,0,0,-0.8690952026367187,0,0,0.0765625
1.759460579000006,0,0,3.4356793823242184,0,0,2.0671875
1.7612685590029287,0,0,2.868253588867187,0,0,1.6843750000000002
1.7627709500011406,0,0,1.7501614135742187,0,0,1.8375000000000001
1.7642503050010419,0,0,-1.350329736328125,0,0,-1.990625
1.7657711960018787,0,0,-0.6584054565429687,0,0,0.45937500000000003
1.7673988820024533,0,0,2.760514514160156,0,0,2.0671875
1.7688810140025453,0,0,1.7501614135742187,0,0,1.6843750000000002
1.7703530910002883,0,0,1.62805712890625,0,0,1.378125
1.77189759200337,0,0,0.1771709228515625,0,0,-9.034375
1.773535519001598,0,0,-1.70467158203125,0,0,0.0765625
1.775110261001828,0,0,4.264073156738281,0,0,1.7609375
1.7765808940021088,0,0,5.260061047363281,0,0,2.3734375
1.7782456160020956,0,0,1.62805712890625,0,0,1.7609375
1.7798540620024141,0,0,0.3184288208007812,0,0,0.765625
1.7813402870015125,0,0,-1.2282254516601563,0,0,-0.45937500000000003
1.7828788440019707,0,0,0.9457096557617187,0,0,0.22968750000000002
1.7845601220033132,0,0,4.50109912109375,0,0,0.3828125
1.7861184390021663,0,0,2.583343591308594,0,0,1.0718750000000001
1.7875926080014324,0,0,0.23223756103515625,0,0,1.6078125
1.7891576649999479,0,0,-2.418143676757812,0,0,-1.3015625000000002
1.7907496670013643,0,0,-0.35673604736328124,0,0,-1.0718750000000001
1.792224206001265,0,0,3.1555577880859373,0,0,0.153125
1.7937553930023569,0,0,2.834734765625,0,0,1.6843750000000002
1.7954655790017569,0,0,1.2904746948242187,0,0,4.440625000000001
1.7970567650008888,0,0,0.023942016601562498,0,0,1.990625
1.7985396380026941,0,0,0.9720458740234375,0,0,0.22968750000000002
1.8002348230002099,0,0,3.9624037475585934,0,0,0.765625
1.80182089900336,0,0,3.4763808105468748,0,0,1.4546875000000001
1.8033526050021464,0,0,0.97683427734375,0,0,3.9046875
1.8049247540002398,0,0,-0.8044517578125,0,0,-0.765625
1.8069150480005192,0,0,0.42377369384765623,0,0,0.153125
1.8085624560008,0,0,3.342305517578125,0,0,9.264062500000001
1.8100599580029666,0,0,2.461239306640625,0,0,0.6890625
1.81152801600183,0,0,0.2705447875976562,0,0,0.6890625
1.8136457340006018,0,0,-1.8746598999023436,0,0,-9.4171875
1.8152519020004547,0,0,2.89219560546875,0,0,1.8375000000000001
1.8167261270027666,0,0,4.604049792480469,0,0,1.53125
1.818654939001135,0,0,3.6750995483398436,0,0,3.521875
1.8201800160022685,0,0,-0.488417138671875,0,0,0.765625
1.821653185001196,0,0,-1.6448165405273436,0,0,0.0
1.823556664003263,0,0,1.6208745239257811,0,0,1.6078125
1.825642179002898,0,0,3.277662072753906,0,0,1.7609375
1.82755938000264,0,0,1.3215993164062498,0,0,1.3015625000000002
1.829374083001312,0,0,-1.1324573852539062,0,0,0.9953125
1.8308583080033713,0,0,-0.39983167724609375,0,0,0.0
1.8323332920008397,0,0,2.7174188842773437,0,0,0.45937500000000003
1.8338508860033471,0,0,2.5354595581054684,0,0,1.6843750000000002
1.8355678680018173,0,0,1.4939818359375,0,0,3.1390625
1.8371967020029842,0,0,-0.7661445312499999,0,0,2.1437500000000003
1.8386802050008555,0,0,-0.076614453125,0,0,-0.8421875000000001
1.840649943002063,0,0,3.5122938354492184,0,0,0.9953125
1.842254203002085,0,0,2.360682836914062,0,0,0.3828125
1.8437326500024938,0,0,0.8954314208984374,0,0,1.6078125
1.8452880040022137,0,0,-0.5506663818359374,0,0,1.378125
1.8468220800023118,0,0,0.37828386230468747,0,0,832.0812500000001
1.848302305003017,0,0,2.6719290527343746,0,0,0.765625
1.8498207880002155,0,0,1.8746598999023436,0,0,0.9953125
1.8513748080004007,0,0,1.0654197387695312,0,0,2.9093750000000003
1.8528549220027344,0,0,0.42377369384765623,0,0,0.0
1.8543522760010092,0,0,0.9648632690429687,0,0,832.2343750000001
1.8559054450015537,0,0,2.5234885498046875,0,0,1.1484375
1.85746585400193,0,0,2.70065947265625,0,0,2.45
1.858946078002191,0,0,2.530671154785156,0,0,2.75625
1.8604140260031272,0,0,-0.16041151123046873,0,0,830.5500000000001
1.8619801010027004,0,0,-1.13006318359375,0,0,8.498437500000001
1.863501140000153,0,0,0.14125789794921875,0,0,-854.6671875000001
1.864979828002106,0,0,-0.4165910888671875,0,0,828.559375
1.8665014970029006,0,0,-3.5577836669921874,0,0,-6.43125
1.8680811280028138,0,0,-5.1714755859374995,0,0,-6.6609375
1.8695766119999462,0,0,-5.410895751953125,0,0,-8.8046875
1.871152465002524,0,0,-4.517858532714843,0,0,-6.737500000000001
1.8726809860017966,0,0,-4.707000463867187,0,0,-5.0531250000000005
1.8742502470013278,0,0,-6.610390783691406,0,0,828.4062500000001
1.8757462120011041,0,0,-7.024587670898437,0,0,-4.9
1.8772141030021885,0,0,-4.477157104492187,0,0,-4.746875
1.8787875120033277,0,0,-1.9967641845703124,0,0,-2.1437500000000003
1.8807866390015988,0,0,-0.6703764648437499,0,0,-0.30625
1.8826120270023239,0,0,-2.023100402832031,0,0,-0.6890625
1.8841530290010269,0,0,-1.4628572143554686,0,0,-0.6890625
1.8857358630011731,0,0,0.24660277099609373,0,0,0.9187500000000001
1.8872335690030013,0,0,2.24097275390625,0,0,1.8375000000000001
1.8887032020029437,0,0,2.319981408691406,0,0,2.8328125
1.890612051000062,0,0,1.8267758666992187,0,0,3.215625
1.8923852360021556,0,0,1.7884686401367187,0,0,2.0671875
1.8942881040020438,0,0,2.925714428710937,0,0,1.6843750000000002
1.895848828000453,0,0,3.308786694335937,0,0,1.6843750000000002
1.897453569999925,0,0,2.6001030029296874,0,0,1.0718750000000001
1.8989526100012881,0,0,2.31758720703125,0,0,0.6890625
1.9004158160023508,0,0,1.4173673828125,0,0,-9.8
1.9021115750001627,0,0,1.1923124267578125,0,0,0.153125
1.9036580400024832,0,0,0.6727706665039062,0,0,0.153125
1.9053179300026386,0,0,0.3184288208007812,0,0,-9.8
1.9069413570032339,0,0,0.4165910888671875,0,0,0.45937500000000003
1.9084763400023803,0,0,1.0654197387695312,0,0,0.6125
1.91011967400118,0,0,1.0342951171875,0,0,0.8421875000000001
1.9118107300018892,0,0,1.3646949462890625,0,0,0.765625
1.9134152310034551,0,0,1.7094599853515624,0,0,0.5359375000000001
1.9149596770002972,0,0,1.599326708984375,0,0,1.53125
1.9164261060032004,0,0,1.867477294921875,0,0,0.6890625
1.9179195710021304,0,0,1.5011644409179687,0,0,0.6125
1.9194290550003643,0,0,1.43652099609375,0,0,0.9187500000000001
1.9209733530005906,0,0,1.235408056640625,0,0,0.9187500000000001
1.9224443000020983,0,0,1.20667763671875,0,0,0.9953125
1.9239075069999672,0,0,1.235408056640625,0,0,0.9953125
1.9254558230022667,0,0,1.22583125,0,0,1.1484375
1.9270038810027472,0,0,1.3814543579101561,0,0,0.9187500000000001
1.928475309003261,0,0,1.5514426757812498,0,0,1.0718750000000001
1.9299386640013836,0,0,1.6208745239257811,0,0,0.9953125
1.9314467399999558,0,0,1.4508862060546874,0,0,0.6125
1.9336988460017892,0,0,1.4341267944335936,0,0,0.5359375000000001
1.935257551001996,0,0,1.5155296508789062,0,0,1.225
1.9367527940012224,0,0,1.3814543579101561,0,0,0.3828125
1.9384045350016095,0,0,1.37906015625,0,0,0.6125
1.9402880520028702,0,0,1.0917559570312498,0,0,0.30625
1.9419137010008853,0,0,1.0630255371093749,0,0,0.6125
1.943907365002815,0,0,0.948103857421875,0,0,0.6125
1.9455585140021867,0,0,1.3766659545898436,0,0,1.1484375
1.9471027190011228,0,0,1.5490484741210937,0,0,1.0718750000000001
1.9493369910014735,0,0,1.9201497314453124,0,0,1.3015625000000002
1.950978381002642,0,0,1.3958195678710936,0,0,0.9187500000000001
1.952472328001022,0,0,1.2737152832031249,0,0,0.6125
1.9540962179999042,0,0,1.2952630981445312,0,0,0.0765625
1.955685404001997,0,0,1.369483349609375,0,0,0.9953125
1.9571817590003775,0,0,1.467645617675781,0,0,0.30625
1.9587522050023836,0,0,1.3096283081054687,0,0,0.45937500000000003
1.9603059840010246,0,0,1.0534487304687499,0,0,0.9187500000000001
1.961965633003274,0,0,1.0366893188476562,0,0,1.1484375
1.9635106530004123,0,0,0.9624690673828125,0,0,0.6890625
1.965031285002624,0,0,0.9313444458007812,0,0,0.6125
1.9666811189999862,0,0,1.5322890624999999,0,0,0.0765625
1.9682619720006187,0,0,1.5849614990234373,0,0,1.0718750000000001
1.9697479189999285,0,0,1.9823989746093749,0,0,1.4546875000000001
1.9713663830007135,0,0,1.4820108276367188,0,0,1.1484375
1.9729121630007285,0,0,1.3192051147460937,0,0,0.5359375000000001
1.9743927390009048,0,0,1.3192051147460937,0,0,0.8421875000000001
1.9759821850020671,0,0,1.5179238525390624,0,0,1.225
1.977527335002378,0,0,1.7190367919921874,0,0,0.6125
1.9789989310011151,0,0,1.6232687255859375,0,0,0.6890625
1.9805921170009242,0,0,1.4772224243164063,0,0,0.765625
1.9821823410020443,0,0,0.9911994873046874,0,0,0.6125
1.9837011200033885,0,0,0.9911994873046874,0,0,0.5359375000000001
1.9852530670032138,0,0,1.0582371337890624,0,0,0.5359375000000001
1.9869083640005556,0,0,1.2737152832031249,0,0,0.0
1.9885375310004747,0,0,1.4125789794921875,0,0,0.765625
1.990052644003299,0,0,1.4700398193359374,0,0,1.225
1.9915420170000289,0,0,1.2904746948242187,0,0,1.225
1.9931032780004898,0,0,1.2497732666015624,0,0,0.45937500000000003
1.9946325580021949,0,0,1.4437036010742186,0,0,0.765625
1.996231411001645,0,0,1.5490484741210937,0,0,1.3015625000000002
1.9977970050022122,0,0,1.5873557006835937,0,0,0.8421875000000001
1.9994793950027088,0,0,1.7334020019531249,0,0,0.8421875000000001
2.0010909700031334,0,0,1.8052280517578123,0,0,0.6890625
2.0026788040013344,0,0,1.3814543579101561,0,0,0.6125
2.004207325000607,0,0,1.2856862915039062,0,0,0.3828125
2.0058072520005226,0,0,1.1611878051757811,0,0,-852.8296875000001
2.007388902002276,0,0,1.350329736328125,0,0,-9.8
2.0089042370018433,0,0,1.24498486328125,0,0,0.3828125
2.0105019610018644,0,0,1.4341267944335936,0,0,0.6125
2.012041092002619,0,0,1.1348515869140625,0,0,0.6890625
2.013549780000176,0,0,1.0342951171875,0,0,0.765625
2.0151396880028187,0,0,1.0893617553710937,0,0,0.6125
2.016696431001037,0,0,1.209071838378906,0,0,0.9953125
2.0181730820004304,0,0,1.407790576171875,0,0,0.9953125
2.01971063900055,0,0,1.350329736328125,0,0,0.765625
2.021306103000825,0,0,1.3814543579101561,0,0,0.8421875000000001
2.022933419000765,0,0,1.4867992309570313,0,0,1.3015625000000002
2.024451365999994,0,0,1.4508862060546874,0,0,1.0718750000000001
2.0260527370010095,0,0,1.458068811035156,0,0,1.0718750000000001
2.027597535001405,0,0,1.6927005737304686,0,0,0.30625
2.0290688530003536,0,0,1.7645266235351562,0,0,1.3015625000000002
2.0310146840020025,0,0,1.8028338500976562,0,0,1.378125
2.0325853700014704,0,0,1.3383587280273437,0,0,0.8421875000000001
2.034064910003508,0,0,1.2114660400390624,0,0,0.9953125
2.0355311160019482,0,0,1.20667763671875,0,0,0.30625
2.037131525001314,0,0,1.3287819213867187,0,0,-8.957812500000001
2.0386743970011594,0,0,1.35990654296875,0,0,0.9953125
2.0401602890015056,0,0,1.3646949462890625,0,0,0.45937500000000003
2.0417039940002724,0,0,1.209071838378906,0,0,-9.034375
2.04326036600105,0,0,1.180341418457031,0,0,0.765625
2.0447953310031153,0,0,0.9959878906249999,0,0,0.5359375000000001
2.0463026670004183,0,0,1.2018892333984375,0,0,0.6890625
2.048191906000284,0,0,1.4604630126953124,0,0,0.45937500000000003
2.049838943003124,0,0,1.3742717529296875,0,0,0.765625
2.0513539270032197,0,0,1.3958195678710936,0,0,0.9187500000000001
2.05282365200037,0,0,1.35990654296875,0,0,1.225
2.0547171870020975,0,0,1.3862427612304686,0,0,0.765625
2.056286485003511,0,0,1.4149731811523436,0,0,1.4546875000000001
2.0577797100013413,0,0,1.4221557861328125,0,0,1.1484375
2.0601874610001687,0,0,1.5634136840820312,0,0,0.9187500000000001
2.062387160000071,0,0,1.4149731811523436,0,0,0.3828125
2.0642970470034925,0,0,1.3742717529296875,0,0,0.6890625
2.066231748001883,0,0,1.3263877197265623,0,0,1.1484375
2.067844582001271,0,0,1.2713210815429687,0,0,0.9953125
2.0694599540001946,0,0,1.3335703247070312,0,0,0.6890625
2.0711800280005264,0,0,1.5251064575195312,0,0,0.6890625
2.0728671760007273,0,0,1.2425906616210938,0,0,0.6890625
2.074854247002804,0,0,1.1085153686523437,0,0,1.1484375
2.0766132660028234,0,0,1.1707646118164061,0,0,0.6890625
2.0783152840012917,0,0,1.3862427612304686,0,0,0.22968750000000002
2.079887638003129,0,0,1.4173673828125,0,0,0.765625
2.081799987001432,0,0,1.4987702392578124,0,0,1.3015625000000002
2.0833586560002004,0,0,1.3479355346679687,0,0,1.3015625000000002
2.0849789530002454,0,0,1.2808978881835937,0,0,0.8421875000000001
2.0865482879999036,0,0,1.3000515014648437,0,0,0.9953125
2.088227251002536,0,0,1.484405029296875,0,0,0.9953125
2.0898801220027963,0,0,1.4413093994140624,0,0,1.0718750000000001
2.0914450870004657,0,0,1.6927005737304686,0,0,0.9187500000000001
2.0931354950007517,0,0,1.3335703247070312,0,0,0.6890625
2.094686089003517,0,0,1.3072341064453123,0,0,0.5359375000000001
2.0963720710024063,0,0,1.1659762084960936,0,0,0.9953125
2.098494511003082,0,0,1.4437036010742186,0,0,0.22968750000000002
2.100192659003369,0,0,1.446097802734375,0,0,0.6125
2.101861140999972,0,0,1.7118541870117185,0,0,1.3015625000000002
2.103517734001798,0,0,1.199495031738281,0,0,1.1484375
2.105193198000052,0,0,1.2378022583007813,0,0,0.8421875000000001
2.106952716003434,0,0,1.2952630981445312,0,0,0.9187500000000001
2.108690438002668,0,0,1.369483349609375,0,0,0.45937500000000003
2.1104309740003373,0,0,1.3048399047851562,0,0,0.9187500000000001
2.1121248449999257,0,0,1.5586252807617187,0,0,1.3015625000000002
2.1138601410020783,0,0,1.0773907470703123,0,0,1.378125
2.115421217000403,0,0,1.199495031738281,0,0,0.8421875000000001
2.1169241269999475,0,0,1.1348515869140625,0,0,0.8421875000000001
2.118548202000966,0,0,1.369483349609375,0,0,0.765625
2.1200654260028386,0,0,1.4700398193359374,0,0,1.225
2.121595150001667,0,0,1.4604630126953124,0,0,0.8421875000000001
2.123181929000566,0,0,1.3934253662109375,0,0,0.6890625
2.124704006000684,0,0,1.3479355346679687,0,0,0.5359375000000001
2.126335229000688,0,0,1.3168109130859373,0,0,0.3828125
2.127955156000098,0,0,1.1061211669921875,0,0,0.3828125
2.1295333610032685,0,0,1.5442600708007812,0,0,0.6125
2.130997030002618,0,0,1.4604630126953124,0,0,0.9953125
2.132600272001582,0,0,1.5682020874023437,0,0,1.1484375
2.1342375880012696,0,0,1.3479355346679687,0,0,1.1484375
2.1357060900008946,0,0,1.209071838378906,0,0,1.0718750000000001
2.1371663530007936,0,0,1.3239935180664062,0,0,0.6125
2.138720799001021,0,0,1.4604630126953124,0,0,1.3015625000000002
2.1402370230025554,0,0,1.3718775512695311,0,0,0.6890625
2.1418693940031517,0,0,1.5059528442382812,0,0,0.6125
2.1433628410013625,0,0,1.2521674682617188,0,0,0.45937500000000003
2.145066230001248,0,0,1.2737152832031249,0,0,0.6125
2.1467959890032944,0,0,1.3359645263671873,0,0,0.5359375000000001
2.1482855470021605,0,0,1.3311761230468748,0,0,0.765625
2.149806957000692,0,0,1.4604630126953124,0,0,0.30625
2.1513491440018697,0,0,1.2976572998046874,0,0,0.9187500000000001
2.152965626002697,0,0,1.6400281372070311,0,0,1.0718750000000001
2.1544936099999177,0,0,1.4317325927734375,0,0,1.225
2.1560264640029345,0,0,1.2330138549804688,0,0,1.0718750000000001
2.157534633002797,0,0,1.199495031738281,0,0,1.1484375
2.1593150580010843,0,0,1.4939818359375,0,0,0.765625
2.1608973930015054,0,0,1.618480322265625,0,0,0.6125
2.1624400240034447,0,0,1.5610194824218748,0,0,1.1484375
2.164197450001666,0,0,1.2976572998046874,0,0,0.6890625
2.165830747002474,0,0,1.0965443603515623,0,0,0.6125
2.1674277290003374,0,0,1.2785036865234374,0,0,0.6890625
2.168920899002842,0,0,1.369483349609375,0,0,0.765625
2.1703865120034607,0,0,1.4604630126953124,0,0,0.8421875000000001
2.1720561050024116,0,0,1.3000515014648437,0,0,0.765625
2.173726421002357,0,0,1.3742717529296875,0,0,0.8421875000000001
2.1752260710018163,0,0,1.2928688964843749,0,0,1.0718750000000001
2.176820813001541,0,0,1.3072341064453123,0,0,0.9953125
2.17839148100029,0,0,1.3120225097656248,0,0,0.6890625
2.17986189200019,0,0,1.4101847778320311,0,0,0.153125
2.1813184500024363,0,0,1.3838485595703125,0,0,0.6125
2.182819693000056,0,0,1.5897499023437498,0,0,0.6890625
2.1843665100022918,0,0,1.2713210815429687,0,0,1.0718750000000001
2.1862620820029406,0,0,1.2785036865234374,0,0,0.3828125
2.1877893430028053,0,0,1.3934253662109375,0,0,0.6125
2.1893346600008954,0,0,1.4149731811523436,0,0,1.0718750000000001
2.190854995002155,0,0,1.5753846923828123,0,0,0.9187500000000001
2.1923168870016525,0,0,1.455674609375,0,0,0.6125
2.1938252040017687,0,0,1.4915876342773438,0,0,1.0718750000000001
2.195381409001129,0,0,1.3215993164062498,0,0,1.225
2.196892874002515,0,0,1.3718775512695311,0,0,1.0718750000000001
2.198780798000371,0,0,1.1540052001953125,0,0,0.30625
2.201259753001068,0,0,1.3814543579101561,0,0,0.9187500000000001
2.2028096620015276,0,0,1.455674609375,0,0,0.5359375000000001
2.2043197760031035,0,0,1.1563994018554686,0,0,0.30625
2.2060157940031786,0,0,1.3527239379882812,0,0,0.6890625
2.207482538000477,0,0,1.3120225097656248,0,0,0.30625
2.2092520000005607,0,0,1.3120225097656248,0,0,0.22968750000000002
2.2110392220020003,0,0,1.4245499877929686,0,0,0.8421875000000001
2.2126118160012993,0,0,1.5107412475585937,0,0,0.6125
2.214136040001904,0,0,1.7788918334960937,0,0,0.8421875000000001
2.2156951340002706,0,0,1.4030021728515625,0,0,1.0718750000000001
2.2171852290011884,0,0,1.1827356201171875,0,0,1.0718750000000001
2.218648175999988,0,0,1.2114660400390624,0,0,1.0718750000000001
2.2201845859999594,0,0,1.5035586425781249,0,0,0.45937500000000003
2.221756180002558,0,0,1.5298948608398437,0,0,0.6125
2.2232883120013867,0,0,1.7262193969726563,0,0,0.6125
2.2249148130031244,0,0,1.35990654296875,0,0,0.5359375000000001
2.226489276999928,0,0,1.199495031738281,0,0,0.6125
2.2280334269999003,0,0,1.2306196533203124,0,0,0.45937500000000003
2.229508504002297,0,0,1.3670891479492187,0,0,0.30625
2.2310903940015123,0,0,1.4341267944335936,0,0,0.0
2.232597878002707,0,0,1.2401964599609374,0,0,0.45937500000000003
2.234074566000345,0,0,1.426944189453125,0,0,0.9953125
2.235592623001139,0,0,1.24498486328125,0,0,0.9187500000000001
2.2373028450019774,0,0,1.2138602416992186,0,0,0.765625
2.2391547330007597,0,0,1.3263877197265623,0,0,0.6125
2.240809197002818,0,0,1.438915197753906,0,0,0.0765625
2.242364791,0,0,1.254561669921875,0,0,0.9953125
2.2439051260007545,0,0,1.6424223388671875,0,0,0.9953125
2.245374999001797,0,0,1.2401964599609374,0,0,0.9187500000000001
2.2469250930007547,0,0,1.2665326782226562,0,0,0.8421875000000001
2.248543817000609,0,0,1.2497732666015624,0,0,0.22968750000000002
2.2502539830020396,0,0,1.35990654296875,0,0,1.53125
2.251889855000627,0,0,1.5059528442382812,0,0,0.8421875000000001
2.253601003001677,0,0,1.5346832641601562,0,0,0.5359375000000001
2.255304836002324,0,0,1.218648645019531,0,0,0.6125
2.256819505000749,0,0,1.2425906616210938,0,0,0.765625
2.2584273030006443,0,0,1.3383587280273437,0,0,0.3828125
2.259969082002499,0,0,1.3287819213867187,0,0,0.3828125
2.2614945840032306,0,0,1.5514426757812498,0,0,0.22968750000000002
2.263075086000754,0,0,1.4413093994140624,0,0,0.765625
2.264741827002581,0,0,1.5059528442382812,0,0,1.0718750000000001
2.2662714030011557,0,0,1.4030021728515625,0,0,1.378125
2.267739906001225,0,0,1.2330138549804688,0,0,1.1484375
2.2693649440006993,0,0,1.1851298217773436,0,0,0.9187500000000001
2.2709214270034863,0,0,1.37906015625,0,0,1.1484375
2.272394763000193,0,0,1.43652099609375,0,0,0.9953125
2.2739460240009066,0,0,1.3144167114257812,0,0,0.5359375000000001
2.275465285001701,0,0,1.2976572998046874,0,0,0.30625
2.277375561003282,0,0,1.1324573852539062,0,0,0.3828125
2.2790636170029757,0,0,1.3766659545898436,0,0,0.6890625
2.280618859000242,0,0,1.3455413330078123,0,0,0.9187500000000001
2.2822673600021517,0,0,1.4891934326171874,0,0,0.9187500000000001
2.2838259730015125,0,0,1.4796166259765624,0,0,0.5359375000000001
2.2854166960023576,0,0,1.2425906616210938,0,0,0.9187500000000001
2.28691290200004,0,0,1.3670891479492187,0,0,0.153125
2.2887748450011713,0,0,1.4245499877929686,0,0,0.3828125
2.2903691610008536,0,0,1.419761584472656,0,0,0.9953125
2.2918938120019448,0,0,1.5298948608398437,0,0,0.22968750000000002
2.2934754060006526,0,0,1.3168109130859373,0,0,0.8421875000000001
2.295107647001714,0,0,1.5586252807617187,0,0,1.0718750000000001
2.296630131000711,0,0,1.254561669921875,0,0,0.9953125
2.2981833550002193,0,0,1.2234370483398436,0,0,0.9187500000000001
2.29981305900219,0,0,1.3096283081054687,0,0,0.9953125
2.3013405430028797,0,0,1.438915197753906,0,0,0.9953125
2.302941081001336,0,0,1.467645617675781,0,0,0.6890625
2.3048570980026852,0,0,1.6112977172851561,0,0,0.6890625
2.3064450250021764,0,0,1.2832920898437499,0,0,0.765625
2.308046859001479,0,0,1.2808978881835937,0,0,0.9187500000000001
2.3098044890029996,0,0,1.1420341918945311,0,0,0.9953125
2.3114808590034954,0,0,1.4604630126953124,0,0,0.9187500000000001
2.3130741940003645,0,0,1.484405029296875,0,0,0.765625
2.3147109170022304,0,0,1.5442600708007812,0,0,0.765625
2.316283567000937,0,0,1.2593500732421874,0,0,0.6890625
2.3178178280031716,0,0,1.2689268798828124,0,0,0.45937500000000003
2.3193858670019836,0,0,1.2976572998046874,0,0,0.5359375000000001
2.3209176280033716,0,0,1.2282254516601563,0,0,0.3828125
2.3225117400033923,0,0,1.4724340209960938,0,0,0.6125
2.3241242970034364,0,0,1.3934253662109375,0,0,0.9187500000000001
2.3256654659999185,0,0,1.448492004394531,0,0,0.0765625
2.3271485050026968,0,0,1.3024457031249999,0,0,1.225
2.3288057280005887,0,0,1.2665326782226562,0,0,0.9953125
2.330402451003465,0,0,1.2880804931640624,0,0,1.0718750000000001
2.3318720280003618,0,0,1.4341267944335936,0,0,0.30625
2.333447289001924,0,0,1.5227122558593749,0,0,0.765625
2.335098364001169,0,0,1.4317325927734375,0,0,0.765625
2.3366713100003835,0,0,1.1947066284179686,0,0,0.8421875000000001
2.338166182002169,0,0,1.3311761230468748,0,0,0.45937500000000003
2.3398135350034863,0,0,1.3431471313476562,0,0,0.9187500000000001
2.341714440000942,0,0,1.4125789794921875,0,0,1.4546875000000001
2.343210684000951,0,0,1.4030021728515625,0,0,0.9953125
2.344808888003172,0,0,1.2473790649414063,0,0,0.6890625
2.346618073002901,0,0,1.2761094848632812,0,0,0.5359375000000001
2.348166815001605,0,0,1.2521674682617188,0,0,0.6890625
2.349639929001569,0,0,1.3215993164062498,0,0,0.6125
2.3512391340009344,0,0,1.216254443359375,0,0,0.6890625
2.3527798950017313,0,0,1.419761584472656,0,0,0.0765625
2.3542521750023297,0,0,1.455674609375,0,0,0.6890625
2.355770789003145,0,0,1.5418658691406248,0,0,0.9953125
2.357539270000416,0,0,1.2928688964843749,0,0,0.8421875000000001
2.359016087000782,0,0,1.1133037719726562,0,0,0.765625
2.3604744600015692,0,0,1.24498486328125,0,0,0.6125
2.362046091002412,0,0,1.3215993164062498,0,0,1.225
2.3635793710018334,0,0,1.3527239379882812,0,0,1.0718750000000001
2.365273742001591,0,0,1.5418658691406248,0,0,0.765625
2.367137184002786,0,0,1.2378022583007813,0,0,0.6890625
2.368662168002629,0,0,1.2976572998046874,0,0,0.765625
2.3701348190006684,0,0,1.254561669921875,0,0,0.6125
2.371594025000377,0,0,1.37906015625,0,0,0.6125
2.373178045003442,0,0,1.5011644409179687,0,0,-9.5703125
2.3747241950004536,0,0,1.3168109130859373,0,0,0.9953125
2.376190735001728,0,0,1.6711527587890624,0,0,0.765625
2.377721515000303,0,0,1.3455413330078123,0,0,0.9953125
2.3793447190000734,0,0,1.3431471313476562,0,0,0.9187500000000001
2.380879221000214,0,0,1.35990654296875,0,0,0.765625
2.3823513720017218,0,0,1.39821376953125,0,0,1.1484375
2.3839048920017376,0,0,1.5227122558593749,0,0,0.8421875000000001
2.385561986000539,0,0,1.6328455322265625,0,0,0.765625
2.387093413002731,0,0,1.5298948608398437,0,0,0.3828125
2.3890141700030654,0,0,1.3000515014648437,0,0,0.5359375000000001
2.3905864500011376,0,0,1.2928688964843749,0,0,0.3828125
2.3920604340019054,0,0,1.3646949462890625,0,0,0.9953125
2.39355099200111,0,0,1.4772224243164063,0,0,0.6890625
2.3955463220008824,0,0,1.484405029296875,0,0,0.765625
2.397144583002955,0,0,1.467645617675781,0,0,0.6125
2.3986317520029843,0,0,1.4053963745117186,0,0,0.6125
2.4000937180026085,0,0,1.3646949462890625,0,0,0.8421875000000001
2.401656404003006,0,0,1.2832920898437499,0,0,0.6890625
2.403186629002448,0,0,1.3958195678710936,0,0,0.0
2.4046482240009937,0,0,1.429338391113281,0,0,0.9953125
2.4061138190008933,0,0,1.4437036010742186,0,0,1.0718750000000001
2.407642340000166,0,0,1.2138602416992186,0,0,0.9187500000000001
2.40917771200111,0,0,1.5298948608398437,0,0,0.3828125
2.4106729550003365,0,0,1.35990654296875,0,0,0.6125
2.4121415500012517,0,0,1.2713210815429687,0,0,0.6125
2.413666127002216,0,0,1.4820108276367188,0,0,0.6890625
2.415337164002267,0,0,1.458068811035156,0,0,0.8421875000000001
2.4168279810000968,0,0,1.5538368774414062,0,0,0.9953125
2.418293447000906,0,0,1.3455413330078123,0,0,1.0718750000000001
2.419753579000826,0,0,1.254561669921875,0,0,0.765625
2.421299933001137,0,0,1.218648645019531,0,0,0.6890625
2.4228125830013596,0,0,1.4341267944335936,0,0,1.225
2.4242729940015124,0,0,1.37906015625,0,0,0.9953125
2.4258922540029744,0,0,1.2904746948242187,0,0,0.9953125
2.4274535889999242,0,0,1.3335703247070312,0,0,0.8421875000000001
2.428936573000101,0,0,1.2330138549804688,0,0,1.1484375
2.4304019830015022,0,0,1.3575123413085937,0,0,0.8421875000000001
2.431947521999973,0,0,1.139639990234375,0,0,0.8421875000000001
2.433561264002492,0,0,1.4341267944335936,0,0,0.22968750000000002
2.435362170002918,0,0,1.3239935180664062,0,0,0.9187500000000001
2.437022893001995,0,0,1.6304513305664061,0,0,1.0718750000000001
2.438781763001316,0,0,1.4030021728515625,0,0,1.225
2.4402630060030788,0,0,1.2761094848632812,0,0,0.6890625
2.442066061001242,0,0,1.3383587280273437,0,0,0.6125
2.443742765000934,0,0,1.4628572143554686,0,0,0.153125
2.445299081002304,0,0,1.3000515014648437,0,0,0.765625
2.4469108789999154,0,0,1.6400281372070311,0,0,1.0718750000000001
2.4486374340012844,0,0,1.2665326782226562,0,0,0.9953125
2.4502165100020648,0,0,1.2114660400390624,0,0,0.45937500000000003
2.4517697710034554,0,0,1.3670891479492187,0,0,0.9187500000000001
2.4536644170002546,0,0,1.407790576171875,0,0,0.30625
2.4552762700004678,0,0,1.5753846923828123,0,0,0.8421875000000001
2.456796568003483,0,0,1.6208745239257811,0,0,1.0718750000000001
2.458266090001416,0,0,1.467645617675781,0,0,0.8421875000000001
2.460130329000094,0,0,1.448492004394531,0,0,0.5359375000000001
2.4617003860003024,0,0,1.2234370483398436,0,0,0.6890625
2.4631892400029756,0,0,1.2617442749023438,0,0,0.6125
2.46464676100004,0,0,1.5801730957031248,0,0,0.6890625
2.4661932450035238,0,0,1.4101847778320311,0,0,0.9187500000000001
2.4677148390001094,0,0,1.4173673828125,0,0,0.9953125
2.4692890080004872,0,0,1.3239935180664062,0,0,0.9953125
2.4708938610019686,0,0,1.1827356201171875,0,0,0.765625
2.472444807001011,0,0,1.2497732666015624,0,0,0.6890625
2.4739366240028176,0,0,1.2330138549804688,0,0,0.9187500000000001
2.4753972930011514,0,0,1.3814543579101561,0,0,0.6125
2.4769320920022437,0,0,1.465251416015625,0,0,0.6890625
2.478452464001748,0,0,1.3000515014648437,0,0,0.6890625
2.479905708001752,0,0,1.5059528442382812,0,0,0.6890625
2.4814387100013846,0,0,1.3311761230468748,0,0,0.6125
2.4829825260021607,0,0,1.24498486328125,0,0,0.765625
2.4848098030015535,0,0,1.5275006591796874,0,0,0.5359375000000001
2.486373101000936,0,0,1.484405029296875,0,0,1.1484375
2.4879392880029627,0,0,1.7573440185546874,0,0,0.9953125
2.489451531000668,0,0,1.2904746948242187,0,0,1.0718750000000001
2.4909192740014987,0,0,1.2425906616210938,0,0,0.9187500000000001
2.4924261100022704,0,0,1.2856862915039062,0,0,1.0718750000000001
2.4941785350019927,0,0,1.4628572143554686,0,0,0.6125
2.495723222000379,0,0,1.5418658691406248,0,0,0.765625
2.497196262000216,0,0,1.5203180541992187,0,0,0.5359375000000001
2.4987321340013295,0,0,1.235408056640625,0,0,0.6125
2.500346320000972,0,0,1.1707646118164061,0,0,0.5359375000000001
2.501878545001091,0,0,1.3096283081054687,0,0,0.22968750000000002
2.503347918001964,0,0,1.3958195678710936,0,0,0.765625
2.5049314930001856,0,0,1.4437036010742186,0,0,0.153125
2.506510735001939,0,0,1.2713210815429687,0,0,0.765625
2.507979405003425,0,0,1.6711527587890624,0,0,0.8421875000000001
2.509941328000423,0,0,1.3431471313476562,0,0,1.3015625000000002
2.51155342200218,0,0,1.1947066284179686,0,0,0.6890625
2.5130375350017857,0,0,1.0917559570312498,0,0,0.9187500000000001
2.514502556001389,0,0,1.4796166259765624,0,0,1.0718750000000001
2.516037558001699,0,0,1.4724340209960938,0,0,0.9187500000000001
2.5175802640005713,0,0,1.5083470458984374,0,0,0.765625
2.5190460630001326,0,0,1.4030021728515625,0,0,0.6890625
2.5205472500019823,0,0,1.3048399047851562,0,0,0.6125
2.5222117690027517,0,0,1.3670891479492187,0,0,0.8421875000000001
2.523685476000537,0,0,1.2665326782226562,0,0,0.45937500000000003
2.5251435530008166,0,0,1.458068811035156,0,0,0.153125
2.5266583880002145,0,0,1.3096283081054687,0,0,0.8421875000000001
2.5281967790033377,0,0,1.618480322265625,0,0,0.9953125
2.529712189003476,0,0,1.2306196533203124,0,0,0.9953125
2.531395115001942,0,0,1.2138602416992186,0,0,0.8421875000000001
2.533924402003322,0,0,1.3359645263671873,0,0,0.5359375000000001
2.5358554930026003,0,0,1.6017209106445311,0,0,0.6125
2.538096468000731,0,0,1.5203180541992187,0,0,0.765625
2.540089447000355,0,0,1.2234370483398436,0,0,1.0718750000000001
2.541967260000092,0,0,1.3431471313476562,0,0,0.5359375000000001
2.544121848000941,0,0,1.2425906616210938,0,0,0.5359375000000001
2.5460864560009213,0,0,1.5083470458984374,0,0,0.6890625
2.548101583000971,0,0,1.37906015625,0,0,0.6890625
2.5498092860034376,0,0,1.1875240234375,0,0,0.6125
2.551474212999892,0,0,1.2114660400390624,0,0,0.6890625
2.5532039160025306,0,0,1.3479355346679687,0,0,0.9187500000000001
2.5553328930000134,0,0,1.3958195678710936,0,0,0.30625
2.5570278570012306,0,0,1.5011644409179687,0,0,0.8421875000000001
2.5586128020004253,0,0,1.5634136840820312,0,0,0.765625
2.560211137002625,0,0,1.197100830078125,0,0,0.765625
2.561834934000217,0,0,1.180341418457031,0,0,0.8421875000000001
2.5638170430029277,0,0,1.199495031738281,0,0,0.765625
2.565826502002892,0,0,1.4724340209960938,0,0,0.0
2.567327616001421,0,0,1.3646949462890625,0,0,0.6125
2.5688834880020295,0,0,1.5370774658203123,0,0,1.0718750000000001
2.5704804890010564,0,0,1.2832920898437499,0,0,0.9187500000000001
2.57209658300053,0,0,1.3646949462890625,0,0,0.9187500000000001
2.573656659002154,0,0,1.2497732666015624,0,0,1.0718750000000001
2.5752141420016414,0,0,1.3479355346679687,0,0,0.9953125
2.5768712349999987,0,0,1.4987702392578124,0,0,0.8421875000000001
2.578520921000745,0,0,1.5897499023437498,0,0,1.1484375
2.5800145900029747,0,0,1.2401964599609374,0,0,0.765625
2.58165779400224,0,0,1.24498486328125,0,0,0.8421875000000001
2.583228963001602,0,0,1.3623007446289062,0,0,0.6125
2.5849155180003436,0,0,1.2641384765625,0,0,0.30625
2.5866562030023488,0,0,1.4963760375976562,0,0,0.6890625
2.5882574820025184,0,0,1.2761094848632812,0,0,0.45937500000000003
2.589739040002314,0,0,1.4532804077148436,0,0,0.8421875000000001
2.591296283000702,0,0,1.2497732666015624,0,0,0.9953125
2.5928389330001664,0,0,1.2832920898437499,0,0,0.6125
2.5943169350030075,0,0,1.3192051147460937,0,0,0.6890625
2.5958666410006117,0,0,1.5011644409179687,0,0,0.765625
2.5974088840011973,0,0,1.369483349609375,0,0,0.6125
2.59887136800171,0,0,1.5275006591796874,0,0,0.8421875000000001
2.6003393520004465,0,0,1.2282254516601563,0,0,0.6125
2.6018999090010766,0,0,1.2569558715820313,0,0,0.6125
2.6034218370004965,0,0,1.4341267944335936,0,0,0.8421875000000001
2.6048933770034637,0,0,1.369483349609375,0,0,0.765625
2.6065297109998937,0,0,1.5251064575195312,0,0,0.5359375000000001
2.608132231001946,0,0,1.4772224243164063,0,0,0.9953125
2.6096893810026813,0,0,1.618480322265625,0,0,0.9187500000000001
2.611177161001251,0,0,1.3479355346679687,0,0,0.9187500000000001
2.6127529960031097,0,0,1.2401964599609374,0,0,0.765625
2.6143197380006313,0,0,1.1635820068359375,0,0,0.6890625
2.6159361280006124,0,0,1.39821376953125,0,0,0.6890625
2.6177169420006976,0,0,1.5490484741210937,0,0,0.765625
2.61928955500116,0,0,1.5203180541992187,0,0,0.9187500000000001
2.620973111002968,0,0,1.2808978881835937,0,0,0.8421875000000001
2.6226080740016187,0,0,1.2330138549804688,0,0,0.765625
2.624082725000335,0,0,1.2713210815429687,0,0,0.45937500000000003
2.6255920240000705,0,0,1.37906015625,0,0,0.3828125
2.6272332280022965,0,0,1.467645617675781,0,0,0.6890625
2.628770749000978,0,0,1.3168109130859373,0,0,0.765625
2.630239251000603,0,0,1.5610194824218748,0,0,0.9187500000000001
2.631806197001424,0,0,1.3048399047851562,0,0,0.9953125
2.6334765130013693,0,0,1.2497732666015624,0,0,0.8421875000000001
2.6349970150004083,0,0,1.0726023437499999,0,0,1.0718750000000001
2.6366400530023384,0,0,1.458068811035156,0,0,0.5359375000000001
2.638205925002694,0,0,1.66636435546875,0,0,0.6890625
2.6397729820018867,0,0,1.7405846069335937,0,0,0.9187500000000001
2.6412795030009875,0,0,1.3455413330078123,0,0,0.6125
2.6427525610015437,0,0,1.2880804931640624,0,0,0.3828125
2.6442616370004544,0,0,1.3766659545898436,0,0,0.22968750000000002
2.645904490000248,0,0,1.3311761230468748,0,0,0.8421875000000001
2.6473797890030255,0,0,1.446097802734375,0,0,0.6125
2.648835625001084,0,0,1.4245499877929686,0,0,0.765625
2.650511125000776,0,0,1.5035586425781249,0,0,1.225
2.6526250100032485,0,0,1.2497732666015624,0,0,0.6125
2.654241696000099,0,0,1.1731588134765625,0,0,0.6125
2.655717736000952,0,0,1.4053963745117186,0,0,0.6890625
2.657286515001033,0,0,1.4604630126953124,0,0,0.153125
2.6588048320008966,0,0,1.3239935180664062,0,0,0.8421875000000001
2.660268094001367,0,0,1.455674609375,0,0,0.9187500000000001
2.6618440770034795,0,0,1.2401964599609374,0,0,0.765625
2.6633914490012103,0,0,1.2234370483398436,0,0,0.6125
2.665105782001774,0,0,1.2330138549804688,0,0,0.6125
2.6667175800030236,0,0,1.369483349609375,0,0,1.225
2.668332729001122,0,0,1.438915197753906,0,0,0.6890625
2.670113376003428,0,0,1.3814543579101561,0,0,0.8421875000000001
2.6716528230026597,0,0,1.2593500732421874,0,0,0.6890625
2.673155714001041,0,0,1.2401964599609374,0,0,0.6125
2.6747262150020106,0,0,1.3766659545898436,0,0,0.765625
2.6762104030021874,0,0,1.1276689819335937,0,0,0.5359375000000001
2.6776854430027015,0,0,1.419761584472656,0,0,0.3828125
2.6793409250021796,0,0,1.455674609375,0,0,0.6890625
2.680925445001776,0,0,1.7501614135742187,0,0,0.9953125
2.6824316320016806,0,0,1.2952630981445312,0,0,1.0718750000000001
2.684025226000813,0,0,1.1947066284179686,0,0,0.6890625
2.685614431000431,0,0,1.3096283081054687,0,0,1.0718750000000001
2.687290487003338,0,0,1.4772224243164063,0,0,1.6078125
2.6887686010013567,0,0,1.5394716674804687,0,0,1.1484375
2.690227530001721,0,0,1.3048399047851562,0,0,0.6890625
2.6917684570034908,0,0,1.2856862915039062,0,0,0.6890625
2.6935846600026707,0,0,1.3335703247070312,0,0,0.45937500000000003
2.695133829001861,0,0,1.3862427612304686,0,0,0.5359375000000001
2.696741978001228,0,0,1.3096283081054687,0,0,0.45937500000000003
2.698380812002142,0,0,1.4820108276367188,0,0,0.6125
2.6999792020033055,0,0,1.2976572998046874,0,0,0.9187500000000001
2.701752627002861,0,0,1.3718775512695311,0,0,1.0718750000000001
2.703374980002991,0,0,1.2138602416992186,0,0,1.225
2.7049265560017375,0,0,1.2497732666015624,0,0,0.8421875000000001
2.70657561200278,0,0,1.2330138549804688,0,0,0.5359375000000001
2.708049041000777,0,0,1.3024457031249999,0,0,0.22968750000000002
2.7095297660016513,0,0,1.4772224243164063,0,0,0.9187500000000001
2.7110811750026187,0,0,1.5466542724609373,0,0,1.0718750000000001
2.7126520650017483,0,0,1.1707646118164061,0,0,0.8421875000000001
2.7143027700003586,0,0,1.1947066284179686,0,0,0.765625
2.71586415999991,0,0,1.4030021728515625,0,0,0.30625
2.7174380510004994,0,0,1.5179238525390624,0,0,0.8421875000000001
2.718911368003319,0,0,1.4963760375976562,0,0,0.6125
2.7204147590018692,0,0,1.3910311645507811,0,0,0.765625
2.722120963000634,0,0,1.4245499877929686,0,0,0.6125
2.7238290370005416,0,0,1.3383587280273437,0,0,1.378125
2.725454149000143,0,0,1.3910311645507811,0,0,0.45937500000000003
2.727028595003503,0,0,1.3766659545898436,0,0,0.6890625
2.728560338000534,0,0,1.5658078857421873,0,0,0.0
2.730034322001302,0,0,1.467645617675781,0,0,0.9187500000000001
2.731500028003211,0,0,1.637633935546875,0,0,1.1484375
2.733077715001855,0,0,1.3287819213867187,0,0,0.765625
2.7346025510014442,0,0,1.2378022583007813,0,0,0.30625
2.736070961000223,0,0,1.3551181396484375,0,0,0.30625
2.737587296000129,0,0,1.39821376953125,0,0,0.765625
2.739148964003107,0,0,1.6639701538085936,0,0,0.8421875000000001
2.740637708000577,0,0,1.3359645263671873,0,0,0.8421875000000001
2.7421053210018727,0,0,1.5705962890624998,0,0,1.1484375
2.743620971999917,0,0,1.3766659545898436,0,0,1.1484375
2.7451683250001224,0,0,1.2306196533203124,0,0,0.765625
2.74665018000087,0,0,1.209071838378906,0,0,0.765625
2.7481120900010865,0,0,1.4437036010742186,0,0,1.1484375
2.749706517002778,0,0,1.4317325927734375,0,0,1.0718750000000001
2.7512522600009106,0,0,1.2689268798828124,0,0,0.765625
2.7527232810025453,0,0,1.3431471313476562,0,0,0.6890625
2.754193283002678,0,0,1.3048399047851562,0,0,1.0718750000000001
2.7557095080010185,0,0,1.3215993164062498,0,0,0.9953125
2.7572595840028953,0,0,1.3383587280273437,0,0,0.8421875000000001
2.7587599380021857,0,0,1.4245499877929686,0,0,0.6890625
2.7602335330011556,0,0,1.5083470458984374,0,0,0.8421875000000001
2.7617490910015476,0,0,1.5777788940429687,0,0,0.8421875000000001
2.7632995000021765,0,0,1.2976572998046874,0,0,0.5359375000000001
2.764785336003115,0,0,1.2761094848632812,0,0,0.45937500000000003
2.7662980790009897,0,0,1.350329736328125,0,0,0.45937500000000003
2.767814785001974,0,0,1.2473790649414063,0,0,0.9187500000000001
2.7696537650008395,0,0,1.5370774658203123,0,0,0.5359375000000001
2.77122159999999,0,0,1.5298948608398437,0,0,0.765625
2.772690287001751,0,0,1.5107412475585937,0,0,0.765625
2.7744183980030357,0,0,1.3742717529296875,0,0,0.9187500000000001
2.775960789000237,0,0,1.1635820068359375,0,0,0.6125
2.777568624002015,0,0,1.3239935180664062,0,0,0.45937500000000003
2.779273568001372,0,0,1.4437036010742186,0,0,0.0765625
2.780907662003301,0,0,1.4724340209960938,0,0,0.765625
2.782400646003225,0,0,1.5897499023437498,0,0,1.0718750000000001
2.783863315002236,0,0,1.2282254516601563,0,0,0.6890625
2.785366984000575,0,0,1.2378022583007813,0,0,0.30625
2.7869498930012924,0,0,1.3479355346679687,0,0,0.45937500000000003
2.7885335050013964,0,0,1.3551181396484375,0,0,0.45937500000000003
2.7901428210025188,0,0,1.4867992309570313,0,0,0.765625
2.79173011900275,0,0,1.3239935180664062,0,0,0.6890625
2.793217121001362,0,0,1.5921441040039062,0,0,0.765625
2.7946814200004155,0,0,1.3311761230468748,0,0,1.1484375
2.796200515000237,0,0,1.0965443603515623,0,0,0.8421875000000001
2.7979206630006956,0,0,1.1875240234375,0,0,1.225
2.7995716640034516,0,0,1.467645617675781,0,0,0.6125
2.8011457020002126,0,0,1.4891934326171874,0,0,0.9953125
2.802651649002655,0,0,1.5346832641601562,0,0,1.0718750000000001
2.804206040000281,0,0,1.0989385620117187,0,0,0.8421875000000001
2.805721690001519,0,0,1.3120225097656248,0,0,0.6890625
2.807178600000043,0,0,1.429338391113281,0,0,0.6125
2.8086608440025884,0,0,1.4437036010742186,0,0,0.9187500000000001
2.810254067000642,0,0,1.5275006591796874,0,0,0.5359375000000001
2.811793088003469,0,0,1.3072341064453123,0,0,0.9187500000000001
2.813344608002808,0,0,1.6615759521484375,0,0,0.9187500000000001
2.814974405002431,0,0,1.2617442749023438,0,0,1.1484375
2.8166291460001958,0,0,1.3048399047851562,0,0,0.9953125
2.8181328890022996,0,0,1.3407529296874998,0,0,1.1484375
2.819588874001056,0,0,1.3359645263671873,0,0,0.8421875000000001
2.821104265000031,0,0,1.458068811035156,0,0,0.8421875000000001
2.8226950070020393,0,0,1.5658078857421873,0,0,0.6890625
2.8241636020029546,0,0,1.3168109130859373,0,0,0.765625
2.8256245680022403,0,0,1.2713210815429687,0,0,0.9953125
2.827208624999912,0,0,1.1228805786132812,0,0,0.9187500000000001
2.8287527190004766,0,0,1.2880804931640624,0,0,0.6125
2.8302235920018575,0,0,1.4820108276367188,0,0,0.3828125
2.8317438540034345,0,0,1.3048399047851562,0,0,0.765625
2.833371540000371,0,0,1.4963760375976562,0,0,0.9953125
2.834966467002232,0,0,1.2713210815429687,0,0,1.1484375
2.8364704880004865,0,0,1.3359645263671873,0,0,0.8421875000000001
2.8380786740017356,0,0,1.2761094848632812,0,0,0.765625
2.839593306001916,0,0,1.5011644409179687,0,0,1.225
2.8410559380026825,0,0,1.649604943847656,0,0,0.765625
2.8425582550007675,0,0,1.455674609375,0,0,0.6890625
2.844098905003193,0,0,1.6711527587890624,0,0,0.6890625
2.8456832770025358,0,0,1.3742717529296875,0,0,0.9953125
2.8471648170016124,0,0,1.3742717529296875,0,0,0.9187500000000001
2.8486758930012,0,0,1.3742717529296875,0,0,0.765625
2.8502172650005377,0,0,1.458068811035156,0,0,0.5359375000000001
2.8517422300028556,0,0,1.3862427612304686,0,0,0.8421875000000001
2.853205714000069,0,0,1.4149731811523436,0,0,0.8421875000000001
2.854709623999952,0,0,1.3048399047851562,0,0,0.5359375000000001
2.856263644000137,0,0,1.3455413330078123,0,0,0.9187500000000001
2.857779350000783,0,0,1.3215993164062498,0,0,0.6890625
2.8594519250000303,0,0,1.3766659545898436,0,0,0.6890625
2.861086315002467,0,0,1.5251064575195312,0,0,0.3828125
2.862652057003288,0,0,1.2737152832031249,0,0,0.765625
2.8642161510033475,0,0,1.649604943847656,0,0,1.0718750000000001
2.8658385230010026,0,0,1.2306196533203124,0,0,1.1484375
2.867391284002224,0,0,1.2737152832031249,0,0,0.9187500000000001
2.8689358590017946,0,0,1.2521674682617188,0,0,0.45937500000000003
2.870406362002541,0,0,1.4437036010742186,0,0,1.3015625000000002
2.8721608060004655,0,0,1.465251416015625,0,0,0.6890625
2.873837140003161,0,0,1.5251064575195312,0,0,0.9187500000000001
2.875424549001764,0,0,1.2832920898437499,0,0,0.8421875000000001
2.877045346001978,0,0,1.3455413330078123,0,0,0.6125
2.8785639590023493,0,0,1.3072341064453123,0,0,0.5359375000000001
2.880027166000218,0,0,1.3527239379882812,0,0,0.6890625
2.881529724003485,0,0,1.4532804077148436,0,0,0.30625
2.883103744003165,0,0,1.2425906616210938,0,0,0.6125
2.884830706003413,0,0,1.4437036010742186,0,0,0.765625
2.8864035600017814,0,0,1.3192051147460937,0,0,0.9187500000000001
2.888019116002397,0,0,1.3000515014648437,0,0,0.6890625
2.8895841740013566,0,0,1.3215993164062498,0,0,0.9953125
2.8910495470008755,0,0,1.2976572998046874,0,0,0.22968750000000002
2.893206190001365,0,0,1.254561669921875,0,0,0.6125
2.8950664110016078,0,0,1.4915876342773438,0,0,0.8421875000000001
2.8967506700028025,0,0,1.3239935180664062,0,0,0.45937500000000003
2.898404671002936,0,0,1.3814543579101561,0,0,0.9187500000000001
2.900024172002304,0,0,1.3575123413085937,0,0,0.6125
2.9016140070016263,0,0,1.4963760375976562,0,0,0.30625
2.9030741580027097,0,0,1.4628572143554686,0,0,0.6890625
2.904521846001444,0,0,1.5705962890624998,0,0,1.0718750000000001
2.906115365000005,0,0,1.2976572998046874,0,0,0.765625
2.9076324600027874,0,0,1.2330138549804688,0,0,0.5359375000000001
2.909100759003195,0,0,1.2473790649414063,0,0,0.45937500000000003
2.9105642060021637,0,0,1.4053963745117186,0,0,0.22968750000000002
2.91211130100055,0,0,1.5107412475585937,0,0,0.5359375000000001
2.9136442840026575,0,0,1.3359645263671873,0,0,0.9187500000000001
2.9151133980012673,0,0,1.6400281372070311,0,0,0.8421875000000001
2.916682937000587,0,0,1.3814543579101561,0,0,0.8421875000000001
2.918294067003444,0,0,1.2904746948242187,0,0,1.225
2.9199202910021995,0,0,1.2785036865234374,0,0,0.8421875000000001
2.9214791630001855,0,0,1.4341267944335936,0,0,0.6890625
2.923041257003206,0,0,1.5155296508789062,0,0,0.765625
2.924563852000574,0,0,1.6065093139648436,0,0,0.6125
2.926054021001619,0,0,1.2569558715820313,0,0,0.6125
2.9275523930009513,0,0,1.2761094848632812,0,0,0.765625
2.9291234130032535,0,0,1.0917559570312498,0,0,0.6890625
2.930603175002034,0,0,1.2641384765625,0,0,0.5359375000000001
2.932064511001954,0,0,1.5155296508789062,0,0,1.3015625000000002
2.933587717001501,0,0,1.3551181396484375,0,0,0.9953125
2.9351360150030814,0,0,1.4125789794921875,0,0,0.6890625
2.9366251660030684,0,0,1.2737152832031249,0,0,0.6890625
2.9391337310007657,0,0,1.3646949462890625,0,0,0.5359375000000001
2.941068118001567,0,0,1.3096283081054687,0,0,1.0718750000000001
2.94308765200185,0,0,1.407790576171875,0,0,0.6125
2.946558057999937,0,0,1.2880804931640624,0,0,0.765625
2.948608092003269,0,0,1.2306196533203124,0,0,0.6890625
2.9503608510021877,0,0,1.2737152832031249,0,0,-9.1875
2.953006711002672,0,0,1.62805712890625,0,0,0.8421875000000001
2.954910024000128,0,0,1.369483349609375,0,0,0.8421875000000001
2.956787411003461,0,0,1.2521674682617188,0,0,0.5359375000000001
2.958534485002019,0,0,1.2234370483398436,0,0,0.6125
2.960214133003319,0,0,1.2928688964843749,0,0,0.6890625
2.9617825980021735,0,0,1.4867992309570313,0,0,1.3015625000000002
2.9635366710026574,0,0,1.426944189453125,0,0,1.0718750000000001
2.965229746001569,0,0,1.3838485595703125,0,0,0.6125
2.966778265999892,0,0,1.3000515014648437,0,0,0.30625
2.968240917001822,0,0,1.3000515014648437,0,0,1.0718750000000001
2.96977316000266,0,0,1.3215993164062498,0,0,0.765625
2.9715301410033135,0,0,1.3072341064453123,0,0,0.3828125
2.973201438002434,0,0,1.4317325927734375,0,0,0.45937500000000003
2.9747401060012635,0,0,1.3623007446289062,0,0,0.765625
2.9763287929999933,0,0,1.6065093139648436,0,0,1.1484375
2.9778369430023304,0,0,1.254561669921875,0,0,1.225
2.979302520001511,0,0,1.2737152832031249,0,0,0.6125
2.9808178180028335,0,0,1.2713210815429687,0,0,0.5359375000000001
2.9824120050034253,0,0,1.455674609375,0,0,0.8421875000000001
2.983940933001577,0,0,1.5179238525390624,0,0,0.6890625
2.9854293240023253,0,0,1.5897499023437498,0,0,0.6890625
2.9871053240021865,0,0,1.43652099609375,0,0,0.5359375000000001
2.9886961960000917,0,0,1.2880804931640624,0,0,1.1484375
2.990177958003187,0,0,1.218648645019531,0,0,0.8421875000000001
2.991688312002225,0,0,1.369483349609375,0,0,0.6125
2.9932870540033036,0,0,1.3838485595703125,0,0,0.153125
2.9948242970021965,0,0,1.3814543579101561,0,0,0.5359375000000001
2.9962927810011024,0,0,1.39821376953125,0,0,0.765625
2.9978156900033355,0,0,1.2401964599609374,0,0,0.765625
2.999405636001029,0,0,1.2785036865234374,0,0,0.9187500000000001
3.000950379002461,0,0,1.3623007446289062,0,0,0.5359375000000001
3.002423585003271,0,0,1.3431471313476562,0,0,0.8421875000000001
3.004007827003079,0,0,1.5035586425781249,0,0,0.6890625
3.0055662730010226,0,0,1.4125789794921875,0,0,0.9187500000000001
3.0070329059999494,0,0,1.6711527587890624,0,0,1.225
3.0086532029999944,0,0,1.2904746948242187,0,0,0.9953125
3.0102618520031683,0,0,1.1348515869140625,0,0,0.9187500000000001
3.011878705001436,0,0,1.2282254516601563,0,0,0.9187500000000001
3.0134167630021693,0,0,1.4173673828125,0,0,0.5359375000000001
3.015018690002762,0,0,1.438915197753906,0,0,0.6890625
3.0166925420016923,0,0,1.5155296508789062,0,0,0.9953125
3.0183057470021595,0,0,1.120486376953125,0,0,0.6890625
3.019926970002416,0,0,1.2521674682617188,0,0,0.6890625
3.0215088420009124,0,0,1.1923124267578125,0,0,0.765625
3.0229810850032663,0,0,1.3575123413085937,0,0,0.765625
3.0244405510020442,0,0,1.4987702392578124,0,0,0.9187500000000001
3.026199773001281,0,0,1.3311761230468748,0,0,0.6890625
3.027818718001072,0,0,1.2976572998046874,0,0,0.9187500000000001
3.029300369002158,0,0,1.2330138549804688,0,0,1.225
3.0308195930010697,0,0,1.2617442749023438,0,0,1.225
3.032528297000681,0,0,1.4221557861328125,0,0,0.6125
3.0343707770007313,0,0,1.4053963745117186,0,0,0.5359375000000001
3.036131517001195,0,0,1.4700398193359374,0,0,0.6125
3.0377374440031417,0,0,1.4245499877929686,0,0,0.6890625
3.0392644650019065,0,0,1.0869675537109373,0,0,1.0718750000000001
3.04093105800348,0,0,1.1013327636718748,0,0,0.6890625
3.0427758160003577,0,0,1.3072341064453123,0,0,0.0765625
3.0443275770012406,0,0,1.3766659545898436,0,0,0.153125
3.0458047830034047,0,0,1.37906015625,0,0,0.8421875000000001
3.0472695080025005,0,0,1.5298948608398437,0,0,0.765625
3.048788770000101,0,0,1.2904746948242187,0,0,1.225
3.05068761900111,0,0,1.2904746948242187,0,0,1.1484375
3.052461711002252,0,0,1.209071838378906,0,0,0.9953125
3.054060731003119,0,0,1.4915876342773438,0,0,1.1484375
3.0556501960018068,0,0,1.3838485595703125,0,0,0.765625
3.057185568002751,0,0,1.3742717529296875,0,0,0.3828125
3.058661219001806,0,0,1.1875240234375,0,0,0.3828125
3.0602957010014507,0,0,1.2425906616210938,0,0,0.3828125
3.061968442001671,0,0,1.2856862915039062,0,0,0.22968750000000002
3.0634442220034543,0,0,1.3527239379882812,0,0,0.30625
3.0649068180027825,0,0,1.4149731811523436,0,0,0.45937500000000003
3.0664292460023717,0,0,1.2761094848632812,0,0,0.6125
3.0680414880007447,0,0,1.5801730957031248,0,0,0.8421875000000001
3.0695540640008403,0,0,1.369483349609375,0,0,0.9187500000000001
3.0710169000012684,0,0,1.3000515014648437,0,0,0.6890625
3.0728140660030476,0,0,1.3383587280273437,0,0,0.9187500000000001
3.074507140001515,0,0,1.4101847778320311,0,0,0.5359375000000001
3.0760260310016747,0,0,1.455674609375,0,0,0.765625
3.077650588002143,0,0,1.6041151123046875,0,0,0.765625
3.0793788650007627,0,0,1.2617442749023438,0,0,0.765625
3.0809471259999555,0,0,1.3431471313476562,0,0,0.45937500000000003
3.0824570910008333,0,0,1.2737152832031249,0,0,0.6890625
3.0839190010010498,0,0,1.3407529296874998,0,0,0.6125
3.0854514290003863,0,0,1.5490484741210937,0,0,0.765625
3.087170392002008,0,0,1.4891934326171874,0,0,0.765625
3.0886503210022056,0,0,1.455674609375,0,0,0.9953125
3.090112305002549,0,0,1.235408056640625,0,0,1.1484375
3.091635122000298,0,0,1.1707646118164061,0,0,0.9953125
3.093272011999943,0,0,1.2880804931640624,0,0,0.765625
3.094750310003292,0,0,1.35990654296875,0,0,1.1484375
3.09621242400317,0,0,1.419761584472656,0,0,1.225
3.0976986120003858,0,0,1.5322890624999999,0,0,0.6890625
3.0994350190012483,0,0,1.3144167114257812,0,0,0.765625
3.1011098900016805,0,0,1.5155296508789062,0,0,0.6125
3.1025892440011376,0,0,1.3072341064453123,0,0,0.5359375000000001
3.1041483389999485,0,0,1.2880804931640624,0,0,0.3828125
3.105850691001251,0,0,1.4987702392578124,0,0,0.5359375000000001
3.1074109700020927,0,0,1.3551181396484375,0,0,0.9187500000000001
3.1089746010002273,0,0,1.5801730957031248,0,0,0.9187500000000001
3.110513603001891,0,0,1.2952630981445312,0,0,0.8421875000000001
3.1120004760014126,0,0,1.2641384765625,0,0,0.765625
3.1135124230022484,0,0,1.2593500732421874,0,0,0.9953125
3.1154121060026227,0,0,1.4628572143554686,0,0,0.8421875000000001
3.1169928110030014,0,0,1.6304513305664061,0,0,0.8421875000000001
3.1185193690034794,0,0,1.5322890624999999,0,0,1.1484375
3.120079241001804,0,0,1.3263877197265623,0,0,0.765625
3.1216893710006843,0,0,1.235408056640625,0,0,0.45937500000000003
3.1232509660003416,0,0,1.3072341064453123,0,0,0.5359375000000001
3.125424978999945,0,0,1.4532804077148436,0,0,1.0718750000000001
3.1269973140006186,0,0,1.5107412475585937,0,0,0.765625
3.128466224003205,0,0,1.5921441040039062,0,0,0.6125
3.130018967000069,0,0,1.3168109130859373,0,0,0.6125
3.1315464500003145,0,0,1.3192051147460937,0,0,0.9187500000000001
3.133300487002998,0,0,1.235408056640625,0,0,0.5359375000000001
3.1350583750027,0,0,1.3431471313476562,0,0,0.9953125
3.1366741910023848,0,0,1.4173673828125,0,0,0.8421875000000001
3.138168694000342,0,0,1.407790576171875,0,0,0.9187500000000001
3.1396284740003466,0,0,1.3670891479492187,0,0,0.9187500000000001
3.141210827001487,0,0,1.1563994018554686,0,0,1.225
3.142742589003319,0,0,1.2880804931640624,0,0,0.6125
3.1443755890031753,0,0,1.3072341064453123,0,0,0.6125
3.1460755710031663,0,0,1.4987702392578124,0,0,0.45937500000000003
3.147665443000733,0,0,1.35990654296875,0,0,1.0718750000000001
3.1492022600032215,0,0,1.4413093994140624,0,0,0.765625
3.150736836003489,0,0,1.2473790649414063,0,0,0.6125
3.1523741880009766,0,0,1.235408056640625,0,0,0.22968750000000002
3.1539525050029624,0,0,1.419761584472656,0,0,0.45937500000000003
3.1554830810018757,0,0,1.3072341064453123,0,0,0.765625
3.1571033590007573,0,0,1.5251064575195312,0,0,1.0718750000000001
3.1586809160035045,0,0,1.4173673828125,0,0,1.1484375
3.160214381001424,0,0,1.407790576171875,0,0,0.8421875000000001
3.1624571720021777,0,0,1.3383587280273437,0,0,0.6125
3.1641532460016606,0,0,1.3144167114257812,0,0,0.8421875000000001
3.1657193589999224,0,0,1.4317325927734375,0,0,0.6890625
3.167312249002862,0,0,1.4939818359375,0,0,0.6125
3.1689281210019544,0,0,1.2737152832031249,0,0,0.9187500000000001
3.1708480440029234,0,0,1.2952630981445312,0,0,0.5359375000000001
3.172455638003157,0,0,1.2976572998046874,0,0,0.9953125
3.17438445100197,0,0,1.2976572998046874,0,0,0.5359375000000001
3.176059655001154,0,0,1.3742717529296875,0,0,0.8421875000000001
3.177706970000145,0,0,1.4891934326171874,0,0,0.6125
3.179466655001306,0,0,1.5729904907226562,0,0,0.9187500000000001
3.1812106180004776,0,0,1.2641384765625,0,0,0.6125
3.1831258930033073,0,0,1.3048399047851562,0,0,0.3828125
3.184825690001162,0,0,1.2737152832031249,0,0,0.765625
3.1864160430013726,0,0,1.4101847778320311,0,0,0.9953125
3.1883638920007797,0,0,1.388636962890625,0,0,0.765625
3.1900387260029675,0,0,1.6112977172851561,0,0,0.765625
3.1916458750019956,0,0,1.2306196533203124,0,0,0.5359375000000001
3.1931829510031093,0,0,1.2569558715820313,0,0,0.22968750000000002
3.194720416002383,0,0,1.3958195678710936,0,0,0.3828125
3.196368306002114,0,0,1.4125789794921875,0,0,0.6890625
3.198023955003009,0,0,1.4508862060546874,0,0,0.6890625
3.1995642530018813,0,0,1.4341267944335936,0,0,0.9187500000000001
3.2011927910025406,0,0,1.407790576171875,0,0,0.9953125
3.2035563760000514,0,0,1.3287819213867187,0,0,0.6125
3.2058505180029897,0,0,1.2976572998046874,0,0,1.1484375
3.2077957569999853,0,0,1.4867992309570313,0,0,0.3828125
3.2094920720010123,0,0,1.3623007446289062,0,0,0.5359375000000001
3.211103110003023,0,0,1.599326708984375,0,0,0.9187500000000001
3.2126297040013014,0,0,1.2928688964843749,0,0,0.9187500000000001
3.2141020400013076,0,0,1.1252747802734375,0,0,0.8421875000000001
3.215555580001819,0,0,1.1923124267578125,0,0,0.6125
3.217095212003187,0,0,1.4724340209960938,0,0,0.9187500000000001
3.2186065100031556,0,0,1.4987702392578124,0,0,1.1484375
3.220066661000601,0,0,1.3766659545898436,0,0,1.1484375
3.221578719003446,0,0,1.3311761230468748,0,0,0.6890625
3.2231109060012386,0,0,1.2473790649414063,0,0,1.3015625000000002
3.224572094000905,0,0,1.2210428466796874,0,0,0.6890625
3.226026541000465,0,0,1.120486376953125,0,0,0.765625
3.227513155001361,0,0,1.4772224243164063,0,0,1.3015625000000002
3.229046583001036,0,0,1.388636962890625,0,0,0.6890625
3.23086693300138,0,0,1.5538368774414062,0,0,0.6890625
3.23246395300157,0,0,1.197100830078125,0,0,0.765625
3.235437717001332,0,0,1.3000515014648437,0,0,0.3828125
3.2374168440001085,0,0,1.3431471313476562,0,0,1.3015625000000002
3.2394023410015507,0,0,1.5059528442382812,0,0,0.9187500000000001
3.2413049130009313,0,0,1.4341267944335936,0,0,0.9953125
3.243090005002159,0,0,1.2641384765625,0,0,0.8421875000000001
3.245203112001036,0,0,1.149216796875,0,0,0.9187500000000001
3.2471217210004397,0,0,1.2904746948242187,0,0,0.153125
3.2489191640015633,0,0,1.5203180541992187,0,0,0.5359375000000001
3.250771811002778,0,0,1.3623007446289062,0,0,0.3828125
3.2526149950026593,0,0,1.2689268798828124,0,0,0.6125
3.2542186260034214,0,0,1.3144167114257812,0,0,0.6890625
3.255722424000851,0,0,1.3814543579101561,0,0,0.765625
3.2573684440030775,0,0,1.3287819213867187,0,0,1.0718750000000001
3.259570401001838,0,0,1.47482822265625,0,0,0.765625
3.2611017920025915,0,0,1.3024457031249999,0,0,0.6125
3.2626653490005992,0,0,1.35990654296875,0,0,0.8421875000000001
3.2641350740013877,0,0,1.2976572998046874,0,0,1.3015625000000002
3.2655965210033173,0,0,1.3575123413085937,0,0,1.0718750000000001
3.2671385970024858,0,0,1.2808978881835937,0,0,0.8421875000000001
3.2686413030023687,0,0,1.5346832641601562,0,0,0.30625
3.270652985000197,0,0,1.3670891479492187,0,0,1.0718750000000001
3.272258746001171,0,0,1.6831237670898436,0,0,1.1484375
3.2739403390005464,0,0,1.2569558715820313,0,0,1.378125
3.2762302959999943,0,0,1.2521674682617188,0,0,0.3828125
3.2779946100017696,0,0,1.2952630981445312,0,0,0.45937500000000003
3.279697091002163,0,0,1.438915197753906,0,0,0.8421875000000001
3.281328889002907,0,0,1.24498486328125,0,0,0.9187500000000001
3.2830212590015435,0,0,1.2497732666015624,0,0,0.765625
3.2846517790021608,0,0,1.2785036865234374,0,0,0.765625
3.2862801310002396,0,0,1.139639990234375,0,0,0.6890625
3.288082631002908,0,0,1.2761094848632812,0,0,0.45937500000000003
3.2897033720000763,0,0,1.5155296508789062,0,0,0.153125
3.2912360220034316,0,0,1.5275006591796874,0,0,0.9953125
3.292714210001577,0,0,1.4891934326171874,0,0,0.8421875000000001
3.2942451200033247,0,0,1.1731588134765625,0,0,1.0718750000000001
3.2958462690003216,0,0,1.235408056640625,0,0,0.5359375000000001
3.2973303270009637,0,0,1.3144167114257812,0,0,0.9953125
3.298844459000975,0,0,1.407790576171875,0,0,1.3015625000000002
3.300391627002682,0,0,1.4939818359375,0,0,1.225
3.3018809450004483,0,0,1.43652099609375,0,0,0.765625
3.3033674100006465,0,0,1.6424223388671875,0,0,0.45937500000000003
3.3049729480007954,0,0,1.2617442749023438,0,0,0.9953125
3.3065217090006627,0,0,1.350329736328125,0,0,0.765625
3.3079853230010485,0,0,1.2138602416992186,0,0,1.0718750000000001
3.309510566003155,0,0,1.5394716674804687,0,0,1.0718750000000001
3.311060271000315,0,0,1.446097802734375,0,0,0.765625
3.312793845001579,0,0,1.6543933471679686,0,0,0.9187500000000001
3.314397920999909,0,0,1.235408056640625,0,0,0.6890625
3.315953941000771,0,0,1.3072341064453123,0,0,0.8421875000000001
3.317590423001093,0,0,1.2785036865234374,0,0,0.22968750000000002
3.319064352002897,0,0,1.455674609375,0,0,0.765625
3.3205774650014064,0,0,1.4915876342773438,0,0,0.765625
3.3221371520012326,0,0,1.35990654296875,0,0,0.8421875000000001
3.3236127650015987,0,0,1.455674609375,0,0,0.6125
3.3252929510017566,0,0,1.2832920898437499,0,0,1.1484375
3.3269266190000053,0,0,1.2521674682617188,0,0,0.8421875000000001
3.3285803780017886,0,0,1.4030021728515625,0,0,0.5359375000000001
3.3301251950033475,0,0,1.43652099609375,0,0,0.153125
3.3316759930021362,0,0,1.3287819213867187,0,0,0.9187500000000001
3.3331980140028463,0,0,1.5777788940429687,0,0,1.0718750000000001
3.3347955710014503,0,0,1.2521674682617188,0,0,0.5359375000000001
3.3362683700033813,0,0,1.2761094848632812,0,0,0.5359375000000001
3.3377562050009146,0,0,1.4006079711914061,0,0,0.30625
3.339374132003286,0,0,1.3455413330078123,0,0,1.1484375
3.341025318000902,0,0,1.5322890624999999,0,0,0.6125
3.342553542002861,0,0,1.455674609375,0,0,0.765625
3.344049489001918,0,0,1.429338391113281,0,0,0.765625
3.34557730600136,0,0,1.350329736328125,0,0,1.1484375
3.3471357520029414,0,0,1.1037269653320312,0,0,0.9187500000000001
3.3486168470008124,0,0,1.189918225097656,0,0,0.9953125
3.3500797570013674,0,0,1.3000515014648437,0,0,1.225
3.351634056001785,0,0,1.4245499877929686,0,0,0.9187500000000001
3.3531744460015034,0,0,1.2832920898437499,0,0,0.6890625
3.3546538930022507,0,0,1.2114660400390624,0,0,0.45937500000000003
3.3561184700010926,0,0,1.2378022583007813,0,0,0.6890625
3.3580685790002462,0,0,1.3311761230468748,0,0,0.5359375000000001
3.3598885030005476,0,0,1.4867992309570313,0,0,1.225
3.361490541999956,0,0,1.4437036010742186,0,0,1.0718750000000001
3.3629635440011043,0,0,1.2641384765625,0,0,0.6890625
3.364484009001899,0,0,1.2569558715820313,0,0,0.6125
3.3660394190010265,0,0,1.235408056640625,0,0,1.225
3.3675191620022815,0,0,1.209071838378906,0,0,0.8421875000000001
3.3689816650003195,0,0,1.216254443359375,0,0,1.1484375
3.370495185001346,0,0,1.455674609375,0,0,1.0718750000000001
3.3720370950031793,0,0,1.446097802734375,0,0,0.8421875000000001
3.373514986000373,0,0,1.4987702392578124,0,0,0.5359375000000001
3.374995303001924,0,0,1.2928688964843749,0,0,0.6125
3.3765039170029922,0,0,1.2785036865234374,0,0,1.1484375
3.3780554920012946,0,0,1.3024457031249999,0,0,0.9953125
3.379902121003397,0,0,1.3910311645507811,0,0,0.22968750000000002
3.3815020480033127,0,0,1.5059528442382812,0,0,0.6890625
3.38308606800274,0,0,1.2497732666015624,0,0,0.6125
3.3846054400019057,0,0,1.448492004394531,0,0,1.3015625000000002
3.3860799240028427,0,0,1.1085153686523437,0,0,0.9953125
3.387711092000245,0,0,1.1731588134765625,0,0,0.8421875000000001
3.3892842050008767,0,0,1.24498486328125,0,0,0.8421875000000001
3.3909739460032142,0,0,1.429338391113281,0,0,1.1484375
3.392610335002246,0,0,1.426944189453125,0,0,0.9953125
3.394198892001441,0,0,1.3814543579101561,0,0,1.225
3.3959223000019847,0,0,1.2641384765625,0,0,0.45937500000000003
3.397483820001071,0,0,1.2234370483398436,0,0,0.45937500000000003
3.399030266002228,0,0,1.3048399047851562,0,0,0.30625
3.40058108300218,0,0,1.3958195678710936,0,0,0.6890625
3.40206847400259,0,0,1.3910311645507811,0,0,0.30625
3.4035842170014803,0,0,1.3646949462890625,0,0,0.765625
3.4051284970009874,0,0,1.5921441040039062,0,0,0.9953125
3.406598795001628,0,0,1.2952630981445312,0,0,1.0718750000000001
3.4080526690013357,0,0,1.3431471313476562,0,0,0.765625
3.4096021889999975,0,0,1.2306196533203124,0,0,0.9953125
3.411589556002582,0,0,1.448492004394531,0,0,0.3828125
3.4131233360021724,0,0,1.3407529296874998,0,0,0.9187500000000001
3.41488735400344,0,0,1.5322890624999999,0,0,0.9187500000000001
3.4164455410027585,0,0,1.3766659545898436,0,0,1.225
3.417970395003067,0,0,1.2330138549804688,0,0,0.9187500000000001
3.4194479160032643,0,0,1.3383587280273437,0,0,0.30625
3.4209941960034485,0,0,1.388636962890625,0,0,0.6890625
3.422527735001495,0,0,1.4437036010742186,0,0,0.6890625
3.4241753830028756,0,0,1.2713210815429687,0,0,0.765625
3.425816384002246,0,0,1.3670891479492187,0,0,0.6890625
3.427361423000548,0,0,1.235408056640625,0,0,1.3015625000000002
3.4288304440015054,0,0,1.2665326782226562,0,0,1.225
3.430295317000855,0,0,1.3096283081054687,0,0,0.6890625
3.4318098010007816,0,0,1.4173673828125,0,0,0.9187500000000001
3.433780002000276,0,0,1.388636962890625,0,0,1.0718750000000001
3.435695222000504,0,0,1.4149731811523436,0,0,0.8421875000000001
3.4376357380024274,0,0,1.458068811035156,0,0,1.1484375
3.4392007580026984,0,0,1.3646949462890625,0,0,0.8421875000000001
3.4407276310012094,0,0,1.3311761230468748,0,0,0.6125
3.442334169001697,0,0,1.3838485595703125,0,0,0.22968750000000002
3.4438910970020515,0,0,1.4221557861328125,0,0,0.9187500000000001
3.4454425610019825,0,0,1.388636962890625,0,0,0.9187500000000001
3.4470163590012817,0,0,1.2952630981445312,0,0,0.45937500000000003
3.448561361001339,0,0,1.1516109985351561,0,0,0.45937500000000003
3.4501509920009994,0,0,1.3024457031249999,0,0,0.5359375000000001
3.451685735002684,0,0,1.3862427612304686,0,0,0.8421875000000001
3.4537922670024273,0,0,1.448492004394531,0,0,0.9187500000000001
3.455411730999913,0,0,1.2880804931640624,0,0,0.9187500000000001
3.457118120000814,0,0,1.3431471313476562,0,0,0.5359375000000001
3.4587342700033332,0,0,1.1611878051757811,0,0,0.5359375000000001
3.4604553440003656,0,0,1.2569558715820313,0,0,1.1484375
3.4623452490013733,0,0,1.3814543579101561,0,0,1.3015625000000002
3.463844677000452,0,0,1.5131354492187499,0,0,0.9187500000000001
3.4654684190027183,0,0,1.2378022583007813,0,0,0.765625
3.4671301970010973,0,0,1.3431471313476562,0,0,0.6125
3.4686932180011354,0,0,1.2665326782226562,0,0,0.6890625
3.470168942003511,0,0,1.3096283081054687,0,0,0.45937500000000003
3.4717585550024523,0,0,1.4149731811523436,0,0,0.6125
3.4734761100007745,0,0,1.5298948608398437,0,0,0.3828125
3.4750270010008535,0,0,1.3431471313476562,0,0,0.9187500000000001
3.476545651003107,0,0,1.3383587280273437,0,0,0.9953125
3.4781460230005905,0,0,1.2737152832031249,0,0,1.1484375
3.479685710000922,0,0,1.2952630981445312,0,0,1.0718750000000001
3.481152861000737,0,0,1.2880804931640624,0,0,0.9953125
3.4826163450015883,0,0,1.4053963745117186,0,0,1.4546875000000001
3.484185254001204,0,0,1.66636435546875,0,0,1.225
3.4857238860022335,0,0,1.5610194824218748,0,0,0.6890625
3.4871934990005684,0,0,1.3814543579101561,0,0,-8.8046875
3.488821426002687,0,0,1.3311761230468748,0,0,1.0718750000000001
3.49047896400225,0,0,1.3072341064453123,0,0,0.8421875000000001
3.4919906330032973,0,0,1.2880804931640624,0,0,0.5359375000000001
3.493513098001131,0,0,1.5107412475585937,0,0,0.22968750000000002
3.4950726740025857,0,0,1.35990654296875,0,0,0.8421875000000001
3.49658745400302,0,0,1.5203180541992187,0,0,0.9187500000000001
3.4980554560024757,0,0,1.1228805786132812,0,0,0.6890625
3.499632865001331,0,0,1.158793603515625,0,0,0.6125
3.501383031001751,0,0,1.2737152832031249,0,0,0.6125
3.5030590320020565,0,0,1.419761584472656,0,0,1.53125
3.5047416250017704,0,0,1.4508862060546874,0,0,0.8421875000000001
3.5064258100028383,0,0,1.2689268798828124,0,0,0.9953125
3.5080243490010616,0,0,1.2138602416992186,0,0,0.5359375000000001
3.5095950350005296,0,0,1.2378022583007813,0,0,0.765625
3.511248795002757,0,0,1.2282254516601563,0,0,0.153125
3.5129039630010084,0,0,1.4341267944335936,0,0,1.0718750000000001
3.5145250560017303,0,0,1.5634136840820312,0,0,0.6890625
3.5161777420034923,0,0,1.3766659545898436,0,0,0.8421875000000001
3.517758447000233,0,0,1.2114660400390624,0,0,0.8421875000000001
3.5192975790014316,0,0,1.3575123413085937,0,0,1.378125
3.520893432003504,0,0,1.254561669921875,0,0,0.9953125
3.522519137000927,0,0,1.3575123413085937,0,0,0.9187500000000001
3.5241943590008304,0,0,1.4915876342773438,0,0,0.5359375000000001
3.5258273230028863,0,0,1.350329736328125,0,0,0.8421875000000001
3.5274663050004165,0,0,1.5179238525390624,0,0,1.0718750000000001
3.5291462870009127,0,0,1.3000515014648437,0,0,0.9953125
3.530741474001843,0,0,1.197100830078125,0,0,0.8421875000000001
3.5323935670021456,0,0,1.3431471313476562,0,0,0.8421875000000001
3.5339807350028423,0,0,1.4173673828125,0,0,0.30625
3.535523552000086,0,0,1.4149731811523436,0,0,0.6890625
3.5371654970003874,0,0,1.6328455322265625,0,0,0.9953125
3.5388537750004616,0,0,1.197100830078125,0,0,0.6890625
3.540511202001653,0,0,1.209071838378906,0,0,0.765625
3.5422291089998907,0,0,1.2713210815429687,0,0,0.8421875000000001
3.5437979990019812,0,0,1.3814543579101561,0,0,1.6078125
3.545384927001578,0,0,1.438915197753906,0,0,1.3015625000000002
3.5470568160017137,0,0,1.5083470458984374,0,0,0.9187500000000001
3.5486534100018616,0,0,1.2713210815429687,0,0,0.6125
3.550296466000873,0,0,1.3335703247070312,0,0,0.9953125
3.5518967640018673,0,0,1.3431471313476562,0,0,0.6125
3.5536537260013574,0,0,1.419761584472656,0,0,0.5359375000000001
3.5552090240016696,0,0,1.608903515625,0,0,0.6890625
3.556744545003312,0,0,1.4221557861328125,0,0,0.9187500000000001
3.558346583002276,0,0,1.5753846923828123,0,0,1.0718750000000001
3.559975806001603,0,0,1.3407529296874998,0,0,1.4546875000000001
3.561611677003384,0,0,1.3646949462890625,0,0,0.9187500000000001
3.5632669560000068,0,0,1.3263877197265623,0,0,0.9187500000000001
3.5649527519999538,0,0,1.3862427612304686,0,0,0.30625
3.56653868000285,0,0,1.3431471313476562,0,0,0.9953125
3.568232606001402,0,0,1.6017209106445311,0,0,0.8421875000000001
3.5700022160017397,0,0,1.2761094848632812,0,0,1.3015625000000002
3.573031036001339,0,0,1.254561669921875,0,0,0.9187500000000001
3.574760128001799,0,0,1.5203180541992187,0,0,0.153125
3.576324352001393,0,0,1.4341267944335936,0,0,0.9187500000000001
3.577870613000414,0,0,1.5490484741210937,0,0,0.765625
3.5797619260010833,0,0,1.1923124267578125,0,0,0.6890625
3.5814722220020485,0,0,1.2617442749023438,0,0,0.6890625
3.5835262370019336,0,0,1.3335703247070312,0,0,0.8421875000000001
3.5851304610005172,0,0,1.2473790649414063,0,0,0.22968750000000002
3.586679499003367,0,0,1.3934253662109375,0,0,0.8421875000000001
3.5881631320007727,0,0,1.5035586425781249,0,0,0.6125
3.5898415020019456,0,0,1.1851298217773436,0,0,0.5359375000000001
3.5914890030035167,0,0,1.350329736328125,0,0,0.5359375000000001
3.5930200050024723,0,0,1.3766659545898436,0,0,0.6125
3.594491582000046,0,0,1.24498486328125,0,0,0.6125
3.596075509001821,0,0,1.5083470458984374,0,0,0.8421875000000001
3.5976342700014357,0,0,1.3910311645507811,0,0,0.8421875000000001
3.5990877360018203,0,0,1.5514426757812498,0,0,0.765625
3.6006004230002873,0,0,1.3168109130859373,0,0,1.1484375
3.602163351002673,0,0,1.1156979736328125,0,0,0.6890625
3.603681038002833,0,0,1.2569558715820313,0,0,0.6890625
3.605142541000532,0,0,1.5107412475585937,0,0,1.378125
3.6066936910028744,0,0,1.4820108276367188,0,0,0.9187500000000001
3.608524856001168,0,0,1.678335363769531,0,0,0.8421875000000001
3.6100963950011646,0,0,1.3479355346679687,0,0,0.3828125
3.611593638001068,0,0,1.2808978881835937,0,0,0.8421875000000001
3.6131387690002157,0,0,1.2880804931640624,0,0,0.9187500000000001
3.6146586790018773,0,0,1.438915197753906,0,0,0.6125
3.616529103001085,0,0,1.4772224243164063,0,0,0.5359375000000001
3.6182441960008873,0,0,1.3024457031249999,0,0,0.6890625
3.6197916970013466,0,0,1.3862427612304686,0,0,0.6125
3.621323218001635,0,0,1.3575123413085937,0,0,0.8421875000000001
3.622925330000726,0,0,1.3311761230468748,0,0,0.9187500000000001
3.6245384240028216,0,0,1.3958195678710936,0,0,0.6125
3.626131166001869,0,0,1.5083470458984374,0,0,0.153125
3.627657798002474,0,0,1.2306196533203124,0,0,0.8421875000000001
3.6299581620005483,0,0,1.438915197753906,0,0,0.9187500000000001
3.6315846070028783,0,0,1.2737152832031249,0,0,1.225
3.633189942000172,0,0,1.3527239379882812,0,0,0.765625
3.6352126609999686,0,0,1.2928688964843749,0,0,0.765625
3.636848698002723,0,0,1.458068811035156,0,0,0.5359375000000001
3.639182933002303,0,0,1.3168109130859373,0,0,0.9953125
3.6408630440018896,0,0,1.2856862915039062,0,0,0.9187500000000001
3.642461601000832,0,0,1.2234370483398436,0,0,0.45937500000000003
3.6441029720008373,0,0,1.3192051147460937,0,0,0.45937500000000003
3.645928415000526,0,0,1.3096283081054687,0,0,1.225
3.6475210090029577,0,0,1.467645617675781,0,0,0.8421875000000001
3.6492391390020202,0,0,1.2330138549804688,0,0,0.6890625
3.650849362002191,0,0,1.1468225952148436,0,0,0.6125
3.6523764570010826,0,0,1.3431471313476562,0,0,0.8421875000000001
3.654015458003414,0,0,1.3168109130859373,0,0,0.3828125
3.656034677002026,0,0,1.4030021728515625,0,0,0.9187500000000001
3.657718862003094,0,0,1.4413093994140624,0,0,0.765625
3.6593254740000702,0,0,1.5083470458984374,0,0,0.6890625
3.660986919003335,0,0,1.3000515014648437,0,0,0.45937500000000003
3.662558939002338,0,0,1.216254443359375,0,0,0.5359375000000001
3.6640811640027096,0,0,1.2521674682617188,0,0,0.30625
3.6657395720030763,0,0,1.2952630981445312,0,0,0.22968750000000002
3.667260370002623,0,0,1.4963760375976562,0,0,0.0
3.668726299001719,0,0,1.2497732666015624,0,0,0.9187500000000001
3.6702423189999536,0,0,1.6711527587890624,0,0,0.9187500000000001
3.6717844140002853,0,0,1.216254443359375,0,0,0.765625
3.6732512500020675,0,0,1.0893617553710937,0,0,0.30625
3.674813659003121,0,0,1.3359645263671873,0,0,0.5359375000000001
3.6763938090007287,0,0,1.455674609375,0,0,1.1484375
3.6779711990020587,0,0,1.5227122558593749,0,0,0.9187500000000001
3.6795403670002997,0,0,1.5466542724609373,0,0,0.6890625
3.6809952960029477,0,0,1.407790576171875,0,0,0.45937500000000003
3.6825746310023533,0,0,1.3359645263671873,0,0,1.3015625000000002
3.684209595001448,0,0,1.2713210815429687,0,0,1.225
3.685687578999932,0,0,1.3407529296874998,0,0,1.1484375
3.6871404890007398,0,0,1.4341267944335936,0,0,0.5359375000000001
3.6886608800014073,0,0,1.3479355346679687,0,0,0.6890625
3.6901974370011885,0,0,1.4604630126953124,0,0,0.6890625
3.6916807550005615,0,0,1.235408056640625,0,0,0.6890625
3.6933462920023885,0,0,1.2761094848632812,0,0,0.45937500000000003
3.6950871990011365,0,0,1.3742717529296875,0,0,0.5359375000000001
3.6967800140009786,0,0,1.4101847778320311,0,0,1.378125
3.698344720000023,0,0,1.4173673828125,0,0,0.6890625
3.699963350001781,0,0,1.4437036010742186,0,0,0.45937500000000003
3.7017089979999582,0,0,1.2761094848632812,0,0,0.3828125
3.7033092770034273,0,0,1.3551181396484375,0,0,0.6125
