Time (s),Accel X,Accel Y,Accel Z,Gyro X,Gyro Y,Gyro Z,Temperature (C)
0.007065950005198829,-3.423708374023437,-8.973467822265624,-0.6057330200195312,0,0,0,0
0.009645584999816492,-3.423708374023437,-8.963891015625,-0.6200982299804687,0,0,0,0
0.010785942009533755,-3.4548329956054684,-8.95670841064453,-0.6607996582031249,0,0,0,0
0.011872169008711353,-3.3973721557617185,-8.923189587402343,-0.7230489013671875,0,0,0,0
0.01300348799850326,-3.4452561889648434,-8.875305554199219,-0.603338818359375,0,0,0,0
0.014080309003475122,-3.4763808105468748,-8.748412866210938,-0.6200982299804687,0,0,0,0
0.01523012800316792,-3.4428619873046875,-8.884882360839843,-0.6607996582031249,0,0,0,0
0.0163682440033881,-3.4668040039062498,-8.923189587402343,-0.5985504150390625,0,0,0,0
0.017456675006542355,-3.438073583984375,-8.90643017578125,-0.6392518432617187,0,0,0,0
0.018528087006416172,-3.394977954101562,-8.913612780761719,-0.679953271484375,0,0,0,0
0.01959770399844274,-3.459621398925781,-8.865728747558594,-0.7422025146484375,0,0,0,0
0.02073500500409864,-3.4524387939453125,-8.923189587402343,-0.7326257080078125,0,0,0,0
0.021923471998889,-3.399766357421875,-8.911218579101561,-0.6488286499023437,0,0,0,0
0.022996792002231814,-3.430890979003906,-8.896853369140624,-0.5674257934570313,0,0,0,0
0.024068464001175016,-3.375824340820312,-8.851363537597656,-0.5530605834960938,0,0,0,0
0.02523750500404276,-3.3782185424804685,-8.901641772460938,-0.565031591796875,0,0,0,0
0.026501879008719698,-3.402160559082031,-8.8872765625,-0.5793968017578125,0,0,0,0
0.027583475995925255,-3.4332851806640625,-8.817844714355468,-0.5889736083984375,0,0,0,0
0.028666573998634703,-3.4811692138671875,-8.865728747558594,-0.6392518432617187,0,0,0,0
0.030128519007121213,-3.394977954101562,-8.851363537597656,-0.6919242797851562,0,0,0,0
0.03127696800220292,-3.2321722412109373,-8.865728747558594,-0.63206923828125,0,0,0,0
0.0325675080093788,-3.469198205566406,-8.923189587402343,-0.6679822631835937,0,0,0,0
0.0336558650014922,-3.5434184570312497,-8.91840118408203,-0.6751648681640625,0,0,0,0
0.03472574100305792,-3.5051112304687497,-8.896853369140624,-0.6464344482421874,0,0,0,0
0.03596494800876826,-3.4644098022460934,-8.932766394042968,-0.5961562133789062,0,0,0,0
0.03729335800744593,-3.4907460205078125,-8.90643017578125,-0.5913678100585937,0,0,0,0
0.03860480400908273,-3.5146880371093747,-8.947131604003905,-0.6536170532226562,0,0,0,0
0.039684828007011674,-3.4763808105468748,-8.86812294921875,-0.5746083984375,0,0,0,0
0.04077500000130385,-3.3973721557617185,-8.853757739257812,-0.48123453369140623,0,0,0,0
0.04185839400452096,-3.450044592285156,-8.892064965820312,-0.622492431640625,0,0,0,0
0.04315597099775914,-3.4524387939453125,-8.846575134277343,-0.6847416748046875,0,0,0,0
0.04467967399978079,-3.4261025756835934,-8.846575134277343,-0.7541735229492187,0,0,0,0
0.046267969999462366,-3.2728736694335936,-8.98304462890625,-0.7230489013671875,0,0,0,0
0.04749482500483282,-3.4835634155273434,-8.98304462890625,-0.6296750366210937,0,0,0,0
0.04965277999872342,-3.4931402221679684,-8.963891015625,-0.5027823486328125,0,0,0,0
0.050885821008705534,-3.418919970703125,-8.90643017578125,-0.6368576416015624,0,0,0,0
0.05203036199964117,-3.411737365722656,-8.901641772460938,-0.6248866333007812,0,0,0,0
0.053808562995982356,-3.423708374023437,-8.916006982421875,-0.47165772705078124,0,0,0,0
0.05522352700063493,-3.373430139160156,-8.94473740234375,-0.6871358764648438,0,0,0,0
0.05647027099621482,-3.4572271972656248,-8.817844714355468,-0.6775590698242188,0,0,0,0
0.057666125998366624,-3.380612744140625,-8.801085302734375,-0.7422025146484375,0,0,0,0
0.05934403200808447,-3.380612744140625,-8.863334545898438,-0.6200982299804687,0,0,0,0
0.06068270100513473,-3.414131567382812,-8.877699755859375,-0.4860229370117187,0,0,0,0
0.062029110005823895,-3.4452561889648434,-8.872911352539061,-0.6871358764648438,0,0,0,0
0.06321861399919726,-3.380612744140625,-8.920795385742187,-0.6727706665039062,0,0,0,0
0.06439430300088134,-3.392583752441406,-8.932766394042968,-0.5746083984375,0,0,0,0
0.06669707100081723,-3.469198205566406,-8.968679418945312,-0.6368576416015624,0,0,0,0
0.06813271999999415,-3.4931402221679684,-8.90643017578125,-0.6488286499023437,0,0,0,0
0.06932239100569859,-3.4261025756835934,-8.939948999023438,-0.6823474731445313,0,0,0,0
0.07049396900401916,-3.42849677734375,-8.913612780761719,-0.7110778930664062,0,0,0,0
0.07207804299832787,-3.4356793823242184,-8.889670764160156,-0.5530605834960938,0,0,0,0
0.07355667299998458,-3.35188232421875,-8.844180932617187,-0.5291185668945312,0,0,0,0
0.07497671099554282,-3.399766357421875,-9.026140258789061,-0.689530078125,0,0,0,0
0.07624841699725948,-3.447650390625,-8.851363537597656,-0.5746083984375,0,0,0,0
0.07798022900533397,-3.3638533325195312,-8.851363537597656,-0.603338818359375,0,0,0,0
0.07991974300239235,-3.3973721557617185,-8.939948999023438,-0.74699091796875,0,0,0,0
0.08282013300049584,-3.430890979003906,-8.894459167480468,-0.6105214233398437,0,0,0,0
0.08448013100132812,-3.5290532470703124,-8.8872765625,-0.59376201171875,0,0,0,0
0.08705517400812823,-3.3255461059570313,-8.786720092773438,-0.699106884765625,0,0,0,0
0.08882056000584271,-3.4332851806640625,-8.882488159179687,-0.6584054565429687,0,0,0,0
0.09062972299579997,-3.4452561889648434,-8.961496813964843,-0.6584054565429687,0,0,0,0
0.09261549499933608,-3.478775012207031,-8.86812294921875,-0.48123453369140623,0,0,0,0
0.09458948900282849,-3.4069489624023435,-8.973467822265624,-0.6847416748046875,0,0,0,0
0.09625045000575483,-3.545812658691406,-8.942343200683593,-0.7254431030273437,0,0,0,0
0.09819542600598652,-3.4428619873046875,-8.916006982421875,-0.6344634399414062,0,0,0,0
0.0999252010078635,-3.4452561889648434,-8.932766394042968,-0.6703764648437499,0,0,0,0
0.1018449929979397,-3.4548329956054684,-8.901641772460938,-0.6751648681640625,0,0,0,0
0.1036463970085606,-3.4955344238281247,-8.892064965820312,-0.6751648681640625,0,0,0,0
0.10561939100443851,-3.3973721557617185,-8.913612780761719,-0.7278373046875,0,0,0,0
0.10712931700982153,-3.4763808105468748,-8.908824377441405,-0.7733271362304687,0,0,0,0
0.10878033400513232,-3.392583752441406,-8.8872765625,-0.6631938598632812,0,0,0,0
0.11011926199716982,-3.5098996337890624,-8.985438830566405,-0.6584054565429687,0,0,0,0
0.11144089400477242,-3.42849677734375,-8.9255837890625,-0.5913678100585937,0,0,0,0
0.11268413800280541,-3.4165257690429685,-8.908824377441405,-0.6392518432617187,0,0,0,0
0.11378797600627877,-3.497928625488281,-8.94473740234375,-0.6177040283203125,0,0,0,0
0.11526121699716896,-3.497928625488281,-8.834604125976561,-0.5410895751953124,0,0,0,0
0.11670671800675336,-3.394977954101562,-8.817844714355468,-0.6871358764648438,0,0,0,0
0.11780094500863925,-3.3111808959960936,-8.817844714355468,-0.6464344482421874,0,0,0,0
0.11890115399728529,-3.373430139160156,-8.927977990722656,-0.55545478515625,0,0,0,0
0.12062833699746989,-3.440467785644531,-8.86094034423828,-0.74699091796875,0,0,0,0
0.1217927480029175,-3.4859576171874997,-8.916006982421875,-0.699106884765625,0,0,0,0
0.12288351300230715,-3.383006945800781,-8.913612780761719,-0.5865794067382812,0,0,0,0
0.1247143790096743,-3.4763808105468748,-8.877699755859375,-0.7015010864257812,0,0,0,0
0.12626893400738481,-3.526659045410156,-8.971073620605468,-0.6248866333007812,0,0,0,0
0.12738293899747077,-3.4668040039062498,-8.91840118408203,-0.5746083984375,0,0,0,0
0.12846503700711764,-3.450044592285156,-8.939948999023438,-0.6967126831054687,0,0,0,0
0.12955370900454,-3.380612744140625,-8.949525805664061,-0.6392518432617187,0,0,0,0
0.1311253379972186,-3.4763808105468748,-8.904035974121093,-0.7422025146484375,0,0,0,0
0.13229295299970545,-3.430890979003906,-8.911218579101561,-0.7422025146484375,0,0,0,0
0.13338336600281764,-3.347093920898437,-8.872911352539061,-0.6727706665039062,0,0,0,0
0.13448690800578333,-3.3327287109375,-8.839392529296875,-0.6057330200195312,0,0,0,0
0.1363939770089928,-3.414131567382812,-8.875305554199219,-0.6344634399414062,0,0,0,0
0.13755379599751905,-3.423708374023437,-8.930372192382812,-0.6416460449218749,0,0,0,0
0.13864285699673928,-3.404554760742187,-8.930372192382812,-0.6200982299804687,0,0,0,0
0.1412722500099335,-3.4572271972656248,-9.004592443847656,-0.7134720947265625,0,0,0,0
0.143033173008007,-3.4668040039062498,-8.827421520996094,-0.718260498046875,0,0,0,0
0.14425558400398586,-3.430890979003906,-8.904035974121093,-0.6248866333007812,0,0,0,0
0.14566754800034687,-3.394977954101562,-8.904035974121093,-0.6153098266601562,0,0,0,0
0.14708051300840452,-3.4739866088867184,-8.930372192382812,-0.6177040283203125,0,0,0,0
0.14880936199915595,-3.440467785644531,-8.985438830566405,-0.6248866333007812,0,0,0,0
0.14997142199717928,-3.342305517578125,-8.856151940917968,-0.6584054565429687,0,0,0,0
0.15114213000924792,-3.347093920898437,-8.892064965820312,-0.6296750366210937,0,0,0,0
0.15229261500644498,-3.373430139160156,-8.825027319335938,-0.584185205078125,0,0,0,0
0.15352130400424358,-3.380612744140625,-8.846575134277343,-0.5985504150390625,0,0,0,0
0.1546989560010843,-3.478775012207031,-8.9255837890625,-0.7038952880859375,0,0,0,0
0.15582922000612598,-3.4620156005859375,-9.026140258789061,-0.6631938598632812,0,0,0,0
0.15703648299677297,-3.296815686035156,-8.884882360839843,-0.6631938598632812,0,0,0,0
0.15817182100727223,-3.323151904296875,-8.961496813964843,-0.6943184814453125,0,0,0,0
0.15926273399963975,-3.469198205566406,-8.978256225585938,-0.6847416748046875,0,0,0,0
0.16034777600725647,-3.5769372802734374,-8.932766394042968,-0.6392518432617187,0,0,0,0
0.16143854000256397,-3.5027170288085934,-8.913612780761719,-0.7038952880859375,0,0,0,0
0.16261159999703523,-3.4548329956054684,-8.920795385742187,-0.6416460449218749,0,0,0,0
0.16372312400199007,-3.488351818847656,-8.913612780761719,-0.5770026000976562,0,0,0,0
0.16481075799674727,-3.5865140869140624,-8.966285217285156,-0.6177040283203125,0,0,0,0
0.1660831320041325,-3.469198205566406,-8.877699755859375,-0.6440402465820312,0,0,0,0
0.1672597099968698,-3.3303345092773435,-8.844180932617187,-0.6751648681640625,0,0,0,0
0.1684343990054913,-3.31357509765625,-8.88009395751953,-0.7038952880859375,0,0,0,0
0.16952849700464867,-3.308786694335937,-8.870517150878905,-0.63206923828125,0,0,0,0
0.1706102800089866,-3.3255461059570313,-8.90643017578125,-0.49320554199218747,0,0,0,0
0.17169673000171315,-3.411737365722656,-8.86812294921875,-0.7350199096679687,0,0,0,0
0.17286117799812928,-3.414131567382812,-8.762778076171875,-0.689530078125,0,0,0,0
0.17399286800355185,-3.4763808105468748,-8.930372192382812,-0.5865794067382812,0,0,0,0
0.1750811700039776,-3.3877953491210935,-8.88009395751953,-0.59376201171875,0,0,0,0
0.17631169200467411,-3.3016040893554686,-8.916006982421875,-0.5722141967773438,0,0,0,0
0.1776005459978478,-3.3016040893554686,-8.990227233886719,-0.5410895751953124,0,0,0,0
0.17888871600735,-3.3016040893554686,-8.913612780761719,-0.6368576416015624,0,0,0,0
0.18021514400606975,-3.4739866088867184,-9.016563452148437,-0.6943184814453125,0,0,0,0
0.18146362800325733,-3.488351818847656,-9.004592443847656,-0.6560112548828124,0,0,0,0
0.18264013300358783,-3.4452561889648434,-8.94473740234375,-0.699106884765625,0,0,0,0
0.18388913600938395,-3.4428619873046875,-8.908824377441405,-0.7062894897460937,0,0,0,0
0.18515210199984722,-3.4261025756835934,-8.882488159179687,-0.6967126831054687,0,0,0,0
0.18632829100533854,-3.3638533325195312,-8.916006982421875,-0.6679822631835937,0,0,0,0
0.18810389899590518,-3.488351818847656,-8.94473740234375,-0.6392518432617187,0,0,0,0
0.1899754500045674,-3.5601778686523438,-8.901641772460938,-0.7972691528320313,0,0,0,0
0.19175420599640347,-3.5314474487304683,-8.923189587402343,-0.6775590698242188,0,0,0,0
0.19373166300647426,-3.3446997192382812,-8.89924757080078,-0.6512228515624999,0,0,0,0
0.19546092000382487,-3.4356793823242184,-8.942343200683593,-0.6607996582031249,0,0,0,0
0.19673177500953898,-3.459621398925781,-9.023746057128905,-0.70868369140625,0,0,0,0
0.1979947960062418,-3.450044592285156,-8.875305554199219,-0.7062894897460937,0,0,0,0
0.19917422599974088,-3.31357509765625,-8.923189587402343,-0.6847416748046875,0,0,0,0
0.2003523230087012,-3.366247534179687,-8.954314208984375,-0.6751648681640625,0,0,0,0
0.20175893499981612,-3.4261025756835934,-8.932766394042968,-0.689530078125,0,0,0,0
0.20304610500170384,-3.3877953491210935,-8.990227233886719,-0.6153098266601562,0,0,0,0
0.20424077499774285,-3.450044592285156,-8.947131604003905,-0.6488286499023437,0,0,0,0
0.2054220760037424,-3.430890979003906,-8.916006982421875,-0.6177040283203125,0,0,0,0
0.20707457400567364,-3.404554760742187,-8.916006982421875,-0.6607996582031249,0,0,0,0
0.20887338499596808,-3.3446997192382812,-8.939948999023438,-0.6607996582031249,0,0,0,0
0.21079399100563023,-3.5314474487304683,-8.961496813964843,-0.5865794067382812,0,0,0,0
0.21245667499897536,-3.5314474487304683,-8.951920007324219,-0.6464344482421874,0,0,0,0
0.21385484300844837,-3.469198205566406,-8.884882360839843,-0.6679822631835937,0,0,0,0
0.21505951300787274,-3.3255461059570313,-8.901641772460938,-0.6919242797851562,0,0,0,0
0.2163058500009356,-3.337517114257812,-8.904035974121093,-0.622492431640625,0,0,0,0
0.21770081399881747,-3.361459130859375,-8.91840118408203,-0.6248866333007812,0,0,0,0
0.21887744800187647,-3.366247534179687,-8.88009395751953,-0.6751648681640625,0,0,0,0
0.22005628500483,-3.459621398925781,-8.8489693359375,-0.7565677246093749,0,0,0,0
0.22129965900967363,-3.4907460205078125,-8.971073620605468,-0.7015010864257812,0,0,0,0
0.2226502160046948,-3.4428619873046875,-8.968679418945312,-0.6440402465820312,0,0,0,0
0.22382542400737293,-3.3351229125976563,-8.88009395751953,-0.5458779785156249,0,0,0,0
0.22535255399998277,-3.3303345092773435,-8.86812294921875,-0.5626373901367188,0,0,0,0
0.22674457399989478,-3.3351229125976563,-8.920795385742187,-0.6584054565429687,0,0,0,0
0.2281670380034484,-3.2632968627929686,-8.930372192382812,-0.6823474731445313,0,0,0,0
0.22935241200320888,-3.3207577026367185,-8.932766394042968,-0.6943184814453125,0,0,0,0
0.23053202700975817,-3.342305517578125,-8.961496813964843,-0.6057330200195312,0,0,0,0
0.23187632599729113,-3.4356793823242184,-8.94473740234375,-0.7326257080078125,0,0,0,0
0.23309768100443762,-3.5673604736328124,-9.018957653808593,-0.6943184814453125,0,0,0,0
0.23426903699873947,-3.4859576171874997,-8.961496813964843,-0.6105214233398437,0,0,0,0
0.23620106899761595,-3.4332851806640625,-8.935160595703124,-0.6727706665039062,0,0,0,0
0.23788175200752448,-3.3710359375,-8.942343200683593,-0.5602431884765625,0,0,0,0
0.2390830520016607,-3.5003228271484375,-8.961496813964843,-0.622492431640625,0,0,0,0
0.24051392399996985,-3.4763808105468748,-8.954314208984375,-0.6679822631835937,0,0,0,0
0.24197233200538903,-3.4572271972656248,-8.935160595703124,-0.6488286499023437,0,0,0,0
0.24319974200625438,-3.4332851806640625,-8.932766394042968,-0.6967126831054687,0,0,0,0
0.24437385800410993,-3.3327287109375,-8.846575134277343,-0.603338818359375,0,0,0,0
0.2458772840036545,-3.3303345092773435,-8.89924757080078,-0.622492431640625,0,0,0,0
0.24717189800867345,-3.373430139160156,-8.963891015625,-0.5506663818359374,0,0,0,0
0.24843238200992346,-3.385401147460937,-8.91840118408203,-0.6057330200195312,0,0,0,0
0.25060878100339323,-3.4165257690429685,-8.942343200683593,-0.5434837768554687,0,0,0,0
0.2525192210014211,-3.4572271972656248,-8.882488159179687,-0.7062894897460937,0,0,0,0
0.25425607000943273,-3.303998291015625,-8.920795385742187,-0.6943184814453125,0,0,0,0
0.2568745559983654,-3.3111808959960936,-8.987833032226561,-0.6655880615234374,0,0,0,0
0.2588911979983095,-3.4428619873046875,-8.920795385742187,-0.6919242797851562,0,0,0,0
0.26133848300378304,-3.39018955078125,-8.935160595703124,-0.7685387329101562,0,0,0,0
0.2633743839978706,-3.4931402221679684,-8.971073620605468,-0.6368576416015624,0,0,0,0
0.2646432210021885,-3.4093431640625,-8.942343200683593,-0.6727706665039062,0,0,0,0
0.2658253170084208,-3.4955344238281247,-8.901641772460938,-0.6631938598632812,0,0,0,0
0.2676221840083599,-3.258508459472656,-8.757989672851561,-0.7038952880859375,0,0,0,0
0.2688430209964281,-3.2417490478515623,-8.932766394042968,-0.6679822631835937,0,0,0,0
0.2700401729962323,-3.373430139160156,-8.901641772460938,-0.6943184814453125,0,0,0,0
0.27114425200852565,-3.438073583984375,-8.985438830566405,-0.689530078125,0,0,0,0
0.27288556400162634,-3.4668040039062498,-8.877699755859375,-0.718260498046875,0,0,0,0
0.2746023950021481,-3.3351229125976563,-8.755595471191405,-0.5578489868164063,0,0,0,0
0.2757726950076176,-3.3542765258789062,-9.026140258789061,-0.5961562133789062,0,0,0,0
0.2768550519976998,-3.2417490478515623,-8.985438830566405,-0.7613561279296874,0,0,0,0
0.27889121300540864,-3.440467785644531,-8.851363537597656,-0.6464344482421874,0,0,0,0
0.2804341379960533,-3.404554760742187,-8.892064965820312,-0.6943184814453125,0,0,0,0
0.28164356799970847,-3.383006945800781,-8.827421520996094,-0.7015010864257812,0,0,0,0
0.2829294780094642,-3.3494881225585935,-8.86812294921875,-0.6392518432617187,0,0,0,0
0.28400968700589146,-3.5027170288085934,-8.94473740234375,-0.7517793212890624,0,0,0,0
0.2851472839975031,-3.5242648437499997,-8.91840118408203,-0.6919242797851562,0,0,0,0
0.2862824549956713,-3.4165257690429685,-8.84178673095703,-0.6584054565429687,0,0,0,0
0.2873536650004098,-3.289633081054687,-8.834604125976561,-0.6919242797851562,0,0,0,0
0.28841811399615835,-3.3542765258789062,-8.927977990722656,-0.7661445312499999,0,0,0,0
0.289686692005489,-3.3686417358398435,-8.896853369140624,-0.6416460449218749,0,0,0,0
0.29085932500311173,-3.430890979003906,-8.913612780761719,-0.689530078125,0,0,0,0
0.2920597920019645,-3.3686417358398435,-8.808267907714843,-0.59376201171875,0,0,0,0
0.29321887000696734,-3.3111808959960936,-8.889670764160156,-0.5578489868164063,0,0,0,0
0.29431365300843026,-3.3399113159179685,-8.892064965820312,-0.7302315063476562,0,0,0,0
0.2953959919977933,-3.411737365722656,-8.954314208984375,-0.679953271484375,0,0,0,0
0.2964811819983879,-3.497928625488281,-8.992621435546875,-0.679953271484375,0,0,0,0
0.2976392980053788,-3.440467785644531,-8.992621435546875,-0.612915625,0,0,0,0
0.2988566349959001,-3.421314172363281,-8.975862023925782,-0.5051765502929687,0,0,0,0
0.2999449360067956,-3.3973721557617185,-8.954314208984375,-0.6105214233398437,0,0,0,0
0.3010314599960111,-3.3590649291992185,-8.923189587402343,-0.5985504150390625,0,0,0,0
0.3021790010097902,-3.385401147460937,-8.916006982421875,-0.6751648681640625,0,0,0,0
0.30332606101001147,-3.4620156005859375,-8.966285217285156,-0.6584054565429687,0,0,0,0
0.30462469400663394,-3.469198205566406,-9.035717065429687,-0.5985504150390625,0,0,0,0
0.3057410870096646,-3.375824340820312,-8.89924757080078,-0.6727706665039062,0,0,0,0
0.306825926003512,-3.2920272827148436,-8.872911352539061,-0.7015010864257812,0,0,0,0
0.30799235599988606,-3.3303345092773435,-8.916006982421875,-0.7015010864257812,0,0,0,0
0.30913300899555907,-3.366247534179687,-8.88009395751953,-0.7062894897460937,0,0,0,0
0.31022114399820566,-3.3782185424804685,-8.88009395751953,-0.7206546997070312,0,0,0,0
0.3113042229961138,-3.447650390625,-8.923189587402343,-0.6536170532226562,0,0,0,0
0.312390895007411,-3.306392492675781,-8.88009395751953,-0.622492431640625,0,0,0,0
0.31353284399665426,-3.2800562744140622,-8.896853369140624,-0.7445967163085937,0,0,0,0
0.31466881099913735,-3.3351229125976563,-9.02135185546875,-0.6081272216796875,0,0,0,0
0.31574461300624534,-3.3638533325195312,-8.987833032226561,-0.6105214233398437,0,0,0,0
0.31681402600952424,-3.5003228271484375,-8.963891015625,-0.6607996582031249,0,0,0,0
0.31790399400051683,-3.4955344238281247,-8.978256225585938,-0.6703764648437499,0,0,0,0
0.3192318850051379,-3.430890979003906,-8.94473740234375,-0.6416460449218749,0,0,0,0
0.3204954440006986,-3.414131567382812,-8.971073620605468,-0.7398083129882812,0,0,0,0
0.32163544799550436,-3.3686417358398435,-8.913612780761719,-0.6488286499023437,0,0,0,0
0.32273258300847374,-3.327940307617187,-8.911218579101561,-0.5865794067382812,0,0,0,0
0.3238525320048211,-3.4859576171874997,-8.975862023925782,-0.5602431884765625,0,0,0,0
0.32513779400323983,-3.4261025756835934,-8.951920007324219,-0.6105214233398437,0,0,0,0
0.3262907620082842,-3.423708374023437,-8.913612780761719,-0.6344634399414062,0,0,0,0
0.32737848900433164,-3.423708374023437,-8.86094034423828,-0.5530605834960938,0,0,0,0
0.3286586400063243,-3.373430139160156,-8.911218579101561,-0.5267243652343749,0,0,0,0
0.3298709030059399,-3.3351229125976563,-8.978256225585938,-0.6631938598632812,0,0,0,0
0.3317388249997748,-3.4524387939453125,-8.858546142578124,-0.6488286499023437,0,0,0,0
0.3342362200055504,-3.303998291015625,-8.872911352539061,-0.5434837768554687,0,0,0,0
0.3354415939975297,-3.2920272827148436,-9.006986645507812,-0.6512228515624999,0,0,0,0
0.33676948500215076,-3.2632968627929686,-9.042899670410156,-0.6919242797851562,0,0,0,0
0.33786624899948947,-3.4955344238281247,-8.990227233886719,-0.6751648681640625,0,0,0,0
0.3389947539981222,-3.4452561889648434,-8.920795385742187,-0.6943184814453125,0,0,0,0
0.3404166999971494,-3.394977954101562,-8.872911352539061,-0.7829039428710937,0,0,0,0
0.3417741090088384,-3.488351818847656,-8.896853369140624,-0.7829039428710937,0,0,0,0
0.3428673919988796,-3.3111808959960936,-8.959102612304687,-0.6607996582031249,0,0,0,0
0.3439546559966402,-3.478775012207031,-8.99501563720703,-0.679953271484375,0,0,0,0
0.34551321099570487,-3.4644098022460934,-8.966285217285156,-0.7038952880859375,0,0,0,0
0.34698360100446735,-3.4572271972656248,-8.973467822265624,-0.6655880615234374,0,0,0,0
0.34811978999641724,-3.414131567382812,-8.892064965820312,-0.6775590698242188,0,0,0,0
0.34921453600691166,-3.299209887695312,-8.858546142578124,-0.7015010864257812,0,0,0,0
0.35037141099746805,-3.2609026611328122,-8.904035974121093,-0.6560112548828124,0,0,0,0
0.3515378040028736,-3.3446997192382812,-8.89924757080078,-0.6081272216796875,0,0,0,0
0.35263549399678595,-3.4069489624023435,-8.935160595703124,-0.6584054565429687,0,0,0,0
0.35372316600114573,-3.404554760742187,-8.95670841064453,-0.6967126831054687,0,0,0,0
0.3550136690028012,-3.447650390625,-8.966285217285156,-0.6943184814453125,0,0,0,0
0.3572773630003212,-3.414131567382812,-8.980650427246093,-0.6679822631835937,0,0,0,0
0.35853394100558944,-3.438073583984375,-8.913612780761719,-0.6631938598632812,0,0,0,0
0.35965579700132366,-3.3399113159179685,-8.8872765625,-0.6679822631835937,0,0,0,0
0.36077950600883923,-3.303998291015625,-8.959102612304687,-0.7206546997070312,0,0,0,0
0.36201810200873297,-3.2609026611328122,-8.908824377441405,-0.7445967163085937,0,0,0,0
0.3633235120069003,-3.3327287109375,-8.94473740234375,-0.6751648681640625,0,0,0,0
0.364516960005858,-3.414131567382812,-9.006986645507812,-0.6847416748046875,0,0,0,0
0.36565200200129766,-3.4763808105468748,-8.971073620605468,-0.6368576416015624,0,0,0,0
0.3667434140079422,-3.497928625488281,-8.963891015625,-0.6751648681640625,0,0,0,0
0.36783330800244585,-3.3710359375,-8.990227233886719,-0.6703764648437499,0,0,0,0
0.36910581099800766,-3.3016040893554686,-8.966285217285156,-0.6272808349609375,0,0,0,0
0.37035237000964116,-3.268085266113281,-8.975862023925782,-0.6392518432617187,0,0,0,0
0.37148044900095556,-3.3710359375,-8.975862023925782,-0.70868369140625,0,0,0,0
0.3725721390073886,-3.4548329956054684,-8.961496813964843,-0.6703764648437499,0,0,0,0
0.3737457910028752,-3.42849677734375,-8.997409838867187,-0.6153098266601562,0,0,0,0
0.3750713680055924,-3.4572271972656248,-8.975862023925782,-0.6488286499023437,0,0,0,0
0.37632127800316084,-3.469198205566406,-8.884882360839843,-0.5602431884765625,0,0,0,0
0.37743782000325155,-3.375824340820312,-8.911218579101561,-0.5578489868164063,0,0,0,0
0.3785240849974798,-3.3399113159179685,-8.90643017578125,-0.689530078125,0,0,0,0
0.37960779400600586,-3.2609026611328122,-8.920795385742187,-0.6607996582031249,0,0,0,0
0.3807607610069681,-3.323151904296875,-8.908824377441405,-0.679953271484375,0,0,0,0
0.38206837500911206,-3.342305517578125,-8.920795385742187,-0.6536170532226562,0,0,0,0
0.3833431740058586,-3.3327287109375,-8.872911352539061,-0.622492431640625,0,0,0,0
0.3844563640013803,-3.318363500976562,-8.916006982421875,-0.7302315063476562,0,0,0,0
0.3855486469983589,-3.3327287109375,-8.95670841064453,-0.6464344482421874,0,0,0,0
0.38665854099963326,-3.385401147460937,-8.920795385742187,-0.689530078125,0,0,0,0
0.38783506299660075,-3.3782185424804685,-8.851363537597656,-0.6512228515624999,0,0,0,0
0.3890584000037052,-3.308786694335937,-8.894459167480468,-0.6703764648437499,0,0,0,0
0.3903722539980663,-3.318363500976562,-8.949525805664061,-0.7110778930664062,0,0,0,0
0.3915112030081218,-3.3327287109375,-8.997409838867187,-0.6727706665039062,0,0,0,0
0.39259959700575564,-3.4668040039062498,-8.951920007324219,-0.6081272216796875,0,0,0,0
0.3937176760082366,-3.402160559082031,-8.9255837890625,-0.6679822631835937,0,0,0,0
0.394811051999568,-3.4069489624023435,-8.942343200683593,-0.6440402465820312,0,0,0,0
0.3959855190041708,-3.2920272827148436,-8.99501563720703,-0.6368576416015624,0,0,0,0
0.39726507700106595,-3.39018955078125,-8.966285217285156,-0.699106884765625,0,0,0,0
0.3984275999973761,-3.421314172363281,-8.916006982421875,-0.7350199096679687,0,0,0,0
0.3995852899970487,-3.3207577026367185,-8.901641772460938,-0.70868369140625,0,0,0,0
0.4007134420098737,-3.306392492675781,-8.978256225585938,-0.6847416748046875,0,0,0,0
0.4018822240032023,-3.3303345092773435,-9.014169250488282,-0.6727706665039062,0,0,0,0
0.4030148400051985,-3.318363500976562,-8.896853369140624,-0.6081272216796875,0,0,0,0
0.404105845009326,-3.265691064453125,-8.853757739257812,-0.6584054565429687,0,0,0,0
0.4051948510023067,-3.2561142578125,-8.930372192382812,-0.7350199096679687,0,0,0,0
0.4062752080062637,-3.3446997192382812,-8.985438830566405,-0.7158662963867187,0,0,0,0
0.4073590280022472,-3.4644098022460934,-9.004592443847656,-0.7565677246093749,0,0,0,0
0.4085087730054511,-3.4955344238281247,-8.997409838867187,-0.7038952880859375,0,0,0,0
0.4097615350037813,-3.411737365722656,-8.987833032226561,-0.7278373046875,0,0,0,0
0.4108587070077192,-3.404554760742187,-8.975862023925782,-0.6751648681640625,0,0,0,0
0.4119445640099002,-3.3494881225585935,-8.882488159179687,-0.6631938598632812,0,0,0,0
0.4133739910030272,-3.4093431640625,-8.961496813964843,-0.699106884765625,0,0,0,0
0.41457375400932506,-3.402160559082031,-8.875305554199219,-0.7206546997070312,0,0,0,0
0.415668852001545,-3.4572271972656248,-8.908824377441405,-0.6536170532226562,0,0,0,0
0.41675581999879796,-3.1962592163085937,-8.908824377441405,-0.612915625,0,0,0,0
0.41788880599779077,-3.277662072753906,-8.978256225585938,-0.6847416748046875,0,0,0,0
0.4194651940051699,-3.3303345092773435,-8.980650427246093,-0.6919242797851562,0,0,0,0
0.4206296430056682,-3.284844677734375,-8.949525805664061,-0.6751648681640625,0,0,0,0
0.421726889006095,-3.5027170288085934,-8.892064965820312,-0.6631938598632812,0,0,0,0
0.42281120900588576,-3.3542765258789062,-8.856151940917968,-0.7134720947265625,0,0,0,0
0.4238966770062689,-3.3351229125976563,-8.935160595703124,-0.6272808349609375,0,0,0,0
0.4254535470099654,-3.284844677734375,-8.978256225585938,-0.6847416748046875,0,0,0,0
0.42684065899811685,-3.4069489624023435,-8.98304462890625,-0.7062894897460937,0,0,0,0
0.4279404240078293,-3.3973721557617185,-8.932766394042968,-0.6009446166992187,0,0,0,0
0.42906235400005244,-3.39018955078125,-8.9255837890625,-0.6200982299804687,0,0,0,0
0.4305808729986893,-3.296815686035156,-8.973467822265624,-0.6536170532226562,0,0,0,0
0.4318822640052531,-3.265691064453125,-8.949525805664061,-0.6560112548828124,0,0,0,0
0.4330091580050066,-3.3255461059570313,-8.904035974121093,-0.6775590698242188,0,0,0,0
0.43409718200564384,-3.399766357421875,-8.978256225585938,-0.6560112548828124,0,0,0,0
0.4355836820031982,-3.42849677734375,-8.935160595703124,-0.63206923828125,0,0,0,0
0.43688131400267594,-3.394977954101562,-8.93755479736328,-0.7134720947265625,0,0,0,0
0.4379650229966501,-3.4452561889648434,-8.939948999023438,-0.6967126831054687,0,0,0,0
0.43903710300219245,-3.450044592285156,-8.882488159179687,-0.6919242797851562,0,0,0,0
0.4401059969968628,-3.4069489624023435,-9.026140258789061,-0.603338818359375,0,0,0,0
0.44174531000317074,-3.21780703125,-8.8489693359375,-0.6607996582031249,0,0,0,0
0.44293618500523735,-3.208230224609375,-8.858546142578124,-0.6943184814453125,0,0,0,0
0.44402557899593376,-3.2920272827148436,-8.875305554199219,-0.7110778930664062,0,0,0,0
0.44511715800035745,-3.3638533325195312,-8.930372192382812,-0.7948749511718749,0,0,0,0
0.44672037899727,-3.361459130859375,-8.963891015625,-0.8283937744140625,0,0,0,0
0.44790786399971694,-3.421314172363281,-8.93755479736328,-0.7637503295898437,0,0,0,0
0.449025388006703,-3.450044592285156,-8.916006982421875,-0.8068459594726562,0,0,0,0
0.45012902200687677,-3.337517114257812,-8.863334545898438,-0.6679822631835937,0,0,0,0
0.4517184660071507,-3.27526787109375,-8.980650427246093,-0.612915625,0,0,0,0
0.4528967480000574,-3.4069489624023435,-9.018957653808593,-0.6177040283203125,0,0,0,0
0.4540026600006968,-3.497928625488281,-9.042899670410156,-0.5889736083984375,0,0,0,0
0.45509014700655825,-3.394977954101562,-8.963891015625,-0.7613561279296874,0,0,0,0
0.456654220004566,-3.35188232421875,-8.947131604003905,-0.689530078125,0,0,0,0
0.4578359279985307,-3.323151904296875,-8.95670841064453,-0.6081272216796875,0,0,0,0
0.4589283399982378,-3.337517114257812,-8.913612780761719,-0.718260498046875,0,0,0,0
0.4600122720003128,-3.3877953491210935,-8.8872765625,-0.6584054565429687,0,0,0,0
0.4619243780034594,-3.394977954101562,-8.875305554199219,-0.6703764648437499,0,0,0,0
0.46360506099881604,-3.3638533325195312,-8.923189587402343,-0.7302315063476562,0,0,0,0
0.4658282739983406,-3.337517114257812,-8.884882360839843,-0.7278373046875,0,0,0,0
0.46771186200203374,-3.42849677734375,-8.82981572265625,-0.82360537109375,0,0,0,0
0.4692480289959349,-3.430890979003906,-8.882488159179687,-0.7062894897460937,0,0,0,0
0.4711508570035221,-3.5051112304687497,-9.133879333496093,-0.46208092041015625,0,0,0,0
0.4723997310065897,-3.5338416503906247,-9.13627353515625,-0.5961562133789062,0,0,0,0
0.47352151400991715,-3.5003228271484375,-8.932766394042968,-0.5602431884765625,0,0,0,0
0.4745940190041438,-3.478775012207031,-8.971073620605468,-0.5099649536132812,0,0,0,0
0.4756621910055401,-3.287238879394531,-8.987833032226561,-0.5363011718749999,0,0,0,0
0.47673156700329855,-3.323151904296875,-9.062053283691405,-0.5817910034179687,0,0,0,0
0.4783719730039593,-3.392583752441406,-8.973467822265624,-0.7350199096679687,0,0,0,0
0.479534865997266,-3.421314172363281,-8.975862023925782,-0.6967126831054687,0,0,0,0
0.4806154819962103,-3.383006945800781,-8.978256225585938,-0.6751648681640625,0,0,0,0
0.4817110239964677,-3.3446997192382812,-8.8872765625,-0.6607996582031249,0,0,0,0
0.4827851220034063,-3.4835634155273434,-8.858546142578124,-0.6272808349609375,0,0,0,0
0.48488068900769576,-3.265691064453125,-8.884882360839843,-0.6536170532226562,0,0,0,0
0.4860064350068569,-3.1387983764648437,-8.908824377441405,-0.6200982299804687,0,0,0,0
0.48710460599977523,-3.1675287963867187,-8.90643017578125,-0.48123453369140623,0,0,0,0
0.4881939820043044,-3.2321722412109373,-8.913612780761719,-0.6631938598632812,0,0,0,0
0.489363005006453,-3.246537451171875,-8.930372192382812,-0.699106884765625,0,0,0,0
0.49054271199565846,-3.0693665283203124,-8.932766394042968,-0.7110778930664062,0,0,0,0
0.4916315879963804,-3.2130186279296873,-8.978256225585938,-0.86191259765625,0,0,0,0
0.49270642700139433,-3.2609026611328122,-8.93755479736328,-0.8212111694335937,0,0,0,0
0.493802876007976,-3.3255461059570313,-8.94473740234375,-0.7589619262695312,0,0,0,0
0.49506902700522915,-3.2537200561523436,-8.91840118408203,-0.82360537109375,0,0,0,0
0.49622084700968117,-3.1675287963867187,-8.89924757080078,-0.6248866333007812,0,0,0,0
0.49731918500037864,-3.1842882080078123,-8.951920007324219,-0.6488286499023437,0,0,0,0
0.49840532000234816,-3.2154128295898436,-8.999804040527343,-0.679953271484375,0,0,0,0
0.49949343600019347,-3.2728736694335936,-8.968679418945312,-0.7709329345703124,0,0,0,0
0.500649125999189,-3.3542765258789062,-8.954314208984375,-0.7206546997070312,0,0,0,0
0.5018041669973172,-3.3351229125976563,-8.930372192382812,-0.6607996582031249,0,0,0,0
0.5028875980060548,-3.356670727539062,-8.935160595703124,-0.6512228515624999,0,0,0,0
0.5039634550048504,-3.3327287109375,-8.935160595703124,-0.7038952880859375,0,0,0,0
0.5051621070015244,-3.3207577026367185,-8.942343200683593,-0.7038952880859375,0,0,0,0
0.5064528320071986,-3.411737365722656,-9.026140258789061,-0.6967126831054687,0,0,0,0
0.5075505040003918,-3.375824340820312,-8.954314208984375,-0.7326257080078125,0,0,0,0
0.508912228004192,-3.296815686035156,-8.851363537597656,-0.6703764648437499,0,0,0,0
0.5100619360018754,-3.306392492675781,-8.95670841064453,-0.5434837768554687,0,0,0,0
0.5112119590048678,-3.347093920898437,-8.942343200683593,-0.6847416748046875,0,0,0,0
0.5124649810022675,-3.383006945800781,-8.980650427246093,-0.5698199951171875,0,0,0,0
0.5135656339989509,-3.4093431640625,-8.966285217285156,-0.6464344482421874,0,0,0,0
0.5146832870086655,-3.2800562744140622,-8.978256225585938,-0.6847416748046875,0,0,0,0
0.5162728050054284,-3.31357509765625,-8.980650427246093,-0.699106884765625,0,0,0,0
0.5175016230059555,-3.2537200561523436,-8.978256225585938,-0.6560112548828124,0,0,0,0
0.5187532929994632,-3.4452561889648434,-9.02135185546875,-0.7326257080078125,0,0,0,0
0.5198535390081815,-3.3327287109375,-8.947131604003905,-0.6919242797851562,0,0,0,0
0.520968709999579,-3.3399113159179685,-8.872911352539061,-0.6368576416015624,0,0,0,0
0.5221194740006467,-3.3303345092773435,-8.875305554199219,-0.7637503295898437,0,0,0,0
0.5234821979975095,-3.265691064453125,-8.98304462890625,-0.7685387329101562,0,0,0,0
0.5248021080042236,-3.2441432495117186,-8.980650427246093,-0.7781155395507812,0,0,0,0
0.5259044270060258,-3.27526787109375,-8.985438830566405,-0.7158662963867187,0,0,0,0
0.5270607650018064,-3.2800562744140622,-8.93755479736328,-0.679953271484375,0,0,0,0
0.5282218430074863,-3.2249896362304686,-8.89924757080078,-0.6416460449218749,0,0,0,0
0.5295369200030109,-3.1316157714843746,-8.90643017578125,-0.6871358764648438,0,0,0,0
0.5306606469966937,-3.3327287109375,-8.949525805664061,-0.6727706665039062,0,0,0,0
0.5317462450038875,-3.3494881225585935,-8.8872765625,-0.6153098266601562,0,0,0,0
0.532832545999554,-3.35188232421875,-8.923189587402343,-0.5482721801757812,0,0,0,0
0.5339901249972172,-3.342305517578125,-8.947131604003905,-0.5099649536132812,0,0,0,0
0.5351928320014849,-3.414131567382812,-8.930372192382812,-0.6679822631835937,0,0,0,0
0.5362867630028632,-3.35188232421875,-9.038111267089842,-0.6560112548828124,0,0,0,0
0.5373702310025692,-3.27526787109375,-8.930372192382812,-0.6679822631835937,0,0,0,0
0.5384405520017026,-3.303998291015625,-8.971073620605468,-0.6584054565429687,0,0,0,0
0.5395094270061236,-3.277662072753906,-8.997409838867187,-0.7134720947265625,0,0,0,0
0.5406439320067875,-3.3973721557617185,-9.009380847167968,-0.7302315063476562,0,0,0,0
0.5418887690029806,-3.4644098022460934,-8.975862023925782,-0.6847416748046875,0,0,0,0
0.5429860700096469,-3.404554760742187,-8.98304462890625,-0.7350199096679687,0,0,0,0
0.5440732599963667,-3.31357509765625,-8.990227233886719,-0.6488286499023437,0,0,0,0
0.5452237090066774,-3.342305517578125,-8.971073620605468,-0.6919242797851562,0,0,0,0
0.5464072690083412,-3.323151904296875,-8.95670841064453,-0.59376201171875,0,0,0,0
0.547502681001788,-3.318363500976562,-8.985438830566405,-0.612915625,0,0,0,0
0.548584705000394,-3.418919970703125,-8.999804040527343,-0.5913678100585937,0,0,0,0
0.549673507004627,-3.404554760742187,-8.978256225585938,-0.6272808349609375,0,0,0,0
0.5508348629955435,-3.3542765258789062,-8.942343200683593,-0.6943184814453125,0,0,0,0
0.5520314589957707,-3.284844677734375,-8.894459167480468,-0.6871358764648438,0,0,0,0
0.553150278996327,-3.246537451171875,-8.894459167480468,-0.6775590698242188,0,0,0,0
0.5542325429996708,-3.3159692993164063,-8.91840118408203,-0.6560112548828124,0,0,0,0
0.555318086000625,-3.3016040893554686,-8.939948999023438,-0.6200982299804687,0,0,0,0
0.5564620340010151,-3.39018955078125,-8.971073620605468,-0.6200982299804687,0,0,0,0
0.5576756119990023,-3.2441432495117186,-8.858546142578124,-0.63206923828125,0,0,0,0
0.5587659320008243,-3.306392492675781,-8.930372192382812,-0.6416460449218749,0,0,0,0
0.560171803997946,-3.3351229125976563,-8.985438830566405,-0.6631938598632812,0,0,0,0
0.5613290300098015,-3.447650390625,-8.949525805664061,-0.7062894897460937,0,0,0,0
0.56253481200838,-3.3255461059570313,-8.961496813964843,-0.699106884765625,0,0,0,0
0.5636185760085937,-3.289633081054687,-8.949525805664061,-0.6081272216796875,0,0,0,0
0.5646899150015088,-3.318363500976562,-8.951920007324219,-0.6009446166992187,0,0,0,0
0.5658740490034688,-3.438073583984375,-9.0021982421875,-0.718260498046875,0,0,0,0
0.5670252010022523,-3.418919970703125,-8.968679418945312,-0.6823474731445313,0,0,0,0
0.5683662780065788,-3.31357509765625,-8.863334545898438,-0.6512228515624999,0,0,0,0
0.5694982270069886,-3.2609026611328122,-8.959102612304687,-0.6488286499023437,0,0,0,0
0.5705892499972833,-3.268085266113281,-8.971073620605468,-0.622492431640625,0,0,0,0
0.5717655140033457,-3.3494881225585935,-8.927977990722656,-0.59376201171875,0,0,0,0
0.5728548890037928,-3.430890979003906,-8.990227233886719,-0.612915625,0,0,0,0
0.5740191530057928,-3.277662072753906,-8.975862023925782,-0.7230489013671875,0,0,0,0
0.5753192480042344,-3.248931652832031,-8.987833032226561,-0.7134720947265625,0,0,0,0
0.5764165489963489,-3.31357509765625,-9.030928662109375,-0.6607996582031249,0,0,0,0
0.5775023320020409,-3.430890979003906,-8.987833032226561,-0.7230489013671875,0,0,0,0
0.5785911520069931,-3.4644098022460934,-8.961496813964843,-0.7350199096679687,0,0,0,0
0.5797592860035365,-3.4165257690429685,-8.949525805664061,-0.7326257080078125,0,0,0,0
0.5810809550021077,-3.375824340820312,-8.973467822265624,-0.7565677246093749,0,0,0,0
0.5822893849981483,-3.4859576171874997,-8.90643017578125,-0.8020575561523438,0,0,0,0
0.5847827620018506,-3.246537451171875,-8.923189587402343,-0.7398083129882812,0,0,0,0
0.5859650799975498,-3.366247534179687,-8.947131604003905,-0.6536170532226562,0,0,0,0
0.5872386950068176,-3.3877953491210935,-8.951920007324219,-0.6392518432617187,0,0,0,0
0.5883342919987626,-3.421314172363281,-8.908824377441405,-0.5889736083984375,0,0,0,0
0.5894296120095532,-3.5003228271484375,-8.901641772460938,-0.55545478515625,0,0,0,0
0.5909419820090989,-3.2728736694335936,-8.882488159179687,-0.5865794067382812,0,0,0,0
0.5920531360025052,-3.2513258544921873,-8.870517150878905,-0.5913678100585937,0,0,0,0
0.5932388060027733,-3.220201232910156,-8.935160595703124,-0.6727706665039062,0,0,0,0
0.5943299970094813,-3.2225954345703123,-8.935160595703124,-0.6607996582031249,0,0,0,0
0.5956019989971537,-3.3638533325195312,-9.004592443847656,-0.6392518432617187,0,0,0,0
0.5971622210054193,-3.323151904296875,-8.95670841064453,-0.7326257080078125,0,0,0,0
0.5982578560069669,-3.27526787109375,-8.947131604003905,-0.6871358764648438,0,0,0,0
0.5993427310022525,-3.229778039550781,-8.947131604003905,-0.7230489013671875,0,0,0,0
0.6005254390038317,-3.35188232421875,-8.9255837890625,-0.6751648681640625,0,0,0,0
0.6020653650048189,-3.2321722412109373,-8.8872765625,-0.6943184814453125,0,0,0,0
0.6032630539993988,-3.27526787109375,-9.018957653808593,-0.5793968017578125,0,0,0,0
0.6044391500035999,-3.3590649291992185,-9.028534460449219,-0.6512228515624999,0,0,0,0
0.6056236360018374,-3.4332851806640625,-8.999804040527343,-0.6607996582031249,0,0,0,0
0.6072301530075492,-3.399766357421875,-8.947131604003905,-0.7158662963867187,0,0,0,0
0.6085073230060516,-3.3446997192382812,-8.947131604003905,-0.7134720947265625,0,0,0,0
0.6096946050092811,-3.289633081054687,-8.930372192382812,-0.6679822631835937,0,0,0,0
0.6108734790032031,-3.380612744140625,-8.94473740234375,-0.679953271484375,0,0,0,0
0.6121272599993972,-3.3327287109375,-8.872911352539061,-0.6727706665039062,0,0,0,0
0.6136822039989056,-3.289633081054687,-8.856151940917968,-0.7350199096679687,0,0,0,0
0.6149403919989709,-3.327940307617187,-8.930372192382812,-0.7517793212890624,0,0,0,0
0.6161213779996615,-3.31357509765625,-8.942343200683593,-0.6344634399414062,0,0,0,0
0.617370806998224,-3.4955344238281247,-8.913612780761719,-0.6392518432617187,0,0,0,0
0.6188875480002025,-3.323151904296875,-8.990227233886719,-0.6464344482421874,0,0,0,0
0.620063274007407,-3.258508459472656,-9.006986645507812,-0.6679822631835937,0,0,0,0
0.621246130001964,-3.2632968627929686,-9.057264880371093,-0.70868369140625,0,0,0,0
0.622485707004671,-3.447650390625,-9.057264880371093,-0.7829039428710937,0,0,0,0
0.6240773730096407,-3.35188232421875,-8.961496813964843,-0.6751648681640625,0,0,0,0
0.6254801519971807,-3.3327287109375,-8.91840118408203,-0.6631938598632812,0,0,0,0
0.6268465800094418,-3.347093920898437,-8.949525805664061,-0.7613561279296874,0,0,0,0
0.6281385449983645,-3.42849677734375,-8.920795385742187,-0.622492431640625,0,0,0,0
0.6308139570028288,-3.201047619628906,-8.877699755859375,-0.6488286499023437,0,0,0,0
0.6321825330087449,-3.3446997192382812,-8.94473740234375,-0.7134720947265625,0,0,0,0
0.6336133120057639,-3.356670727539062,-8.89924757080078,-0.6727706665039062,0,0,0,0
0.635576917004073,-3.2561142578125,-8.920795385742187,-0.718260498046875,0,0,0,0
0.6367644950078102,-3.294421484375,-8.949525805664061,-0.6679822631835937,0,0,0,0
0.6378801300015766,-3.4165257690429685,-9.011775048828124,-0.6823474731445313,0,0,0,0
0.6391209110006457,-3.438073583984375,-8.980650427246093,-0.6200982299804687,0,0,0,0
0.6403073960100301,-3.2537200561523436,-8.985438830566405,-0.6631938598632812,0,0,0,0
0.6414076610089978,-3.3016040893554686,-8.963891015625,-0.6009446166992187,0,0,0,0
0.6424904809973668,-3.3710359375,-8.966285217285156,-0.6488286499023437,0,0,0,0
0.6435754490084946,-3.404554760742187,-9.026140258789061,-0.6727706665039062,0,0,0,0
0.6447918780031614,-3.421314172363281,-9.014169250488282,-0.5626373901367188,0,0,0,0
0.6461721950036008,-3.421314172363281,-8.920795385742187,-0.6153098266601562,0,0,0,0
0.647331291998853,-3.4907460205078125,-8.892064965820312,-0.6751648681640625,0,0,0,0
0.6484427969990065,-3.2632968627929686,-8.892064965820312,-0.7302315063476562,0,0,0,0
0.6496637630043551,-3.268085266113281,-8.901641772460938,-0.6703764648437499,0,0,0,0
0.6508680080005433,-3.3351229125976563,-8.935160595703124,-0.6919242797851562,0,0,0,0
0.6522142870089738,-3.3111808959960936,-8.992621435546875,-0.6919242797851562,0,0,0,0
0.6536469919956289,-3.3255461059570313,-8.930372192382812,-0.7589619262695312,0,0,0,0
0.655044679006096,-3.3255461059570313,-8.748412866210938,-0.6703764648437499,0,0,0,0
0.656402791995788,-3.2345664428710936,-8.949525805664061,-0.7302315063476562,0,0,0,0
0.6577909970073961,-3.342305517578125,-9.009380847167968,-0.7134720947265625,0,0,0,0
0.6590938330045901,-3.4524387939453125,-8.942343200683593,-0.7781155395507812,0,0,0,0
0.6604134829976829,-3.2920272827148436,-8.93755479736328,-0.7015010864257812,0,0,0,0
0.6616346160008106,-3.3111808959960936,-8.971073620605468,-0.6775590698242188,0,0,0,0
0.6628202690044418,-3.318363500976562,-8.913612780761719,-0.7254431030273437,0,0,0,0
0.6639040150039364,-3.2728736694335936,-8.927977990722656,-0.6655880615234374,0,0,0,0
0.665179777002777,-3.2537200561523436,-8.889670764160156,-0.6775590698242188,0,0,0,0
0.6664224279957125,-3.392583752441406,-9.006986645507812,-0.7398083129882812,0,0,0,0
0.6675176740100142,-3.4069489624023435,-8.961496813964843,-0.7589619262695312,0,0,0,0
0.6685890500084497,-3.373430139160156,-8.939948999023438,-0.7278373046875,0,0,0,0
0.6696710370015353,-3.35188232421875,-8.93755479736328,-0.679953271484375,0,0,0,0
0.6708930589957163,-3.3207577026367185,-8.896853369140624,-0.6392518432617187,0,0,0,0
0.6721663390053436,-3.2321722412109373,-8.947131604003905,-0.5793968017578125,0,0,0,0
0.6734618420014158,-3.3351229125976563,-8.90643017578125,-0.6871358764648438,0,0,0,0
0.6747071230056463,-3.3207577026367185,-8.939948999023438,-0.6344634399414062,0,0,0,0
0.6758910530043067,-3.380612744140625,-8.951920007324219,-0.70868369140625,0,0,0,0
0.6771280560060404,-3.2800562744140622,-8.935160595703124,-0.7422025146484375,0,0,0,0
0.67839791100414,-3.1771056030273437,-8.930372192382812,-0.6775590698242188,0,0,0,0
0.679480731007061,-3.220201232910156,-8.90643017578125,-0.5578489868164063,0,0,0,0
0.6805480879993411,-3.356670727539062,-9.006986645507812,-0.699106884765625,0,0,0,0
0.6816177419968881,-3.488351818847656,-9.006986645507812,-0.6775590698242188,0,0,0,0
0.6826877290004632,-3.356670727539062,-8.908824377441405,-0.6536170532226562,0,0,0,0
0.6839014550059801,-3.356670727539062,-8.894459167480468,-0.6296750366210937,0,0,0,0
0.6851267730089603,-3.3542765258789062,-8.935160595703124,-0.6631938598632812,0,0,0,0
0.6863613140012603,-3.375824340820312,-8.987833032226561,-0.6416460449218749,0,0,0,0
0.6877509629994165,-3.4261025756835934,-8.951920007324219,-0.6847416748046875,0,0,0,0
0.6891782230086392,-3.3710359375,-8.8872765625,-0.6392518432617187,0,0,0,0
0.6904840960050933,-3.31357509765625,-8.930372192382812,-0.6775590698242188,0,0,0,0
0.6917035259975819,-3.337517114257812,-8.963891015625,-0.737414111328125,0,0,0,0
0.6928980670054443,-3.3590649291992185,-8.95670841064453,-0.6584054565429687,0,0,0,0
0.6940437190060038,-3.2609026611328122,-8.913612780761719,-0.6847416748046875,0,0,0,0
0.6951365580025595,-3.2513258544921873,-8.978256225585938,-0.6177040283203125,0,0,0,0
0.6963436170044588,-3.385401147460937,-8.971073620605468,-0.7589619262695312,0,0,0,0
0.697622694002348,-3.385401147460937,-9.018957653808593,-0.8714894042968749,0,0,0,0
0.6988760679960251,-3.3542765258789062,-8.987833032226561,-0.814028564453125,0,0,0,0
0.7001490340044256,-3.3207577026367185,-8.98304462890625,-0.6655880615234374,0,0,0,0
0.7014280730072642,-3.404554760742187,-8.978256225585938,-0.689530078125,0,0,0,0
0.7025431710062549,-3.4261025756835934,-8.894459167480468,-0.7254431030273437,0,0,0,0
0.7036351569986437,-3.294421484375,-8.923189587402343,-0.7852981445312499,0,0,0,0
0.7048311800026568,-3.2441432495117186,-8.908824377441405,-0.6703764648437499,0,0,0,0
0.7059300179971615,-3.287238879394531,-8.95670841064453,-0.7230489013671875,0,0,0,0
0.7071466140041593,-3.2824504760742186,-8.968679418945312,-0.6536170532226562,0,0,0,0
0.7085251350072213,-3.402160559082031,-8.86812294921875,-0.612915625,0,0,0,0
0.7096715280058561,-3.268085266113281,-8.90643017578125,-0.6823474731445313,0,0,0,0
0.710776439998881,-3.27526787109375,-9.038111267089842,-0.7445967163085937,0,0,0,0
0.7118742790044053,-3.399766357421875,-8.990227233886719,-0.7422025146484375,0,0,0,0
0.7131687259970931,-3.2800562744140622,-8.90643017578125,-0.7230489013671875,0,0,0,0
0.7143698220024817,-3.303998291015625,-8.8872765625,-0.6679822631835937,0,0,0,0
0.7154873090039473,-3.342305517578125,-8.93755479736328,-0.6464344482421874,0,0,0,0
0.7165697400050703,-3.2920272827148436,-8.930372192382812,-0.6727706665039062,0,0,0,0
0.7176736149995122,-3.411737365722656,-8.968679418945312,-0.74699091796875,0,0,0,0
0.7189448959979927,-3.4739866088867184,-8.930372192382812,-0.6871358764648438,0,0,0,0
0.7201486770063639,-3.447650390625,-8.920795385742187,-0.6272808349609375,0,0,0,0
0.7212427939957706,-3.399766357421875,-8.913612780761719,-0.6272808349609375,0,0,0,0
0.722330040007364,-3.277662072753906,-8.88009395751953,-0.6512228515624999,0,0,0,0
0.7234124340029666,-3.181894006347656,-8.832209924316405,-0.6727706665039062,0,0,0,0
0.7246193629980553,-3.189076611328125,-8.86812294921875,-0.6464344482421874,0,0,0,0
0.7258509780076565,-3.294421484375,-8.920795385742187,-0.6847416748046875,0,0,0,0
0.7269655380077893,-3.306392492675781,-8.942343200683593,-0.7350199096679687,0,0,0,0
0.7280534140008967,-3.3255461059570313,-8.935160595703124,-0.7206546997070312,0,0,0,0
0.7292635659978259,-3.258508459472656,-8.901641772460938,-0.6871358764648438,0,0,0,0
0.7305563830013853,-3.268085266113281,-8.94473740234375,-0.6679822631835937,0,0,0,0
0.7317227210005512,-3.3494881225585935,-9.026140258789061,-0.6655880615234374,0,0,0,0
0.7328516880079405,-3.497928625488281,-9.011775048828124,-0.7015010864257812,0,0,0,0
0.7340629509999417,-3.3782185424804685,-8.908824377441405,-0.6607996582031249,0,0,0,0
0.7352587890054565,-3.3303345092773435,-8.93755479736328,-0.7062894897460937,0,0,0,0
0.7363530340080615,-3.201047619628906,-8.947131604003905,-0.6727706665039062,0,0,0,0
0.7374388540047221,-3.229778039550781,-8.997409838867187,-0.6631938598632812,0,0,0,0
0.7385168409964535,-3.318363500976562,-8.975862023925782,-0.7062894897460937,0,0,0,0
0.7395979389984859,-3.3686417358398435,-8.959102612304687,-0.7661445312499999,0,0,0,0
0.7408062019967474,-3.373430139160156,-8.947131604003905,-0.7134720947265625,0,0,0,0
0.7420265020045917,-3.294421484375,-8.889670764160156,-0.6200982299804687,0,0,0,0
0.7431178770057159,-3.337517114257812,-8.88009395751953,-0.6440402465820312,0,0,0,0
0.7443689729989273,-3.2800562744140622,-8.894459167480468,-0.699106884765625,0,0,0,0
0.7456321799982106,-3.296815686035156,-9.006986645507812,-0.70868369140625,0,0,0,0
0.7468364430096699,-3.347093920898437,-9.011775048828124,-0.6512228515624999,0,0,0,0
0.747932430007495,-3.287238879394531,-8.973467822265624,-0.5746083984375,0,0,0,0
0.7490266940003494,-3.2800562744140622,-8.975862023925782,-0.6416460449218749,0,0,0,0
0.7502766600082396,-3.2561142578125,-8.954314208984375,-0.6344634399414062,0,0,0,0
0.7515817370003788,-3.2704794677734372,-8.978256225585938,-0.7278373046875,0,0,0,0
0.75283751799725,-3.3710359375,-8.91840118408203,-0.6488286499023437,0,0,0,0
0.7541371679981239,-3.4332851806640625,-8.90643017578125,-0.6655880615234374,0,0,0,0
0.755504615008249,-3.268085266113281,-8.949525805664061,-0.7134720947265625,0,0,0,0
0.7567725810076809,-3.3303345092773435,-9.02135185546875,-0.584185205078125,0,0,0,0
0.7579441029956797,-3.356670727539062,-8.923189587402343,-0.6607996582031249,0,0,0,0
0.7590429600095376,-3.3399113159179685,-8.963891015625,-0.6296750366210937,0,0,0,0
0.7601342060079332,-3.323151904296875,-8.930372192382812,-0.6272808349609375,0,0,0,0
0.761347117004334,-3.208230224609375,-8.877699755859375,-0.6153098266601562,0,0,0,0
0.7625231580022955,-3.2225954345703123,-8.84178673095703,-0.7158662963867187,0,0,0,0
0.7636198670079466,-3.294421484375,-8.930372192382812,-0.718260498046875,0,0,0,0
0.7647066130011808,-3.294421484375,-8.954314208984375,-0.7134720947265625,0,0,0,0
0.7657937110052444,-3.342305517578125,-8.990227233886719,-0.6584054565429687,0,0,0,0
0.7670164550072514,-3.383006945800781,-8.90643017578125,-0.6512228515624999,0,0,0,0
0.7682057740021264,-3.2920272827148436,-8.99501563720703,-0.6847416748046875,0,0,0,0
0.7693148160033161,-3.3782185424804685,-9.016563452148437,-0.6943184814453125,0,0,0,0
0.7704038950032555,-3.459621398925781,-9.026140258789061,-0.7062894897460937,0,0,0,0
0.771566936004092,-3.383006945800781,-8.95670841064453,-0.689530078125,0,0,0,0
0.7728273280081339,-3.2800562744140622,-9.004592443847656,-0.8164227661132812,0,0,0,0
0.7739848330093082,-3.268085266113281,-9.018957653808593,-0.7398083129882812,0,0,0,0
0.7751226340042194,-3.3542765258789062,-9.014169250488282,-0.6584054565429687,0,0,0,0
0.776207417002297,-3.3446997192382812,-8.954314208984375,-0.6177040283203125,0,0,0,0
0.7772986070049228,-3.2345664428710936,-8.904035974121093,-0.6919242797851562,0,0,0,0
0.778450130004785,-3.27526787109375,-8.889670764160156,-0.70868369140625,0,0,0,0
0.7796333559963387,-3.296815686035156,-8.9255837890625,-0.6153098266601562,0,0,0,0
0.7807241389964474,-3.394977954101562,-8.932766394042968,-0.5985504150390625,0,0,0,0
0.7818107549974229,-3.318363500976562,-9.004592443847656,-0.6272808349609375,0,0,0,0
0.7828967420064146,-3.356670727539062,-9.004592443847656,-0.6488286499023437,0,0,0,0
0.7840389869961655,-3.5098996337890624,-9.057264880371093,-0.6536170532226562,0,0,0,0
0.7852726389974123,-3.4428619873046875,-9.0021982421875,-0.6655880615234374,0,0,0,0
0.7864552730025025,-3.31357509765625,-8.997409838867187,-0.6943184814453125,0,0,0,0
0.7876072030048817,-3.3494881225585935,-8.954314208984375,-0.7493851196289062,0,0,0,0
0.7887033379956847,-3.327940307617187,-8.992621435546875,-0.5889736083984375,0,0,0,0
0.7897954350046348,-3.2561142578125,-8.949525805664061,-0.689530078125,0,0,0,0
0.7909717730071861,-3.296815686035156,-8.971073620605468,-0.7613561279296874,0,0,0,0
0.7921240919968113,-3.5122938354492184,-8.930372192382812,-0.63206923828125,0,0,0,0
0.7932189670100342,-3.294421484375,-8.916006982421875,-0.6296750366210937,0,0,0,0
0.7943089540058281,-3.1938650146484373,-8.901641772460938,-0.6272808349609375,0,0,0,0
0.7955187729967292,-3.289633081054687,-8.951920007324219,-0.6847416748046875,0,0,0,0
0.7967679050052539,-3.411737365722656,-8.949525805664061,-0.6703764648437499,0,0,0,0
0.7979335950076347,-3.3446997192382812,-8.94473740234375,-0.6727706665039062,0,0,0,0
0.7990294330083998,-3.239354846191406,-8.94473740234375,-0.5770026000976562,0,0,0,0
0.8001111979974667,-3.3446997192382812,-8.985438830566405,-0.6823474731445313,0,0,0,0
0.8012926829978824,-3.4524387939453125,-8.949525805664061,-0.6631938598632812,0,0,0,0
0.8031185870058835,-3.35188232421875,-8.949525805664061,-0.5793968017578125,0,0,0,0
0.8044231450039661,-3.296815686035156,-8.951920007324219,-0.6607996582031249,0,0,0,0
0.8055490760016255,-3.3303345092773435,-8.963891015625,-0.7661445312499999,0,0,0,0
0.8066368770087138,-3.450044592285156,-8.959102612304687,-0.6751648681640625,0,0,0,0
0.8080408600071678,-3.5098996337890624,-8.99501563720703,-0.5698199951171875,0,0,0,0
0.8096834140014835,-3.21780703125,-8.932766394042968,-0.59376201171875,0,0,0,0
0.8108583989960607,-3.2537200561523436,-8.939948999023438,-0.6105214233398437,0,0,0,0
0.8119469049997861,-3.306392492675781,-8.94473740234375,-0.7062894897460937,0,0,0,0
0.8130293540016282,-3.2537200561523436,-8.947131604003905,-0.6871358764648438,0,0,0,0
0.8141111559962155,-3.2920272827148436,-8.951920007324219,-0.70868369140625,0,0,0,0
0.8157740059978096,-3.2034418212890623,-8.920795385742187,-0.7493851196289062,0,0,0,0
0.8170026580046397,-3.1268273681640624,-8.961496813964843,-0.7613561279296874,0,0,0,0
0.818222401998355,-3.4261025756835934,-9.03332286376953,-0.7445967163085937,0,0,0,0
0.8195274600002449,-3.385401147460937,-8.959102612304687,-0.7158662963867187,0,0,0,0
0.8208719249960268,-3.356670727539062,-8.975862023925782,-0.689530078125,0,0,0,0
0.8221114470070461,-3.303998291015625,-8.985438830566405,-0.7445967163085937,0,0,0,0
0.8233626169967465,-3.318363500976562,-8.990227233886719,-0.7781155395507812,0,0,0,0
0.8246204160095658,-3.246537451171875,-8.913612780761719,-0.8020575561523438,0,0,0,0
0.8258843079966027,-3.191470812988281,-8.913612780761719,-0.7517793212890624,0,0,0,0
0.8271569220087258,-3.3710359375,-8.908824377441405,-0.6416460449218749,0,0,0,0
0.8284458690031897,-3.3710359375,-8.908824377441405,-0.7326257080078125,0,0,0,0
0.829756464008824,-3.239354846191406,-8.98304462890625,-0.6488286499023437,0,0,0,0
0.8310029120038962,-3.2920272827148436,-9.076418493652342,-0.7134720947265625,0,0,0,0
0.8323343770025531,-3.414131567382812,-9.083601098632812,-0.7948749511718749,0,0,0,0
0.8347779769974295,-3.306392492675781,-8.963891015625,-0.5865794067382812,0,0,0,0
0.8366496390081011,-3.306392492675781,-8.901641772460938,-0.5746083984375,0,0,0,0
0.8389531660068315,-3.411737365722656,-9.03332286376953,-0.6679822631835937,0,0,0,0
0.8407106079976074,-3.404554760742187,-8.90643017578125,-0.7038952880859375,0,0,0,0
0.8422154599975329,-3.210624426269531,-8.84178673095703,-0.63206923828125,0,0,0,0
0.8441810280055506,-3.3327287109375,-8.93755479736328,-0.5770026000976562,0,0,0,0
0.8460426350065973,-3.2441432495117186,-8.896853369140624,-0.5889736083984375,0,0,0,0
0.8475312469963683,-3.2513258544921873,-8.892064965820312,-0.6679822631835937,0,0,0,0
0.8495141480088932,-3.380612744140625,-8.98304462890625,-0.6919242797851562,0,0,0,0
0.8513309779955307,-3.303998291015625,-9.011775048828124,-0.6272808349609375,0,0,0,0
0.8528341260098387,-3.268085266113281,-8.901641772460938,-0.699106884765625,0,0,0,0
0.8546509370062267,-3.402160559082031,-8.923189587402343,-0.689530078125,0,0,0,0
0.8566595050069736,-3.4261025756835934,-8.89924757080078,-0.6679822631835937,0,0,0,0
0.8581665609963238,-3.289633081054687,-8.916006982421875,-0.612915625,0,0,0,0
0.8597229489969322,-3.3399113159179685,-8.980650427246093,-0.6248866333007812,0,0,0,0
0.8619052739959443,-3.318363500976562,-8.990227233886719,-0.6464344482421874,0,0,0,0
0.8630893710069358,-3.459621398925781,-8.999804040527343,-0.6751648681640625,0,0,0,0
0.8642870600015158,-3.402160559082031,-8.90643017578125,-0.6536170532226562,0,0,0,0
0.8654654340061825,-3.3351229125976563,-8.947131604003905,-0.7613561279296874,0,0,0,0
0.8668523430096684,-3.3016040893554686,-8.920795385742187,-0.7062894897460937,0,0,0,0
0.868076327999006,-3.430890979003906,-8.930372192382812,-0.6919242797851562,0,0,0,0
0.8692986280075274,-3.3351229125976563,-8.908824377441405,-0.6464344482421874,0,0,0,0
0.8705956680059899,-3.284844677734375,-8.961496813964843,-0.6631938598632812,0,0,0,0
0.8722940730076516,-3.3303345092773435,-8.95670841064453,-0.6703764648437499,0,0,0,0
0.8736674999963725,-3.2154128295898436,-8.990227233886719,-0.7134720947265625,0,0,0,0
0.8750526320072822,-3.385401147460937,-9.02135185546875,-0.7062894897460937,0,0,0,0
0.8765412240027217,-3.327940307617187,-8.973467822265624,-0.5889736083984375,0,0,0,0
0.8779322820046218,-3.248931652832031,-8.968679418945312,-0.6631938598632812,0,0,0,0
0.8794668369955616,-3.318363500976562,-8.894459167480468,-0.6368576416015624,0,0,0,0
0.8807010809978237,-3.2704794677734372,-8.939948999023438,-0.6943184814453125,0,0,0,0
0.88193175100605,-3.3446997192382812,-8.935160595703124,-0.6679822631835937,0,0,0,0
0.8831684030010365,-3.3207577026367185,-8.89924757080078,-0.7350199096679687,0,0,0,0
0.8843261480069486,-3.3016040893554686,-8.971073620605468,-0.70868369140625,0,0,0,0
0.8854831700009527,-3.366247534179687,-9.011775048828124,-0.6631938598632812,0,0,0,0
0.8865811200084863,-3.4356793823242184,-8.990227233886719,-0.5746083984375,0,0,0,0
0.8879850289958995,-3.2824504760742186,-9.0021982421875,-0.6200982299804687,0,0,0,0
0.8893455119978171,-3.294421484375,-8.95670841064453,-0.6584054565429687,0,0,0,0
0.8907245879963739,-3.404554760742187,-8.89924757080078,-0.6536170532226562,0,0,0,0
0.8918943879980361,-3.4356793823242184,-8.865728747558594,-0.612915625,0,0,0,0
0.8930169859959278,-3.2561142578125,-8.923189587402343,-0.6584054565429687,0,0,0,0
0.8943002290034201,-3.347093920898437,-8.927977990722656,-0.6440402465820312,0,0,0,0
0.8955294360057451,-3.3590649291992185,-8.975862023925782,-0.689530078125,0,0,0,0
0.8966481630050112,-3.3255461059570313,-9.02135185546875,-0.6488286499023437,0,0,0,0
0.8977377980045276,-3.2154128295898436,-8.916006982421875,-0.6871358764648438,0,0,0,0
0.8988234700082103,-3.23696064453125,-8.961496813964843,-0.7445967163085937,0,0,0,0
0.8999087160045747,-3.248931652832031,-9.03332286376953,-0.6560112548828124,0,0,0,0
0.9016974530095467,-3.430890979003906,-8.959102612304687,-0.699106884765625,0,0,0,0
0.9029771229979815,-3.3782185424804685,-8.942343200683593,-0.7398083129882812,0,0,0,0
0.9042231080093188,-3.3351229125976563,-8.947131604003905,-0.6272808349609375,0,0,0,0
0.9053487790079089,-3.299209887695312,-8.91840118408203,-0.6248866333007812,0,0,0,0
0.9065506350016221,-3.4332851806640625,-8.942343200683593,-0.5865794067382812,0,0,0,0
0.9077285649982514,-3.3159692993164063,-8.836998327636719,-0.6703764648437499,0,0,0,0
0.908825088001322,-3.1076737548828124,-8.892064965820312,-0.7541735229492187,0,0,0,0
0.9099192230059998,-3.3207577026367185,-8.916006982421875,-0.7038952880859375,0,0,0,0
0.9114916480029933,-3.2920272827148436,-8.947131604003905,-0.7757213378906249,0,0,0,0
0.9127909840026405,-3.258508459472656,-8.942343200683593,-0.7254431030273437,0,0,0,0
0.914017914008582,-3.1866824096679687,-8.95670841064453,-0.6248866333007812,0,0,0,0
0.9151790470059495,-3.191470812988281,-8.935160595703124,-0.5865794067382812,0,0,0,0
0.9163838850072352,-3.2609026611328122,-8.978256225585938,-0.63206923828125,0,0,0,0
0.9175615370040759,-3.361459130859375,-8.930372192382812,-0.7900865478515624,0,0,0,0
0.9186585230054334,-3.418919970703125,-8.973467822265624,-0.6464344482421874,0,0,0,0
0.9197442139993655,-3.394977954101562,-8.93755479736328,-0.6727706665039062,0,0,0,0
0.9208304600033443,-3.323151904296875,-8.968679418945312,-0.6919242797851562,0,0,0,0
0.9219660939997993,-3.2345664428710936,-8.930372192382812,-0.699106884765625,0,0,0,0
0.923224319005385,-3.229778039550781,-8.935160595703124,-0.6512228515624999,0,0,0,0
0.9244361190067139,-3.392583752441406,-8.93755479736328,-0.603338818359375,0,0,0,0
0.9259407299978193,-3.399766357421875,-8.935160595703124,-0.7062894897460937,0,0,0,0
0.9273106949985959,-3.39018955078125,-8.94473740234375,-0.6943184814453125,0,0,0,0
0.9285642169998027,-3.3446997192382812,-8.94473740234375,-0.6200982299804687,0,0,0,0
0.9298147570079891,-3.361459130859375,-8.980650427246093,-0.603338818359375,0,0,0,0
0.9310052979999455,-3.2417490478515623,-8.985438830566405,-0.63206923828125,0,0,0,0
0.9326625740068266,-3.323151904296875,-8.91840118408203,-0.6248866333007812,0,0,0,0
0.9339334660035092,-3.337517114257812,-8.951920007324219,-0.6177040283203125,0,0,0,0
0.9351652290060883,-3.39018955078125,-8.975862023925782,-0.7038952880859375,0,0,0,0
0.9364239349961281,-3.2728736694335936,-8.927977990722656,-0.6488286499023437,0,0,0,0
0.937657513000886,-3.19865341796875,-8.954314208984375,-0.7134720947265625,0,0,0,0
0.9388992199965287,-3.337517114257812,-8.975862023925782,-0.7350199096679687,0,0,0,0
0.9400745019956958,-3.4524387939453125,-8.966285217285156,-0.6871358764648438,0,0,0,0
0.9412455429992406,-3.3973721557617185,-8.95670841064453,-0.5458779785156249,0,0,0,0
0.9431023350043688,-3.418919970703125,-8.930372192382812,-0.7158662963867187,0,0,0,0
0.9446994820027612,-3.3207577026367185,-8.942343200683593,-0.689530078125,0,0,0,0
0.945974615009618,-3.27526787109375,-8.961496813964843,-0.6919242797851562,0,0,0,0
0.9471302489982918,-3.3590649291992185,-8.990227233886719,-0.689530078125,0,0,0,0
0.9486232119961642,-3.392583752441406,-8.923189587402343,-0.8044517578125,0,0,0,0
0.9500013799988665,-3.3255461059570313,-8.896853369140624,-0.6847416748046875,0,0,0,0
0.9511445509997429,-3.1962592163085937,-8.8872765625,-0.6679822631835937,0,0,0,0
0.9522766669979319,-3.2225954345703123,-8.882488159179687,-0.6248866333007812,0,0,0,0
0.9534354860079475,-3.3351229125976563,-8.89924757080078,-0.6512228515624999,0,0,0,0
0.9545710280071944,-3.342305517578125,-8.90643017578125,-0.70868369140625,0,0,0,0
0.9569928319979226,-3.3303345092773435,-8.968679418945312,-0.5746083984375,0,0,0,0
0.9582149460038636,-3.356670727539062,-8.999804040527343,-0.6200982299804687,0,0,0,0
0.9594153570069466,-3.2130186279296873,-8.9255837890625,-0.7326257080078125,0,0,0,0
0.9606157500093104,-3.2441432495117186,-8.997409838867187,-0.7685387329101562,0,0,0,0
0.9618761050078319,-3.394977954101562,-8.985438830566405,-0.6751648681640625,0,0,0,0
0.9630992570018861,-3.385401147460937,-8.930372192382812,-0.6536170532226562,0,0,0,0
0.9642899830068927,-3.318363500976562,-8.90643017578125,-0.7062894897460937,0,0,0,0
0.9661562749970471,-3.303998291015625,-8.927977990722656,-0.6009446166992187,0,0,0,0
0.9685930410050787,-3.327940307617187,-8.992621435546875,-0.7829039428710937,0,0,0,0
0.9699044510052772,-3.42849677734375,-8.920795385742187,-0.6679822631835937,0,0,0,0
0.9715674860053696,-3.3111808959960936,-8.916006982421875,-0.6536170532226562,0,0,0,0
0.972845304000657,-3.2417490478515623,-8.947131604003905,-0.6847416748046875,0,0,0,0
0.9740511039999546,-3.31357509765625,-8.975862023925782,-0.6368576416015624,0,0,0,0
0.9752719039970543,-3.21780703125,-8.913612780761719,-0.7685387329101562,0,0,0,0
0.9765231479977956,-3.318363500976562,-8.920795385742187,-0.7206546997070312,0,0,0,0
0.978039722001995,-3.265691064453125,-8.88009395751953,-0.6727706665039062,0,0,0,0
0.9795682219992159,-3.239354846191406,-8.932766394042968,-0.7015010864257812,0,0,0,0
0.9810368699982064,-3.2800562744140622,-8.992621435546875,-0.6560112548828124,0,0,0,0
0.9823453540011542,-3.375824340820312,-9.03332286376953,-0.7326257080078125,0,0,0,0
0.9837120040028822,-3.4452561889648434,-8.949525805664061,-0.7613561279296874,0,0,0,0
0.9847727690066677,-3.265691064453125,-8.978256225585938,-0.6775590698242188,0,0,0,0
0.9858594219986117,-3.394977954101562,-8.949525805664061,-0.6751648681640625,0,0,0,0
0.9869354280090192,-3.3590649291992185,-8.86094034423828,-0.7350199096679687,0,0,0,0
0.9881401720049325,-3.2417490478515623,-8.875305554199219,-0.8307879760742187,0,0,0,0
0.9894727860082639,-3.2345664428710936,-8.908824377441405,-0.6584054565429687,0,0,0,0
0.9913134480011649,-3.3446997192382812,-8.932766394042968,-0.51714755859375,0,0,0,0
0.9927856340073049,-3.248931652832031,-8.942343200683593,-0.584185205078125,0,0,0,0
0.9942010789964115,-3.3446997192382812,-8.973467822265624,-0.6679822631835937,0,0,0,0
0.9955725809995783,-3.459621398925781,-8.980650427246093,-0.7326257080078125,0,0,0,0
0.9967134559992701,-3.35188232421875,-8.973467822265624,-0.7134720947265625,0,0,0,0
0.9979741810093401,-3.299209887695312,-8.987833032226561,-0.6536170532226562,0,0,0,0
0.9992404810036533,-3.294421484375,-8.920795385742187,-0.6679822631835937,0,0,0,0
1.000379374003387,-3.3255461059570313,-8.942343200683593,-0.6512228515624999,0,0,0,0
1.001529601009679,-3.383006945800781,-8.947131604003905,-0.6847416748046875,0,0,0,0
1.002911399002187,-3.2561142578125,-8.920795385742187,-0.63206923828125,0,0,0,0
1.0042263460054528,-3.265691064453125,-8.923189587402343,-0.679953271484375,0,0,0,0
1.0056199210084742,-3.342305517578125,-8.95670841064453,-0.5889736083984375,0,0,0,0
1.00684742500016,-3.3159692993164063,-8.939948999023438,-0.6943184814453125,0,0,0,0
1.0079328930005431,-3.3303345092773435,-8.8872765625,-0.718260498046875,0,0,0,0
1.0090390639961697,-3.3303345092773435,-8.93755479736328,-0.718260498046875,0,0,0,0
1.0101109219976934,-3.402160559082031,-8.951920007324219,-0.6296750366210937,0,0,0,0
1.0113075740082422,-3.356670727539062,-8.911218579101561,-0.7134720947265625,0,0,0,0
1.0127079450030578,-3.1220389648437497,-8.980650427246093,-0.679953271484375,0,0,0,0
1.0138778749969788,-3.2225954345703123,-8.973467822265624,-0.5099649536132812,0,0,0,0
1.0151444710063515,-3.2561142578125,-8.959102612304687,-0.7278373046875,0,0,0,0
1.0164976399973966,-3.375824340820312,-9.0021982421875,-0.7493851196289062,0,0,0,0
1.0179120850079926,-3.383006945800781,-8.98304462890625,-0.7062894897460937,0,0,0,0
1.0190240719966823,-3.375824340820312,-8.992621435546875,-0.5698199951171875,0,0,0,0
1.0200994659971911,-3.361459130859375,-8.939948999023438,-0.6368576416015624,0,0,0,0
1.0211843790020794,-3.2249896362304686,-8.95670841064453,-0.679953271484375,0,0,0,0
1.0223893640068127,-3.294421484375,-8.98304462890625,-0.7398083129882812,0,0,0,0
1.023558608998428,-3.3973721557617185,-8.987833032226561,-0.7134720947265625,0,0,0,0
1.024643744007335,-3.385401147460937,-8.959102612304687,-0.6727706665039062,0,0,0,0
1.026105244003702,-3.2728736694335936,-8.920795385742187,-0.6536170532226562,0,0,0,0
1.0273479879979277,-3.2154128295898436,-8.913612780761719,-0.6416460449218749,0,0,0,0
1.0287024720018962,-3.1771056030273437,-8.858546142578124,-0.6943184814453125,0,0,0,0
1.0299443639960373,-3.356670727539062,-8.88009395751953,-0.5578489868164063,0,0,0,0
1.0310278690012638,-3.299209887695312,-8.901641772460938,-0.6751648681640625,0,0,0,0
1.03210385600687,-3.27526787109375,-8.973467822265624,-0.6775590698242188,0,0,0,0
1.0333212850091513,-3.3016040893554686,-8.91840118408203,-0.6751648681640625,0,0,0,0
1.0344971970043844,-3.3494881225585935,-8.987833032226561,-0.6751648681640625,0,0,0,0
1.0359280679986114,-3.3590649291992185,-8.935160595703124,-0.6727706665039062,0,0,0,0
1.0370582030009245,-3.4261025756835934,-8.973467822265624,-0.7254431030273437,0,0,0,0
1.0382718360051513,-3.3303345092773435,-8.997409838867187,-0.6272808349609375,0,0,0,0
1.039450598997064,-3.229778039550781,-8.959102612304687,-0.7062894897460937,0,0,0,0
1.040536455999245,-3.258508459472656,-8.997409838867187,-0.7015010864257812,0,0,0,0
1.0416352760075824,-3.323151904296875,-8.990227233886719,-0.6584054565429687,0,0,0,0
1.0427203370054485,-3.289633081054687,-8.954314208984375,-0.6847416748046875,0,0,0,0
1.0438074529956793,-3.287238879394531,-8.93755479736328,-0.7110778930664062,0,0,0,0
1.0454249890026404,-3.31357509765625,-9.004592443847656,-0.6344634399414062,0,0,0,0
1.0465923640003894,-3.2609026611328122,-8.990227233886719,-0.6584054565429687,0,0,0,0
1.0477213679987472,-3.385401147460937,-8.992621435546875,-0.6392518432617187,0,0,0,0
1.0488515400065808,-3.347093920898437,-8.95670841064453,-0.7062894897460937,0,0,0,0
1.0500655619980535,-3.3303345092773435,-8.94473740234375,-0.679953271484375,0,0,0,0
1.0512436400022125,-3.299209887695312,-8.896853369140624,-0.7302315063476562,0,0,0,0
1.0523424230050296,-3.366247534179687,-8.935160595703124,-0.7924807495117187,0,0,0,0
1.053433168999618,-3.4356793823242184,-8.971073620605468,-0.6967126831054687,0,0,0,0
1.0549322989973007,-3.4524387939453125,-8.9255837890625,-0.5770026000976562,0,0,0,0
1.05617900499783,-3.411737365722656,-8.904035974121093,-0.7278373046875,0,0,0,0
1.057389861001866,-3.3542765258789062,-8.889670764160156,-0.7015010864257812,0,0,0,0
1.0584889400051907,-3.2441432495117186,-8.930372192382812,-0.6536170532226562,0,0,0,0
1.0595754450041568,-3.268085266113281,-9.011775048828124,-0.6560112548828124,0,0,0,0
1.0606635800068034,-3.229778039550781,-8.968679418945312,-0.7230489013671875,0,0,0,0
1.0619253430049866,-3.2920272827148436,-8.963891015625,-0.6847416748046875,0,0,0,0
1.063094662007643,-3.2632968627929686,-8.963891015625,-0.6440402465820312,0,0,0,0
1.064189074008027,-3.289633081054687,-8.980650427246093,-0.852335791015625,0,0,0,0
1.0652756530034821,-3.440467785644531,-9.038111267089842,-0.6679822631835937,0,0,0,0
1.0667941900028381,-3.4069489624023435,-8.973467822265624,-0.6751648681640625,0,0,0,0
1.0681594880006742,-3.3710359375,-9.014169250488282,-0.6847416748046875,0,0,0,0
1.0694647869968321,-3.3207577026367185,-8.923189587402343,-0.6919242797851562,0,0,0,0
1.0705816249974305,-3.3351229125976563,-8.949525805664061,-0.6368576416015624,0,0,0,0
1.0716830190067412,-3.380612744140625,-8.963891015625,-0.7565677246093749,0,0,0,0
1.072943541003042,-3.42849677734375,-8.91840118408203,-0.7110778930664062,0,0,0,0
1.0741079529980198,-3.27526787109375,-8.901641772460938,-0.5267243652343749,0,0,0,0
1.0752854750026017,-3.2417490478515623,-8.961496813964843,-0.6967126831054687,0,0,0,0
1.076633161996142,-3.3207577026367185,-8.939948999023438,-0.5913678100585937,0,0,0,0
1.077879517004476,-3.3303345092773435,-8.930372192382812,-0.6200982299804687,0,0,0,0
1.079145576004521,-3.318363500976562,-8.94473740234375,-0.7613561279296874,0,0,0,0
1.0803294500074117,-3.337517114257812,-9.028534460449219,-0.7350199096679687,0,0,0,0
1.081436937005492,-3.3638533325195312,-8.872911352539061,-0.6560112548828124,0,0,0,0
1.08252479400835,-3.2561142578125,-8.963891015625,-0.689530078125,0,0,0,0
1.0836581690091407,-3.2824504760742186,-9.04050546875,-0.6584054565429687,0,0,0,0
1.085885993001284,-3.3016040893554686,-8.963891015625,-0.7134720947265625,0,0,0,0
1.0870403870067094,-3.3159692993164063,-8.911218579101561,-0.6919242797851562,0,0,0,0
1.0886284230073215,-3.366247534179687,-8.939948999023438,-0.6607996582031249,0,0,0,0
1.0898102420032956,-3.35188232421875,-9.0021982421875,-0.7062894897460937,0,0,0,0
1.0909134690009523,-3.4261025756835934,-9.016563452148437,-0.7565677246093749,0,0,0,0
1.0921583800081862,-3.4356793823242184,-8.999804040527343,-0.5889736083984375,0,0,0,0
1.0934674559975974,-3.392583752441406,-8.889670764160156,-0.5985504150390625,0,0,0,0
1.0945942940015811,-3.361459130859375,-8.923189587402343,-0.622492431640625,0,0,0,0
1.0956839849968674,-3.2345664428710936,-8.932766394042968,-0.6751648681640625,0,0,0,0
1.0967696190054994,-3.3111808959960936,-8.951920007324219,-0.7278373046875,0,0,0,0
1.097859105997486,-3.323151904296875,-8.968679418945312,-0.6607996582031249,0,0,0,0
1.099103701999411,-3.2537200561523436,-8.904035974121093,-0.6751648681640625,0,0,0,0
1.1002634839969687,-3.201047619628906,-8.908824377441405,-0.699106884765625,0,0,0,0
1.1013963959994726,-3.2609026611328122,-9.018957653808593,-0.6775590698242188,0,0,0,0
1.1024846600048477,-3.421314172363281,-8.951920007324219,-0.6703764648437499,0,0,0,0
1.103952161007328,-3.3494881225585935,-8.949525805664061,-0.7062894897460937,0,0,0,0
1.1051239619991975,-3.27526787109375,-8.93755479736328,-0.9169792358398436,0,0,0,0
1.106265873007942,-3.4428619873046875,-9.004592443847656,-0.6727706665039062,0,0,0,0
1.1073591930035036,-3.414131567382812,-8.927977990722656,-0.6584054565429687,0,0,0,0
1.1084469580091536,-3.3446997192382812,-8.9255837890625,-0.7493851196289062,0,0,0,0
1.1095364630018594,-3.3399113159179685,-8.94473740234375,-0.7493851196289062,0,0,0,0
1.1106933929986553,-3.366247534179687,-8.954314208984375,-0.6248866333007812,0,0,0,0
1.11184765699727,-3.373430139160156,-8.90643017578125,-0.6153098266601562,0,0,0,0
1.1129636429977836,-3.227383837890625,-8.942343200683593,-0.7062894897460937,0,0,0,0
1.11447599499661,-3.2441432495117186,-8.973467822265624,-0.679953271484375,0,0,0,0
1.115853812007117,-3.392583752441406,-9.011775048828124,-0.5674257934570313,0,0,0,0
1.1170872590009822,-3.5003228271484375,-8.930372192382812,-0.6105214233398437,0,0,0,0
1.1185439450055128,-3.2345664428710936,-8.947131604003905,-0.6177040283203125,0,0,0,0
1.1196801350015448,-3.2824504760742186,-8.927977990722656,-0.6584054565429687,0,0,0,0
1.1208538060018327,-3.347093920898437,-8.947131604003905,-0.7110778930664062,0,0,0,0
1.1219959400041262,-3.375824340820312,-8.985438830566405,-0.6967126831054687,0,0,0,0
1.1230845929967472,-3.385401147460937,-8.959102612304687,-0.47165772705078124,0,0,0,0
1.1242449120036326,-3.27526787109375,-9.04050546875,-0.7110778930664062,0,0,0,0
1.1253753990022233,-3.208230224609375,-8.91840118408203,-0.6919242797851562,0,0,0,0
1.1265052369999466,-3.3686417358398435,-8.930372192382812,-0.718260498046875,0,0,0,0
1.1276572780043352,-3.287238879394531,-8.913612780761719,-0.6823474731445313,0,0,0,0
1.1288121710094856,-3.296815686035156,-8.990227233886719,-0.5889736083984375,0,0,0,0
1.129903862005449,-3.404554760742187,-8.966285217285156,-0.6536170532226562,0,0,0,0
1.1309866630035685,-3.361459130859375,-8.913612780761719,-0.7254431030273437,0,0,0,0
1.1334208190091886,-3.277662072753906,-8.9255837890625,-0.6847416748046875,0,0,0,0
1.134607934000087,-3.373430139160156,-9.016563452148437,-0.7278373046875,0,0,0,0
1.1357223829982104,-3.3207577026367185,-9.0021982421875,-0.7661445312499999,0,0,0,0
1.1368130549963098,-3.23696064453125,-8.966285217285156,-0.7517793212890624,0,0,0,0
1.1379059669998242,-3.27526787109375,-8.973467822265624,-0.718260498046875,0,0,0,0
1.1393468390015187,-3.35188232421875,-8.853757739257812,-0.622492431640625,0,0,0,0
1.14063024900679,-3.246537451171875,-8.923189587402343,-0.7206546997070312,0,0,0,0
1.141729569004383,-3.287238879394531,-8.942343200683593,-0.6847416748046875,0,0,0,0
1.1428185920085525,-3.411737365722656,-9.016563452148437,-0.6296750366210937,0,0,0,0
1.144520793997799,-3.4261025756835934,-8.987833032226561,-0.6296750366210937,0,0,0,0
1.145756871002959,-3.3638533325195312,-8.99501563720703,-0.6416460449218749,0,0,0,0
1.1469168760086177,-3.306392492675781,-8.951920007324219,-0.7541735229492187,0,0,0,0
1.1480068620003294,-3.2513258544921873,-8.9255837890625,-0.8690952026367187,0,0,0,0
1.149096663997625,-3.289633081054687,-9.004592443847656,-0.6655880615234374,0,0,0,0
1.1509175859973766,-3.3710359375,-8.961496813964843,-0.6847416748046875,0,0,0,0
1.1521474780020071,-3.423708374023437,-8.872911352539061,-0.70868369140625,0,0,0,0
1.1533123530098237,-3.296815686035156,-8.896853369140624,-0.6464344482421874,0,0,0,0
1.1544072649994632,-3.2417490478515623,-8.93755479736328,-0.6344634399414062,0,0,0,0
1.1558777659956831,-3.347093920898437,-8.961496813964843,-0.622492431640625,0,0,0,0
1.1571128060022602,-3.383006945800781,-8.920795385742187,-0.6081272216796875,0,0,0,0
1.158206145002623,-3.3111808959960936,-8.947131604003905,-0.6775590698242188,0,0,0,0
1.1592937050008914,-3.347093920898437,-8.992621435546875,-0.74699091796875,0,0,0,0
1.1608732230088208,-3.421314172363281,-9.023746057128905,-0.7422025146484375,0,0,0,0
1.1620385050046025,-3.373430139160156,-9.054870678710937,-0.7038952880859375,0,0,0,0
1.1631298620050075,-3.3494881225585935,-8.980650427246093,-0.6512228515624999,0,0,0,0
1.1642167560057715,-3.2728736694335936,-8.947131604003905,-0.6703764648437499,0,0,0,0
1.1657634590083035,-3.380612744140625,-8.930372192382812,-0.6847416748046875,0,0,0,0
1.1669550369988428,-3.3638533325195312,-8.894459167480468,-0.74699091796875,0,0,0,0
1.1680531169986352,-3.2728736694335936,-8.91840118408203,-0.6727706665039062,0,0,0,0
1.1691461959999288,-3.3446997192382812,-8.91840118408203,-0.6655880615234374,0,0,0,0
1.1707660460087936,-3.2345664428710936,-8.951920007324219,-0.6392518432617187,0,0,0,0
1.1719314950023545,-3.239354846191406,-8.997409838867187,-0.852335791015625,0,0,0,0
1.1730254080030136,-3.421314172363281,-9.066841687011719,-0.6200982299804687,0,0,0,0
1.1741130239970516,-3.392583752441406,-8.949525805664061,-0.6967126831054687,0,0,0,0
1.1756696710071992,-3.3327287109375,-8.94473740234375,-0.6943184814453125,0,0,0,0
1.1768294170033187,-3.2632968627929686,-8.935160595703124,-0.718260498046875,0,0,0,0
1.1779288100078702,-3.361459130859375,-8.954314208984375,-0.6440402465820312,0,0,0,0
1.1790201120020356,-3.3973721557617185,-8.853757739257812,-0.6679822631835937,0,0,0,0
1.1805662970000412,-3.2632968627929686,-8.8872765625,-0.5817910034179687,0,0,0,0
1.1817358749976847,-3.361459130859375,-8.951920007324219,-0.6105214233398437,0,0,0,0
1.1828312319994438,-3.3590649291992185,-8.95670841064453,-0.6703764648437499,0,0,0,0
1.183924680997734,-3.2345664428710936,-8.9255837890625,-0.6440402465820312,0,0,0,0
1.1854650330060394,-3.2800562744140622,-8.98304462890625,-0.6440402465820312,0,0,0,0
1.1866226300044218,-3.4165257690429685,-9.009380847167968,-0.7302315063476562,0,0,0,0
1.187721579000936,-3.385401147460937,-8.985438830566405,-0.6823474731445313,0,0,0,0
1.189171284000622,-3.306392492675781,-8.975862023925782,-0.7206546997070312,0,0,0,0
1.1908428559981985,-3.3710359375,-8.968679418945312,-0.7445967163085937,0,0,0,0
1.1920040270051686,-3.3973721557617185,-8.939948999023438,-0.5961562133789062,0,0,0,0
1.19310053200752,-3.289633081054687,-8.892064965820312,-0.6392518432617187,0,0,0,0
1.1941940560063813,-3.318363500976562,-9.011775048828124,-0.7565677246093749,0,0,0,0
1.1957260920025874,-3.418919970703125,-8.93755479736328,-0.7350199096679687,0,0,0,0
1.1973169060074724,-3.375824340820312,-8.963891015625,-0.6775590698242188,0,0,0,0
1.198530520996428,-3.2321722412109373,-8.990227233886719,-0.6488286499023437,0,0,0,0
1.2000558540021302,-3.239354846191406,-9.038111267089842,-0.6967126831054687,0,0,0,0
1.2012920240085805,-3.373430139160156,-8.999804040527343,-0.7781155395507812,0,0,0,0
1.2024599360011052,-3.423708374023437,-9.014169250488282,-0.7302315063476562,0,0,0,0
1.2039655469998252,-3.3710359375,-8.971073620605468,-0.7038952880859375,0,0,0,0
1.2050836260023061,-3.3686417358398435,-8.975862023925782,-0.6392518432617187,0,0,0,0
1.2062461120076478,-3.35188232421875,-9.02135185546875,-0.6655880615234374,0,0,0,0
1.2074005610047607,-3.327940307617187,-8.966285217285156,-0.7326257080078125,0,0,0,0
1.208493231999455,-3.337517114257812,-8.939948999023438,-0.7206546997070312,0,0,0,0
1.2095798490045127,-3.318363500976562,-8.963891015625,-0.7350199096679687,0,0,0,0
1.2106628350011306,-3.383006945800781,-9.028534460449219,-0.7134720947265625,0,0,0,0
1.2120691330055706,-3.3686417358398435,-8.927977990722656,-0.7278373046875,0,0,0,0
1.2133378209982766,-3.3159692993164063,-8.870517150878905,-0.7015010864257812,0,0,0,0
1.2144699549971847,-3.2920272827148436,-8.846575134277343,-0.699106884765625,0,0,0,0
1.2155649790074676,-3.2130186279296873,-8.896853369140624,-0.6703764648437499,0,0,0,0
1.2167229460028466,-3.2561142578125,-8.88009395751953,-0.5793968017578125,0,0,0,0
1.2178738950024126,-3.366247534179687,-8.916006982421875,-0.7661445312499999,0,0,0,0
1.2189647339982912,-3.3590649291992185,-8.966285217285156,-0.6512228515624999,0,0,0,0
1.2200533130089752,-3.3638533325195312,-8.93755479736328,-0.7924807495117187,0,0,0,0
1.2212167990073794,-3.2249896362304686,-8.93755479736328,-0.6440402465820312,0,0,0,0
1.2223602290032431,-3.2321722412109373,-8.997409838867187,-0.5339069702148437,0,0,0,0
1.2234483829961391,-3.3710359375,-9.011775048828124,-0.7302315063476562,0,0,0,0
1.2245319799985737,-3.296815686035156,-8.987833032226561,-0.6967126831054687,0,0,0,0
1.2256258560082642,-3.277662072753906,-8.999804040527343,-0.6943184814453125,0,0,0,0
1.2267829900083598,-3.3159692993164063,-8.94473740234375,-0.699106884765625,0,0,0,0
1.2279276790068252,-3.385401147460937,-8.923189587402343,-0.7565677246093749,0,0,0,0
1.2290196109970566,-3.383006945800781,-8.86812294921875,-0.6488286499023437,0,0,0,0
1.230107023002347,-3.2704794677734372,-8.920795385742187,-0.6488286499023437,0,0,0,0
1.231256619998021,-3.265691064453125,-8.961496813964843,-0.6105214233398437,0,0,0,0
1.2323928289988544,-3.3111808959960936,-8.935160595703124,-0.6488286499023437,0,0,0,0
1.2334860370028764,-3.404554760742187,-8.971073620605468,-0.612915625,0,0,0,0
1.2347291890037013,-3.3111808959960936,-8.932766394042968,-0.565031591796875,0,0,0,0
1.2366497760085622,-3.306392492675781,-8.923189587402343,-0.7996633544921875,0,0,0,0
1.2385027170093963,-3.347093920898437,-9.006986645507812,-0.7015010864257812,0,0,0,0
1.2400270869984524,-3.3327287109375,-8.93755479736328,-0.6919242797851562,0,0,0,0
1.242351373002748,-3.2417490478515623,-8.961496813964843,-0.6488286499023437,0,0,0,0
1.2439590569993015,-3.323151904296875,-8.820238916015624,-0.622492431640625,0,0,0,0
1.2454601500066929,-3.289633081054687,-8.882488159179687,-0.699106884765625,0,0,0,0
1.247711325995624,-3.337517114257812,-8.997409838867187,-0.6823474731445313,0,0,0,0
1.249376324005425,-3.248931652832031,-8.980650427246093,-0.6631938598632812,0,0,0,0
1.2508718610042706,-3.258508459472656,-9.026140258789061,-0.6153098266601562,0,0,0,0
1.2526923210098175,-3.394977954101562,-9.050082275390624,-0.7302315063476562,0,0,0,0
1.2547445180098293,-3.3446997192382812,-8.997409838867187,-0.6871358764648438,0,0,0,0
1.2559569290024228,-3.35188232421875,-8.954314208984375,-0.6943184814453125,0,0,0,0
1.2578524240088882,-3.303998291015625,-8.939948999023438,-0.6775590698242188,0,0,0,0
1.2597009940072894,-3.361459130859375,-8.942343200683593,-0.7422025146484375,0,0,0,0
1.2611911420099204,-3.342305517578125,-8.844180932617187,-0.7350199096679687,0,0,0,0
1.262314998995862,-3.366247534179687,-8.846575134277343,-0.699106884765625,0,0,0,0
1.2635930020041997,-3.27526787109375,-8.949525805664061,-0.6703764648437499,0,0,0,0
1.2647143400099594,-3.327940307617187,-8.997409838867187,-0.6296750366210937,0,0,0,0
1.265806381998118,-3.3638533325195312,-8.94473740234375,-0.7254431030273437,0,0,0,0
1.2668971649982268,-3.4620156005859375,-8.954314208984375,-0.6703764648437499,0,0,0,0
1.267980096003157,-3.4069489624023435,-9.006986645507812,-0.718260498046875,0,0,0,0
1.2691268229973502,-3.4093431640625,-9.0021982421875,-0.6655880615234374,0,0,0,0
1.2703679190017283,-3.2513258544921873,-8.95670841064453,-0.7781155395507812,0,0,0,0
1.2714645539963385,-3.1411925781249996,-8.892064965820312,-0.6177040283203125,0,0,0,0
1.2725469660072122,-3.208230224609375,-8.913612780761719,-0.6943184814453125,0,0,0,0
1.273848173004808,-3.2800562744140622,-8.95670841064453,-0.6272808349609375,0,0,0,0
1.2750235099956626,-3.4452561889648434,-8.997409838867187,-0.7134720947265625,0,0,0,0
1.2762688840011833,-3.5122938354492184,-9.004592443847656,-0.6344634399414062,0,0,0,0
1.2776181820081547,-3.318363500976562,-8.939948999023438,-0.5961562133789062,0,0,0,0
1.2788031490053982,-3.3399113159179685,-8.94473740234375,-0.6560112548828124,0,0,0,0
1.2799799119966337,-3.421314172363281,-8.963891015625,-0.7062894897460937,0,0,0,0
1.2812333600013517,-3.3877953491210935,-8.968679418945312,-0.679953271484375,0,0,0,0
1.2826125840074383,-3.356670727539062,-8.908824377441405,-0.6153098266601562,0,0,0,0
1.283791680005379,-3.2537200561523436,-8.844180932617187,-0.6584054565429687,0,0,0,0
1.2850897390017053,-3.2441432495117186,-8.89924757080078,-0.6871358764648438,0,0,0,0
1.286360722995596,-3.289633081054687,-8.942343200683593,-0.7110778930664062,0,0,0,0
1.2876922249997733,-3.3327287109375,-8.973467822265624,-0.7158662963867187,0,0,0,0
1.2888752660073806,-3.337517114257812,-8.923189587402343,-0.7254431030273437,0,0,0,0
1.2900494189962046,-3.2800562744140622,-8.973467822265624,-0.6751648681640625,0,0,0,0
1.291282163001597,-3.0789433349609374,-8.927977990722656,-0.6584054565429687,0,0,0,0
1.2927082749956753,-3.265691064453125,-8.935160595703124,-0.6153098266601562,0,0,0,0
1.2940065000002505,-3.394977954101562,-8.978256225585938,-0.6105214233398437,0,0,0,0
1.2951917070022319,-3.507505432128906,-8.91840118408203,-0.6344634399414062,0,0,0,0
1.2964406550017884,-3.306392492675781,-8.927977990722656,-0.5865794067382812,0,0,0,0
1.2977935270027956,-3.220201232910156,-8.963891015625,-0.679953271484375,0,0,0,0
1.29897393900319,-3.3111808959960936,-8.932766394042968,-0.6296750366210937,0,0,0,0
1.3001492019975558,-3.3973721557617185,-8.930372192382812,-0.7302315063476562,0,0,0,0
1.3013961870019557,-3.3159692993164063,-8.892064965820312,-0.6560112548828124,0,0,0,0
1.3028130210004747,-3.2249896362304686,-8.851363537597656,-0.6416460449218749,0,0,0,0
1.3040983579994645,-3.1794998046874996,-8.920795385742187,-0.6751648681640625,0,0,0,0
1.3053211390069919,-3.31357509765625,-8.865728747558594,-0.6967126831054687,0,0,0,0
1.3066961220029043,-3.2824504760742186,-8.913612780761719,-0.7613561279296874,0,0,0,0
1.3079711989994394,-3.323151904296875,-8.94473740234375,-0.7733271362304687,0,0,0,0
1.3091557959996862,-3.27526787109375,-8.961496813964843,-0.6392518432617187,0,0,0,0
1.3103288550046273,-3.318363500976562,-8.990227233886719,-0.689530078125,0,0,0,0
1.3115789879957447,-3.3686417358398435,-8.971073620605468,-0.7422025146484375,0,0,0,0
1.3129715819959529,-3.3159692993164063,-8.987833032226561,-0.6679822631835937,0,0,0,0
1.3141545120015508,-3.2225954345703123,-8.954314208984375,-0.6560112548828124,0,0,0,0
1.3153441460017348,-3.27526787109375,-8.884882360839843,-0.6248866333007812,0,0,0,0
1.3167044809961226,-3.265691064453125,-8.93755479736328,-0.6679822631835937,0,0,0,0
1.3181624080025358,-3.347093920898437,-8.923189587402343,-0.699106884765625,0,0,0,0
1.3193423560005613,-3.306392492675781,-8.896853369140624,-0.6655880615234374,0,0,0,0
1.3205190270091407,-3.337517114257812,-8.985438830566405,-0.6153098266601562,0,0,0,0
1.321906047000084,-3.3710359375,-8.94473740234375,-0.63206923828125,0,0,0,0
1.3231063279963564,-3.284844677734375,-8.932766394042968,-0.6464344482421874,0,0,0,0
1.3242898879980203,-3.3207577026367185,-8.990227233886719,-0.6009446166992187,0,0,0,0
1.3256800189992646,-3.356670727539062,-8.971073620605468,-0.718260498046875,0,0,0,0
1.3270226510067005,-3.3255461059570313,-8.93755479736328,-0.612915625,0,0,0,0
1.3282152470055735,-3.1172505615234374,-8.963891015625,-0.6344634399414062,0,0,0,0
1.3296266190009192,-3.383006945800781,-8.94473740234375,-0.6751648681640625,0,0,0,0
1.3309630840085447,-3.3782185424804685,-8.93755479736328,-0.5482721801757812,0,0,0,0
1.332244717006688,-3.342305517578125,-8.877699755859375,-0.6464344482421874,0,0,0,0
1.3334352200035937,-3.337517114257812,-8.947131604003905,-0.6775590698242188,0,0,0,0
1.3346305390005,-3.385401147460937,-8.985438830566405,-0.6440402465820312,0,0,0,0
1.3369908989989199,-3.31357509765625,-8.975862023925782,-0.8116343627929687,0,0,0,0
1.3381608850031625,-3.3686417358398435,-9.006986645507812,-0.6488286499023437,0,0,0,0
1.3392612419993384,-3.2920272827148436,-8.93755479736328,-0.5602431884765625,0,0,0,0
1.3403471729980083,-3.27526787109375,-8.923189587402343,-0.6248866333007812,0,0,0,0
1.3414330670057097,-3.3255461059570313,-8.901641772460938,-0.7709329345703124,0,0,0,0
1.34251884999685,-3.3159692993164063,-8.882488159179687,-0.7062894897460937,0,0,0,0
1.3436761320044752,-3.3111808959960936,-8.975862023925782,-0.5961562133789062,0,0,0,0
1.3448243769962573,-3.3255461059570313,-8.954314208984375,-0.6560112548828124,0,0,0,0
1.3459243819961557,-3.258508459472656,-8.892064965820312,-0.6081272216796875,0,0,0,0
1.3470090909977444,-3.268085266113281,-8.980650427246093,-0.5985504150390625,0,0,0,0
1.3481618360092398,-3.2345664428710936,-8.992621435546875,-0.612915625,0,0,0,0
1.3493079890031368,-3.361459130859375,-8.942343200683593,-0.63206923828125,0,0,0,0
1.3503989760065451,-3.2632968627929686,-8.978256225585938,-0.612915625,0,0,0,0
1.351484981001704,-3.306392492675781,-8.966285217285156,-0.6919242797851562,0,0,0,0
1.3525727079977514,-3.4069489624023435,-8.973467822265624,-0.6153098266601562,0,0,0,0
1.3537281570024788,-3.411737365722656,-8.908824377441405,-0.5961562133789062,0,0,0,0
1.3548731799965026,-3.2728736694335936,-8.798691101074219,-0.6560112548828124,0,0,0,0
1.355966093004099,-3.2920272827148436,-8.901641772460938,-0.6488286499023437,0,0,0,0
1.3570612269977573,-3.284844677734375,-8.901641772460938,-0.7015010864257812,0,0,0,0
1.3582089910050854,-3.2225954345703123,-8.856151940917968,-0.6440402465820312,0,0,0,0
1.3593467730097473,-3.323151904296875,-8.975862023925782,-0.6584054565429687,0,0,0,0
1.3606344060099218,-3.3590649291992185,-8.992621435546875,-0.6296750366210937,0,0,0,0
1.36186903899943,-3.2704794677734372,-8.91840118408203,-0.6344634399414062,0,0,0,0
1.3630498950078618,-3.2441432495117186,-8.949525805664061,-0.6727706665039062,0,0,0,0
1.3641713810065994,-3.2537200561523436,-8.942343200683593,-0.7565677246093749,0,0,0,0
1.3652648679999402,-3.35188232421875,-8.91840118408203,-0.6703764648437499,0,0,0,0
1.3663496140070492,-3.2920272827148436,-8.851363537597656,-0.718260498046875,0,0,0,0
1.3674299150006846,-3.308786694335937,-8.901641772460938,-0.699106884765625,0,0,0,0
1.3685146240022732,-3.287238879394531,-8.872911352539061,-0.6631938598632812,0,0,0,0
1.3696778879966587,-3.4069489624023435,-8.939948999023438,-0.6727706665039062,0,0,0,0
1.3708250960044097,-3.3782185424804685,-8.9255837890625,-0.6919242797851562,0,0,0,0
1.3719186750095105,-3.2321722412109373,-8.947131604003905,-0.7493851196289062,0,0,0,0
1.3730449760041665,-3.2345664428710936,-8.975862023925782,-0.7062894897460937,0,0,0,0
1.374225553998258,-3.308786694335937,-8.968679418945312,-0.699106884765625,0,0,0,0
1.3753891329979524,-3.308786694335937,-8.93755479736328,-0.6631938598632812,0,0,0,0
1.3765127480000956,-3.356670727539062,-8.954314208984375,-0.6919242797851562,0,0,0,0
1.377621124003781,-3.418919970703125,-9.011775048828124,-0.7541735229492187,0,0,0,0
1.378728203009814,-3.423708374023437,-8.911218579101561,-0.6177040283203125,0,0,0,0
1.3798212260007858,-3.361459130859375,-8.851363537597656,-0.6081272216796875,0,0,0,0
1.3815732969960663,-3.2321722412109373,-8.875305554199219,-0.6919242797851562,0,0,0,0
1.3827522460051114,-3.296815686035156,-8.9255837890625,-0.7038952880859375,0,0,0,0
1.3838459359976696,-3.265691064453125,-8.973467822265624,-0.7445967163085937,0,0,0,0
1.384957126007066,-3.31357509765625,-8.954314208984375,-0.6464344482421874,0,0,0,0
1.3860621680069016,-3.366247534179687,-8.923189587402343,-0.6919242797851562,0,0,0,0
1.3877134259964805,-3.1651345947265623,-8.954314208984375,-0.7445967163085937,0,0,0,0
1.389166038003168,-3.39018955078125,-8.990227233886719,-0.6464344482421874,0,0,0,0
1.3902994870004477,-3.375824340820312,-8.971073620605468,-0.565031591796875,0,0,0,0
1.3914015470072627,-3.3303345092773435,-8.954314208984375,-0.6584054565429687,0,0,0,0
1.3924894230003702,-3.347093920898437,-8.98304462890625,-0.584185205078125,0,0,0,0
1.3938725170010002,-3.287238879394531,-8.95670841064453,-0.6272808349609375,0,0,0,0
1.3952239450009074,-3.4332851806640625,-8.98304462890625,-0.6440402465820312,0,0,0,0
1.396321024003555,-3.4093431640625,-8.978256225585938,-0.7062894897460937,0,0,0,0
1.397416289008106,-3.3111808959960936,-8.892064965820312,-0.7900865478515624,0,0,0,0
1.3987366240035044,-3.2321722412109373,-8.851363537597656,-0.7206546997070312,0,0,0,0
1.3998577400052454,-3.189076611328125,-8.877699755859375,-0.6536170532226562,0,0,0,0
1.4009745600051247,-3.296815686035156,-8.901641772460938,-0.6248866333007812,0,0,0,0
1.4021943230036413,-3.23696064453125,-8.91840118408203,-0.7158662963867187,0,0,0,0
1.4036938780045602,-3.3016040893554686,-8.88009395751953,-0.6512228515624999,0,0,0,0
1.405167546006851,-3.303998291015625,-8.980650427246093,-0.679953271484375,0,0,0,0
1.406287402001908,-3.277662072753906,-8.91840118408203,-0.7015010864257812,0,0,0,0
1.4073714069963899,-3.3303345092773435,-8.94473740234375,-0.679953271484375,0,0,0,0
1.4084580979979364,-3.4165257690429685,-9.006986645507812,-0.6871358764648438,0,0,0,0
1.4097543230018346,-3.3399113159179685,-8.935160595703124,-0.6464344482421874,0,0,0,0
1.4112650449969806,-3.303998291015625,-8.975862023925782,-0.6703764648437499,0,0,0,0
1.4125093820039183,-3.3255461059570313,-8.949525805664061,-0.7565677246093749,0,0,0,0
1.413736180998967,-3.2417490478515623,-9.0021982421875,-0.679953271484375,0,0,0,0
1.414957814005902,-3.284844677734375,-8.968679418945312,-0.6584054565429687,0,0,0,0
1.4162289100058842,-3.366247534179687,-8.892064965820312,-0.6105214233398437,0,0,0,0
1.4175910600024508,-3.366247534179687,-8.872911352539061,-0.6943184814453125,0,0,0,0
1.4187909530010074,-3.4093431640625,-9.023746057128905,-0.6679822631835937,0,0,0,0
1.4199688270018669,-3.3590649291992185,-8.86094034423828,-0.6057330200195312,0,0,0,0
1.4211600529961288,-3.3327287109375,-8.913612780761719,-0.6177040283203125,0,0,0,0
1.422427334007807,-3.306392492675781,-9.018957653808593,-0.679953271484375,0,0,0,0
1.4238256690005073,-3.3710359375,-8.884882360839843,-0.70868369140625,0,0,0,0
1.425060356996255,-3.265691064453125,-8.939948999023438,-0.7038952880859375,0,0,0,0
1.4262679170060437,-3.3327287109375,-9.023746057128905,-0.74699091796875,0,0,0,0
1.4275023649970535,-3.42849677734375,-9.095572106933593,-0.7613561279296874,0,0,0,0
1.428777552995598,-3.4524387939453125,-8.966285217285156,-0.6272808349609375,0,0,0,0
1.4301989240047988,-3.3446997192382812,-8.91840118408203,-0.5530605834960938,0,0,0,0
1.4314214089972666,-3.23696064453125,-8.951920007324219,-0.7015010864257812,0,0,0,0
1.4326214870088734,-3.347093920898437,-8.963891015625,-0.689530078125,0,0,0,0
1.4338071950041922,-3.438073583984375,-8.971073620605468,-0.7230489013671875,0,0,0,0
1.4349831250001444,-3.5098996337890624,-8.930372192382812,-0.7493851196289062,0,0,0,0
1.4363500150066102,-3.337517114257812,-8.916006982421875,-0.7134720947265625,0,0,0,0
1.4374614280095557,-3.2441432495117186,-8.884882360839843,-0.7134720947265625,0,0,0,0
1.4385476550087333,-3.2728736694335936,-8.892064965820312,-0.7350199096679687,0,0,0,0
1.4396577709994745,-3.3710359375,-8.959102612304687,-0.6464344482421874,0,0,0,0
1.440830609004479,-3.3782185424804685,-8.923189587402343,-0.699106884765625,0,0,0,0
1.4422218140098266,-3.296815686035156,-8.963891015625,-0.679953271484375,0,0,0,0
1.4433783919957932,-3.2800562744140622,-8.920795385742187,-0.7661445312499999,0,0,0,0
1.4444683970068581,-3.383006945800781,-8.992621435546875,-0.689530078125,0,0,0,0
1.4455599950015312,-3.3710359375,-8.959102612304687,-0.6943184814453125,0,0,0,0
1.4467466100031743,-3.287238879394531,-9.016563452148437,-0.6464344482421874,0,0,0,0
1.4480541680095484,-3.296815686035156,-8.892064965820312,-0.7350199096679687,0,0,0,0
1.4491561920003733,-3.373430139160156,-8.973467822265624,-0.6679822631835937,0,0,0,0
1.450266512008966,-3.3710359375,-8.94473740234375,-0.6943184814453125,0,0,0,0
1.4514201639976818,-3.3638533325195312,-8.975862023925782,-0.7134720947265625,0,0,0,0
1.4527372410084354,-3.220201232910156,-9.026140258789061,-0.7158662963867187,0,0,0,0
1.4538727449980797,-3.2034418212890623,-8.927977990722656,-0.7110778930664062,0,0,0,0
1.4549617500015302,-3.342305517578125,-8.997409838867187,-0.7110778930664062,0,0,0,0
1.456114514003275,-3.373430139160156,-8.951920007324219,-0.7110778930664062,0,0,0,0
1.4574480900046183,-3.2920272827148436,-8.963891015625,-0.6392518432617187,0,0,0,0
1.4585503359994618,-3.258508459472656,-8.963891015625,-0.7685387329101562,0,0,0,0
1.4596341560099972,-3.337517114257812,-8.975862023925782,-0.7158662963867187,0,0,0,0
1.4607313279993832,-3.4356793823242184,-8.963891015625,-0.6775590698242188,0,0,0,0
1.4619329429988284,-3.3327287109375,-8.94473740234375,-0.689530078125,0,0,0,0
1.4632294820039533,-3.27526787109375,-9.006986645507812,-0.6464344482421874,0,0,0,0
1.464323913998669,-3.3159692993164063,-9.035717065429687,-0.6416460449218749,0,0,0,0
1.465417678002268,-3.35188232421875,-9.0021982421875,-0.622492431640625,0,0,0,0
1.4665172200038796,-3.421314172363281,-8.959102612304687,-0.48123453369140623,0,0,0,0
1.4676682980061742,-3.383006945800781,-8.89924757080078,-0.565031591796875,0,0,0,0
1.469007245003013,-3.2441432495117186,-8.86094034423828,-0.612915625,0,0,0,0
1.4701070459996117,-3.3111808959960936,-8.911218579101561,-0.6751648681640625,0,0,0,0
1.4711963849986205,-3.27526787109375,-8.908824377441405,-0.7134720947265625,0,0,0,0
1.4723495930084027,-3.2800562744140622,-8.935160595703124,-0.6272808349609375,0,0,0,0
1.4739048890041886,-3.268085266113281,-8.930372192382812,-0.7206546997070312,0,0,0,0
1.4753581120021408,-3.181894006347656,-8.86094034423828,-0.7062894897460937,0,0,0,0
1.4774204940040363,-3.2154128295898436,-8.90643017578125,-0.5506663818359374,0,0,0,0
1.4788614580029389,-3.0837317382812497,-9.004592443847656,-0.6751648681640625,0,0,0,0
1.4801739969989285,-3.385401147460937,-8.94473740234375,-0.6584054565429687,0,0,0,0
1.4814121859963052,-3.3111808959960936,-8.947131604003905,-0.6679822631835937,0,0,0,0
1.4826476340094814,-3.294421484375,-8.94473740234375,-0.6248866333007812,0,0,0,0
1.4838384519971441,-3.3303345092773435,-8.992621435546875,-0.7302315063476562,0,0,0,0
1.4850044380000327,-3.35188232421875,-8.949525805664061,-0.6847416748046875,0,0,0,0
1.4861037579976255,-3.2321722412109373,-8.884882360839843,-0.6368576416015624,0,0,0,0
1.4872724099986954,-3.1771056030273437,-8.858546142578124,-0.6871358764648438,0,0,0,0
1.4883925449976232,-3.162740393066406,-8.884882360839843,-0.7613561279296874,0,0,0,0
1.4895788630092284,-3.2058360229492187,-8.949525805664061,-0.6703764648437499,0,0,0,0
1.490747885996825,-3.296815686035156,-8.949525805664061,-0.6703764648437499,0,0,0,0
1.4918420019967016,-3.3638533325195312,-8.9255837890625,-0.7254431030273437,0,0,0,0
1.4929541550081922,-3.265691064453125,-8.954314208984375,-0.7661445312499999,0,0,0,0
1.4940430679998826,-3.3446997192382812,-9.014169250488282,-0.7038952880859375,0,0,0,0
1.4952094610052882,-3.404554760742187,-8.985438830566405,-0.7493851196289062,0,0,0,0
1.496354743008851,-3.265691064453125,-8.980650427246093,-0.7302315063476562,0,0,0,0
1.497453896998195,-3.2609026611328122,-8.975862023925782,-0.6200982299804687,0,0,0,0
1.498536569008138,-3.2513258544921873,-8.95670841064453,-0.8355763793945312,0,0,0,0
1.4996192960097687,-3.35188232421875,-8.987833032226561,-0.7805097412109374,0,0,0,0
1.5007897449977463,-3.342305517578125,-8.8872765625,-0.7326257080078125,0,0,0,0
1.50192415699712,-3.2441432495117186,-8.904035974121093,-0.63206923828125,0,0,0,0
1.5030121620075079,-3.35188232421875,-8.913612780761719,-0.7350199096679687,0,0,0,0
1.5040978339966387,-3.4356793823242184,-8.990227233886719,-0.7254431030273437,0,0,0,0
1.5052504860068439,-3.447650390625,-8.939948999023438,-0.70868369140625,0,0,0,0
1.506393139003194,-3.3542765258789062,-8.896853369140624,-0.7422025146484375,0,0,0,0
1.5074920510087395,-3.3159692993164063,-8.870517150878905,-0.7900865478515624,0,0,0,0
1.5085735750035383,-3.3542765258789062,-8.971073620605468,-0.8092401611328125,0,0,0,0
1.5096652470092522,-3.440467785644531,-8.973467822265624,-0.7733271362304687,0,0,0,0
1.5108361029997468,-3.423708374023437,-9.023746057128905,-0.8475473876953125,0,0,0,0
1.5119675339956302,-3.4452561889648434,-9.0788126953125,-0.59376201171875,0,0,0,0
1.5130636130052153,-3.5146880371093747,-9.018957653808593,-0.33039982910156246,0,0,0,0
1.514147766007227,-3.289633081054687,-8.923189587402343,-0.3854664672851562,0,0,0,0
1.5152292709972244,-3.1196447631835937,-8.942343200683593,-0.5386953735351562,0,0,0,0
1.5163859050080646,-3.1004911499023438,-8.89924757080078,-0.7278373046875,0,0,0,0
1.5175432800024282,-3.1675287963867187,-8.875305554199219,-0.7757213378906249,0,0,0,0
1.5186313220037846,-3.2609026611328122,-8.908824377441405,-0.8667010009765624,0,0,0,0
1.5197181420080597,-3.210624426269531,-8.930372192382812,-0.7445967163085937,0,0,0,0
1.5208002220024355,-3.1364041748046874,-8.966285217285156,-0.7733271362304687,0,0,0,0
1.5220207070087781,-3.2417490478515623,-9.004592443847656,-0.7613561279296874,0,0,0,0
1.523226044009789,-3.327940307617187,-9.011775048828124,-0.7445967163085937,0,0,0,0
1.5248891899973387,-3.2561142578125,-9.054870678710937,-0.612915625,0,0,0,0
1.5266818899981445,-3.356670727539062,-8.987833032226561,-0.7158662963867187,0,0,0,0
1.5282969450054225,-3.402160559082031,-9.03332286376953,-0.6344634399414062,0,0,0,0
1.5297082050092285,-3.39018955078125,-8.904035974121093,-0.6392518432617187,0,0,0,0
1.5313669629977085,-3.2800562744140622,-8.872911352539061,-0.5770026000976562,0,0,0,0
1.5327934270026162,-3.1220389648437497,-8.947131604003905,-0.6775590698242188,0,0,0,0
1.5340979850006988,-3.347093920898437,-8.992621435546875,-0.718260498046875,0,0,0,0
1.5353830250096507,-3.287238879394531,-8.971073620605468,-0.612915625,0,0,0,0
1.537036003996036,-3.318363500976562,-8.927977990722656,-0.7422025146484375,0,0,0,0
1.5383193960005883,-3.2154128295898436,-8.846575134277343,-0.7015010864257812,0,0,0,0
1.5395514740084764,-3.1938650146484373,-8.741230261230468,-0.689530078125,0,0,0,0
1.5407257000042591,-3.2154128295898436,-8.978256225585938,-0.7589619262695312,0,0,0,0
1.54192505600804,-3.404554760742187,-9.0021982421875,-0.7134720947265625,0,0,0,0
1.543602831006865,-3.3877953491210935,-8.980650427246093,-0.63206923828125,0,0,0,0
1.5448790930095129,-3.3111808959960936,-8.971073620605468,-0.70868369140625,0,0,0,0
1.5463157430058345,-3.3016040893554686,-8.978256225585938,-0.5147533569335937,0,0,0,0
1.5478707419970306,-3.3710359375,-8.93755479736328,-0.8116343627929687,0,0,0,0
1.5491992070019478,-3.2728736694335936,-8.94473740234375,-0.7924807495117187,0,0,0,0
1.5503925630036974,-3.1962592163085937,-8.865728747558594,-0.6751648681640625,0,0,0,0
1.551564770998084,-3.258508459472656,-8.908824377441405,-0.6368576416015624,0,0,0,0
1.5530794000078458,-3.361459130859375,-8.966285217285156,-0.59376201171875,0,0,0,0
1.5545530490053352,-3.3111808959960936,-8.916006982421875,-0.6368576416015624,0,0,0,0
1.5557989600056317,-3.2249896362304686,-8.95670841064453,-0.7158662963867187,0,0,0,0
1.5569987780036172,-3.1747114013671873,-8.973467822265624,-0.7278373046875,0,0,0,0
1.558451315999264,-3.2513258544921873,-8.997409838867187,-0.7422025146484375,0,0,0,0
1.5599127980094636,-3.411737365722656,-8.980650427246093,-0.6631938598632812,0,0,0,0
1.5611541530088289,-3.289633081054687,-8.913612780761719,-0.689530078125,0,0,0,0
1.562330397995538,-3.289633081054687,-8.935160595703124,-0.6344634399414062,0,0,0,0
1.5638792499958072,-3.19865341796875,-8.889670764160156,-0.6153098266601562,0,0,0,0
1.5652129000081914,-3.361459130859375,-8.942343200683593,-0.6679822631835937,0,0,0,0
1.5663995150098344,-3.421314172363281,-8.980650427246093,-0.6248866333007812,0,0,0,0
1.5688072820048546,-3.289633081054687,-8.959102612304687,-0.679953271484375,0,0,0,0
1.57000436000817,-3.294421484375,-8.93755479736328,-0.679953271484375,0,0,0,0
1.5712812139972812,-3.3255461059570313,-8.935160595703124,-0.7062894897460937,0,0,0,0
1.57248399600212,-3.201047619628906,-8.963891015625,-0.7541735229492187,0,0,0,0
1.5735841490095481,-3.2513258544921873,-9.016563452148437,-0.7565677246093749,0,0,0,0
1.5747476910037221,-3.3494881225585935,-8.959102612304687,-0.6584054565429687,0,0,0,0
1.5760574150044704,-3.2609026611328122,-8.935160595703124,-0.7038952880859375,0,0,0,0
1.5771598459978122,-3.2800562744140622,-8.966285217285156,-0.8259995727539062,0,0,0,0
1.5782510370045202,-3.337517114257812,-8.961496813964843,-0.6703764648437499,0,0,0,0
1.5794067820097553,-3.2417490478515623,-8.930372192382812,-0.7134720947265625,0,0,0,0
1.5806904330092948,-3.1603461914062496,-8.911218579101561,-0.699106884765625,0,0,0,0
1.581786586000817,-3.306392492675781,-8.93755479736328,-0.7230489013671875,0,0,0,0
1.5829632009990746,-3.23696064453125,-8.93755479736328,-0.7445967163085937,0,0,0,0
1.5841188720078208,-3.2058360229492187,-8.980650427246093,-0.7661445312499999,0,0,0,0
1.5864301219990011,-3.3590649291992185,-8.992621435546875,-0.7038952880859375,0,0,0,0
1.5876541250036098,-3.3207577026367185,-8.939948999023438,-0.689530078125,0,0,0,0
1.58875379699748,-3.31357509765625,-8.954314208984375,-0.74699091796875,0,0,0,0
1.5899980039976072,-3.35188232421875,-8.927977990722656,-0.7398083129882812,0,0,0,0
1.5913917090074392,-3.308786694335937,-8.86094034423828,-0.612915625,0,0,0,0
1.5924905840074643,-3.2321722412109373,-8.755595471191405,-0.5770026000976562,0,0,0,0
1.5935793120006565,-3.2704794677734372,-8.932766394042968,-0.6751648681640625,0,0,0,0
1.5947600189974764,-3.3255461059570313,-8.9255837890625,-0.6368576416015624,0,0,0,0
1.5959981339983642,-3.31357509765625,-8.980650427246093,-0.7134720947265625,0,0,0,0
1.5973060249962145,-3.2561142578125,-8.942343200683593,-0.6512228515624999,0,0,0,0
1.5983992340043187,-3.191470812988281,-8.88009395751953,-0.6536170532226562,0,0,0,0
1.5994832580036018,-3.2249896362304686,-9.04050546875,-0.7445967163085937,0,0,0,0
1.600726742995903,-3.347093920898437,-9.052476477050782,-0.5865794067382812,0,0,0,0
1.6019989490014268,-3.418919970703125,-8.992621435546875,-0.6440402465820312,0,0,0,0
1.6033131000003777,-3.347093920898437,-8.927977990722656,-0.6440402465820312,0,0,0,0
1.604483845003415,-3.31357509765625,-8.947131604003905,-0.6368576416015624,0,0,0,0
1.606025770000997,-3.299209887695312,-8.91840118408203,-0.6248866333007812,0,0,0,0
1.6075931590021355,-3.3710359375,-9.011775048828124,-0.59376201171875,0,0,0,0
1.6091674360068282,-3.42849677734375,-8.954314208984375,-0.5434837768554687,0,0,0,0
1.6105153640091885,-3.373430139160156,-8.896853369140624,-0.7110778930664062,0,0,0,0
1.6117088300088653,-3.2609026611328122,-8.86812294921875,-0.6248866333007812,0,0,0,0
1.6129680370067945,-3.1771056030273437,-8.851363537597656,-0.6560112548828124,0,0,0,0
1.6142186890065204,-3.2561142578125,-8.920795385742187,-0.7517793212890624,0,0,0,0
1.6154199699958554,-3.289633081054687,-8.990227233886719,-0.7110778930664062,0,0,0,0
1.6165104570100084,-3.3399113159179685,-8.930372192382812,-0.6344634399414062,0,0,0,0
1.6176012399955653,-3.3638533325195312,-8.86812294921875,-0.6416460449218749,0,0,0,0
1.6186863930051913,-3.265691064453125,-8.935160595703124,-0.622492431640625,0,0,0,0
1.6201389119960368,-3.239354846191406,-8.89924757080078,-0.6655880615234374,0,0,0,0
1.6215943020069972,-3.3111808959960936,-9.014169250488282,-0.6727706665039062,0,0,0,0
1.6228086760092992,-3.3710359375,-8.963891015625,-0.6727706665039062,0,0,0,0
1.6239035140024498,-3.284844677734375,-8.949525805664061,-0.6272808349609375,0,0,0,0
1.6250893149990588,-3.2824504760742186,-8.954314208984375,-0.7158662963867187,0,0,0,0
1.6270519760000752,-3.296815686035156,-9.038111267089842,-0.6416460449218749,0,0,0,0
1.6289519900019513,-3.3973721557617185,-9.035717065429687,-0.49799394531249996,0,0,0,0
1.6304603230091743,-3.287238879394531,-8.834604125976561,-0.6727706665039062,0,0,0,0
1.6316691969987005,-3.2800562744140622,-8.894459167480468,-0.7278373046875,0,0,0,0
1.6328889410069678,-3.356670727539062,-8.935160595703124,-0.6919242797851562,0,0,0,0
1.6340750380040845,-3.373430139160156,-8.966285217285156,-0.7158662963867187,0,0,0,0
1.6360556060099043,-3.2225954345703123,-8.927977990722656,-0.6344634399414062,0,0,0,0
1.637329146004049,-3.2417490478515623,-8.894459167480468,-0.689530078125,0,0,0,0
1.6384369470033562,-3.2417490478515623,-8.975862023925782,-0.7398083129882812,0,0,0,0
1.6395132309990004,-3.27526787109375,-9.026140258789061,-0.7158662963867187,0,0,0,0
1.6405834769975627,-3.399766357421875,-8.98304462890625,-0.679953271484375,0,0,0,0
1.641802906000521,-3.294421484375,-8.98304462890625,-0.6871358764648438,0,0,0,0
1.6430610950046685,-3.227383837890625,-8.99501563720703,-0.6919242797851562,0,0,0,0
1.6442378759966232,-3.31357509765625,-8.990227233886719,-0.6727706665039062,0,0,0,0
1.6453328259958653,-3.399766357421875,-8.916006982421875,-0.7110778930664062,0,0,0,0
1.6464106460043695,-3.284844677734375,-8.884882360839843,-0.7110778930664062,0,0,0,0
1.6474817630078178,-3.229778039550781,-8.9255837890625,-0.7062894897460937,0,0,0,0
1.648872523001046,-3.27526787109375,-8.980650427246093,-0.7422025146484375,0,0,0,0
1.6503298199968413,-3.2513258544921873,-8.908824377441405,-0.6967126831054687,0,0,0,0
1.6519070049980655,-3.2154128295898436,-8.978256225585938,-0.6679822631835937,0,0,0,0
1.653062305005733,-3.323151904296875,-9.009380847167968,-0.6655880615234374,0,0,0,0
1.65415795899753,-3.411737365722656,-9.038111267089842,-0.6272808349609375,0,0,0,0
1.6553149259998463,-3.3351229125976563,-9.026140258789061,-0.6368576416015624,0,0,0,0
1.6566132059961092,-3.303998291015625,-8.939948999023438,-0.689530078125,0,0,0,0
1.6579645419988083,-3.361459130859375,-8.978256225585938,-0.6679822631835937,0,0,0,0
1.660200218000682,-3.3542765258789062,-8.954314208984375,-0.6823474731445313,0,0,0,0
1.6621706750011072,-3.3303345092773435,-8.930372192382812,-0.7015010864257812,0,0,0,0
1.6655512080033077,-3.308786694335937,-8.978256225585938,-0.6703764648437499,0,0,0,0
1.6668132299964782,-3.2249896362304686,-8.913612780761719,-0.5913678100585937,0,0,0,0
1.6679262710094918,-3.296815686035156,-8.949525805664061,-0.8906430175781249,0,0,0,0
1.6693102919962257,-3.383006945800781,-8.990227233886719,-0.6775590698242188,0,0,0,0
1.670584275998408,-3.383006945800781,-8.927977990722656,-0.7230489013671875,0,0,0,0
1.6718570009979885,-3.361459130859375,-8.913612780761719,-0.74699091796875,0,0,0,0
1.673132430005353,-3.287238879394531,-8.966285217285156,-0.689530078125,0,0,0,0
1.6742836379999062,-3.366247534179687,-9.03332286376953,-0.7110778930664062,0,0,0,0
1.6753636619978352,-3.342305517578125,-9.03332286376953,-0.6775590698242188,0,0,0,0
1.6764352970058098,-3.306392492675781,-8.882488159179687,-0.6512228515624999,0,0,0,0
1.6775145240098936,-3.2800562744140622,-8.916006982421875,-0.7015010864257812,0,0,0,0
1.6786831400095252,-3.3399113159179685,-8.9255837890625,-0.6488286499023437,0,0,0,0
1.6801198629982537,-3.3542765258789062,-8.920795385742187,-0.6440402465820312,0,0,0,0
1.6813190890097758,-3.404554760742187,-9.02135185546875,-0.6847416748046875,0,0,0,0
1.6823975940060336,-3.239354846191406,-8.9255837890625,-0.7565677246093749,0,0,0,0
1.6835473210085183,-3.2704794677734372,-8.975862023925782,-0.8499415893554687,0,0,0,0
1.68476286099758,-3.3303345092773435,-9.004592443847656,-0.7781155395507812,0,0,0,0
1.6858449040009873,-3.361459130859375,-8.997409838867187,-0.7924807495117187,0,0,0,0
1.6869218350038864,-3.3494881225585935,-8.942343200683593,-0.6847416748046875,0,0,0,0
1.688069320996874,-3.306392492675781,-8.973467822265624,-0.6679822631835937,0,0,0,0
1.689363861005404,-3.2441432495117186,-8.927977990722656,-0.6655880615234374,0,0,0,0
1.6904445510008372,-3.308786694335937,-8.947131604003905,-0.6847416748046875,0,0,0,0
1.6915174449968617,-3.2537200561523436,-8.8872765625,-0.6631938598632812,0,0,0,0
1.6927815600065514,-3.2704794677734372,-8.877699755859375,-0.6775590698242188,0,0,0,0
1.6940498769981787,-3.23696064453125,-8.88009395751953,-0.7422025146484375,0,0,0,0
1.695459397000377,-3.239354846191406,-8.927977990722656,-0.7781155395507812,0,0,0,0
1.6966713450092357,-3.308786694335937,-8.927977990722656,-0.7230489013671875,0,0,0,0
1.6979181630013045,-3.4093431640625,-8.954314208984375,-0.6440402465820312,0,0,0,0
1.6992256840021582,-3.323151904296875,-8.892064965820312,-0.7589619262695312,0,0,0,0
1.7004923729982693,-3.306392492675781,-8.91840118408203,-0.7829039428710937,0,0,0,0
1.7016731170006096,-3.2034418212890623,-8.98304462890625,-0.7517793212890624,0,0,0,0
1.702831918009906,-3.277662072753906,-8.985438830566405,-0.7445967163085937,0,0,0,0
1.7039974409999559,-3.2728736694335936,-8.968679418945312,-0.70868369140625,0,0,0,0
1.7052482959988993,-3.421314172363281,-8.985438830566405,-0.699106884765625,0,0,0,0
1.706499984007678,-3.299209887695312,-8.973467822265624,-0.6440402465820312,0,0,0,0
1.707672710006591,-3.2609026611328122,-8.947131604003905,-0.6703764648437499,0,0,0,0
1.7090420269960305,-3.2920272827148436,-8.904035974121093,-0.7924807495117187,0,0,0,0
1.7104969170031836,-3.3446997192382812,-8.932766394042968,-0.7206546997070312,0,0,0,0
1.7118458449986065,-3.287238879394531,-8.927977990722656,-0.6727706665039062,0,0,0,0
1.7130638300004648,-3.2225954345703123,-8.90643017578125,-0.7661445312499999,0,0,0,0
1.7142624630068894,-3.2513258544921873,-9.014169250488282,-0.7781155395507812,0,0,0,0
1.7153496530081611,-3.2513258544921873,-8.94473740234375,-0.7206546997070312,0,0,0,0
1.7164386960066622,-3.3351229125976563,-8.963891015625,-0.6943184814453125,0,0,0,0
1.7176481439964846,-3.2561142578125,-8.932766394042968,-0.7015010864257812,0,0,0,0
1.7188997030025348,-3.2704794677734372,-8.93755479736328,-0.74699091796875,0,0,0,0
1.7200648550060578,-3.2824504760742186,-8.975862023925782,-0.7230489013671875,0,0,0,0
1.721211508003762,-3.2537200561523436,-8.947131604003905,-0.7541735229492187,0,0,0,0
1.7224482699966757,-3.3111808959960936,-8.997409838867187,-0.6177040283203125,0,0,0,0
1.7235655160038732,-3.2441432495117186,-8.980650427246093,-0.7110778930664062,0,0,0,0
1.7246516690065619,-3.162740393066406,-8.992621435546875,-0.689530078125,0,0,0,0
1.7259486530092545,-3.2824504760742186,-8.99501563720703,-0.7134720947265625,0,0,0,0
1.7275392449955689,-3.4428619873046875,-9.035717065429687,-0.6296750366210937,0,0,0,0
1.728768544999184,-3.4428619873046875,-8.920795385742187,-0.689530078125,0,0,0,0
1.7299483270035125,-3.423708374023437,-8.98304462890625,-0.689530078125,0,0,0,0
1.731097071999102,-3.3590649291992185,-8.975862023925782,-0.6368576416015624,0,0,0,0
1.7321924660063814,-3.337517114257812,-8.942343200683593,-0.603338818359375,0,0,0,0
1.7339307040092535,-3.2345664428710936,-8.94473740234375,-0.7350199096679687,0,0,0,0
1.735125245002564,-3.3303345092773435,-8.985438830566405,-0.7062894897460937,0,0,0,0
1.7362710820016218,-3.380612744140625,-8.94473740234375,-0.5578489868164063,0,0,0,0
1.7373750690021552,-3.366247534179687,-8.901641772460938,-0.6057330200195312,0,0,0,0
1.7389532719971612,-3.294421484375,-8.875305554199219,-0.6368576416015624,0,0,0,0
1.7403142740076873,-3.1699229980468746,-8.951920007324219,-0.6919242797851562,0,0,0,0
1.7414605189987924,-3.3159692993164063,-8.932766394042968,-0.7062894897460937,0,0,0,0
1.7425587650068337,-3.347093920898437,-8.980650427246093,-0.6751648681640625,0,0,0,0
1.744310335998307,-3.3638533325195312,-8.916006982421875,-0.7757213378906249,0,0,0,0
1.7454917099967133,-3.3255461059570313,-8.949525805664061,-0.7685387329101562,0,0,0,0
1.7466200479975669,-3.2441432495117186,-8.935160595703124,-0.6727706665039062,0,0,0,0
1.7477127390011447,-3.2441432495117186,-8.951920007324219,-0.689530078125,0,0,0,0
1.749196443008259,-3.3159692993164063,-9.004592443847656,-0.6751648681640625,0,0,0,0
1.7504423530044733,-3.2728736694335936,-8.997409838867187,-0.6057330200195312,0,0,0,0
1.751538951008115,-3.306392492675781,-8.98304462890625,-0.59376201171875,0,0,0,0
1.7526218080020044,-3.3351229125976563,-8.930372192382812,-0.6655880615234374,0,0,0,0
1.7537607020058203,-3.303998291015625,-8.985438830566405,-0.622492431640625,0,0,0,0
1.7553497010085266,-3.27526787109375,-9.062053283691405,-0.6679822631835937,0,0,0,0
1.7564975200075423,-3.2417490478515623,-9.018957653808593,-0.6679822631835937,0,0,0,0
1.7577838559955126,-3.342305517578125,-8.966285217285156,-0.7158662963867187,0,0,0,0
1.7589888969960157,-3.323151904296875,-8.851363537597656,-0.6416460449218749,0,0,0,0
1.7604602860083105,-3.3351229125976563,-8.949525805664061,-0.699106884765625,0,0,0,0
1.7617656590009574,-3.1842882080078123,-8.947131604003905,-0.689530078125,0,0,0,0
1.7628632749983808,-3.1771056030273437,-8.86094034423828,-0.7350199096679687,0,0,0,0
1.7639518170035444,-3.277662072753906,-8.916006982421875,-0.7398083129882812,0,0,0,0
1.7650470259977737,-3.308786694335937,-8.978256225585938,-0.6607996582031249,0,0,0,0
1.7670709090016317,-3.2800562744140622,-8.93755479736328,-0.718260498046875,0,0,0,0
1.7683617080037948,-3.366247534179687,-8.923189587402343,-0.6919242797851562,0,0,0,0
1.769546897005057,-3.284844677734375,-8.889670764160156,-0.7829039428710937,0,0,0,0
1.770691309007816,-3.27526787109375,-8.975862023925782,-0.7254431030273437,0,0,0,0
1.771872498007724,-3.210624426269531,-8.980650427246093,-0.6943184814453125,0,0,0,0
1.7732893880020129,-3.248931652832031,-8.932766394042968,-0.6751648681640625,0,0,0,0
1.7744255970028462,-3.4093431640625,-8.999804040527343,-0.622492431640625,0,0,0,0
1.7759413190069608,-3.4332851806640625,-9.026140258789061,-0.7134720947265625,0,0,0,0
1.7773684310086537,-3.2513258544921873,-8.947131604003905,-0.6416460449218749,0,0,0,0
1.7785259170050267,-3.2417490478515623,-8.927977990722656,-0.6703764648437499,0,0,0,0
1.7796228660008637,-3.3638533325195312,-9.016563452148437,-0.6775590698242188,0,0,0,0
1.7807096860051388,-3.385401147460937,-8.985438830566405,-0.6177040283203125,0,0,0,0
1.7817979690007633,-3.385401147460937,-8.947131604003905,-0.6177040283203125,0,0,0,0
1.7829751210083487,-3.356670727539062,-8.94473740234375,-0.6631938598632812,0,0,0,0
1.7843661780061666,-3.239354846191406,-8.875305554199219,-0.6488286499023437,0,0,0,0
1.7855914600077085,-3.3111808959960936,-8.9255837890625,-0.7134720947265625,0,0,0,0
1.7872277919959743,-3.3303345092773435,-8.959102612304687,-0.7445967163085937,0,0,0,0
1.788468480008305,-3.287238879394531,-8.947131604003905,-0.7015010864257812,0,0,0,0
1.7899015180009883,-3.2609026611328122,-8.95670841064453,-0.6631938598632812,0,0,0,0
1.7912437049963046,-3.2704794677734372,-8.95670841064453,-0.6081272216796875,0,0,0,0
1.7924483020033222,-3.296815686035156,-8.987833032226561,-0.6464344482421874,0,0,0,0
1.7937539340055082,-3.423708374023437,-9.028534460449219,-0.6464344482421874,0,0,0,0
