Time (s),Accel X,Accel Y,Accel Z,Gyro X,Gyro Y,Gyro Z,Temperature (C)
0.002523149000353442,-0.3447650390625,-9.662997900390625,1.3072341064453123,0,0,0,0
0.0039233060001606646,-0.4572925170898437,-9.617508068847656,1.2497732666015624,0,0,0,0
0.005204241000228649,-0.41898529052734373,-9.593566052246093,1.2952630981445312,0,0,0,0
0.006556657000146515,-0.3327940307617187,-9.619902270507811,1.3239935180664062,0,0,0,0
0.007776723000006314,-0.23223756103515625,-9.619902270507811,1.2904746948242187,0,0,0,0
0.009143157000380597,-0.2442085693359375,-9.68454571533203,1.3048399047851562,0,0,0,0
0.010585647000425524,-0.3016694091796875,-9.746794958496093,1.2904746948242187,0,0,0,0
0.012136654000187264,-0.28730419921875,-9.749189160156249,1.35990654296875,0,0,0,0
0.013522108000415756,-0.30406361083984373,-9.689334118652344,1.3192051147460937,0,0,0,0
0.015085374000136653,-0.4333505004882812,-9.65342109375,1.24498486328125,0,0,0,0
0.01657090100025016,-0.43574470214843747,-9.610325463867188,1.218648645019531,0,0,0,0
0.018044649000330537,-0.3495534423828125,-9.610325463867188,1.1947066284179686,0,0,0,0
0.01944112099999984,-0.24660277099609373,-9.677363110351562,1.407790576171875,0,0,0,0
0.020895018000373966,-0.16519991455078123,-9.672574707031249,1.3455413330078123,0,0,0,0
0.022406878000310826,-0.2657563842773437,-9.617508068847656,1.2952630981445312,0,0,0,0
0.0238027560003502,-0.3854664672851562,-9.586383447265625,1.2282254516601563,0,0,0,0
0.02610179600014817,-0.3687070556640625,-9.622296472167967,1.3551181396484375,0,0,0,0
0.027550822000193875,-0.3136404174804687,-9.727641345214844,1.1875240234375,0,0,0,0
0.029029793000063364,-0.316034619140625,-9.631873278808593,1.2665326782226562,0,0,0,0
0.030269821000274533,-0.258573779296875,-9.557653027343749,1.3335703247070312,0,0,0,0
0.0313812020003752,-0.22505495605468748,-9.507374792480467,1.2808978881835937,0,0,0,0
0.03259628600017095,-0.2346317626953125,-9.627084875488281,1.189918225097656,0,0,0,0
0.03381366700023136,-0.2705447875976562,-9.677363110351562,1.3192051147460937,0,0,0,0
0.034944621000249754,-0.3280056274414062,-9.689334118652344,1.3048399047851562,0,0,0,0
0.03603394700030549,-0.38786066894531246,-9.679757312011718,1.2641384765625,0,0,0,0
0.03724399400016409,-0.4381389038085937,-9.715670336914062,1.2832920898437499,0,0,0,0
0.03846854100038399,-0.47644613037109373,-9.773131176757811,1.3192051147460937,0,0,0,0
0.03957094000043071,-0.3447650390625,-9.68454571533203,1.3215993164062498,0,0,0,0
0.04065493300004164,-0.24181436767578124,-9.65342109375,1.3144167114257812,0,0,0,0
0.041756277000331465,-0.19871873779296872,-9.617508068847656,1.3144167114257812,0,0,0,0
0.042998379000437126,-0.2346317626953125,-9.574412438964844,1.197100830078125,0,0,0,0
0.04418433300043034,-0.34715924072265625,-9.586383447265625,1.2952630981445312,0,0,0,0
0.045295566000277176,-0.29448680419921874,-9.696516723632811,1.2593500732421874,0,0,0,0
0.04638370600014241,-0.3280056274414062,-9.732429748535155,1.2401964599609374,0,0,0,0
0.0474663100003454,-0.2442085693359375,-9.674968908691406,1.2210428466796874,0,0,0,0
0.04854872800024168,-0.35673604736328124,-9.617508068847656,1.2282254516601563,0,0,0,0
0.04975836800031175,-0.41898529052734373,-9.65342109375,1.2832920898437499,0,0,0,0
0.05118558000003759,-0.36391865234375,-9.631873278808593,1.3096283081054687,0,0,0,0
0.05231418300036239,-0.30406361083984373,-9.598354455566406,1.2785036865234374,0,0,0,0
0.053403971000079764,-0.373495458984375,-9.581595043945311,1.2665326782226562,0,0,0,0
0.05548260500017932,-0.43574470214843747,-9.593566052246093,1.4173673828125,0,0,0,0
0.05701639000017167,-0.239420166015625,-9.603142858886718,1.3455413330078123,0,0,0,0
0.058292010000059236,-0.28730419921875,-9.68454571533203,1.3263877197265623,0,0,0,0
0.059644112000114546,-0.20829554443359374,-9.737218151855469,1.2641384765625,0,0,0,0
0.060858288000417815,-0.4381389038085937,-9.710881933593749,1.2641384765625,0,0,0,0
0.06204535400001987,-0.41898529052734373,-9.631873278808593,1.2904746948242187,0,0,0,0
0.06332634500040513,-0.3758896606445312,-9.502586389160156,1.2928688964843749,0,0,0,0
0.0644485220000206,-0.40940848388671874,-9.619902270507811,1.3072341064453123,0,0,0,0
0.06565331000001606,-0.21787235107421873,-9.660603698730467,1.2928688964843749,0,0,0,0
0.06696217100034119,-0.19871873779296872,-9.665392102050781,1.2401964599609374,0,0,0,0
0.06807208900045225,-0.25139117431640623,-9.64623848876953,1.3215993164062498,0,0,0,0
0.06916061800029638,-0.29448680419921874,-9.631873278808593,1.3000515014648437,0,0,0,0
0.07038060900003984,-0.3064578125,-9.710881933593749,1.2330138549804688,0,0,0,0
0.0715645640002549,-0.3806780639648437,-9.706093530273437,1.2497732666015624,0,0,0,0
0.0726655380003649,-0.3711012573242187,-9.708487731933593,1.2378022583007813,0,0,0,0
0.07375764100015658,-0.4333505004882812,-9.696516723632811,1.2713210815429687,0,0,0,0
0.07485118900012822,-0.41419688720703124,-9.612719665527344,1.369483349609375,0,0,0,0
0.07609279100006461,-0.3711012573242187,-9.595960253906249,1.3359645263671873,0,0,0,0
0.077282801000365,-0.28490999755859375,-9.60793126220703,1.3239935180664062,0,0,0,0
0.07841094100012924,-0.23702596435546874,-9.610325463867188,1.350329736328125,0,0,0,0
0.07948550700029955,-0.239420166015625,-9.588777648925781,1.3479355346679687,0,0,0,0
0.08055668500037427,-0.22266075439453123,-9.624690673828125,1.3359645263671873,0,0,0,0
0.08181225000043924,-0.33518823242187495,-9.708487731933593,1.2880804931640624,0,0,0,0
0.08306859300000724,-0.40940848388671874,-9.782707983398437,1.2378022583007813,0,0,0,0
0.08424321400025292,-0.4381389038085937,-9.765948571777344,1.3024457031249999,0,0,0,0
0.08534598400001414,-0.3591302490234375,-9.679757312011718,1.3527239379882812,0,0,0,0
0.08658043800005544,-0.37828386230468747,-9.651026892089844,1.3144167114257812,0,0,0,0
0.08776233700018565,-0.2753331909179687,-9.612719665527344,1.218648645019531,0,0,0,0
0.08886240300034842,-0.28969840087890625,-9.528922607421874,1.20667763671875,0,0,0,0
0.08997595100026956,-0.277727392578125,-9.533711010742186,1.24498486328125,0,0,0,0
0.09118036800009577,-0.258573779296875,-9.598354455566406,1.120486376953125,0,0,0,0
0.09236008200014112,-0.21068974609375,-9.665392102050781,1.3096283081054687,0,0,0,0
0.09345763000010265,-0.24660277099609373,-9.706093530273437,1.2018892333984375,0,0,0,0
0.0945401040003162,-0.28969840087890625,-9.696516723632811,1.2497732666015624,0,0,0,0
0.09561615200027518,-0.16519991455078123,-9.68454571533203,1.2282254516601563,0,0,0,0
0.09684049500037872,-0.3950432739257812,-9.658209497070311,1.2306196533203124,0,0,0,0
0.09803139400037253,-0.36152445068359373,-9.651026892089844,1.24498486328125,0,0,0,0
0.09912786700033394,-0.3064578125,-9.720458740234374,1.3718775512695311,0,0,0,0
0.10023419300023306,-0.3591302490234375,-9.720458740234374,1.2856862915039062,0,0,0,0
0.10132114800035197,-0.22744915771484372,-9.605537060546874,1.3024457031249999,0,0,0,0
0.1025271760004216,-0.229843359375,-9.588777648925781,1.350329736328125,0,0,0,0
0.10369581600025413,-0.2920926025390625,-9.619902270507811,1.3263877197265623,0,0,0,0
0.1047767160002877,-0.277727392578125,-9.682151513671874,1.3670891479492187,0,0,0,0
0.10585274500044761,-0.30406361083984373,-9.682151513671874,1.2880804931640624,0,0,0,0
0.10706864400026461,-0.29927520751953124,-9.6917283203125,1.2617442749023438,0,0,0,0
0.10825419100001454,-0.3399766357421875,-9.70369932861328,1.3024457031249999,0,0,0,0
0.10934946100041998,-0.411802685546875,-9.763554370117188,1.2617442749023438,0,0,0,0
0.11059421100026157,-0.3806780639648437,-9.574412438964844,1.2282254516601563,0,0,0,0
0.1118731100000332,-0.35673604736328124,-9.548076220703125,1.2617442749023438,0,0,0,0
0.11307619400031399,-0.2920926025390625,-9.627084875488281,1.350329736328125,0,0,0,0
0.11447694300022704,-0.22744915771484372,-9.713276135253906,1.2713210815429687,0,0,0,0
0.11560267600043517,-0.239420166015625,-9.789890588378906,1.2665326782226562,0,0,0,0
0.11669570500043847,-0.373495458984375,-9.68454571533203,1.2330138549804688,0,0,0,0
0.11778247500024008,-0.354341845703125,-9.588777648925781,1.2689268798828124,0,0,0,0
0.11904941000011604,-0.3399766357421875,-9.631873278808593,1.3000515014648437,0,0,0,0
0.12060562100032257,-0.3950432739257812,-9.667786303710937,1.3215993164062498,0,0,0,0
0.1218997600003604,-0.38307226562499996,-9.619902270507811,1.3383587280273437,0,0,0,0
0.12317141800031095,-0.3232172241210937,-9.710881933593749,1.3479355346679687,0,0,0,0
0.1243322060004175,-0.28490999755859375,-9.76116016845703,1.3335703247070312,0,0,0,0
0.12556366000035268,-0.181959326171875,-9.622296472167967,1.3718775512695311,0,0,0,0
0.12676317000023118,-0.1580173095703125,-9.560047229003906,1.3359645263671873,0,0,0,0
0.12801482800023223,-0.2825157958984375,-9.5384994140625,1.3048399047851562,0,0,0,0
0.12919557900022482,-0.3806780639648437,-9.574412438964844,1.1875240234375,0,0,0,0
0.13029996000022948,-0.3806780639648437,-9.765948571777344,1.2928688964843749,0,0,0,0
0.13151471000037418,-0.4070142822265625,-9.727641345214844,1.1875240234375,0,0,0,0
0.1326922020002712,-0.3902548706054687,-9.674968908691406,1.3072341064453123,0,0,0,0
0.13379863800037128,-0.3136404174804687,-9.662997900390625,1.3862427612304686,0,0,0,0
0.1349388160001581,-0.24899697265624998,-9.579200842285156,1.2521674682617188,0,0,0,0
0.13622230600003604,-0.3064578125,-9.476250170898437,1.369483349609375,0,0,0,0
0.13781249900011971,-0.33039982910156246,-9.593566052246093,1.3263877197265623,0,0,0,0
0.13892004600029395,-0.3854664672851562,-9.6917283203125,1.3551181396484375,0,0,0,0
0.140006502000233,-0.28969840087890625,-9.830592016601562,1.2737152832031249,0,0,0,0
0.14113123400011318,-0.2825157958984375,-9.82580361328125,1.0989385620117187,0,0,0,0
0.1423686330003875,-0.28730419921875,-9.679757312011718,1.2928688964843749,0,0,0,0
0.1438302150004347,-0.3758896606445312,-9.579200842285156,1.2832920898437499,0,0,0,0
0.1449359660000482,-0.33518823242187495,-9.516951599121093,1.3048399047851562,0,0,0,0
0.14604823600029704,-0.3399766357421875,-9.557653027343749,1.254561669921875,0,0,0,0
0.14712665500019284,-0.40222587890625,-9.639055883789062,1.2617442749023438,0,0,0,0
0.14833435000036843,-0.3902548706054687,-9.701305126953125,1.2473790649414063,0,0,0,0
0.1496293400000468,-0.44053310546874996,-9.658209497070311,1.2928688964843749,0,0,0,0
0.15076938800029893,-0.24899697265624998,-9.588777648925781,1.2617442749023438,0,0,0,0
0.15186169500020696,-0.2657563842773437,-9.631873278808593,1.3000515014648437,0,0,0,0
0.1530592050003179,-0.2537853759765625,-9.617508068847656,1.3383587280273437,0,0,0,0
0.1543596580004305,-0.239420166015625,-9.715670336914062,1.3311761230468748,0,0,0,0
0.15545876200030762,-0.36631285400390623,-9.706093530273437,1.3455413330078123,0,0,0,0
0.15654336500028876,-0.47884033203125,-9.651026892089844,1.3168109130859373,0,0,0,0
0.15762619100041775,-0.5770026000976562,-9.65342109375,1.1755530151367186,0,0,0,0
0.15871494200018788,-0.33518823242187495,-9.598354455566406,1.1444283935546875,0,0,0,0
0.15993811900034416,-0.23702596435546874,-9.567229833984374,1.3239935180664062,0,0,0,0
0.16122055400001045,-0.17956512451171874,-9.639055883789062,1.2018892333984375,0,0,0,0
0.1624872300003517,-0.20350714111328125,-9.603142858886718,1.2761094848632812,0,0,0,0
0.16358955600026093,-0.28969840087890625,-9.68454571533203,1.2234370483398436,0,0,0,0
0.16466238100019837,-0.35673604736328124,-9.725247143554688,1.2617442749023438,0,0,0,0
0.16620827800034021,-0.4070142822265625,-9.725247143554688,1.3335703247070312,0,0,0,0
0.16801867200001652,-0.33039982910156246,-9.64623848876953,1.2832920898437499,0,0,0,0
0.16933492200041655,-0.38786066894531246,-9.641450085449218,1.22583125,0,0,0,0
0.17080131900002016,-0.3327940307617187,-9.627084875488281,1.2330138549804688,0,0,0,0
0.17211271700034558,-0.24181436767578124,-9.634267480468749,1.2689268798828124,0,0,0,0
0.1737868720001643,-0.28012159423828126,-9.739612353515625,1.2521674682617188,0,0,0,0
0.1751104730001316,-0.3447650390625,-9.713276135253906,1.2713210815429687,0,0,0,0
0.17649187100005292,-0.38786066894531246,-9.629479077148437,1.2904746948242187,0,0,0,0
0.17823828400014463,-0.3280056274414062,-9.701305126953125,1.3000515014648437,0,0,0,0
0.17943181300006472,-0.3806780639648437,-9.718064538574218,1.3383587280273437,0,0,0,0
0.18108494900025107,-0.3280056274414062,-9.677363110351562,1.484405029296875,0,0,0,0
0.18246499500037316,-0.34237083740234375,-9.581595043945311,1.2880804931640624,0,0,0,0
0.18370707900021443,-0.2561795776367187,-9.612719665527344,1.149216796875,0,0,0,0
0.18478631200014206,-0.22266075439453123,-9.65342109375,1.2593500732421874,0,0,0,0
0.1858597120003651,-0.2154781494140625,-9.6917283203125,1.2808978881835937,0,0,0,0
0.1872406460001912,-0.24899697265624998,-9.679757312011718,1.2569558715820313,0,0,0,0
0.18857260000004317,-0.29448680419921874,-9.622296472167967,1.3383587280273437,0,0,0,0
0.18965520300025673,-0.39983167724609375,-9.605537060546874,1.37906015625,0,0,0,0
0.19072839900036342,-0.4333505004882812,-9.610325463867188,1.2808978881835937,0,0,0,0
0.191794984000353,-0.42377369384765623,-9.603142858886718,1.2282254516601563,0,0,0,0
0.19286481000017375,-0.3280056274414062,-9.64623848876953,1.3359645263671873,0,0,0,0
0.19404622700039909,-0.2657563842773437,-9.631873278808593,1.3048399047851562,0,0,0,0
0.1952851810001448,-0.229843359375,-9.564835632324218,1.3263877197265623,0,0,0,0
0.1963615260001461,-0.2442085693359375,-9.600748657226562,1.2928688964843749,0,0,0,0
0.1974328510000305,-0.20350714111328125,-9.651026892089844,1.2737152832031249,0,0,0,0
0.19851030700010597,-0.16759411621093748,-9.674968908691406,1.369483349609375,0,0,0,0
0.19965555800035872,-0.39743747558593745,-9.770736975097655,1.3215993164062498,0,0,0,0
0.20098195600030522,-0.469263525390625,-9.758765966796874,1.235408056640625,0,0,0,0
0.20210255900019547,-0.45489831542968745,-9.744400756835937,1.1085153686523437,0,0,0,0
0.20319836600037888,-0.40222587890625,-9.701305126953125,1.2617442749023438,0,0,0,0
0.20437435700023343,-0.373495458984375,-9.674968908691406,1.3215993164062498,0,0,0,0
0.2056813660001353,-0.3016694091796875,-9.595960253906249,1.3623007446289062,0,0,0,0
0.20677876600029776,-0.18435352783203124,-9.536105212402344,1.3000515014648437,0,0,0,0
0.20786851800039585,-0.22266075439453123,-9.536105212402344,1.2330138549804688,0,0,0,0
0.20928398900014145,-0.3232172241210937,-9.581595043945311,1.197100830078125,0,0,0,0
0.2109296810003798,-0.23702596435546874,-9.821015209960937,1.2761094848632812,0,0,0,0
0.21203508000007787,-0.15322890625,-9.739612353515625,1.22583125,0,0,0,0
0.2131224250001651,-0.19632453613281248,-9.641450085449218,1.4053963745117186,0,0,0,0
0.2145923580001181,-0.37828386230468747,-9.672574707031249,1.4030021728515625,0,0,0,0
0.21591097900000022,-0.34715924072265625,-9.624690673828125,1.3551181396484375,0,0,0,0
0.21698808200017083,-0.36631285400390623,-9.574412438964844,1.3766659545898436,0,0,0,0
0.21811072200034687,-0.26815058593749996,-9.651026892089844,1.2785036865234374,0,0,0,0
0.21978402500008087,-0.316034619140625,-9.679757312011718,1.3000515014648437,0,0,0,0
0.2209425910000391,-0.2154781494140625,-9.65342109375,1.2234370483398436,0,0,0,0
0.22216717500032246,-0.11013327636718749,-9.6917283203125,1.3359645263671873,0,0,0,0
0.223647646000245,-0.39264907226562495,-9.598354455566406,1.3646949462890625,0,0,0,0
0.22536289300023782,-0.40222587890625,-9.713276135253906,1.2904746948242187,0,0,0,0
0.22683566000023347,-0.39264907226562495,-9.629479077148437,1.369483349609375,0,0,0,0
0.22793624500036458,-0.3854664672851562,-9.6151138671875,1.3215993164062498,0,0,0,0
0.23012691400026597,-0.3184288208007812,-9.622296472167967,1.2473790649414063,0,0,0,0
0.23183282800027882,-0.16519991455078123,-9.643844287109374,1.3239935180664062,0,0,0,0
0.23298811600034242,-0.12449848632812499,-9.617508068847656,1.3096283081054687,0,0,0,0
0.23415620000014314,-0.2154781494140625,-9.670180505371093,1.2234370483398436,0,0,0,0
0.23531193300004816,-0.42377369384765623,-9.789890588378906,1.1707646118164061,0,0,0,0
0.23640990700005204,-0.45489831542968745,-9.64623848876953,1.350329736328125,0,0,0,0
0.23749393600019175,-0.4285620971679687,-9.718064538574218,1.3215993164062498,0,0,0,0
0.23858081700018374,-0.430956298828125,-9.79946739501953,1.2856862915039062,0,0,0,0
0.23981221600024583,-0.32082302246093747,-9.70369932861328,1.3838485595703125,0,0,0,0
0.2414522960002614,-0.3591302490234375,-9.622296472167967,1.369483349609375,0,0,0,0
0.24260404800043034,-0.22505495605468748,-9.600748657226562,1.3551181396484375,0,0,0,0
0.24368607700034772,-0.2561795776367187,-9.639055883789062,1.3742717529296875,0,0,0,0
0.24505304900003466,-0.27293898925781246,-9.639055883789062,1.2880804931640624,0,0,0,0
0.24628622500040365,-0.28012159423828126,-9.524134204101562,1.3192051147460937,0,0,0,0
0.24746247600023707,-0.22744915771484372,-9.696516723632811,1.2306196533203124,0,0,0,0
0.24857172700012597,-0.507570751953125,-9.696516723632811,1.2042834350585936,0,0,0,0
0.24964686800012714,-0.49799394531249996,-9.694122521972655,1.2593500732421874,0,0,0,0
0.2507503040001211,-0.3711012573242187,-9.64623848876953,1.3287819213867187,0,0,0,0
0.25184053700013465,-0.26815058593749996,-9.655815295410155,1.3263877197265623,0,0,0,0
0.2533150270000988,-0.26815058593749996,-9.524134204101562,1.3192051147460937,0,0,0,0
0.2545899620004093,-0.2657563842773437,-9.603142858886718,1.3192051147460937,0,0,0,0
0.2559718780003095,-0.201112939453125,-9.586383447265625,1.2713210815429687,0,0,0,0
0.2570783890000712,-0.2059013427734375,-9.648632690429688,1.2521674682617188,0,0,0,0
0.25873130300033154,-0.354341845703125,-9.746794958496093,1.2401964599609374,0,0,0,0
0.2598824980000245,-0.3232172241210937,-9.775525378417969,1.3383587280273437,0,0,0,0
0.26096373100017445,-0.3806780639648437,-9.710881933593749,1.3000515014648437,0,0,0,0
0.26210577900019416,-0.3902548706054687,-9.643844287109374,1.3072341064453123,0,0,0,0
0.2637204150000798,-0.39983167724609375,-9.595960253906249,1.3168109130859373,0,0,0,0
0.26488575900020805,-0.41419688720703124,-9.586383447265625,1.3024457031249999,0,0,0,0
0.26600110300023516,-0.32082302246093747,-9.65342109375,1.2425906616210938,0,0,0,0
0.2670760030000565,-0.19153613281249998,-9.682151513671874,1.2928688964843749,0,0,0,0
0.26862019500003953,-0.29927520751953124,-9.701305126953125,1.2880804931640624,0,0,0,0
0.26977668700010327,-0.3447650390625,-9.696516723632811,1.2976572998046874,0,0,0,0
0.27086519800013775,-0.296881005859375,-9.689334118652344,1.2641384765625,0,0,0,0
0.2719385980003608,-0.3112462158203125,-9.670180505371093,1.3431471313476562,0,0,0,0
0.273533475000022,-0.45968671875,-9.574412438964844,1.2497732666015624,0,0,0,0
0.27501272400013477,-0.38307226562499996,-9.660603698730467,1.2569558715820313,0,0,0,0
0.276134586000353,-0.3184288208007812,-9.665392102050781,1.3910311645507811,0,0,0,0
0.2781923310003549,-0.29927520751953124,-9.694122521972655,1.3120225097656248,0,0,0,0
0.2794699880000735,-0.24181436767578124,-9.662997900390625,1.2832920898437499,0,0,0,0
0.280763257000217,-0.239420166015625,-9.667786303710937,1.2569558715820313,0,0,0,0
0.2822183580001365,-0.30885201416015623,-9.502586389160156,1.2737152832031249,0,0,0,0
0.2835672370001703,-0.36631285400390623,-9.655815295410155,1.2210428466796874,0,0,0,0
0.28468252500033486,-0.411802685546875,-9.665392102050781,1.1659762084960936,0,0,0,0
0.2857791470000848,-0.39743747558593745,-9.72285294189453,1.218648645019531,0,0,0,0
0.2868653980003728,-0.28730419921875,-9.634267480468749,1.2904746948242187,0,0,0,0
0.2880760750003901,-0.30406361083984373,-9.576806640625,1.3048399047851562,0,0,0,0
0.2893259180000314,-0.3327940307617187,-9.658209497070311,1.3718775512695311,0,0,0,0
0.2904563170000074,-0.2609679809570312,-9.631873278808593,1.3072341064453123,0,0,0,0
0.29154818000006344,-0.19871873779296872,-9.629479077148437,1.2713210815429687,0,0,0,0
0.2926325240000551,-0.19871873779296872,-9.6917283203125,1.2330138549804688,0,0,0,0
0.29371746100014207,-0.29448680419921874,-9.732429748535155,1.2785036865234374,0,0,0,0
0.29495330400004605,-0.34715924072265625,-9.677363110351562,1.2569558715820313,0,0,0,0
0.2961704060003285,-0.3711012573242187,-9.631873278808593,1.2713210815429687,0,0,0,0
0.2972624540002471,-0.3232172241210937,-9.622296472167967,1.216254443359375,0,0,0,0
0.29835287200012317,-0.411802685546875,-9.672574707031249,1.1731588134765625,0,0,0,0
0.29944640100029574,-0.36391865234375,-9.6917283203125,1.2306196533203124,0,0,0,0
0.3006480220001322,-0.21068974609375,-9.651026892089844,1.3335703247070312,0,0,0,0
0.3018405690004329,-0.20350714111328125,-9.662997900390625,1.3455413330078123,0,0,0,0
0.302935969000373,-0.30406361083984373,-9.593566052246093,1.3072341064453123,0,0,0,0
0.30402590600033363,-0.28730419921875,-9.598354455566406,1.2569558715820313,0,0,0,0
0.3052366560000337,-0.2609679809570312,-9.622296472167967,1.2785036865234374,0,0,0,0
0.3064265550001437,-0.41419688720703124,-9.655815295410155,1.2856862915039062,0,0,0,0
0.3075243810003485,-0.18435352783203124,-9.689334118652344,1.254561669921875,0,0,0,0
0.3086079660001815,-0.4740519287109375,-9.734823950195311,1.2617442749023438,0,0,0,0
0.3096958280002582,-0.40940848388671874,-9.674968908691406,1.2234370483398436,0,0,0,0
0.31091291200027626,-0.30885201416015623,-9.600748657226562,1.2880804931640624,0,0,0,0
0.3120936810000785,-0.33518823242187495,-9.636661682128906,1.3168109130859373,0,0,0,0
0.31318556300038836,-0.36152445068359373,-9.686939916992188,1.2928688964843749,0,0,0,0
0.31427851800026474,-0.32561142578124996,-9.672574707031249,1.3120225097656248,0,0,0,0
0.3153706210000564,-0.18435352783203124,-9.706093530273437,1.2761094848632812,0,0,0,0
0.3166542790004314,-0.32082302246093747,-9.715670336914062,1.2138602416992186,0,0,0,0
0.3177802520003752,-0.3806780639648437,-9.672574707031249,1.2210428466796874,0,0,0,0
0.31885574400030237,-0.38307226562499996,-9.651026892089844,1.1731588134765625,0,0,0,0
0.31992638500014436,-0.3854664672851562,-9.674968908691406,1.0821791503906248,0,0,0,0
0.3211196540000856,-0.35673604736328124,-9.696516723632811,1.2952630981445312,0,0,0,0
0.32233173800022996,-0.3399766357421875,-9.617508068847656,1.2569558715820313,0,0,0,0
0.3234405820003303,-0.41419688720703124,-9.605537060546874,1.3287819213867187,0,0,0,0
0.32452050000028976,-0.3327940307617187,-9.64623848876953,1.3311761230468748,0,0,0,0
0.32608273000005283,-0.22505495605468748,-9.64623848876953,1.3407529296874998,0,0,0,0
0.3272459620002337,-0.17956512451171874,-9.572018237304688,1.3287819213867187,0,0,0,0
0.32864502600023116,-0.3758896606445312,-9.665392102050781,1.3048399047851562,0,0,0,0
0.3297867030000816,-0.3806780639648437,-9.775525378417969,1.2976572998046874,0,0,0,0
0.3308783620000213,-0.3280056274414062,-9.737218151855469,1.2737152832031249,0,0,0,0
0.3320262060001369,-0.3136404174804687,-9.706093530273437,1.2928688964843749,0,0,0,0
0.3333370480004305,-0.29927520751953124,-9.639055883789062,1.2282254516601563,0,0,0,0
0.3345845400003782,-0.430956298828125,-9.660603698730467,1.2138602416992186,0,0,0,0
0.3359285300002739,-0.2753331909179687,-9.583989245605467,1.2497732666015624,0,0,0,0
0.33722955800021737,-0.239420166015625,-9.641450085449218,1.2521674682617188,0,0,0,0
0.33893154600036723,-0.37828386230468747,-9.718064538574218,1.2641384765625,0,0,0,0
0.3402880360004019,-0.26336218261718747,-9.72285294189453,1.2497732666015624,0,0,0,0
0.3415692490002584,-0.28969840087890625,-9.651026892089844,1.3383587280273437,0,0,0,0
0.34274996300018756,-0.40222587890625,-9.674968908691406,1.2401964599609374,0,0,0,0
0.34397065800021664,-0.4165910888671875,-9.701305126953125,1.3263877197265623,0,0,0,0
0.3456517940003323,-0.33039982910156246,-9.655815295410155,1.3455413330078123,0,0,0,0
0.3471505430002253,-0.32082302246093747,-9.763554370117188,1.2976572998046874,0,0,0,0
0.3483489970003575,-0.30406361083984373,-9.651026892089844,1.22583125,0,0,0,0
0.3495196000003489,-0.229843359375,-9.631873278808593,1.2330138549804688,0,0,0,0
0.3511590320003961,-0.16519991455078123,-9.679757312011718,1.3239935180664062,0,0,0,0
0.35237204200029737,-0.24899697265624998,-9.629479077148437,1.2401964599609374,0,0,0,0
0.3536098300000958,-0.3806780639648437,-9.65342109375,1.218648645019531,0,0,0,0
0.35481546900018657,-0.33518823242187495,-9.698910925292969,1.24498486328125,0,0,0,0
0.3560807570001998,-0.4525041137695312,-9.651026892089844,1.2473790649414063,0,0,0,0
0.3575370050002675,-0.41419688720703124,-9.600748657226562,1.2832920898437499,0,0,0,0
0.35887116300000343,-0.2920926025390625,-9.593566052246093,1.2330138549804688,0,0,0,0
0.36007052400009343,-0.22744915771484372,-9.629479077148437,1.2713210815429687,0,0,0,0
0.36132532999999967,-0.19153613281249998,-9.588777648925781,1.3048399047851562,0,0,0,0
0.3627827090003848,-0.27293898925781246,-9.579200842285156,1.2306196533203124,0,0,0,0
0.36395707100018626,-0.3327940307617187,-9.670180505371093,1.3575123413085937,0,0,0,0
0.3651296180000827,-0.3806780639648437,-9.689334118652344,1.3168109130859373,0,0,0,0
0.36643599800027005,-0.15562310791015624,-9.727641345214844,1.2832920898437499,0,0,0,0
0.36789602400040167,-0.38307226562499996,-9.677363110351562,1.254561669921875,0,0,0,0
0.3690700160000233,-0.41898529052734373,-9.612719665527344,1.2401964599609374,0,0,0,0
0.37024630400037495,-0.40940848388671874,-9.581595043945311,1.2617442749023438,0,0,0,0
0.37148964700008946,-0.21068974609375,-9.598354455566406,1.2473790649414063,0,0,0,0
0.37294384000006175,-0.2920926025390625,-9.639055883789062,1.4891934326171874,0,0,0,0
0.37412962800044625,-0.19393033447265623,-9.545682019042967,1.3215993164062498,0,0,0,0
0.3757569130002594,-0.2657563842773437,-9.64623848876953,1.2952630981445312,0,0,0,0
0.3769194780002181,-0.3016694091796875,-9.586383447265625,1.3479355346679687,0,0,0,0
0.37811604400030774,-0.34237083740234375,-9.651026892089844,1.2665326782226562,0,0,0,0
0.3792122400000153,-0.32561142578124996,-9.749189160156249,1.2306196533203124,0,0,0,0
0.38030693600012455,-0.34715924072265625,-9.679757312011718,1.2497732666015624,0,0,0,0
0.3815498900003149,-0.316034619140625,-9.605537060546874,1.3575123413085937,0,0,0,0
0.3826591780002673,-0.34715924072265625,-9.567229833984374,1.3096283081054687,0,0,0,0
0.3837317630000143,-0.3687070556640625,-9.540893615722656,1.197100830078125,0,0,0,0
0.38480166300041674,-0.24660277099609373,-9.560047229003906,1.2497732666015624,0,0,0,0
0.38596004300006825,-0.1580173095703125,-9.562441430664062,1.3646949462890625,0,0,0,0
0.3872742010003094,-0.258573779296875,-9.737218151855469,1.2928688964843749,0,0,0,0
0.3886373950003872,-0.3327940307617187,-9.677363110351562,1.2665326782226562,0,0,0,0
0.3901149210000767,-0.39264907226562495,-9.679757312011718,1.24498486328125,0,0,0,0
0.3912484690004021,-0.40940848388671874,-9.6151138671875,1.2689268798828124,0,0,0,0
0.39265021800019895,-0.3447650390625,-9.636661682128906,1.158793603515625,0,0,0,0
0.39393283800018253,-0.2825157958984375,-9.706093530273437,1.3024457031249999,0,0,0,0
0.39531716200008304,-0.2657563842773437,-9.682151513671874,1.2473790649414063,0,0,0,0
0.39659467100000256,-0.22505495605468748,-9.610325463867188,1.2665326782226562,0,0,0,0
0.3977894960003141,-0.30406361083984373,-9.639055883789062,1.3263877197265623,0,0,0,0
0.3993909110004097,-0.3711012573242187,-9.715670336914062,1.2976572998046874,0,0,0,0
0.4009340110001176,-0.3064578125,-9.720458740234374,1.2378022583007813,0,0,0,0
0.4024640740003633,-0.469263525390625,-9.758765966796874,1.1923124267578125,0,0,0,0
0.40410887699999876,-0.4333505004882812,-9.651026892089844,1.3096283081054687,0,0,0,0
0.4055647930003943,-0.36152445068359373,-9.658209497070311,1.3263877197265623,0,0,0,0
0.4071135040003355,-0.23702596435546874,-9.662997900390625,1.2713210815429687,0,0,0,0
0.40843727200035573,-0.2920926025390625,-9.567229833984374,1.3096283081054687,0,0,0,0
0.4097068930000205,-0.3136404174804687,-9.619902270507811,1.3263877197265623,0,0,0,0
0.4109063470000365,-0.36631285400390623,-9.725247143554688,1.2617442749023438,0,0,0,0
0.4121053940002639,-0.354341845703125,-9.698910925292969,1.3263877197265623,0,0,0,0
0.4134426620003069,-0.26336218261718747,-9.689334118652344,1.3359645263671873,0,0,0,0
0.41476539400036927,-0.3184288208007812,-9.631873278808593,1.3287819213867187,0,0,0,0
0.4159800890001861,-0.36152445068359373,-9.574412438964844,1.2904746948242187,0,0,0,0
0.41716482100036956,-0.38307226562499996,-9.583989245605467,1.1324573852539062,0,0,0,0
0.4184357750000345,-0.3280056274414062,-9.674968908691406,1.235408056640625,0,0,0,0
0.41961839600025996,-0.24181436767578124,-9.739612353515625,1.2593500732421874,0,0,0,0
0.42070444400042106,-0.16280571289062498,-9.674968908691406,1.254561669921875,0,0,0,0
0.42180691700013995,-0.21787235107421873,-9.667786303710937,1.3455413330078123,0,0,0,0
0.42289881700025944,-0.3136404174804687,-9.667786303710937,1.3335703247070312,0,0,0,0
0.42410403100029725,-0.3495534423828125,-9.746794958496093,1.2785036865234374,0,0,0,0
0.42534094800021194,-0.4070142822265625,-9.744400756835937,1.3455413330078123,0,0,0,0
0.42645075500013263,-0.3950432739257812,-9.730035546875,1.2234370483398436,0,0,0,0
0.42760859800000617,-0.29448680419921874,-9.65342109375,1.2378022583007813,0,0,0,0
0.4287171460000536,-0.34715924072265625,-9.636661682128906,1.2593500732421874,0,0,0,0
0.4299876370000675,-0.4261678955078125,-9.634267480468749,1.3024457031249999,0,0,0,0
0.4312253320003947,-0.32561142578124996,-9.631873278808593,1.2593500732421874,0,0,0,0
0.4323201390002396,-0.27293898925781246,-9.643844287109374,1.3383587280273437,0,0,0,0
0.4334039270001995,-0.2825157958984375,-9.694122521972655,1.3144167114257812,0,0,0,0
0.4344855860003918,-0.25139117431640623,-9.756371765136718,1.3311761230468748,0,0,0,0
0.4356796150000264,-0.22505495605468748,-9.725247143554688,1.2042834350585936,0,0,0,0
0.43713123400038967,-0.33039982910156246,-9.80665,1.2856862915039062,0,0,0,0
0.4382289300001503,-0.4955997436523437,-9.627084875488281,1.3359645263671873,0,0,0,0
0.4393017930001406,-0.5363011718749999,-9.679757312011718,1.2497732666015624,0,0,0,0
0.4405352470002981,-0.3591302490234375,-9.627084875488281,1.2569558715820313,0,0,0,0
0.4416357020004398,-0.28730419921875,-9.655815295410155,1.2952630981445312,0,0,0,0
0.44274960100028693,-0.2154781494140625,-9.672574707031249,1.2306196533203124,0,0,0,0
0.443832038000437,-0.23223756103515625,-9.641450085449218,1.3048399047851562,0,0,0,0
0.44492303000015454,-0.24660277099609373,-9.648632690429688,1.3168109130859373,0,0,0,0
0.4461517070003538,-0.258573779296875,-9.639055883789062,1.3144167114257812,0,0,0,0
0.4475087160003568,-0.26336218261718747,-9.605537060546874,1.2785036865234374,0,0,0,0
0.4486025230003179,-0.3806780639648437,-9.610325463867188,1.2569558715820313,0,0,0,0
0.4498863470003016,-0.5386953735351562,-9.648632690429688,1.2617442749023438,0,0,0,0
0.451088171000265,-0.507570751953125,-9.682151513671874,1.3479355346679687,0,0,0,0
0.4525496240003122,-0.28012159423828126,-9.706093530273437,1.350329736328125,0,0,0,0
0.4536802460002036,-0.15322890625,-9.706093530273437,1.3263877197265623,0,0,0,0
0.4550357910002276,-0.15322890625,-9.667786303710937,1.2378022583007813,0,0,0,0
0.45633393000025535,-0.2561795776367187,-9.528922607421874,1.1707646118164061,0,0,0,0
0.4576645130000543,-0.30885201416015623,-9.581595043945311,1.20667763671875,0,0,0,0
0.4588402090003001,-0.43574470214843747,-9.715670336914062,1.0821791503906248,0,0,0,0
0.460016182000345,-0.38307226562499996,-9.809044201660155,1.2401964599609374,0,0,0,0
0.46119650700029524,-0.3064578125,-9.655815295410155,1.235408056640625,0,0,0,0
0.46249655300016457,-0.3687070556640625,-9.651026892089844,1.2737152832031249,0,0,0,0
0.46398324600022534,-0.316034619140625,-9.579200842285156,1.3814543579101561,0,0,0,0
0.46527968100008366,-0.3112462158203125,-9.536105212402344,1.407790576171875,0,0,0,0
0.46667641200019716,-0.32561142578124996,-9.643844287109374,1.3814543579101561,0,0,0,0
0.4679679030000443,-0.26336218261718747,-9.758765966796874,1.3144167114257812,0,0,0,0
0.4692490600000383,-0.25139117431640623,-9.732429748535155,1.3215993164062498,0,0,0,0
0.470432682000137,-0.33518823242187495,-9.734823950195311,1.3407529296874998,0,0,0,0
0.4715999510003712,-0.3711012573242187,-9.68454571533203,1.3048399047851562,0,0,0,0
0.4728882010003872,-0.3591302490234375,-9.648632690429688,1.2880804931640624,0,0,0,0
0.4741792850004458,-0.3854664672851562,-9.588777648925781,1.3527239379882812,0,0,0,0
0.47544079400040573,-0.40222587890625,-9.627084875488281,1.218648645019531,0,0,0,0
0.47664267400023164,-0.35673604736328124,-9.65342109375,1.2761094848632812,0,0,0,0
0.4780604980001044,-0.29448680419921874,-9.53131680908203,1.3359645263671873,0,0,0,0
0.4794850060002318,-0.19393033447265623,-9.622296472167967,1.4101847778320311,0,0,0,0
0.4806845900002372,-0.22744915771484372,-9.679757312011718,1.4173673828125,0,0,0,0
0.4818617300002188,-0.25139117431640623,-9.660603698730467,1.5059528442382812,0,0,0,0
0.48318233100008,-0.34715924072265625,-9.670180505371093,1.3646949462890625,0,0,0,0
0.48444576700012476,-0.4070142822265625,-9.689334118652344,1.2785036865234374,0,0,0,0
0.48576214600007006,-0.4740519287109375,-9.732429748535155,1.2234370483398436,0,0,0,0
0.48701178600003914,-0.35673604736328124,-9.751583361816406,1.2904746948242187,0,0,0,0
0.4883084250000138,-0.18435352783203124,-9.545682019042967,1.2832920898437499,0,0,0,0
0.489584749000187,-0.30885201416015623,-9.603142858886718,1.2114660400390624,0,0,0,0
0.4906770740003594,-0.25139117431640623,-9.603142858886718,1.2617442749023438,0,0,0,0
0.49174649300039164,-0.181959326171875,-9.643844287109374,1.2785036865234374,0,0,0,0
0.4928176330004135,-0.18914193115234373,-9.68454571533203,1.254561669921875,0,0,0,0
0.49410158700038664,-0.3447650390625,-9.533711010742186,1.189918225097656,0,0,0,0
0.4952809120004531,-0.45010991210937495,-9.70369932861328,1.2330138549804688,0,0,0,0
0.4963764040003298,-0.4165910888671875,-9.674968908691406,1.3551181396484375,0,0,0,0
0.497460933000184,-0.3806780639648437,-9.696516723632811,1.3646949462890625,0,0,0,0
0.4985484260000703,-0.3687070556640625,-9.744400756835937,1.2952630981445312,0,0,0,0
0.500006248000318,-0.3399766357421875,-9.79946739501953,1.3479355346679687,0,0,0,0
0.5013409800003501,-0.19632453613281248,-9.629479077148437,1.350329736328125,0,0,0,0
0.5024417130002803,-0.2609679809570312,-9.610325463867188,1.3144167114257812,0,0,0,0
0.5035145380002177,-0.32561142578124996,-9.670180505371093,1.22583125,0,0,0,0
0.504964454000401,-0.33758243408203126,-9.696516723632811,1.35990654296875,0,0,0,0
0.5064659430004212,-0.32561142578124996,-9.706093530273437,1.35990654296875,0,0,0,0
0.5075792130000991,-0.3711012573242187,-9.72285294189453,1.3239935180664062,0,0,0,0
0.5086696870002925,-0.35673604736328124,-9.78031378173828,1.3670891479492187,0,0,0,0
0.5104497300003459,-0.3447650390625,-9.64623848876953,1.2713210815429687,0,0,0,0
0.5116590540001198,-0.3711012573242187,-9.574412438964844,1.2880804931640624,0,0,0,0
0.5127586390003671,-0.35673604736328124,-9.504980590820312,1.22583125,0,0,0,0
0.5138456500003485,-0.2537853759765625,-9.686939916992188,1.2832920898437499,0,0,0,0
0.5172840330001236,-0.33758243408203126,-9.70369932861328,1.3072341064453123,0,0,0,0
0.5183898950003822,-0.2920926025390625,-9.701305126953125,1.369483349609375,0,0,0,0
0.5194769800000358,-0.3232172241210937,-9.64623848876953,1.3311761230468748,0,0,0,0
0.5205593980003869,-0.4381389038085937,-9.639055883789062,1.2880804931640624,0,0,0,0
0.5216424830000506,-0.3758896606445312,-9.648632690429688,1.3718775512695311,0,0,0,0
0.5227301970003282,-0.3399766357421875,-9.662997900390625,1.235408056640625,0,0,0,0
0.5241993720001119,-0.3136404174804687,-9.679757312011718,1.209071838378906,0,0,0,0
0.5254883260004135,-0.2442085693359375,-9.698910925292969,1.3215993164062498,0,0,0,0
0.5267510020003101,-0.19393033447265623,-9.662997900390625,1.2928688964843749,0,0,0,0
0.5281921770001645,-0.16280571289062498,-9.682151513671874,1.2904746948242187,0,0,0,0
0.5300232380000125,-0.39743747558593745,-9.641450085449218,1.3958195678710936,0,0,0,0
0.531287433000216,-0.33758243408203126,-9.672574707031249,1.4125789794921875,0,0,0,0
0.5324833500003479,-0.42377369384765623,-9.670180505371093,1.3096283081054687,0,0,0,0
0.5336673970000447,-0.3902548706054687,-9.677363110351562,1.2330138549804688,0,0,0,0
0.5348495550001644,-0.38786066894531246,-9.631873278808593,1.3431471313476562,0,0,0,0
0.5361851570000908,-0.33518823242187495,-9.516951599121093,1.3359645263671873,0,0,0,0
0.5376314250001997,-0.22505495605468748,-9.6151138671875,1.350329736328125,0,0,0,0
0.5389067300002353,-0.21787235107421873,-9.667786303710937,1.3814543579101561,0,0,0,0
0.5401000740002928,-0.25139117431640623,-9.80665,1.3024457031249999,0,0,0,0
0.5412844170000426,-0.3591302490234375,-9.639055883789062,1.2593500732421874,0,0,0,0
0.5426229070003501,-0.316034619140625,-9.655815295410155,1.3192051147460937,0,0,0,0
0.5440342490001058,-0.3950432739257812,-9.588777648925781,1.2330138549804688,0,0,0,0
0.5454052210002374,-0.3327940307617187,-9.629479077148437,1.2497732666015624,0,0,0,0
0.5466413420003846,-0.28969840087890625,-9.631873278808593,1.3072341064453123,0,0,0,0
0.5478223330001128,-0.2537853759765625,-9.639055883789062,1.3072341064453123,0,0,0,0
0.549127805000353,-0.277727392578125,-9.648632690429688,1.3192051147460937,0,0,0,0
0.5505494430003637,-0.23702596435546874,-9.6917283203125,1.2521674682617188,0,0,0,0
0.5518016750002062,-0.3112462158203125,-9.660603698730467,1.35990654296875,0,0,0,0
0.552981648000241,-0.28012159423828126,-9.593566052246093,1.2904746948242187,0,0,0,0
0.554162658000223,-0.30885201416015623,-9.658209497070311,1.2665326782226562,0,0,0,0
0.5555171300002257,-0.4285620971679687,-9.720458740234374,1.22583125,0,0,0,0
0.5571314890003123,-0.4070142822265625,-9.713276135253906,1.2521674682617188,0,0,0,0
0.5588095140001315,-0.3495534423828125,-9.636661682128906,1.180341418457031,0,0,0,0
0.5600145980001798,-0.29927520751953124,-9.651026892089844,1.3048399047851562,0,0,0,0
0.5611987380002574,-0.181959326171875,-9.670180505371093,1.2521674682617188,0,0,0,0
0.5625885980002749,-0.1867477294921875,-9.60793126220703,1.2617442749023438,0,0,0,0
0.5642765310003597,-0.201112939453125,-9.674968908691406,1.2928688964843749,0,0,0,0
0.5657070020001811,-0.3399766357421875,-9.756371765136718,1.3192051147460937,0,0,0,0
0.567461860000094,-0.33518823242187495,-9.727641345214844,1.3742717529296875,0,0,0,0
0.5687257210001917,-0.3950432739257812,-9.651026892089844,1.3048399047851562,0,0,0,0
0.5699452310000197,-0.41419688720703124,-9.639055883789062,1.2521674682617188,0,0,0,0
0.5712238150003941,-0.16998831787109375,-9.70369932861328,1.2952630981445312,0,0,0,0
0.5724713980002889,-0.19632453613281248,-9.670180505371093,1.3096283081054687,0,0,0,0
0.5740577570004461,-0.2346317626953125,-9.521740002441407,1.2641384765625,0,0,0,0
0.5753233040004488,-0.3854664672851562,-9.710881933593749,1.3359645263671873,0,0,0,0
0.5765144800002417,-0.39983167724609375,-9.583989245605467,1.4700398193359374,0,0,0,0
0.5785919290001402,-0.39983167724609375,-9.617508068847656,1.2928688964843749,0,0,0,0
0.5798140500000954,-0.4165910888671875,-9.730035546875,1.3048399047851562,0,0,0,0
0.5813531130002048,-0.3136404174804687,-9.674968908691406,1.2808978881835937,0,0,0,0
0.5828292870000951,-0.24181436767578124,-9.639055883789062,1.2306196533203124,0,0,0,0
0.5840558160002729,-0.22744915771484372,-9.579200842285156,1.24498486328125,0,0,0,0
0.5852303260003282,-0.22505495605468748,-9.6151138671875,1.3000515014648437,0,0,0,0
0.5866983150003762,-0.24660277099609373,-9.603142858886718,1.3431471313476562,0,0,0,0
0.588173045000076,-0.3232172241210937,-9.641450085449218,1.254561669921875,0,0,0,0
0.5893980180003382,-0.40940848388671874,-9.651026892089844,1.2401964599609374,0,0,0,0
0.5905774540001403,-0.41898529052734373,-9.6917283203125,1.2042834350585936,0,0,0,0
0.5920317220002289,-0.3711012573242187,-9.720458740234374,1.2569558715820313,0,0,0,0
0.5934841560001587,-0.23223756103515625,-9.696516723632811,1.3910311645507811,0,0,0,0
0.5947044620002089,-0.1867477294921875,-9.627084875488281,1.3646949462890625,0,0,0,0
0.5958892870003183,-0.2154781494140625,-9.624690673828125,1.2689268798828124,0,0,0,0
0.5973363690000042,-0.3184288208007812,-9.588777648925781,1.3024457031249999,0,0,0,0
0.5988018960001682,-0.3758896606445312,-9.720458740234374,1.3000515014648437,0,0,0,0
0.6000211650002711,-0.3184288208007812,-9.739612353515625,1.2832920898437499,0,0,0,0
0.6011910820002413,-0.32561142578124996,-9.701305126953125,1.2737152832031249,0,0,0,0
0.6026719050000793,-0.3327940307617187,-9.627084875488281,1.3168109130859373,0,0,0,0
0.604147524000382,-0.36152445068359373,-9.603142858886718,1.3000515014648437,0,0,0,0
0.6058008460004203,-0.3064578125,-9.648632690429688,1.3670891479492187,0,0,0,0
0.6073525750002773,-0.2537853759765625,-9.648632690429688,1.199495031738281,0,0,0,0
0.6091598030002388,-0.32561142578124996,-9.634267480468749,1.2593500732421874,0,0,0,0
0.6103919980000683,-0.32082302246093747,-9.64623848876953,1.3000515014648437,0,0,0,0
0.6116742110002633,-0.3136404174804687,-9.686939916992188,1.3072341064453123,0,0,0,0
0.613199922000149,-0.17956512451171874,-9.734823950195311,1.254561669921875,0,0,0,0
0.6151765190002152,-0.4644751220703125,-9.595960253906249,1.2713210815429687,0,0,0,0
0.6163701040004526,-0.36152445068359373,-9.497797985839844,1.3239935180664062,0,0,0,0
0.6176641310003106,-0.33039982910156246,-9.560047229003906,1.3287819213867187,0,0,0,0
0.6192289350001374,-0.42377369384765623,-9.696516723632811,1.2234370483398436,0,0,0,0
0.6208177760004219,-0.22744915771484372,-9.696516723632811,1.2976572998046874,0,0,0,0
0.6228208540001106,-0.2920926025390625,-9.536105212402344,1.2593500732421874,0,0,0,0
0.6253309470002932,-0.36631285400390623,-9.651026892089844,1.2641384765625,0,0,0,0
0.6266788450002423,-0.33039982910156246,-9.619902270507811,1.3096283081054687,0,0,0,0
0.6278402620000634,-0.316034619140625,-9.662997900390625,1.2378022583007813,0,0,0,0
0.6290532350003559,-0.3280056274414062,-9.627084875488281,1.3215993164062498,0,0,0,0
0.6301588940000329,-0.4333505004882812,-9.64623848876953,1.3862427612304686,0,0,0,0
0.631372274000114,-0.30406361083984373,-9.732429748535155,1.3575123413085937,0,0,0,0
0.6325758030002362,-0.21068974609375,-9.70369932861328,1.3431471313476562,0,0,0,0
0.6336762950004413,-0.20350714111328125,-9.658209497070311,1.3431471313476562,0,0,0,0
0.6347763800004032,-0.229843359375,-9.670180505371093,1.3239935180664062,0,0,0,0
0.6358836130002601,-0.2609679809570312,-9.670180505371093,1.2378022583007813,0,0,0,0
0.6371714740002972,-0.3950432739257812,-9.641450085449218,1.2378022583007813,0,0,0,0
0.6387389070000609,-0.45968671875,-9.564835632324218,1.3359645263671873,0,0,0,0
0.6398751210003866,-0.41898529052734373,-9.598354455566406,1.2904746948242187,0,0,0,0
0.6409759840003062,-0.33518823242187495,-9.631873278808593,1.3455413330078123,0,0,0,0
0.6420749940002679,-0.3064578125,-9.619902270507811,1.3287819213867187,0,0,0,0
0.6432966710003711,-0.29927520751953124,-9.643844287109374,1.3192051147460937,0,0,0,0
0.644489421000344,-0.24181436767578124,-9.670180505371093,1.3144167114257812,0,0,0,0
0.6455976540000847,-0.2154781494140625,-9.674968908691406,1.3024457031249999,0,0,0,0
0.646689054000035,-0.24181436767578124,-9.660603698730467,1.1947066284179686,0,0,0,0
0.6477806940001756,-0.36631285400390623,-9.622296472167967,1.3263877197265623,0,0,0,0
0.64901929700045,-0.48123453369140623,-9.552864624023437,1.3024457031249999,0,0,0,0
0.6502016400004322,-0.5817910034179687,-9.631873278808593,1.3168109130859373,0,0,0,0
0.6513268170001538,-0.3447650390625,-9.706093530273437,1.24498486328125,0,0,0,0
0.6524058650002189,-0.32561142578124996,-9.725247143554688,1.37906015625,0,0,0,0
0.6534846720001042,-0.2561795776367187,-9.658209497070311,1.426944189453125,0,0,0,0
0.6547512370002551,-0.2442085693359375,-9.720458740234374,1.3024457031249999,0,0,0,0
0.6559376360000897,-0.23223756103515625,-9.540893615722656,1.3575123413085937,0,0,0,0
0.657043313000031,-0.16041151123046873,-9.576806640625,1.3718775512695311,0,0,0,0
0.6581918420001784,-0.2537853759765625,-9.658209497070311,1.3144167114257812,0,0,0,0
0.6594363330000306,-0.45489831542968745,-9.732429748535155,1.2521674682617188,0,0,0,0
0.6605599180002173,-0.3758896606445312,-9.70369932861328,1.2785036865234374,0,0,0,0
0.6616571510003268,-0.3711012573242187,-9.708487731933593,1.3144167114257812,0,0,0,0
0.6627441060004458,-0.36631285400390623,-9.694122521972655,1.369483349609375,0,0,0,0
0.6638170240003092,-0.35673604736328124,-9.619902270507811,1.3072341064453123,0,0,0,0
0.6648909430000458,-0.354341845703125,-9.545682019042967,1.3814543579101561,0,0,0,0
0.6661213410002347,-0.258573779296875,-9.64623848876953,1.3383587280273437,0,0,0,0
0.667309036000006,-0.22026655273437498,-9.643844287109374,1.2976572998046874,0,0,0,0
0.6683924180001668,-0.34715924072265625,-9.696516723632811,1.218648645019531,0,0,0,0
0.6694713540000521,-0.42377369384765623,-9.694122521972655,1.2114660400390624,0,0,0,0
0.6706927160003033,-0.34715924072265625,-9.74200655517578,1.1731588134765625,0,0,0,0
0.671934689000409,-0.2825157958984375,-9.787496386718749,1.3670891479492187,0,0,0,0
0.6731961800001045,-0.373495458984375,-9.643844287109374,1.3192051147460937,0,0,0,0
0.6743442090000826,-0.296881005859375,-9.64623848876953,1.3048399047851562,0,0,0,0
0.6754783670003235,-0.34715924072265625,-9.60793126220703,1.2761094848632812,0,0,0,0
0.6765820630002963,-0.35673604736328124,-9.56962403564453,1.2593500732421874,0,0,0,0
0.6776770370001941,-0.3232172241210937,-9.634267480468749,1.3766659545898436,0,0,0,0
0.6789301390003857,-0.296881005859375,-9.598354455566406,1.22583125,0,0,0,0
0.6801786110004286,-0.2346317626953125,-9.634267480468749,1.3287819213867187,0,0,0,0
0.6813108250003097,-0.33518823242187495,-9.662997900390625,1.3072341064453123,0,0,0,0
0.6824997800003985,-0.3016694091796875,-9.706093530273437,1.2952630981445312,0,0,0,0
0.6835965500004022,-0.29448680419921874,-9.756371765136718,1.3024457031249999,0,0,0,0
0.6852537050003775,-0.4525041137695312,-9.679757312011718,1.3215993164062498,0,0,0,0
0.6864596590003202,-0.3327940307617187,-9.641450085449218,1.2497732666015624,0,0,0,0
0.6875662620000185,-0.29927520751953124,-9.533711010742186,1.2785036865234374,0,0,0,0
0.6886648660001811,-0.3758896606445312,-9.526528405761718,1.3192051147460937,0,0,0,0
0.6898442650003744,-0.3495534423828125,-9.605537060546874,1.3144167114257812,0,0,0,0
0.6912934210004096,-0.201112939453125,-9.725247143554688,1.2713210815429687,0,0,0,0
0.6924249500002588,-0.2442085693359375,-9.679757312011718,1.2138602416992186,0,0,0,0
0.6935893860004398,-0.29927520751953124,-9.658209497070311,1.254561669921875,0,0,0,0
0.6946780820003369,-0.33758243408203126,-9.634267480468749,1.3311761230468748,0,0,0,0
0.6958777960003317,-0.3591302490234375,-9.598354455566406,1.254561669921875,0,0,0,0
0.6972516930004531,-0.4381389038085937,-9.605537060546874,1.3024457031249999,0,0,0,0
0.6986164430004465,-0.36152445068359373,-9.732429748535155,1.2832920898437499,0,0,0,0
0.6997760460003519,-0.3854664672851562,-9.74200655517578,1.3000515014648437,0,0,0,0
0.700929704000373,-0.28490999755859375,-9.710881933593749,1.3120225097656248,0,0,0,0
0.7028412640001989,-0.1580173095703125,-9.634267480468749,1.2737152832031249,0,0,0,0
0.7041193660002136,-0.3064578125,-9.586383447265625,1.3263877197265623,0,0,0,0
0.7052955060003114,-0.3591302490234375,-9.641450085449218,1.2808978881835937,0,0,0,0
0.7064859420001994,-0.37828386230468747,-9.672574707031249,1.3120225097656248,0,0,0,0
0.7081986150001285,-0.5027823486328125,-9.753977563476562,1.3431471313476562,0,0,0,0
0.7102467670001715,-0.36152445068359373,-9.64623848876953,1.3287819213867187,0,0,0,0
0.7116196280003351,-0.26336218261718747,-9.521740002441407,1.2378022583007813,0,0,0,0
0.7127881190003791,-0.2537853759765625,-9.536105212402344,1.2880804931640624,0,0,0,0
0.713991778000036,-0.28730419921875,-9.64623848876953,1.2928688964843749,0,0,0,0
0.7151666580002711,-0.23223756103515625,-9.682151513671874,1.3407529296874998,0,0,0,0
0.7163310200003252,-0.30885201416015623,-9.706093530273437,1.2330138549804688,0,0,0,0
0.7174231420003707,-0.40222587890625,-9.749189160156249,1.2665326782226562,0,0,0,0
0.718512782000289,-0.39264907226562495,-9.72285294189453,1.2880804931640624,0,0,0,0
0.7195942930002275,-0.3136404174804687,-9.746794958496093,1.2617442749023438,0,0,0,0
0.7206760080002823,-0.2657563842773437,-9.660603698730467,1.3359645263671873,0,0,0,0
0.7218517030000839,-0.3016694091796875,-9.572018237304688,1.3359645263671873,0,0,0,0
0.7229897130000609,-0.34237083740234375,-9.622296472167967,1.2042834350585936,0,0,0,0
0.7240851310002654,-0.3687070556640625,-9.682151513671874,1.2689268798828124,0,0,0,0
0.7252037530001871,-0.45968671875,-9.713276135253906,1.199495031738281,0,0,0,0
0.7262971710001693,-0.09337386474609374,-9.627084875488281,1.177947216796875,0,0,0,0
0.7276454760003617,-0.1771709228515625,-9.679757312011718,1.3623007446289062,0,0,0,0
0.7288483750003252,-0.36152445068359373,-9.674968908691406,1.369483349609375,0,0,0,0
0.7299691820003318,-0.3495534423828125,-9.5384994140625,1.3455413330078123,0,0,0,0
0.7310857670004225,-0.41898529052734373,-9.696516723632811,1.3072341064453123,0,0,0,0
0.7322460730001694,-0.3136404174804687,-9.674968908691406,1.2808978881835937,0,0,0,0
0.7335150460003206,-0.3687070556640625,-9.648632690429688,1.2665326782226562,0,0,0,0
0.7346507970000857,-0.3327940307617187,-9.629479077148437,1.0893617553710937,0,0,0,0
0.7357717330000924,-0.26815058593749996,-9.622296472167967,1.2473790649414063,0,0,0,0
0.7368610030002856,-0.2561795776367187,-9.643844287109374,1.3431471313476562,0,0,0,0
0.7380469210002047,-0.20350714111328125,-9.672574707031249,1.3000515014648437,0,0,0,0
0.7392093200001,-0.22266075439453123,-9.739612353515625,1.2832920898437499,0,0,0,0
0.7403051640003468,-0.27293898925781246,-9.7683427734375,1.3024457031249999,0,0,0,0
0.7414740820004226,-0.296881005859375,-9.641450085449218,1.3144167114257812,0,0,0,0
0.7436788070003786,-0.4333505004882812,-9.634267480468749,1.2737152832031249,0,0,0,0
0.7454333130003761,-0.3232172241210937,-9.694122521972655,1.1085153686523437,0,0,0,0
0.7471780410000974,-0.1867477294921875,-9.636661682128906,1.2904746948242187,0,0,0,0
0.7484599390004405,-0.19632453613281248,-9.622296472167967,1.2665326782226562,0,0,0,0
0.7497777260000476,-0.19632453613281248,-9.545682019042967,1.3096283081054687,0,0,0,0
0.7509957910001503,-0.17477672119140625,-9.588777648925781,1.3120225097656248,0,0,0,0
0.7526758900003188,-0.37828386230468747,-9.74200655517578,1.2904746948242187,0,0,0,0
0.7547805790004531,-0.3232172241210937,-9.782707983398437,1.3335703247070312,0,0,0,0
0.7560382180004126,-0.3136404174804687,-9.622296472167967,1.3359645263671873,0,0,0,0
0.7576838180002596,-0.3711012573242187,-9.581595043945311,1.3455413330078123,0,0,0,0
0.7591718070002571,-0.354341845703125,-9.593566052246093,1.3215993164062498,0,0,0,0
0.7606414260003476,-0.22266075439453123,-9.629479077148437,1.3527239379882812,0,0,0,0
0.7618348250002782,-0.2561795776367187,-9.560047229003906,1.3287819213867187,0,0,0,0
0.763295018000008,-0.3327940307617187,-9.679757312011718,1.3455413330078123,0,0,0,0
0.7647466380003607,-0.33039982910156246,-9.674968908691406,1.3479355346679687,0,0,0,0
0.7660630540003694,-0.4285620971679687,-9.694122521972655,1.438915197753906,0,0,0,0
0.7673221750001176,-0.3232172241210937,-9.682151513671874,1.3192051147460937,0,0,0,0
0.7688898670003255,-0.39983167724609375,-9.801861596679688,1.2425906616210938,0,0,0,0
0.7701293400000395,-0.34237083740234375,-9.6151138671875,1.2976572998046874,0,0,0,0
0.7713008870000522,-0.27293898925781246,-9.651026892089844,1.3072341064453123,0,0,0,0
0.7724784900001396,-0.2442085693359375,-9.603142858886718,1.2569558715820313,0,0,0,0
0.7740434790002837,-0.28730419921875,-9.655815295410155,1.369483349609375,0,0,0,0
0.7754720240000097,-0.239420166015625,-9.70369932861328,1.369483349609375,0,0,0,0
0.7771877530003621,-0.32082302246093747,-9.643844287109374,1.2401964599609374,0,0,0,0
0.7786427420001019,-0.4165910888671875,-9.6917283203125,1.3718775512695311,0,0,0,0
0.7800053810001373,-0.44532150878906246,-9.65342109375,1.1923124267578125,0,0,0,0
0.7812669270001606,-0.373495458984375,-9.605537060546874,1.3144167114257812,0,0,0,0
0.7824455110003328,-0.35673604736328124,-9.60793126220703,1.2904746948242187,0,0,0,0
0.7838889090003249,-0.277727392578125,-9.68454571533203,1.2665326782226562,0,0,0,0
0.7852798620001522,-0.22505495605468748,-9.651026892089844,1.2521674682617188,0,0,0,0
0.7865396670003975,-0.24181436767578124,-9.715670336914062,1.254561669921875,0,0,0,0
0.7877023440000812,-0.26336218261718747,-9.718064538574218,1.2808978881835937,0,0,0,0
0.7891460190003272,-0.28012159423828126,-9.634267480468749,1.2665326782226562,0,0,0,0
0.7905338240002493,-0.4525041137695312,-9.588777648925781,1.2593500732421874,0,0,0,0
0.7917694080001638,-0.46686932373046874,-9.636661682128906,1.235408056640625,0,0,0,0
0.7929304550002598,-0.40222587890625,-9.706093530273437,1.3479355346679687,0,0,0,0
0.7943792040000517,-0.2753331909179687,-9.670180505371093,1.2808978881835937,0,0,0,0
0.7957857130004413,-0.22505495605468748,-9.655815295410155,1.2928688964843749,0,0,0,0
0.7970325930000399,-0.3016694091796875,-9.619902270507811,1.1875240234375,0,0,0,0
0.7981999920002636,-0.3447650390625,-9.624690673828125,1.2785036865234374,0,0,0,0
0.7996256110000104,-0.3711012573242187,-9.660603698730467,1.3048399047851562,0,0,0,0
0.801336210000045,-0.33039982910156246,-9.727641345214844,1.199495031738281,0,0,0,0
0.8025734980001289,-0.40222587890625,-9.737218151855469,1.2617442749023438,0,0,0,0
0.8037645080003131,-0.373495458984375,-9.658209497070311,1.2497732666015624,0,0,0,0
0.8052859410004203,-0.26336218261718747,-9.660603698730467,1.2713210815429687,0,0,0,0
0.8073073710002063,-0.373495458984375,-9.545682019042967,1.2593500732421874,0,0,0,0
0.8085125290003816,-0.33518823242187495,-9.564835632324218,1.2425906616210938,0,0,0,0
0.8096808360000978,-0.35194764404296874,-9.658209497070311,1.2497732666015624,0,0,0,0
0.8112630840000747,-0.229843359375,-9.72285294189453,1.3551181396484375,0,0,0,0
0.812906127000133,-0.19632453613281248,-9.667786303710937,1.254561669921875,0,0,0,0
0.8141636370000924,-0.32561142578124996,-9.629479077148437,1.3359645263671873,0,0,0,0
0.8153712950002046,-0.34237083740234375,-9.5384994140625,1.3575123413085937,0,0,0,0
0.8168886550001844,-0.3447650390625,-9.380482104492186,1.2856862915039062,0,0,0,0
0.8186233640003593,-0.3950432739257812,-9.670180505371093,1.3000515014648437,0,0,0,0
0.8198611890002212,-0.3399766357421875,-9.708487731933593,1.3335703247070312,0,0,0,0
0.8226450580000346,-0.28490999755859375,-9.6151138671875,1.2306196533203124,0,0,0,0
0.8238452530003997,-0.33758243408203126,-9.595960253906249,1.2210428466796874,0,0,0,0
0.8249244680000629,-0.29927520751953124,-9.619902270507811,1.2234370483398436,0,0,0,0
0.8268760090004434,-0.4070142822265625,-9.727641345214844,1.189918225097656,0,0,0,0
0.8290413830000034,-0.3854664672851562,-9.670180505371093,1.2234370483398436,0,0,0,0
0.830318281000018,-0.2154781494140625,-9.655815295410155,1.2928688964843749,0,0,0,0
0.8314823100004105,-0.17238251953125,-9.583989245605467,1.3359645263671873,0,0,0,0
0.8326373200002308,-0.19393033447265623,-9.574412438964844,1.3335703247070312,0,0,0,0
0.8341391800004203,-0.3064578125,-9.715670336914062,1.3862427612304686,0,0,0,0
0.8361034060003476,-0.40462008056640625,-9.730035546875,1.2569558715820313,0,0,0,0
0.8373123790001955,-0.47165772705078124,-9.730035546875,1.209071838378906,0,0,0,0
0.838484186000187,-0.3950432739257812,-9.720458740234374,1.1755530151367186,0,0,0,0
0.8399552120004046,-0.26336218261718747,-9.593566052246093,1.3239935180664062,0,0,0,0
0.8416157190004014,-0.24899697265624998,-9.540893615722656,1.4245499877929686,0,0,0,0
0.8428513210001256,-0.229843359375,-9.631873278808593,1.3335703247070312,0,0,0,0
0.8442760700004328,-0.3136404174804687,-9.78031378173828,1.2497732666015624,0,0,0,0
0.845900929000436,-0.3327940307617187,-9.749189160156249,1.3048399047851562,0,0,0,0
0.8471257720002541,-0.20350714111328125,-9.689334118652344,1.2904746948242187,0,0,0,0
0.8482948010000655,-0.3806780639648437,-9.612719665527344,1.2401964599609374,0,0,0,0
0.8497771050001575,-0.5722141967773438,-9.588777648925781,1.2856862915039062,0,0,0,0
0.8520074230000318,-0.3399766357421875,-9.64623848876953,1.2928688964843749,0,0,0,0
0.8540320010001778,-0.22505495605468748,-9.694122521972655,1.2665326782226562,0,0,0,0
0.8553888610003924,-0.229843359375,-9.603142858886718,1.180341418457031,0,0,0,0
0.8566574640003637,-0.24660277099609373,-9.619902270507811,1.2330138549804688,0,0,0,0
0.8577604000001884,-0.258573779296875,-9.600748657226562,1.24498486328125,0,0,0,0
0.858849578000445,-0.32561142578124996,-9.502586389160156,1.3215993164062498,0,0,0,0
0.8599345510001513,-0.3399766357421875,-9.718064538574218,1.3120225097656248,0,0,0,0
0.8611476170003698,-0.469263525390625,-9.739612353515625,1.3168109130859373,0,0,0,0
0.8625426810003773,-0.4333505004882812,-9.689334118652344,1.2713210815429687,0,0,0,0
0.8636653950002255,-0.32561142578124996,-9.651026892089844,1.3144167114257812,0,0,0,0
0.8647512950001328,-0.26815058593749996,-9.581595043945311,1.3527239379882812,0,0,0,0
0.8658369350000612,-0.21068974609375,-9.552864624023437,1.3670891479492187,0,0,0,0
0.8670611300003657,-0.28490999755859375,-9.65342109375,1.2593500732421874,0,0,0,0
0.868262918000255,-0.3136404174804687,-9.639055883789062,1.24498486328125,0,0,0,0
0.8693594470000789,-0.3232172241210937,-9.72285294189453,1.2306196533203124,0,0,0,0
0.8704474950000076,-0.30885201416015623,-9.737218151855469,1.2928688964843749,0,0,0,0
0.8715335240003697,-0.3232172241210937,-9.78031378173828,1.4413093994140624,0,0,0,0
0.87274570100044,-0.354341845703125,-9.689334118652344,1.2976572998046874,0,0,0,0
0.8740185800002109,-0.3184288208007812,-9.586383447265625,1.369483349609375,0,0,0,0
0.8756572170000254,-0.29448680419921874,-9.56962403564453,1.3455413330078123,0,0,0,0
0.8767573200002516,-0.354341845703125,-9.562441430664062,1.2330138549804688,0,0,0,0
0.8780689400000483,-0.40462008056640625,-9.694122521972655,1.2617442749023438,0,0,0,0
0.8792463210002097,-0.24181436767578124,-9.770736975097655,1.3048399047851562,0,0,0,0
0.880344721000256,-0.2346317626953125,-9.801861596679688,1.3431471313476562,0,0,0,0
0.8814555460003248,-0.239420166015625,-9.70369932861328,1.3144167114257812,0,0,0,0
0.8825515200001064,-0.2825157958984375,-9.617508068847656,1.3646949462890625,0,0,0,0
0.8837253820001933,-0.411802685546875,-9.622296472167967,1.3862427612304686,0,0,0,0
0.8848620030003076,-0.4955997436523437,-9.595960253906249,1.2928688964843749,0,0,0,0
0.8859824210003353,-0.4285620971679687,-9.679757312011718,1.3096283081054687,0,0,0,0
0.8871350610002082,-0.3327940307617187,-9.758765966796874,1.3239935180664062,0,0,0,0
0.8885447730003762,-0.37828386230468747,-9.667786303710937,1.2617442749023438,0,0,0,0
0.889781542000037,-0.354341845703125,-9.794678991699218,1.3000515014648437,0,0,0,0
0.8908761820002837,-0.229843359375,-9.598354455566406,1.3742717529296875,0,0,0,0
0.8919505270000627,-0.19393033447265623,-9.557653027343749,1.3742717529296875,0,0,0,0
0.8930262040003072,-0.24660277099609373,-9.581595043945311,1.3551181396484375,0,0,0,0
0.8941805660001592,-0.35194764404296874,-9.662997900390625,1.2569558715820313,0,0,0,0
0.8953838170000381,-0.3806780639648437,-9.674968908691406,1.158793603515625,0,0,0,0
0.8964878650003811,-0.5219359619140624,-9.679757312011718,1.254561669921875,0,0,0,0
0.8977789110003869,-0.4429273071289062,-9.730035546875,1.3239935180664062,0,0,0,0
0.898893125000086,-0.33518823242187495,-9.598354455566406,1.3479355346679687,0,0,0,0
0.9002243380000436,-0.23702596435546874,-9.600748657226562,1.3263877197265623,0,0,0,0
0.9015564950000226,-0.24181436767578124,-9.586383447265625,1.3623007446289062,0,0,0,0
0.9027665980001984,-0.296881005859375,-9.502586389160156,1.2641384765625,0,0,0,0
0.9040360510002756,-0.1771709228515625,-9.713276135253906,1.3311761230468748,0,0,0,0
0.9053047090001201,-0.3711012573242187,-9.725247143554688,1.2761094848632812,0,0,0,0
0.90643888600016,-0.36391865234375,-9.730035546875,1.2737152832031249,0,0,0,0
0.9075213780001832,-0.2825157958984375,-9.72285294189453,1.2880804931640624,0,0,0,0
0.908602871000312,-0.3495534423828125,-9.667786303710937,1.3311761230468748,0,0,0,0
0.909682308000356,-0.34715924072265625,-9.591171850585937,1.2665326782226562,0,0,0,0
0.9107686890001787,-0.3854664672851562,-9.557653027343749,1.2737152832031249,0,0,0,0
0.9119397360000221,-0.34715924072265625,-9.634267480468749,1.3575123413085937,0,0,0,0
0.9131278380000367,-0.3447650390625,-9.708487731933593,1.2904746948242187,0,0,0,0
0.9142319230004432,-0.277727392578125,-9.715670336914062,1.3144167114257812,0,0,0,0
0.9153159340003185,-0.23223756103515625,-9.68454571533203,1.2952630981445312,0,0,0,0
0.9163998520002679,-0.2705447875976562,-9.631873278808593,1.2521674682617188,0,0,0,0
0.9175744730000588,-0.3758896606445312,-9.583989245605467,1.2952630981445312,0,0,0,0
0.918692595000266,-0.354341845703125,-9.631873278808593,1.3000515014648437,0,0,0,0
0.9197798100003638,-0.373495458984375,-9.521740002441407,1.2832920898437499,0,0,0,0
0.9208637460001228,-0.39743747558593745,-9.686939916992188,1.2617442749023438,0,0,0,0
0.9220434230001047,-0.34237083740234375,-9.727641345214844,1.2378022583007813,0,0,0,0
0.9231900260001566,-0.2920926025390625,-9.701305126953125,1.2880804931640624,0,0,0,0
0.9242824810003185,-0.2561795776367187,-9.701305126953125,1.189918225097656,0,0,0,0
0.9254121950002627,-0.21787235107421873,-9.612719665527344,1.218648645019531,0,0,0,0
0.9265297060001103,-0.11013327636718749,-9.53131680908203,1.3838485595703125,0,0,0,0
0.9276069940001435,-0.181959326171875,-9.572018237304688,1.3742717529296875,0,0,0,0
0.9287748190004095,-0.3806780639648437,-9.643844287109374,1.3144167114257812,0,0,0,0
0.929892941000162,-0.40222587890625,-9.734823950195311,1.2401964599609374,0,0,0,0
0.9309872480002923,-0.38307226562499996,-9.773131176757811,1.2808978881835937,0,0,0,0
0.9320721660001254,-0.44532150878906246,-9.713276135253906,1.2737152832031249,0,0,0,0
0.9331553440001699,-0.3016694091796875,-9.641450085449218,1.2928688964843749,0,0,0,0
0.9343176130000757,-0.2920926025390625,-9.576806640625,1.3359645263671873,0,0,0,0
0.9356228630003898,-0.2657563842773437,-9.545682019042967,1.3000515014648437,0,0,0,0
0.9367283180004051,-0.2154781494140625,-9.411606726074218,1.3048399047851562,0,0,0,0
0.9378173660002176,-0.24660277099609373,-9.521740002441407,1.2952630981445312,0,0,0,0
0.9389039320003576,-0.28012159423828126,-9.797073193359374,1.2880804931640624,0,0,0,0
0.9400564240004314,-0.4261678955078125,-9.756371765136718,1.2210428466796874,0,0,0,0
0.9411987860003137,-0.26336218261718747,-9.713276135253906,1.2282254516601563,0,0,0,0
0.9422945930000424,-0.2753331909179687,-9.60793126220703,1.35990654296875,0,0,0,0
0.9433794930000658,-0.4285620971679687,-9.564835632324218,1.369483349609375,0,0,0,0
0.9444643560000259,-0.411802685546875,-9.557653027343749,1.3335703247070312,0,0,0,0
0.9456115700004375,-0.33758243408203126,-9.603142858886718,1.2569558715820313,0,0,0,0
0.9468122090001998,-0.33518823242187495,-9.526528405761718,1.2880804931640624,0,0,0,0
0.9479108680002355,-0.29927520751953124,-9.76116016845703,1.254561669921875,0,0,0,0
0.9491278410000632,-0.1580173095703125,-9.74200655517578,1.3120225097656248,0,0,0,0
0.950407424000332,-0.229843359375,-9.694122521972655,1.2976572998046874,0,0,0,0
0.951773341000262,-0.25139117431640623,-9.514557397460937,1.3192051147460937,0,0,0,0
0.9530013130001862,-0.2920926025390625,-9.581595043945311,1.37906015625,0,0,0,0
0.9542102490004254,-0.39264907226562495,-9.64623848876953,1.3048399047851562,0,0,0,0
0.9554348520000531,-0.4261678955078125,-9.749189160156249,1.2856862915039062,0,0,0,0
0.956554399000197,-0.4429273071289062,-9.756371765136718,1.22583125,0,0,0,0
0.9577382800002852,-0.4070142822265625,-9.789890588378906,1.2880804931640624,0,0,0,0
0.9589644190000399,-0.36391865234375,-9.617508068847656,1.3287819213867187,0,0,0,0
0.9600743920000241,-0.19632453613281248,-9.595960253906249,1.2952630981445312,0,0,0,0
0.9612326060000669,-0.19871873779296872,-9.593566052246093,1.2713210815429687,0,0,0,0
0.9627841320002517,-0.1867477294921875,-9.708487731933593,1.2904746948242187,0,0,0,0
0.9646163600000364,-0.430956298828125,-9.713276135253906,1.254561669921875,0,0,0,0
0.965845833000003,-0.4070142822265625,-9.801861596679688,1.254561669921875,0,0,0,0
0.9671328240001458,-0.36152445068359373,-9.6917283203125,1.2856862915039062,0,0,0,0
0.9684110180000971,-0.2657563842773437,-9.555258825683593,1.24498486328125,0,0,0,0
0.969633547000285,-0.3591302490234375,-9.567229833984374,1.3431471313476562,0,0,0,0
0.9708488340002077,-0.36152445068359373,-9.627084875488281,1.3048399047851562,0,0,0,0
0.9719940670001961,-0.22026655273437498,-9.698910925292969,1.3048399047851562,0,0,0,0
0.9731586880002396,-0.2561795776367187,-9.739612353515625,1.3814543579101561,0,0,0,0
0.9743223830000716,-0.30885201416015623,-9.727641345214844,1.350329736328125,0,0,0,0
0.9754398940003739,-0.2920926025390625,-9.701305126953125,1.2928688964843749,0,0,0,0
0.9766780890004156,-0.3280056274414062,-9.648632690429688,1.3742717529296875,0,0,0,0
0.9777786550002929,-0.33758243408203126,-9.521740002441407,1.24498486328125,0,0,0,0
0.9790794980003739,-0.4477157104492187,-9.655815295410155,1.2976572998046874,0,0,0,0
0.9804104140002892,-0.35673604736328124,-9.662997900390625,1.3311761230468748,0,0,0,0
0.9816313310002442,-0.30885201416015623,-9.698910925292969,1.3359645263671873,0,0,0,0
0.9830504320002547,-0.3184288208007812,-9.710881933593749,1.235408056640625,0,0,0,0
0.9842441090004286,-0.27293898925781246,-9.629479077148437,1.2521674682617188,0,0,0,0
0.9854510630002551,-0.16041151123046873,-9.576806640625,1.2904746948242187,0,0,0,0
0.9866407770000478,-0.28969840087890625,-9.576806640625,1.3192051147460937,0,0,0,0
0.9877341770002204,-0.3806780639648437,-9.64623848876953,1.3048399047851562,0,0,0,0
0.9889697600001455,-0.4381389038085937,-9.708487731933593,1.2689268798828124,0,0,0,0
0.9902279180000733,-0.4525041137695312,-9.708487731933593,1.2330138549804688,0,0,0,0
0.9914955020003617,-0.4285620971679687,-9.682151513671874,1.350329736328125,0,0,0,0
0.9925840870000684,-0.3399766357421875,-9.670180505371093,1.3096283081054687,0,0,0,0
0.9936574120001751,-0.35194764404296874,-9.605537060546874,1.3766659545898436,0,0,0,0
0.9947392380004203,-0.3136404174804687,-9.612719665527344,1.2641384765625,0,0,0,0
0.9958101560000614,-0.20350714111328125,-9.643844287109374,1.2641384765625,0,0,0,0
0.9970557030001146,-0.30885201416015623,-9.631873278808593,1.3575123413085937,0,0,0,0
0.9982331390001491,-0.3758896606445312,-9.698910925292969,1.2880804931640624,0,0,0,0
0.99933494600009,-0.35194764404296874,-9.715670336914062,1.2785036865234374,0,0,0,0
1.000416401000166,-0.296881005859375,-9.80665,1.3144167114257812,0,0,0,0
1.0014976710003793,-0.33758243408203126,-9.725247143554688,1.2976572998046874,0,0,0,0
1.0027210140001444,-0.28730419921875,-9.53131680908203,1.2856862915039062,0,0,0,0
1.0039742830003888,-0.3950432739257812,-9.56962403564453,1.3239935180664062,0,0,0,0
1.0051525710000533,-0.42377369384765623,-9.64623848876953,1.2521674682617188,0,0,0,0
1.0065221170002587,-0.2920926025390625,-9.672574707031249,1.2808978881835937,0,0,0,0
1.007793089000188,-0.2442085693359375,-9.686939916992188,1.3000515014648437,0,0,0,0
1.0092196720001994,-0.39983167724609375,-9.727641345214844,1.235408056640625,0,0,0,0
1.0105146620003325,-0.33758243408203126,-9.670180505371093,1.2761094848632812,0,0,0,0
1.011820894000266,-0.26815058593749996,-9.624690673828125,1.2521674682617188,0,0,0,0
1.0130566810003074,-0.36631285400390623,-9.588777648925781,1.2593500732421874,0,0,0,0
1.0145188000001326,-0.4860229370117187,-9.667786303710937,1.2904746948242187,0,0,0,0
1.0157965880002848,-0.5410895751953124,-9.674968908691406,1.180341418457031,0,0,0,0
1.017073134000384,-0.3854664672851562,-9.670180505371093,1.24498486328125,0,0,0,0
1.0183977540000342,-0.2442085693359375,-9.706093530273437,1.3287819213867187,0,0,0,0
1.019589172000451,-0.18914193115234373,-9.770736975097655,1.3024457031249999,0,0,0,0
1.0209436430000096,-0.22026655273437498,-9.567229833984374,1.2737152832031249,0,0,0,0
1.0225753910003732,-0.28012159423828126,-9.555258825683593,1.2785036865234374,0,0,0,0
1.0240407320002305,-0.40222587890625,-9.763554370117188,1.2378022583007813,0,0,0,0
1.0253765930001464,-0.38786066894531246,-9.770736975097655,1.3766659545898436,0,0,0,0
1.0266633800001728,-0.3806780639648437,-9.677363110351562,1.3144167114257812,0,0,0,0
1.0279527420002523,-0.15562310791015624,-9.576806640625,1.2593500732421874,0,0,0,0
1.0292407320002894,-0.2825157958984375,-9.56962403564453,1.3670891479492187,0,0,0,0
1.0304528160004338,-0.28012159423828126,-9.564835632324218,1.2808978881835937,0,0,0,0
1.0316561970003022,-0.32561142578124996,-9.631873278808593,1.2689268798828124,0,0,0,0
1.0328176510001867,-0.2825157958984375,-9.708487731933593,1.2808978881835937,0,0,0,0
1.0341024200001812,-0.3447650390625,-9.773131176757811,1.2665326782226562,0,0,0,0
1.0354241880004338,-0.2920926025390625,-9.756371765136718,1.3359645263671873,0,0,0,0
1.0366593090002425,-0.28969840087890625,-9.540893615722656,1.3215993164062498,0,0,0,0
1.0377952270000605,-0.36391865234375,-9.567229833984374,1.3383587280273437,0,0,0,0
1.0390494590001254,-0.36391865234375,-9.627084875488281,1.2521674682617188,0,0,0,0
1.0403360050004267,-0.3495534423828125,-9.655815295410155,1.2737152832031249,0,0,0,0
1.0416093480002928,-0.3447650390625,-9.634267480468749,1.20667763671875,0,0,0,0
1.0428391540003759,-0.37828386230468747,-9.65342109375,1.2306196533203124,0,0,0,0
1.0440536640003302,-0.2825157958984375,-9.674968908691406,1.2617442749023438,0,0,0,0
1.0452550440004416,-0.239420166015625,-9.622296472167967,1.2737152832031249,0,0,0,0
1.0464811090000694,-0.19393033447265623,-9.612719665527344,1.22583125,0,0,0,0
1.047684749000382,-0.2753331909179687,-9.777919580078125,1.218648645019531,0,0,0,0
1.0489267030002338,-0.354341845703125,-9.6917283203125,1.1947066284179686,0,0,0,0
1.050238064000041,-0.47165772705078124,-9.706093530273437,1.2473790649414063,0,0,0,0
1.051536610000312,-0.36152445068359373,-9.713276135253906,1.2593500732421874,0,0,0,0
1.052817583000433,-0.29448680419921874,-9.634267480468749,1.2880804931640624,0,0,0,0
1.0540603890003695,-0.2346317626953125,-9.65342109375,1.2042834350585936,0,0,0,0
1.0552264540001488,-0.12449848632812499,-9.564835632324218,1.3287819213867187,0,0,0,0
1.056431390000398,-0.1580173095703125,-9.543287817382812,1.2593500732421874,0,0,0,0
1.057609937000052,-0.3184288208007812,-9.557653027343749,1.218648645019531,0,0,0,0
1.0589311130001988,-0.42377369384765623,-9.83777462158203,1.1540052001953125,0,0,0,0
1.0601471420000053,-0.36391865234375,-9.727641345214844,1.199495031738281,0,0,0,0
1.0613287070000297,-0.277727392578125,-9.622296472167967,1.2880804931640624,0,0,0,0
1.0625109950001388,-0.296881005859375,-9.548076220703125,1.2689268798828124,0,0,0,0
1.0636833020002996,-0.33039982910156246,-9.562441430664062,1.3479355346679687,0,0,0,0
1.0648587190003127,-0.4525041137695312,-9.60793126220703,1.3287819213867187,0,0,0,0
1.0661283030003688,-0.239420166015625,-9.624690673828125,1.3431471313476562,0,0,0,0
1.0675760890003403,-0.229843359375,-9.68454571533203,1.1731588134765625,0,0,0,0
1.0688082090000535,-0.2920926025390625,-9.74200655517578,1.3144167114257812,0,0,0,0
1.07002871900022,-0.30885201416015623,-9.698910925292969,1.3335703247070312,0,0,0,0
1.0712060440000641,-0.29448680419921874,-9.706093530273437,1.3431471313476562,0,0,0,0
1.0724065170002177,-0.33039982910156246,-9.574412438964844,1.2617442749023438,0,0,0,0
1.073655379000229,-0.4070142822265625,-9.641450085449218,1.2785036865234374,0,0,0,0
1.074947906000034,-0.373495458984375,-9.682151513671874,1.3024457031249999,0,0,0,0
1.0761442680000073,-0.35673604736328124,-9.715670336914062,1.3000515014648437,0,0,0,0
1.0772293900004115,-0.3232172241210937,-9.686939916992188,1.3144167114257812,0,0,0,0
1.0784455300004083,-0.26815058593749996,-9.686939916992188,1.3215993164062498,0,0,0,0
1.079809464000391,-0.19871873779296872,-9.634267480468749,1.4006079711914061,0,0,0,0
1.080905160000384,-0.27293898925781246,-9.631873278808593,1.3383587280273437,0,0,0,0
1.0820111520001774,-0.316034619140625,-9.706093530273437,1.2928688964843749,0,0,0,0
1.0833216060000268,-0.40940848388671874,-9.710881933593749,1.2761094848632812,0,0,0,0
1.0846470780002164,-0.4333505004882812,-9.76116016845703,1.2641384765625,0,0,0,0
1.0858196620001763,-0.4261678955078125,-9.698910925292969,1.3072341064453123,0,0,0,0
1.087027598000077,-0.2537853759765625,-9.686939916992188,1.2904746948242187,0,0,0,0
1.0881238680003662,-0.23702596435546874,-9.670180505371093,1.3024457031249999,0,0,0,0
1.089276582000366,-0.26336218261718747,-9.591171850585937,1.3527239379882812,0,0,0,0
1.0904489440004,-0.32082302246093747,-9.56962403564453,1.2976572998046874,0,0,0,0
1.091531084000053,-0.27293898925781246,-9.629479077148437,1.2306196533203124,0,0,0,0
1.092599206000159,-0.3064578125,-9.68454571533203,1.218648645019531,0,0,0,0
1.093668995000371,-0.33758243408203126,-9.787496386718749,1.2785036865234374,0,0,0,0
1.094839468000373,-0.32561142578124996,-9.70369932861328,1.3335703247070312,0,0,0,0
1.0961230330003673,-0.34237083740234375,-9.581595043945311,1.3958195678710936,0,0,0,0
1.097224340000139,-0.38307226562499996,-9.521740002441407,1.3479355346679687,0,0,0,0
1.098306610000236,-0.3399766357421875,-9.588777648925781,1.2569558715820313,0,0,0,0
1.0993788430000677,-0.316034619140625,-9.655815295410155,1.3263877197265623,0,0,0,0
1.1005545200000597,-0.239420166015625,-9.627084875488281,1.2593500732421874,0,0,0,0
1.1016837340002894,-0.229843359375,-9.641450085449218,1.2617442749023438,0,0,0,0
1.1028487260000475,-0.4429273071289062,-9.679757312011718,1.2737152832031249,0,0,0,0
1.1039977920004276,-0.33518823242187495,-9.689334118652344,1.235408056640625,0,0,0,0
1.105143376000342,-0.29927520751953124,-9.670180505371093,1.2617442749023438,0,0,0,0
1.1064057750004395,-0.26815058593749996,-9.619902270507811,1.2401964599609374,0,0,0,0
1.107589303000168,-0.34237083740234375,-9.698910925292969,1.2761094848632812,0,0,0,0
1.10868538800014,-0.4429273071289062,-9.68454571533203,1.2617442749023438,0,0,0,0
1.1097810470000695,-0.4165910888671875,-9.686939916992188,1.2521674682617188,0,0,0,0
1.1108757430001788,-0.3280056274414062,-9.679757312011718,1.2665326782226562,0,0,0,0
1.1120413270000427,-0.3136404174804687,-9.713276135253906,1.3215993164062498,0,0,0,0
1.1132078370001182,-0.25139117431640623,-9.631873278808593,1.3024457031249999,0,0,0,0
1.1142986810000366,-0.18435352783203124,-9.591171850585937,1.4030021728515625,0,0,0,0
1.1153718030000164,-0.1771709228515625,-9.600748657226562,1.3455413330078123,0,0,0,0
1.116443573000197,-0.2609679809570312,-9.634267480468749,1.2880804931640624,0,0,0,0
1.117517732000124,-0.36152445068359373,-9.679757312011718,1.209071838378906,0,0,0,0
1.1187331500000255,-0.39743747558593745,-9.696516723632811,1.2473790649414063,0,0,0,0
1.119895734000238,-0.45968671875,-9.737218151855469,1.3168109130859373,0,0,0,0
1.1209872630001882,-0.3687070556640625,-9.706093530273437,1.3479355346679687,0,0,0,0
1.122101866000321,-0.296881005859375,-9.591171850585937,1.3215993164062498,0,0,0,0
1.1232468030002565,-0.30885201416015623,-9.524134204101562,1.2785036865234374,0,0,0,0
1.1243925720000334,-0.26336218261718747,-9.536105212402344,1.0965443603515623,0,0,0,0
1.1255197860000408,-0.2657563842773437,-9.56962403564453,1.3215993164062498,0,0,0,0
1.1267025740003191,-0.2657563842773437,-9.639055883789062,1.2785036865234374,0,0,0,0
1.127794955000354,-0.28730419921875,-9.636661682128906,1.2713210815429687,0,0,0,0
1.1288812990001134,-0.22505495605468748,-9.694122521972655,1.2641384765625,0,0,0,0
1.1300738830000228,-0.39264907226562495,-9.744400756835937,1.2665326782226562,0,0,0,0
1.1313164490002237,-0.37828386230468747,-9.670180505371093,1.2689268798828124,0,0,0,0
1.132408941000449,-0.35194764404296874,-9.567229833984374,1.235408056640625,0,0,0,0
1.1334806550003123,-0.34715924072265625,-9.612719665527344,1.2521674682617188,0,0,0,0
1.1347435910001877,-0.34715924072265625,-9.667786303710937,1.3311761230468748,0,0,0,0
1.1359497490002468,-0.316034619140625,-9.667786303710937,1.2832920898437499,0,0,0,0
1.137211462000323,-0.28012159423828126,-9.686939916992188,1.2880804931640624,0,0,0,0
1.1397368890002326,-0.2442085693359375,-9.660603698730467,1.3024457031249999,0,0,0,0
1.1427775520000978,-0.32561142578124996,-9.643844287109374,1.2282254516601563,0,0,0,0
1.1457971790000556,-0.33518823242187495,-9.72285294189453,1.2617442749023438,0,0,0,0
1.1475543700003072,-0.2753331909179687,-9.715670336914062,1.3670891479492187,0,0,0,0
1.1488151020002988,-0.23223756103515625,-9.603142858886718,1.3239935180664062,0,0,0,0
1.1500217600000724,-0.19393033447265623,-9.504980590820312,1.3455413330078123,0,0,0,0
1.151187437000317,-0.24899697265624998,-9.595960253906249,1.2880804931640624,0,0,0,0
1.1523456880004233,-0.3758896606445312,-9.758765966796874,1.2737152832031249,0,0,0,0
1.1539303990002736,-0.3950432739257812,-9.777919580078125,1.3120225097656248,0,0,0,0
1.1551761670002634,-0.35194764404296874,-9.7683427734375,1.2713210815429687,0,0,0,0
1.156380659000206,-0.29448680419921874,-9.670180505371093,1.3335703247070312,0,0,0,0
1.1579410920003284,-0.28730419921875,-9.572018237304688,1.3239935180664062,0,0,0,0
1.1592421200002718,-0.239420166015625,-9.509768994140625,1.3120225097656248,0,0,0,0
1.1604793700003029,-0.258573779296875,-9.495403784179686,1.3263877197265623,0,0,0,0
1.1616405840004518,-0.3136404174804687,-9.603142858886718,1.2306196533203124,0,0,0,0
1.1631086480001613,-0.36391865234375,-9.797073193359374,1.2665326782226562,0,0,0,0
1.1643855650004298,-0.33758243408203126,-9.756371765136718,1.3000515014648437,0,0,0,0
1.165608037000311,-0.20829554443359374,-9.756371765136718,1.39821376953125,0,0,0,0
1.1667776770000273,-0.22266075439453123,-9.56962403564453,1.39821376953125,0,0,0,0
1.1679346500000065,-0.3950432739257812,-9.564835632324218,1.3335703247070312,0,0,0,0
1.1694996580004045,-0.39743747558593745,-9.74200655517578,1.20667763671875,0,0,0,0
1.1707669270003862,-0.40222587890625,-9.710881933593749,1.2282254516601563,0,0,0,0
1.1719252150001012,-0.30406361083984373,-9.725247143554688,1.2952630981445312,0,0,0,0
1.1733666120003363,-0.22266075439453123,-9.696516723632811,1.3359645263671873,0,0,0,0
1.1747018430000935,-0.15322890625,-9.593566052246093,1.2425906616210938,0,0,0,0
1.1759122230000685,-0.28969840087890625,-9.53131680908203,1.2928688964843749,0,0,0,0
1.177125826000065,-0.40462008056640625,-9.504980590820312,1.2928688964843749,0,0,0,0
1.1786436300003515,-0.44053310546874996,-9.739612353515625,1.2210428466796874,0,0,0,0
1.1801199150004322,-0.4165910888671875,-9.698910925292969,1.3239935180664062,0,0,0,0
1.1813421100000596,-0.36391865234375,-9.689334118652344,1.3168109130859373,0,0,0,0
1.1825122500004,-0.2825157958984375,-9.524134204101562,1.3670891479492187,0,0,0,0
1.1840247580003052,-0.239420166015625,-9.548076220703125,1.3551181396484375,0,0,0,0
1.1854795620001823,-0.18914193115234373,-9.631873278808593,1.2330138549804688,0,0,0,0
1.1867563500004508,-0.21787235107421873,-9.634267480468749,1.2785036865234374,0,0,0,0
1.187948434000191,-0.4381389038085937,-9.677363110351562,1.2042834350585936,0,0,0,0
1.1895324410002104,-0.4285620971679687,-9.543287817382812,1.22583125,0,0,0,0
1.1908469500003775,-0.4213794921875,-9.662997900390625,1.3551181396484375,0,0,0,0
1.192032367000138,-0.2561795776367187,-9.682151513671874,1.3575123413085937,0,0,0,0
1.1933286360003876,-0.20350714111328125,-9.662997900390625,1.2425906616210938,0,0,0,0
1.1959749130001,-0.3280056274414062,-9.655815295410155,1.2138602416992186,0,0,0,0
1.197771178000039,-0.35194764404296874,-9.756371765136718,1.2928688964843749,0,0,0,0
1.1993561670001327,-0.3447650390625,-9.72285294189453,1.3239935180664062,0,0,0,0
1.2006489540003713,-0.3112462158203125,-9.667786303710937,1.3120225097656248,0,0,0,0
1.2018885750003392,-0.3495534423828125,-9.665392102050781,1.39821376953125,0,0,0,0
1.2030699180004376,-0.40222587890625,-9.696516723632811,1.3407529296874998,0,0,0,0
1.204500260000259,-0.3758896606445312,-9.572018237304688,1.3263877197265623,0,0,0,0
1.2059847490004358,-0.3232172241210937,-9.576806640625,1.218648645019531,0,0,0,0
1.2071956480003792,-0.34715924072265625,-9.64623848876953,1.2665326782226562,0,0,0,0
1.2083532320002632,-0.3184288208007812,-9.677363110351562,1.2880804931640624,0,0,0,0
1.2097983520002344,-0.22505495605468748,-9.715670336914062,1.2737152832031249,0,0,0,0
1.2110300280000956,-0.2609679809570312,-9.672574707031249,1.3383587280273437,0,0,0,0
1.2121390200004498,-0.28730419921875,-9.612719665527344,1.2761094848632812,0,0,0,0
1.2132251050002196,-0.30406361083984373,-9.600748657226562,1.3096283081054687,0,0,0,0
1.2143208200000117,-0.3687070556640625,-9.603142858886718,1.3120225097656248,0,0,0,0
1.215472274000149,-0.48123453369140623,-9.593566052246093,1.24498486328125,0,0,0,0
1.21663658100033,-0.44532150878906246,-9.586383447265625,1.3096283081054687,0,0,0,0
1.2177338880001116,-0.3711012573242187,-9.70369932861328,1.3383587280273437,0,0,0,0
1.2188239540000723,-0.27293898925781246,-9.715670336914062,1.3359645263671873,0,0,0,0
1.2199055950000002,-0.10773907470703124,-9.648632690429688,1.3120225097656248,0,0,0,0
1.2210545310003909,-0.17238251953125,-9.60793126220703,1.3527239379882812,0,0,0,0
1.222493391000171,-0.2753331909179687,-9.591171850585937,1.2808978881835937,0,0,0,0
1.2236915860003137,-0.4572925170898437,-9.651026892089844,1.2330138549804688,0,0,0,0
1.2249071330002153,-0.5267243652343749,-9.672574707031249,1.177947216796875,0,0,0,0
1.226099847000114,-0.39743747558593745,-9.730035546875,1.3359645263671873,0,0,0,0
1.2273130970002057,-0.2657563842773437,-9.7683427734375,1.2928688964843749,0,0,0,0
1.2284212370000205,-0.24181436767578124,-9.679757312011718,1.2665326782226562,0,0,0,0
1.2295111740004359,-0.277727392578125,-9.526528405761718,1.2378022583007813,0,0,0,0
1.2306230180001876,-0.229843359375,-9.524134204101562,1.3551181396484375,0,0,0,0
1.2317103810000845,-0.21308394775390624,-9.555258825683593,1.3814543579101561,0,0,0,0
1.2328893540002355,-0.2753331909179687,-9.665392102050781,1.3718775512695311,0,0,0,0
1.234094104000178,-0.32082302246093747,-9.777919580078125,1.3718775512695311,0,0,0,0
1.2351851520002128,-0.3758896606445312,-9.787496386718749,1.3910311645507811,0,0,0,0
1.2362572560000444,-0.39983167724609375,-9.727641345214844,1.3646949462890625,0,0,0,0
1.2373305440000877,-0.33518823242187495,-9.658209497070311,1.2401964599609374,0,0,0,0
1.238591961000111,-0.33518823242187495,-9.579200842285156,1.2569558715820313,0,0,0,0
1.2398744150000311,-0.2825157958984375,-9.617508068847656,1.2521674682617188,0,0,0,0
1.2409762220004268,-0.37828386230468747,-9.610325463867188,1.209071838378906,0,0,0,0
1.2420698070000071,-0.3232172241210937,-9.667786303710937,1.2952630981445312,0,0,0,0
1.2432434840002315,-0.2920926025390625,-9.686939916992188,1.2617442749023438,0,0,0,0
1.244533937000142,-0.3112462158203125,-9.765948571777344,1.2665326782226562,0,0,0,0
1.2457005590003973,-0.28012159423828126,-9.713276135253906,1.3072341064453123,0,0,0,0
1.2468113290001384,-0.1867477294921875,-9.6151138671875,1.4221557861328125,0,0,0,0
1.2482538920003208,-0.3447650390625,-9.583989245605467,1.3144167114257812,0,0,0,0
1.2494517170002837,-0.40940848388671874,-9.56962403564453,1.3168109130859373,0,0,0,0
1.2508111520000966,-0.4261678955078125,-9.727641345214844,1.2401964599609374,0,0,0,0
1.2519466810003905,-0.3495534423828125,-9.672574707031249,1.2737152832031249,0,0,0,0
1.2530768020001233,-0.2059013427734375,-9.706093530273437,1.3168109130859373,0,0,0,0
1.2543454600004225,-0.1388636962890625,-9.718064538574218,1.3311761230468748,0,0,0,0
1.2555510250003863,-0.16041151123046873,-9.560047229003906,1.3551181396484375,0,0,0,0
1.2571982730000855,-0.2705447875976562,-9.588777648925781,1.3383587280273437,0,0,0,0
1.258629318000203,-0.3016694091796875,-9.751583361816406,1.1947066284179686,0,0,0,0
1.2597717360004026,-0.38786066894531246,-9.76116016845703,1.218648645019531,0,0,0,0
1.2609549310000148,-0.3950432739257812,-9.7683427734375,1.2952630981445312,0,0,0,0
1.2622554960003072,-0.354341845703125,-9.720458740234374,1.2330138549804688,0,0,0,0
1.2633580620004068,-0.33518823242187495,-9.64623848876953,1.3263877197265623,0,0,0,0
1.2644774250002229,-0.316034619140625,-9.507374792480467,1.35990654296875,0,0,0,0
1.265714823000053,-0.29448680419921874,-9.595960253906249,1.3072341064453123,0,0,0,0
1.2670028880002064,-0.29448680419921874,-9.658209497070311,1.3168109130859373,0,0,0,0
1.268123917000139,-0.26336218261718747,-9.74200655517578,1.2521674682617188,0,0,0,0
1.2692102240002896,-0.3184288208007812,-9.797073193359374,1.2378022583007813,0,0,0,0
1.2702948830001333,-0.3758896606445312,-9.706093530273437,1.3335703247070312,0,0,0,0
1.271374561000357,-0.3687070556640625,-9.674968908691406,1.388636962890625,0,0,0,0
1.2724545530004434,-0.3711012573242187,-9.521740002441407,1.3718775512695311,0,0,0,0
1.2736807850001242,-0.3806780639648437,-9.629479077148437,1.3742717529296875,0,0,0,0
1.2748774800002138,-0.3687070556640625,-9.598354455566406,1.3096283081054687,0,0,0,0
1.2760087310002746,-0.39264907226562495,-9.605537060546874,1.2832920898437499,0,0,0,0
1.2770986680002352,-0.3136404174804687,-9.660603698730467,1.20667763671875,0,0,0,0
1.2782673450001312,-0.296881005859375,-9.727641345214844,1.2617442749023438,0,0,0,0
1.2794650590003585,-0.24181436767578124,-9.732429748535155,1.3144167114257812,0,0,0,0
1.2805561250002029,-0.201112939453125,-9.655815295410155,1.3096283081054687,0,0,0,0
1.2816425620003429,-0.29927520751953124,-9.572018237304688,1.3120225097656248,0,0,0,0
1.282732813000166,-0.16519991455078123,-9.536105212402344,1.369483349609375,0,0,0,0
1.283905397000126,-0.4285620971679687,-9.612719665527344,1.2665326782226562,0,0,0,0
1.2850672410004336,-0.45968671875,-9.706093530273437,1.24498486328125,0,0,0,0
1.2861641960002999,-0.33039982910156246,-9.674968908691406,1.2425906616210938,0,0,0,0
1.2872468920004394,-0.24660277099609373,-9.670180505371093,1.3335703247070312,0,0,0,0
1.288330273000156,-0.22266075439453123,-9.636661682128906,1.2785036865234374,0,0,0,0
1.2894906540000193,-0.2920926025390625,-9.610325463867188,1.2330138549804688,0,0,0,0
1.2906572380002217,-0.316034619140625,-9.641450085449218,1.2856862915039062,0,0,0,0
1.2917378040001495,-0.23702596435546874,-9.658209497070311,1.3383587280273437,0,0,0,0
1.2928094260000762,-0.2920926025390625,-9.677363110351562,1.2617442749023438,0,0,0,0
1.2938799560001826,-0.44532150878906246,-9.734823950195311,1.1420341918945311,0,0,0,0
1.2950373550002041,-0.5195417602539062,-9.751583361816406,1.2617442749023438,0,0,0,0
1.2962020500003746,-0.47644613037109373,-9.679757312011718,1.3144167114257812,0,0,0,0
1.2972809310003868,-0.3112462158203125,-9.639055883789062,1.2761094848632812,0,0,0,0
1.298391757000445,-0.229843359375,-9.600748657226562,1.2234370483398436,0,0,0,0
1.2994763230003628,-0.258573779296875,-9.593566052246093,1.2880804931640624,0,0,0,0
1.3006358330003422,-0.2561795776367187,-9.631873278808593,1.197100830078125,0,0,0,0
1.3018106030003764,-0.2705447875976562,-9.634267480468749,1.235408056640625,0,0,0,0
1.3029086140004438,-0.30885201416015623,-9.679757312011718,1.2928688964843749,0,0,0,0
1.3039958280000974,-0.30885201416015623,-9.70369932861328,1.2306196533203124,0,0,0,0
1.3054294840003422,-0.3495534423828125,-9.708487731933593,1.388636962890625,0,0,0,0
1.306650828000329,-0.33758243408203126,-9.706093530273437,1.2234370483398436,0,0,0,0
1.3077503940003226,-0.22505495605468748,-9.694122521972655,1.2018892333984375,0,0,0,0
1.30883520100042,-0.354341845703125,-9.581595043945311,1.2904746948242187,0,0,0,0
1.3099392490003083,-0.40222587890625,-9.64623848876953,1.2521674682617188,0,0,0,0
1.3111358880000807,-0.4525041137695312,-9.610325463867188,1.2976572998046874,0,0,0,0
1.312323602000106,-0.39743747558593745,-9.64623848876953,1.209071838378906,0,0,0,0
1.313449631000367,-0.29927520751953124,-9.706093530273437,1.3239935180664062,0,0,0,0
1.3145772710004167,-0.25139117431640623,-9.718064538574218,1.3096283081054687,0,0,0,0
1.3157165040001928,-0.29448680419921874,-9.651026892089844,1.2808978881835937,0,0,0,0
1.3168943660002697,-0.24899697265624998,-9.600748657226562,1.2617442749023438,0,0,0,0
1.3180909870002324,-0.3447650390625,-9.629479077148437,1.2928688964843749,0,0,0,0
1.3191990710001846,-0.3687070556640625,-9.641450085449218,1.3024457031249999,0,0,0,0
1.3204960810003286,-0.411802685546875,-9.749189160156249,1.3431471313476562,0,0,0,0
1.3218214050002643,-0.3327940307617187,-9.732429748535155,1.3431471313476562,0,0,0,0
1.3229942670000128,-0.30885201416015623,-9.641450085449218,1.3072341064453123,0,0,0,0
1.324269887000355,-0.24660277099609373,-9.619902270507811,1.3120225097656248,0,0,0,0
1.3254030090001834,-0.2346317626953125,-9.591171850585937,1.2976572998046874,0,0,0,0
1.3266809440001452,-0.26336218261718747,-9.605537060546874,1.3168109130859373,0,0,0,0
1.3278233060000275,-0.3806780639648437,-9.598354455566406,1.199495031738281,0,0,0,0
1.3289254650003386,-0.469263525390625,-9.720458740234374,1.180341418457031,0,0,0,0
1.3300986600002034,-0.4477157104492187,-9.81862100830078,1.2713210815429687,0,0,0,0
1.3314041700000416,-0.3399766357421875,-9.801861596679688,1.2880804931640624,0,0,0,0
1.3325014020001618,-0.239420166015625,-9.78031378173828,1.3120225097656248,0,0,0,0
1.3335862840003756,-0.2537853759765625,-9.478644372558593,1.3000515014648437,0,0,0,0
1.3351535500000864,-0.316034619140625,-9.524134204101562,1.4867992309570313,0,0,0,0
1.3364998000001833,-0.28012159423828126,-9.629479077148437,1.2617442749023438,0,0,0,0
1.3376519580001514,-0.33518823242187495,-9.732429748535155,1.3144167114257812,0,0,0,0
1.3387517280002612,-0.3280056274414062,-9.809044201660155,1.2737152832031249,0,0,0,0
1.339840665000338,-0.3711012573242187,-9.775525378417969,1.177947216796875,0,0,0,0
1.3409929340000417,-0.29448680419921874,-9.68454571533203,1.3024457031249999,0,0,0,0
1.3422716290001517,-0.29448680419921874,-9.574412438964844,1.3287819213867187,0,0,0,0
1.3433512140004495,-0.354341845703125,-9.567229833984374,1.2689268798828124,0,0,0,0
1.3444222800003445,-0.4285620971679687,-9.634267480468749,1.2785036865234374,0,0,0,0
1.3454933100001654,-0.3902548706054687,-9.528922607421874,1.20667763671875,0,0,0,0
1.3466044500000862,-0.29927520751953124,-9.713276135253906,1.218648645019531,0,0,0,0
1.3477799600000253,-0.24660277099609373,-9.7683427734375,1.22583125,0,0,0,0
1.3491376170004514,-0.28012159423828126,-9.672574707031249,1.2665326782226562,0,0,0,0
1.3504009780003798,-0.2705447875976562,-9.536105212402344,1.3718775512695311,0,0,0,0
1.351496619000045,-0.24660277099609373,-9.564835632324218,1.3718775512695311,0,0,0,0
1.3526607590001731,-0.30406361083984373,-9.662997900390625,1.4125789794921875,0,0,0,0
1.3540423970002848,-0.3327940307617187,-9.732429748535155,1.2928688964843749,0,0,0,0
1.3552530920001118,-0.49320554199218747,-9.737218151855469,1.1372457885742187,0,0,0,0
1.3564647130001504,-0.469263525390625,-9.610325463867188,1.3096283081054687,0,0,0,0
1.3582821810000496,-0.4261678955078125,-9.574412438964844,1.1923124267578125,0,0,0,0
1.3599334660002569,-0.23702596435546874,-9.567229833984374,1.235408056640625,0,0,0,0
1.3612800490000154,-0.21308394775390624,-9.583989245605467,1.254561669921875,0,0,0,0
1.3625738730002013,-0.2825157958984375,-9.682151513671874,1.177947216796875,0,0,0,0
1.3638573640000686,-0.4381389038085937,-9.797073193359374,1.2808978881835937,0,0,0,0
1.3656404990001647,-0.32082302246093747,-9.6917283203125,1.3479355346679687,0,0,0,0
1.3671693770002094,-0.29448680419921874,-9.631873278808593,1.4796166259765624,0,0,0,0
1.3685319970004457,-0.3016694091796875,-9.545682019042967,1.350329736328125,0,0,0,0
1.3698458210001263,-0.4070142822265625,-9.562441430664062,1.3359645263671873,0,0,0,0
1.3710909600004015,-0.2825157958984375,-9.725247143554688,1.3168109130859373,0,0,0,0
1.3725805980002406,-0.2442085693359375,-9.68454571533203,1.3455413330078123,0,0,0,0
1.3737327560002086,-0.24899697265624998,-9.651026892089844,1.3455413330078123,0,0,0,0
1.3748354520002977,-0.2705447875976562,-9.648632690429688,1.3192051147460937,0,0,0,0
1.3760359990001234,-0.2753331909179687,-9.581595043945311,1.2521674682617188,0,0,0,0
1.3777900980003324,-0.46208092041015625,-9.636661682128906,1.24498486328125,0,0,0,0
1.37934834600037,-0.5219359619140624,-9.792284790039062,1.35990654296875,0,0,0,0
1.3806643740003892,-0.4381389038085937,-9.720458740234374,1.2665326782226562,0,0,0,0
1.3823152880004272,-0.239420166015625,-9.583989245605467,1.2785036865234374,0,0,0,0
1.383512002000316,-0.3064578125,-9.516951599121093,1.350329736328125,0,0,0,0
1.3848525100002007,-0.24181436767578124,-9.437942944335937,1.3096283081054687,0,0,0,0
1.3860602430004292,-0.2705447875976562,-9.631873278808593,1.3527239379882812,0,0,0,0
1.3873971780003558,-0.2705447875976562,-9.777919580078125,1.2713210815429687,0,0,0,0
1.388686983000298,-0.35673604736328124,-9.751583361816406,1.218648645019531,0,0,0,0
1.390228954000122,-0.4381389038085937,-9.696516723632811,1.3120225097656248,0,0,0,0
1.391402723000283,-0.35194764404296874,-9.579200842285156,1.3072341064453123,0,0,0,0
1.3925007340003503,-0.24181436767578124,-9.555258825683593,1.3048399047851562,0,0,0,0
1.3937178180003684,-0.2561795776367187,-9.665392102050781,1.3359645263671873,0,0,0,0
1.3950397340004201,-0.19871873779296872,-9.70369932861328,1.2761094848632812,0,0,0,0
1.3961367260003499,-0.2561795776367187,-9.698910925292969,1.3072341064453123,0,0,0,0
1.3972290700003214,-0.38786066894531246,-9.706093530273437,1.2665326782226562,0,0,0,0
1.3984508760004246,-0.41898529052734373,-9.76116016845703,1.3455413330078123,0,0,0,0
1.399820089000059,-0.3447650390625,-9.651026892089844,1.3742717529296875,0,0,0,0
1.4009061550000297,-0.27293898925781246,-9.648632690429688,1.3311761230468748,0,0,0,0
1.4020429250003872,-0.3112462158203125,-9.68454571533203,1.2808978881835937,0,0,0,0
1.4032568610000453,-0.35673604736328124,-9.713276135253906,1.2785036865234374,0,0,0,0
1.4046391290003157,-0.38786066894531246,-9.64623848876953,1.3527239379882812,0,0,0,0
1.4057354730002771,-0.27293898925781246,-9.655815295410155,1.350329736328125,0,0,0,0
1.4068312240001433,-0.14125789794921875,-9.567229833984374,1.3239935180664062,0,0,0,0
1.4080278270002964,-0.18914193115234373,-9.507374792480467,1.2904746948242187,0,0,0,0
1.4093705210002554,-0.33039982910156246,-9.648632690429688,1.2569558715820313,0,0,0,0
1.4104715500002385,-0.3687070556640625,-9.753977563476562,1.2234370483398436,0,0,0,0
1.4115573200001563,-0.38786066894531246,-9.744400756835937,1.2904746948242187,0,0,0,0
1.412637664000158,-0.4525041137695312,-9.758765966796874,1.3120225097656248,0,0,0,0
1.4137200640002447,-0.4285620971679687,-9.715670336914062,1.2952630981445312,0,0,0,0
1.4149475740000526,-0.36631285400390623,-9.64623848876953,1.3479355346679687,0,0,0,0
1.416277657000137,-0.30885201416015623,-9.557653027343749,1.3239935180664062,0,0,0,0
1.4173697970004469,-0.30885201416015623,-9.440337145996093,1.158793603515625,0,0,0,0
1.418552937000186,-0.35673604736328124,-9.730035546875,1.1420341918945311,0,0,0,0
1.4196510770002533,-0.45489831542968745,-9.74200655517578,1.3048399047851562,0,0,0,0
1.4208881610002209,-0.24181436767578124,-9.710881933593749,1.2018892333984375,0,0,0,0
1.422296132000156,-0.277727392578125,-9.648632690429688,1.2617442749023438,0,0,0,0
1.42339131000017,-0.3495534423828125,-9.720458740234374,1.2904746948242187,0,0,0,0
1.4244796540001516,-0.3447650390625,-9.543287817382812,1.2880804931640624,0,0,0,0
1.4256028120003066,-0.3758896606445312,-9.658209497070311,1.2737152832031249,0,0,0,0
1.42682945200022,-0.3280056274414062,-9.789890588378906,1.189918225097656,0,0,0,0
1.4282069600003524,-0.373495458984375,-9.849745629882811,1.3383587280273437,0,0,0,0
1.4292907120002383,-0.37828386230468747,-9.725247143554688,1.3718775512695311,0,0,0,0
1.4305023330002768,-0.21787235107421873,-9.548076220703125,1.3455413330078123,0,0,0,0
1.431615862000399,-0.239420166015625,-9.560047229003906,1.3215993164062498,0,0,0,0
1.4329042420004043,-0.2825157958984375,-9.658209497070311,1.2282254516601563,0,0,0,0
1.4344757120002214,-0.2561795776367187,-9.737218151855469,1.37906015625,0,0,0,0
1.4355821860003743,-0.16759411621093748,-9.787496386718749,1.3263877197265623,0,0,0,0
1.4369762680003078,-0.507570751953125,-9.720458740234374,1.2665326782226562,0,0,0,0
1.4382920920002107,-0.3327940307617187,-9.627084875488281,1.2761094848632812,0,0,0,0
1.4396973780003464,-0.3232172241210937,-9.619902270507811,1.2569558715820313,0,0,0,0
1.4408061480003198,-0.277727392578125,-9.583989245605467,1.2856862915039062,0,0,0,0
1.4418968440004392,-0.3711012573242187,-9.595960253906249,1.2378022583007813,0,0,0,0
1.4429914850002206,-0.373495458984375,-9.634267480468749,1.2856862915039062,0,0,0,0
1.4446993430001385,-0.3136404174804687,-9.694122521972655,1.2593500732421874,0,0,0,0
1.445864279000034,-0.30885201416015623,-9.665392102050781,1.2330138549804688,0,0,0,0
1.4469563270004073,-0.28969840087890625,-9.660603698730467,1.3335703247070312,0,0,0,0
1.4480490230002943,-0.28969840087890625,-9.603142858886718,1.3000515014648437,0,0,0,0
1.4492592360002163,-0.4070142822265625,-9.631873278808593,1.2114660400390624,0,0,0,0
1.450616875000378,-0.3758896606445312,-9.610325463867188,1.2617442749023438,0,0,0,0
1.4517229220000445,-0.277727392578125,-9.655815295410155,1.3215993164062498,0,0,0,0
1.4528079520000574,-0.18914193115234373,-9.639055883789062,1.3407529296874998,0,0,0,0
1.453896499000166,-0.2537853759765625,-9.658209497070311,1.2425906616210938,0,0,0,0
1.4552496930000416,-0.2705447875976562,-9.655815295410155,1.24498486328125,0,0,0,0
1.4565510360002918,-0.15562310791015624,-9.574412438964844,1.2689268798828124,0,0,0,0
1.4576410100003159,-0.39743747558593745,-9.674968908691406,1.2928688964843749,0,0,0,0
1.4587627050000265,-0.39264907226562495,-9.751583361816406,1.2234370483398436,0,0,0,0
1.459852587000114,-0.38786066894531246,-9.720458740234374,1.2641384765625,0,0,0,0
1.4613248170003317,-0.41898529052734373,-9.605537060546874,1.3144167114257812,0,0,0,0
1.462692122000135,-0.3399766357421875,-9.545682019042967,1.2401964599609374,0,0,0,0
1.46378983600016,-0.3711012573242187,-9.572018237304688,1.2737152832031249,0,0,0,0
1.465370047000306,-0.27293898925781246,-9.658209497070311,1.3575123413085937,0,0,0,0
1.4666945010003474,-0.21068974609375,-9.68454571533203,1.3263877197265623,0,0,0,0
1.4678817520002667,-0.2561795776367187,-9.708487731933593,1.2713210815429687,0,0,0,0
1.4689627810003003,-0.3064578125,-9.643844287109374,1.2497732666015624,0,0,0,0
1.4700638470003469,-0.33758243408203126,-9.583989245605467,1.3239935180664062,0,0,0,0
1.4711289510000825,-0.3495534423828125,-9.643844287109374,1.4796166259765624,0,0,0,0
1.472315942000023,-0.38307226562499996,-9.737218151855469,1.2856862915039062,0,0,0,0
1.4734893040003954,-0.4070142822265625,-9.686939916992188,1.3838485595703125,0,0,0,0
1.4745765560001018,-0.3280056274414062,-9.744400756835937,1.3383587280273437,0,0,0,0
1.4757904360003522,-0.2825157958984375,-9.629479077148437,1.2785036865234374,0,0,0,0
1.4768919280004411,-0.28012159423828126,-9.579200842285156,1.3263877197265623,0,0,0,0
1.4781269190002604,-0.29927520751953124,-9.610325463867188,1.2928688964843749,0,0,0,0
1.479351577000216,-0.2537853759765625,-9.651026892089844,1.3144167114257812,0,0,0,0
1.4804326990001755,-0.18435352783203124,-9.689334118652344,1.2976572998046874,0,0,0,0
1.4814953770001011,-0.2753331909179687,-9.677363110351562,1.3263877197265623,0,0,0,0
1.4825633500004187,-0.44053310546874996,-9.686939916992188,1.3215993164062498,0,0,0,0
1.483631324000271,-0.3806780639648437,-9.624690673828125,1.2713210815429687,0,0,0,0
1.4848454640000455,-0.3591302490234375,-9.6151138671875,1.3479355346679687,0,0,0,0
1.4861447690000205,-0.32561142578124996,-9.593566052246093,1.22583125,0,0,0,0
1.4873076130002119,-0.36152445068359373,-9.576806640625,1.2593500732421874,0,0,0,0
1.4884006050001517,-0.36391865234375,-9.581595043945311,1.235408056640625,0,0,0,0
1.489487468000334,-0.30885201416015623,-9.619902270507811,1.2521674682617188,0,0,0,0
1.490680070000053,-0.2920926025390625,-9.60793126220703,1.2665326782226562,0,0,0,0
1.4919118760003585,-0.3184288208007812,-9.679757312011718,1.2473790649414063,0,0,0,0
1.4934966430000713,-0.36631285400390623,-9.70369932861328,1.2904746948242187,0,0,0,0
1.4947478380004213,-0.40222587890625,-9.682151513671874,1.3263877197265623,0,0,0,0
1.49589586600041,-0.45968671875,-9.643844287109374,1.3120225097656248,0,0,0,0
1.4971775430003618,-0.4740519287109375,-9.617508068847656,1.16837041015625,0,0,0,0
1.4984283670000877,-0.34715924072265625,-9.698910925292969,1.1827356201171875,0,0,0,0
1.4996066180001435,-0.20829554443359374,-9.624690673828125,1.3000515014648437,0,0,0,0
1.5007760350003991,-0.29927520751953124,-9.634267480468749,1.2737152832031249,0,0,0,0
1.5019779160002145,-0.2609679809570312,-9.643844287109374,1.2785036865234374,0,0,0,0
1.5032332960004169,-0.3016694091796875,-9.598354455566406,1.2330138549804688,0,0,0,0
1.504475972000364,-0.36152445068359373,-9.727641345214844,1.2641384765625,0,0,0,0
1.5056408530003864,-0.2920926025390625,-9.732429748535155,1.3048399047851562,0,0,0,0
1.5068307330002426,-0.3280056274414062,-9.686939916992188,1.2569558715820313,0,0,0,0
1.5080044840001392,-0.411802685546875,-9.662997900390625,1.2952630981445312,0,0,0,0
1.509253827000066,-0.36631285400390623,-9.639055883789062,1.24498486328125,0,0,0,0
1.5104945770003724,-0.33518823242187495,-9.643844287109374,1.2665326782226562,0,0,0,0
1.5116735130000052,-0.28012159423828126,-9.658209497070311,1.2761094848632812,0,0,0,0
1.5128432640003666,-0.18914193115234373,-9.667786303710937,1.2928688964843749,0,0,0,0
1.514034219000223,-0.21308394775390624,-9.686939916992188,1.3096283081054687,0,0,0,0
1.5152828020000015,-0.2561795776367187,-9.789890588378906,1.3215993164062498,0,0,0,0
1.5165187190000324,-0.3112462158203125,-9.662997900390625,1.3096283081054687,0,0,0,0
1.51772672900006,-0.43574470214843747,-9.718064538574218,1.3311761230468748,0,0,0,0
1.5189104990004125,-0.3854664672851562,-9.7683427734375,1.2282254516601563,0,0,0,0
1.5201564340000004,-0.41419688720703124,-9.746794958496093,1.3479355346679687,0,0,0,0
1.521395481000127,-0.3232172241210937,-9.622296472167967,1.35990654296875,0,0,0,0
1.5225841390001733,-0.296881005859375,-9.610325463867188,1.2785036865234374,0,0,0,0
1.5237545010004396,-0.24660277099609373,-9.648632690429688,1.2761094848632812,0,0,0,0
1.5250075850003668,-0.2609679809570312,-9.641450085449218,1.3048399047851562,0,0,0,0
1.5262701870001365,-0.22505495605468748,-9.6917283203125,1.24498486328125,0,0,0,0
1.5275724920002176,-0.15562310791015624,-9.698910925292969,1.2425906616210938,0,0,0,0
1.5287570020000203,-0.37828386230468747,-9.658209497070311,1.2928688964843749,0,0,0,0
1.529953086000205,-0.4333505004882812,-9.651026892089844,1.3383587280273437,0,0,0,0
1.5316221490002135,-0.39264907226562495,-9.655815295410155,1.35990654296875,0,0,0,0
1.533088083000166,-0.28969840087890625,-9.605537060546874,1.3072341064453123,0,0,0,0
1.5346500710002147,-0.3184288208007812,-9.6151138671875,1.2952630981445312,0,0,0,0
1.5362983930003793,-0.32561142578124996,-9.504980590820312,1.2473790649414063,0,0,0,0
1.5384009890003654,-0.20350714111328125,-9.672574707031249,1.2808978881835937,0,0,0,0
1.5396772020003482,-0.3184288208007812,-9.710881933593749,1.3287819213867187,0,0,0,0
1.542321128000367,-0.3758896606445312,-9.655815295410155,1.2880804931640624,0,0,0,0
1.543787395000436,-0.3950432739257812,-9.540893615722656,1.3096283081054687,0,0,0,0
1.5452243290001206,-0.38786066894531246,-9.540893615722656,1.2880804931640624,0,0,0,0
1.546499765000135,-0.41898529052734373,-9.600748657226562,1.20667763671875,0,0,0,0
1.5477359230003458,-0.24181436767578124,-9.655815295410155,1.1827356201171875,0,0,0,0
1.5490397280000252,-0.2154781494140625,-9.710881933593749,1.1563994018554686,0,0,0,0
1.5503233490003367,-0.25139117431640623,-9.718064538574218,1.3192051147460937,0,0,0,0
1.551612376000321,-0.28730419921875,-9.593566052246093,1.3335703247070312,0,0,0,0
1.552809979000358,-0.30406361083984373,-9.528922607421874,1.3383587280273437,0,0,0,0
1.5540352670000175,-0.354341845703125,-9.603142858886718,1.3024457031249999,0,0,0,0
1.555325276000076,-0.45489831542968745,-9.746794958496093,1.2832920898437499,0,0,0,0
1.5566355810001369,-0.3854664672851562,-9.782707983398437,1.2569558715820313,0,0,0,0
1.557844925000154,-0.36631285400390623,-9.710881933593749,1.3144167114257812,0,0,0,0
1.5590568600000552,-0.22505495605468748,-9.732429748535155,1.2497732666015624,0,0,0,0
1.5603589810002632,-0.229843359375,-9.579200842285156,1.235408056640625,0,0,0,0
1.5616481200004273,-0.2537853759765625,-9.591171850585937,1.3120225097656248,0,0,0,0
1.5628400930004318,-0.316034619140625,-9.696516723632811,1.2832920898437499,0,0,0,0
1.56405949100008,-0.4740519287109375,-9.734823950195311,1.2665326782226562,0,0,0,0
1.5653475750000325,-0.4955997436523437,-9.792284790039062,1.2928688964843749,0,0,0,0
1.5666094550001617,-0.33518823242187495,-9.773131176757811,1.2928688964843749,0,0,0,0
1.5677307430000837,-0.2561795776367187,-9.579200842285156,1.3455413330078123,0,0,0,0
1.5688189760003297,-0.29927520751953124,-9.576806640625,1.3048399047851562,0,0,0,0
1.5699043010004061,-0.35194764404296874,-9.5384994140625,1.2593500732421874,0,0,0,0
1.5710680710003544,-0.3232172241210937,-9.557653027343749,1.3144167114257812,0,0,0,0
1.5722847100000763,-0.354341845703125,-9.555258825683593,1.2378022583007813,0,0,0,0
1.573377554000217,-0.28490999755859375,-9.773131176757811,1.1947066284179686,0,0,0,0
1.5744688800000404,-0.28969840087890625,-9.785102185058593,1.2713210815429687,0,0,0,0
1.5761269420004282,-0.3016694091796875,-9.665392102050781,1.3838485595703125,0,0,0,0
1.577311323000231,-0.22744915771484372,-9.545682019042967,1.3192051147460937,0,0,0,0
1.5785166840000784,-0.20350714111328125,-9.593566052246093,1.2952630981445312,0,0,0,0
1.5796104360001664,-0.42377369384765623,-9.679757312011718,1.16837041015625,0,0,0,0
1.5806933360004223,-0.45489831542968745,-9.679757312011718,1.22583125,0,0,0,0
1.5817770500002553,-0.3447650390625,-9.679757312011718,1.3024457031249999,0,0,0,0
1.5829419120000239,-0.33039982910156246,-9.617508068847656,1.2880804931640624,0,0,0,0
1.5840848850002658,-0.2920926025390625,-9.658209497070311,1.3479355346679687,0,0,0,0
1.5851623040002778,-0.22266075439453123,-9.617508068847656,1.3383587280273437,0,0,0,0
1.5862830550004219,-0.21308394775390624,-9.528922607421874,1.3239935180664062,0,0,0,0
1.5873906030001308,-0.22266075439453123,-9.641450085449218,1.3479355346679687,0,0,0,0
1.5886894270001903,-0.35194764404296874,-9.665392102050781,1.3479355346679687,0,0,0,0
1.5898158260001765,-0.46686932373046874,-9.667786303710937,1.24498486328125,0,0,0,0
1.5908945040000617,-0.4572925170898437,-9.6917283203125,1.2569558715820313,0,0,0,0
1.591999644000225,-0.3806780639648437,-9.696516723632811,1.2282254516601563,0,0,0,0
1.5932043570001042,-0.3136404174804687,-9.591171850585937,1.3072341064453123,0,0,0,0
1.5945200890000706,-0.17238251953125,-9.603142858886718,1.3000515014648437,0,0,0,0
1.5956358220000766,-0.24899697265624998,-9.634267480468749,1.2737152832031249,0,0,0,0
1.5967779060001703,-0.29927520751953124,-9.670180505371093,1.2880804931640624,0,0,0,0
1.5979624350002268,-0.3064578125,-9.65342109375,1.2617442749023438,0,0,0,0
1.5994044060003034,-0.34715924072265625,-9.732429748535155,1.2617442749023438,0,0,0,0
1.6005939340002442,-0.33039982910156246,-9.758765966796874,1.2210428466796874,0,0,0,0
1.60179470400044,-0.38786066894531246,-9.734823950195311,1.209071838378906,0,0,0,0
1.6030335100003867,-0.36152445068359373,-9.588777648925781,1.2856862915039062,0,0,0,0
1.6046934610003518,-0.33518823242187495,-9.612719665527344,1.3455413330078123,0,0,0,0
1.607071296000413,-0.23223756103515625,-9.679757312011718,1.2330138549804688,0,0,0,0
1.6084160450000127,-0.15562310791015624,-9.74200655517578,1.1875240234375,0,0,0,0
1.609664184000394,-0.3232172241210937,-9.749189160156249,1.218648645019531,0,0,0,0
1.6109016020000126,-0.3112462158203125,-9.677363110351562,1.3311761230468748,0,0,0,0
1.6120663530000456,-0.22026655273437498,-9.624690673828125,1.3120225097656248,0,0,0,0
1.6132400110000162,-0.3136404174804687,-9.64623848876953,1.2880804931640624,0,0,0,0
1.6145210200002111,-0.39264907226562495,-9.624690673828125,1.39821376953125,0,0,0,0
1.6157405300000391,-0.3399766357421875,-9.6151138671875,1.3383587280273437,0,0,0,0
1.6169192440002007,-0.3112462158203125,-9.631873278808593,1.139639990234375,0,0,0,0
1.6181233830002384,-0.2657563842773437,-9.76116016845703,1.1851298217773436,0,0,0,0
1.6193939110003157,-0.3711012573242187,-9.701305126953125,1.22583125,0,0,0,0
1.6206235320000815,-0.15322890625,-9.593566052246093,1.39821376953125,0,0,0,0
1.6218035790002432,-0.201112939453125,-9.548076220703125,1.3646949462890625,0,0,0,0
1.6230116080000698,-0.32082302246093747,-9.548076220703125,1.369483349609375,0,0,0,0
1.6242293400000563,-0.4860229370117187,-9.53131680908203,1.2569558715820313,0,0,0,0
1.6254547390003609,-0.5315127685546874,-9.708487731933593,1.2785036865234374,0,0,0,0
1.6269378950000828,-0.2609679809570312,-9.739612353515625,1.3168109130859373,0,0,0,0
1.6281283310004255,-0.2753331909179687,-9.665392102050781,1.3192051147460937,0,0,0,0
1.6294674320001832,-0.23702596435546874,-9.583989245605467,1.2856862915039062,0,0,0,0
1.6307147010002154,-0.24660277099609373,-9.593566052246093,1.2856862915039062,0,0,0,0
1.6318942480002079,-0.28012159423828126,-9.509768994140625,1.3144167114257812,0,0,0,0
1.6330692030001046,-0.28012159423828126,-9.679757312011718,1.2569558715820313,0,0,0,0
1.6343192310000632,-0.3399766357421875,-9.7683427734375,1.2593500732421874,0,0,0,0
1.6355568520002635,-0.36631285400390623,-9.698910925292969,1.24498486328125,0,0,0,0
1.6367376400003195,-0.37828386230468747,-9.624690673828125,1.197100830078125,0,0,0,0
1.6379884640000455,-0.37828386230468747,-9.512163195800781,1.3168109130859373,0,0,0,0
1.6398997650003366,-0.28730419921875,-9.555258825683593,1.1563994018554686,0,0,0,0
1.6412017370003014,-0.3064578125,-9.509768994140625,1.2713210815429687,0,0,0,0
1.6423810620003678,-0.2609679809570312,-9.679757312011718,1.2976572998046874,0,0,0,0
1.6438403670003936,-0.2657563842773437,-9.694122521972655,1.3000515014648437,0,0,0,0
1.6451290060003885,-0.32082302246093747,-9.777919580078125,1.2808978881835937,0,0,0,0
1.6466279390001546,-0.22266075439453123,-9.591171850585937,1.35990654296875,0,0,0,0
1.6478123940000842,-0.354341845703125,-9.555258825683593,1.3287819213867187,0,0,0,0
1.6493620860001101,-0.51714755859375,-9.708487731933593,1.2018892333984375,0,0,0,0
1.6509619080002267,-0.41898529052734373,-9.801861596679688,1.2521674682617188,0,0,0,0
1.652569601000323,-0.1771709228515625,-9.706093530273437,1.3000515014648437,0,0,0,0
1.6537587400002849,-0.19871873779296872,-9.794678991699218,1.3359645263671873,0,0,0,0
1.6552323410001009,-0.19871873779296872,-9.830592016601562,1.4053963745117186,0,0,0,0
1.6568067190000875,-0.3495534423828125,-9.81862100830078,1.3623007446289062,0,0,0,0
1.658728538000105,-0.44053310546874996,-9.866505041503906,1.3335703247070312,0,0,0,0
1.6598647340001662,-0.45968671875,-9.832986218261718,1.2330138549804688,0,0,0,0
1.661075596000046,-0.40222587890625,-9.81862100830078,1.3862427612304686,0,0,0,0
1.6622416240002167,-0.32082302246093747,-9.677363110351562,1.2593500732421874,0,0,0,0
1.6633659680001074,-0.26336218261718747,-9.612719665527344,1.2114660400390624,0,0,0,0
1.6644869050001034,-0.23223756103515625,-9.485826977539062,1.2378022583007813,0,0,0,0
1.6656717660002869,-0.14604630126953125,-9.497797985839844,1.2473790649414063,0,0,0,0
1.6667776290000802,-0.14604630126953125,-9.557653027343749,1.209071838378906,0,0,0,0
1.6680103610001424,-0.26815058593749996,-9.64623848876953,1.1947066284179686,0,0,0,0
1.6691690930001641,-0.2920926025390625,-9.78031378173828,1.24498486328125,0,0,0,0
1.6702778260000741,-0.36391865234375,-9.65342109375,1.1947066284179686,0,0,0,0
1.6713689850002993,-0.39983167724609375,-9.727641345214844,1.189918225097656,0,0,0,0
1.6724572180000905,-0.30885201416015623,-9.842563024902343,1.2761094848632812,0,0,0,0
1.673554673000126,-0.39983167724609375,-9.76116016845703,1.2210428466796874,0,0,0,0
1.6747897380000722,-0.3854664672851562,-9.701305126953125,1.2018892333984375,0,0,0,0
1.676040655000179,-0.3687070556640625,-9.610325463867188,1.3814543579101561,0,0,0,0
1.6772714240000823,-0.29448680419921874,-9.713276135253906,1.4149731811523436,0,0,0,0
1.6785211750002418,-0.23223756103515625,-9.605537060546874,1.4030021728515625,0,0,0,0
1.6796257970004262,-0.20829554443359374,-9.543287817382812,1.4508862060546874,0,0,0,0
1.6808649170002354,-0.1771709228515625,-9.564835632324218,1.2880804931640624,0,0,0,0
1.6820645010002409,-0.24660277099609373,-9.672574707031249,1.235408056640625,0,0,0,0
1.683172234000267,-0.3711012573242187,-9.686939916992188,1.199495031738281,0,0,0,0
1.6842673000001014,-0.4955997436523437,-9.643844287109374,1.1755530151367186,0,0,0,0
1.68537690400035,-0.5961562133789062,-9.617508068847656,1.189918225097656,0,0,0,0
1.6864773030001743,-0.3591302490234375,-9.598354455566406,1.1707646118164061,0,0,0,0
1.6876626100001886,-0.3184288208007812,-9.749189160156249,1.24498486328125,0,0,0,0
1.688851046000309,-0.3112462158203125,-9.708487731933593,1.3096283081054687,0,0,0,0
1.6899943520002125,-0.28730419921875,-9.564835632324218,1.43652099609375,0,0,0,0
1.691088678000142,-0.21068974609375,-9.603142858886718,1.4700398193359374,0,0,0,0
1.6921792070002084,-0.1484405029296875,-9.555258825683593,1.3527239379882812,0,0,0,0
1.6933449950001886,-0.27293898925781246,-9.720458740234374,1.3575123413085937,0,0,0,0
1.6945056160002423,-0.3806780639648437,-9.662997900390625,1.2473790649414063,0,0,0,0
1.6955984230003196,-0.4381389038085937,-9.655815295410155,1.1851298217773436,0,0,0,0
1.6968402850002349,-0.4261678955078125,-9.643844287109374,1.2306196533203124,0,0,0,0
1.6980670910002118,-0.4381389038085937,-9.720458740234374,1.2761094848632812,0,0,0,0
1.6992319160003717,-0.41898529052734373,-9.624690673828125,1.3215993164062498,0,0,0,0
1.7003309270003228,-0.39983167724609375,-9.598354455566406,1.2856862915039062,0,0,0,0
1.7015435660000549,-0.22026655273437498,-9.648632690429688,1.3144167114257812,0,0,0,0
1.7027231690003646,-0.20829554443359374,-9.715670336914062,1.455674609375,0,0,0,0
1.7038720870000361,-0.22026655273437498,-9.706093530273437,1.5251064575195312,0,0,0,0
1.705042319000313,-0.26336218261718747,-9.600748657226562,1.3335703247070312,0,0,0,0
1.706228996000391,-0.3591302490234375,-9.639055883789062,1.2832920898437499,0,0,0,0
1.70735411700025,-0.40462008056640625,-9.679757312011718,1.1444283935546875,0,0,0,0
1.7084416650000094,-0.43574470214843747,-9.686939916992188,1.1372457885742187,0,0,0,0
1.7095232680003392,-0.4525041137695312,-9.696516723632811,1.2330138549804688,0,0,0,0
1.7106255940002484,-0.38786066894531246,-9.679757312011718,1.2497732666015624,0,0,0,0
1.711812956000358,-0.3495534423828125,-9.662997900390625,1.2282254516601563,0,0,0,0
1.7136719050004103,-0.16519991455078123,-9.631873278808593,1.3934253662109375,0,0,0,0
1.7150315440003396,-0.13168109130859373,-9.643844287109374,1.35990654296875,0,0,0,0
1.7162472200002412,-0.13168109130859373,-9.677363110351562,1.3359645263671873,0,0,0,0
1.7175033230000736,-0.430956298828125,-9.698910925292969,1.3383587280273437,0,0,0,0
1.7186322030001975,-0.4285620971679687,-9.651026892089844,1.3024457031249999,0,0,0,0
1.719718992000253,-0.411802685546875,-9.660603698730467,1.2018892333984375,0,0,0,0
1.7208011880002232,-0.4070142822265625,-9.6917283203125,1.2018892333984375,0,0,0,0
1.7218851250004263,-0.38786066894531246,-9.744400756835937,1.1276689819335937,0,0,0,0
1.7231017640001483,-0.3399766357421875,-9.715670336914062,1.350329736328125,0,0,0,0
1.7242810890002147,-0.3232172241210937,-9.598354455566406,1.3335703247070312,0,0,0,0
1.7254107660000955,-0.21787235107421873,-9.543287817382812,1.388636962890625,0,0,0,0
1.7265091100002792,-0.2442085693359375,-9.60793126220703,1.4437036010742186,0,0,0,0
1.7276021580000815,-0.28490999755859375,-9.662997900390625,1.3646949462890625,0,0,0,0
1.7291214990000299,-0.2705447875976562,-9.603142858886718,1.2713210815429687,0,0,0,0
1.730337731000418,-0.4381389038085937,-9.600748657226562,1.2665326782226562,0,0,0,0
1.7314325010001994,-0.5147533569335937,-9.662997900390625,1.2665326782226562,0,0,0,0
1.7325209010000435,-0.4429273071289062,-9.763554370117188,1.2282254516601563,0,0,0,0
1.7336088740003106,-0.411802685546875,-9.713276135253906,1.1659762084960936,0,0,0,0
1.735109678000299,-0.39983167724609375,-9.641450085449218,1.1755530151367186,0,0,0,0
1.7363113740002518,-0.29448680419921874,-9.6917283203125,1.2737152832031249,0,0,0,0
1.7374012920004134,-0.2561795776367187,-9.701305126953125,1.350329736328125,0,0,0,0
1.7384921730003953,-0.24660277099609373,-9.591171850585937,1.465251416015625,0,0,0,0
1.7399276810001538,-0.2657563842773437,-9.557653027343749,1.3072341064453123,0,0,0,0
1.741144154000267,-0.28730419921875,-9.648632690429688,1.3742717529296875,0,0,0,0
1.7422428870004296,-0.3064578125,-9.706093530273437,1.2737152832031249,0,0,0,0
1.7433336010003586,-0.44532150878906246,-9.679757312011718,1.20667763671875,0,0,0,0
1.7447568870002215,-0.4525041137695312,-9.643844287109374,1.2425906616210938,0,0,0,0
1.7460311190002358,-0.4525041137695312,-9.65342109375,1.235408056640625,0,0,0,0
1.7471335930003988,-0.30406361083984373,-9.720458740234374,1.3000515014648437,0,0,0,0
1.7482548250000036,-0.20350714111328125,-9.658209497070311,1.3646949462890625,0,0,0,0
1.749713611000061,-0.2154781494140625,-9.586383447265625,1.3838485595703125,0,0,0,0
1.7509552510000503,-0.28012159423828126,-9.583989245605467,1.3096283081054687,0,0,0,0
1.7520484090000537,-0.22266075439453123,-9.514557397460937,1.2593500732421874,0,0,0,0
1.7531349940004475,-0.45010991210937495,-9.677363110351562,1.2904746948242187,0,0,0,0
1.7545675030000893,-0.4908113403320312,-9.689334118652344,1.2401964599609374,0,0,0,0
1.756097121000039,-0.47884033203125,-9.636661682128906,1.1851298217773436,0,0,0,0
1.7572136870003305,-0.4261678955078125,-9.643844287109374,1.2593500732421874,0,0,0,0
1.7583222720004414,-0.4381389038085937,-9.68454571533203,1.2856862915039062,0,0,0,0
1.7599647790002564,-0.2920926025390625,-9.64623848876953,1.3215993164062498,0,0,0,0
1.761592101000133,-0.258573779296875,-9.605537060546874,1.3814543579101561,0,0,0,0
1.7639829910003755,-0.316034619140625,-9.605537060546874,1.3239935180664062,0,0,0,0
