Time (s),Accel X,Accel Y,Accel Z,Gyro X,Gyro Y,Gyro Z,Temperature (C)
0.00719151999510359,9.425971936035156,-1.7836802368164062,3.907337109375,0,0,0,0
0.008958867998444475,9.382876306152344,-1.7741034301757812,3.859453076171875,0,0,0,0
0.010344368987716734,9.361328491210937,-1.7405846069335937,3.873818286132812,0,0,0,0
0.011620722987572663,9.418789331054686,-1.7645266235351562,3.8474820678710935,0,0,0,0
0.012806670987629332,9.457096557617186,-1.7214309936523438,3.801992236328125,0,0,0,0
0.013993859989568591,9.478644372558593,-1.7621324218749999,3.821145849609375,0,0,0,0
0.015374249996966682,9.404424121093749,-1.7477672119140624,3.842693664550781,0,0,0,0
0.016747287998441607,9.433154541015625,-1.7262193969726563,3.900154504394531,0,0,0,0
0.017941902988241054,9.392453112792968,-1.7764976318359373,3.900154504394531,0,0,0,0
0.019110424997052178,9.392453112792968,-1.8219874633789062,3.83072265625,0,0,0,0
0.020416407991433516,9.428366137695312,-1.7501614135742187,3.833116857910156,0,0,0,0
0.021790427999803796,9.41639512939453,-1.8076222534179687,3.8762124877929685,0,0,0,0
0.022968912991927937,9.30147344970703,-1.7788918334960937,3.7924154296875,0,0,0,0
0.024047658997005783,9.370905297851563,-1.7836802368164062,3.816357446289062,0,0,0,0
0.025274420986534096,9.363722692871093,-1.8028338500976562,3.8953661010742184,0,0,0,0
0.026469572985661216,9.363722692871093,-1.7860744384765623,3.8474820678710935,0,0,0,0
0.02755715099920053,9.409212524414063,-1.7405846069335937,3.881000891113281,0,0,0,0
0.02863324899226427,9.373299499511718,-1.8004396484374998,3.8690298828125,0,0,0,0
0.029716827993979678,9.33978067626953,-1.8531120849609375,3.921702319335937,0,0,0,0
0.031241937991580926,9.363722692871093,-1.7956512451171873,3.909731311035156,0,0,0,0
0.03242516399768647,9.34696328125,-1.8028338500976562,3.892971899414062,0,0,0,0
0.03351135399134364,9.337386474609374,-1.7884686401367187,3.821145849609375,0,0,0,0
0.034580784995341673,9.315838659667968,-1.8291700683593748,3.801992236328125,0,0,0,0
0.035654307997901924,9.241618408203124,-1.8124106567382812,3.756502404785156,0,0,0,0
0.037405063994810916,9.392453112792968,-1.8052280517578123,3.7708676147460936,0,0,0,0
0.038555511986487545,9.334992272949219,-1.7741034301757812,3.794809631347656,0,0,0,0
0.03963427599228453,9.390058911132812,-1.7669208251953124,3.7301661865234372,0,0,0,0
0.040706947998842224,9.397241516113281,-1.7214309936523438,3.6583401367187496,0,0,0,0
0.04198646899021696,9.409212524414063,-1.7190367919921874,3.6248213134765623,0,0,0,0
0.043429505996755324,9.435548742675781,-1.7621324218749999,3.6679169433593746,0,0,0,0
0.044876005995320156,9.45470235595703,-1.7597382202148437,3.706224169921875,0,0,0,0
0.0459827889862936,9.440337145996093,-1.7357962036132812,3.641580725097656,0,0,0,0
0.04708818199287634,9.45470235595703,-1.8076222534179687,3.7038299682617186,0,0,0,0
0.04861656999855768,9.464279162597656,-1.7022773803710936,3.7229835815429686,0,0,0,0
0.05004347799695097,9.485826977539062,-1.7357962036132812,3.708618371582031,0,0,0,0
0.05114229799073655,9.423577734375,-1.695094775390625,3.670311145019531,0,0,0,0
0.05222520999086555,9.471461767578125,-1.7310078002929687,3.7325603881835936,0,0,0,0
0.05331515899160877,9.380482104492186,-1.707065783691406,3.6750995483398436,0,0,0,0
0.05630884299171157,9.605537060546874,-1.7262193969726563,3.7229835815429686,0,0,0,0
0.057540827998309396,9.576806640625,-1.8076222534179687,3.749319799804687,0,0,0,0
0.058780274994205683,9.56962403564453,-1.6639701538085936,3.6559459350585937,0,0,0,0
0.06083034198672976,9.629479077148437,-1.6400281372070311,3.6008792968749996,0,0,0,0
0.06206119699345436,9.622296472167967,-1.6639701538085936,3.6942531616210936,0,0,0,0
0.06316120098927058,9.612719665527344,-1.6998831787109374,3.687070556640625,0,0,0,0
0.06425146499532275,9.631873278808593,-1.656787548828125,3.5913024902343746,0,0,0,0
0.06543443199188914,9.708487731933593,-1.6807295654296874,3.6727053466796873,0,0,0,0
0.0666100089874817,9.744400756835937,-1.7022773803710936,3.7134067749023436,0,0,0,0
0.0677077919972362,9.756371765136718,-1.6807295654296874,3.5889082885742187,0,0,0,0
0.06879535199550446,9.7683427734375,-1.6256629272460936,3.5697546752929687,0,0,0,0
0.06987735698930919,9.744400756835937,-1.6735469604492186,3.632003918457031,0,0,0,0
0.07103465699765366,9.720458740234374,-1.6400281372070311,3.660734338378906,0,0,0,0
0.07219769799849018,9.674968908691406,-1.6160861206054686,3.6008792968749996,0,0,0,0
0.07329492499411572,9.701305126953125,-1.6065093139648436,3.42849677734375,0,0,0,0
0.07438039299449883,9.648632690429688,-1.5658078857421873,3.6463691284179687,0,0,0,0
0.07546754599025007,9.643844287109374,-1.5921441040039062,3.622427111816406,0,0,0,0
0.07668989998637699,9.787496386718749,-1.618480322265625,3.641580725097656,0,0,0,0
0.07785969998803921,9.651026892089844,-1.6208745239257811,3.6008792968749996,0,0,0,0
0.07900085298751947,9.662997900390625,-1.6903063720703124,3.593696691894531,0,0,0,0
0.08009398699505255,9.610325463867188,-1.6615759521484375,3.6200329101562496,0,0,0,0
0.08127041699481197,9.591171850585937,-1.687912170410156,3.5314474487304683,0,0,0,0
0.08243754999421071,9.600748657226562,-1.6352397338867186,3.6248213134765623,0,0,0,0
0.08353170299960766,9.550470422363281,-1.649604943847656,3.660734338378906,0,0,0,0
0.08461574499960989,9.598354455566406,-1.6304513305664061,3.6559459350585937,0,0,0,0
0.0856976569921244,9.540893615722656,-1.5897499023437498,3.7134067749023436,0,0,0,0
0.08687578998797107,9.536105212402344,-1.5753846923828123,3.6631285400390623,0,0,0,0
0.08801896098884754,9.504980590820312,-1.6065093139648436,3.6559459350585937,0,0,0,0
0.0891698719933629,9.526528405761718,-1.6112977172851561,3.7301661865234372,0,0,0,0
0.09025920998828951,9.507374792480467,-1.6232687255859375,3.708618371582031,0,0,0,0
0.09134430799167603,9.543287817382812,-1.6807295654296874,3.6535517333984373,0,0,0,0
0.09251575599773787,9.514557397460937,-1.6160861206054686,3.6918589599609373,0,0,0,0
0.09371549999923445,9.519345800781249,-1.6639701538085936,3.7397429931640622,0,0,0,0
0.09481811599107459,9.459490759277344,-1.678335363769531,3.6463691284179687,0,0,0,0
0.09590649099845905,9.488221179199218,-1.656787548828125,3.7517140014648436,0,0,0,0
0.09731041699706111,9.449913952636718,-1.6472107421875,3.6343981201171873,0,0,0,0
0.09892689698608592,9.430760339355468,-1.7118541870117185,3.7038299682617186,0,0,0,0
0.10050891399441753,9.428366137695312,-1.6711527587890624,3.6679169433593746,0,0,0,0
0.10175228699517902,9.440337145996093,-1.7549498168945312,3.6559459350585937,0,0,0,0
0.10290138398704585,9.449913952636718,-1.7932570434570312,3.768473413085937,0,0,0,0
0.10407046199543402,9.4618849609375,-1.7525556152343749,3.787627026367187,0,0,0,0
0.10516950298915617,9.452308154296874,-1.7884686401367187,3.7325603881835936,0,0,0,0
0.10625700799573679,9.509768994140625,-1.7788918334960937,3.7134067749023436,0,0,0,0
0.10733851298573427,9.516951599121093,-1.7525556152343749,3.754108203125,0,0,0,0
0.1084232949942816,9.514557397460937,-1.7453730102539062,3.7205893798828122,0,0,0,0
0.10957735498959664,9.528922607421874,-1.6998831787109374,3.727771984863281,0,0,0,0
0.11072243298985995,9.564835632324218,-1.7094599853515624,3.763685009765625,0,0,0,0
0.11180441899341531,9.524134204101562,-1.707065783691406,3.7325603881835936,0,0,0,0
0.11287662798713427,9.567229833984374,-1.6903063720703124,3.7995980346679685,0,0,0,0
0.11406459398858715,9.595960253906249,-1.678335363769531,3.8139632446289062,0,0,0,0
0.1152278569934424,9.610325463867188,-1.7094599853515624,3.7421371948242186,0,0,0,0
0.1163221209862968,9.622296472167967,-1.675941162109375,3.7708676147460936,0,0,0,0
0.11741077399346977,9.619902270507811,-1.7381904052734374,3.763685009765625,0,0,0,0
0.11849696398712695,9.629479077148437,-1.7310078002929687,3.7038299682617186,0,0,0,0
0.11966243099595886,9.639055883789062,-1.7980454467773437,3.6750995483398436,0,0,0,0
0.12081745298928581,9.545682019042967,-1.6998831787109374,3.651157531738281,0,0,0,0
0.1219335129862884,9.593566052246093,-1.7334020019531249,3.73495458984375,0,0,0,0
0.12302911099686753,9.540893615722656,-1.6998831787109374,3.744531396484375,0,0,0,0
0.12464507199183572,9.507374792480467,-1.70467158203125,3.842693664550781,0,0,0,0
0.12584477898781188,9.617508068847656,-1.6998831787109374,3.782838623046875,0,0,0,0
0.12692944999434985,9.643844287109374,-1.7334020019531249,3.7804444213867185,0,0,0,0
0.12800371399498545,9.627084875488281,-1.7405846069335937,3.708618371582031,0,0,0,0
0.1290911079995567,9.65342109375,-1.707065783691406,3.7110125732421873,0,0,0,0
0.13083304899919312,9.634267480468749,-1.7549498168945312,3.6679169433593746,0,0,0,0
0.13200942298863083,9.701305126953125,-1.7190367919921874,3.746925598144531,0,0,0,0
0.13312101998599246,9.639055883789062,-1.697488977050781,3.7804444213867185,0,0,0,0
0.13419467299536336,9.610325463867188,-1.7286135986328124,3.7325603881835936,0,0,0,0
0.13526591898698825,9.622296472167967,-1.70467158203125,3.746925598144531,0,0,0,0
0.13700774899916723,9.605537060546874,-1.7262193969726563,3.782838623046875,0,0,0,0
0.1402108009933727,9.610325463867188,-1.7669208251953124,3.835511059570312,0,0,0,0
0.14229755199630745,9.629479077148437,-1.7908628417968748,3.785232824707031,0,0,0,0
0.14383662499312777,9.639055883789062,-1.8267758666992187,3.897760302734375,0,0,0,0
0.14579532299831044,9.605537060546874,-1.7836802368164062,3.854664672851562,0,0,0,0
0.14714586098853033,9.622296472167967,-1.714248388671875,3.9049429077148434,0,0,0,0
0.14840188199013937,9.643844287109374,-1.7788918334960937,3.797203833007812,0,0,0,0
0.14967869999236427,9.533711010742186,-1.7669208251953124,3.8570588745117185,0,0,0,0
0.15151304699247703,9.674968908691406,-1.7573440185546874,3.864241479492187,0,0,0,0
0.1530075459886575,9.665392102050781,-1.7214309936523438,3.881000891113281,0,0,0,0
0.1542387709923787,9.70369932861328,-1.7932570434570312,3.840299462890625,0,0,0,0
0.1554229229950579,9.667786303710937,-1.7860744384765623,3.883395092773437,0,0,0,0
0.15651342799537815,9.648632690429688,-1.7621324218749999,3.919308117675781,0,0,0,0
0.15777848599827848,9.756371765136718,-1.7549498168945312,3.8666356811523435,0,0,0,0
0.15956964799261186,9.6917283203125,-1.8531120849609375,3.995922570800781,0,0,0,0
0.16076591098681092,9.708487731933593,-1.8435352783203125,3.9528269409179684,0,0,0,0
0.16186202698736452,9.720458740234374,-1.8195932617187498,3.909731311035156,0,0,0,0
0.16294929099967703,9.689334118652344,-1.8507178833007811,3.852270471191406,0,0,0,0
0.1645395119994646,9.797073193359374,-1.85790048828125,3.902548706054687,0,0,0,0
0.16649504199449439,9.6917283203125,-1.8267758666992187,3.9432501342773434,0,0,0,0
0.16820644699328113,9.612719665527344,-1.8100164550781248,3.9624037475585934,0,0,0,0
0.170202902998426,9.591171850585937,-1.7860744384765623,4.000710974121094,0,0,0,0
0.1715454409859376,9.591171850585937,-1.8698714965820311,3.986345764160156,0,0,0,0
0.172861072991509,9.56962403564453,-1.8411410766601561,3.909731311035156,0,0,0,0
0.17408863198943436,9.586383447265625,-1.8698714965820311,3.900154504394531,0,0,0,0
0.17535255999246147,9.593566052246093,-1.8555062866210936,3.8666356811523435,0,0,0,0
0.1769848169933539,9.60793126220703,-1.8531120849609375,3.8762124877929685,0,0,0,0
0.1784126139973523,9.557653027343749,-1.848323681640625,3.883395092773437,0,0,0,0
0.17968598699371796,9.586383447265625,-1.848323681640625,3.8953661010742184,0,0,0,0
0.18124672598787583,9.572018237304688,-1.889025109863281,3.8474820678710935,0,0,0,0
0.18240047099243384,9.567229833984374,-1.8722656982421875,3.8043864379882812,0,0,0,0
0.18367006599146407,9.600748657226562,-1.85790048828125,3.81156904296875,0,0,0,0
0.18483573599951342,9.591171850585937,-1.8770541015625,3.821145849609375,0,0,0,0
0.18593224098731298,9.579200842285156,-1.7908628417968748,3.806780639648437,0,0,0,0
0.1872937419975642,9.5384994140625,-1.8267758666992187,3.7900212280273435,0,0,0,0
0.18849300500005484,9.572018237304688,-1.8459294799804686,3.8187516479492185,0,0,0,0
0.18969893398752902,9.545682019042967,-1.7621324218749999,3.871424084472656,0,0,0,0
0.19115185999544337,9.560047229003906,-1.8028338500976562,3.873818286132812,0,0,0,0
0.19228504999773577,9.593566052246093,-1.7573440185546874,3.7804444213867185,0,0,0,0
0.19363740299013443,9.591171850585937,-1.7429788085937499,3.8043864379882812,0,0,0,0
0.1949142759985989,9.564835632324218,-1.8076222534179687,3.775656018066406,0,0,0,0
0.19611603798693977,9.557653027343749,-1.7764976318359373,3.7014357666015623,0,0,0,0
0.19720563499140553,9.528922607421874,-1.7525556152343749,3.7924154296875,0,0,0,0
0.1982829549961025,9.540893615722656,-1.7741034301757812,3.7995980346679685,0,0,0,0
0.1997707879927475,9.521740002441407,-1.7525556152343749,3.864241479492187,0,0,0,0
0.20105849399988074,9.528922607421874,-1.7262193969726563,3.7134067749023436,0,0,0,0
0.2022870529908687,9.543287817382812,-1.7645266235351562,3.756502404785156,0,0,0,0
0.203382112988038,9.548076220703125,-1.7094599853515624,3.7804444213867185,0,0,0,0
0.2044633769983193,9.550470422363281,-1.659181750488281,3.83072265625,0,0,0,0
0.20555345599132124,9.555258825683593,-1.6998831787109374,3.7517140014648436,0,0,0,0
0.2068056439893553,9.639055883789062,-1.6711527587890624,3.73495458984375,0,0,0,0
0.207994072989095,9.60793126220703,-1.70467158203125,3.8235400512695312,0,0,0,0
0.20909626298816875,9.552864624023437,-1.7453730102539062,3.69664736328125,0,0,0,0
0.21053924498846754,9.60793126220703,-1.687912170410156,3.7612908081054686,0,0,0,0
0.2116837299981853,9.60793126220703,-1.7693150268554687,3.727771984863281,0,0,0,0
0.2129740469972603,9.567229833984374,-1.7477672119140624,3.7397429931640622,0,0,0,0
0.2141703279921785,9.586383447265625,-1.66636435546875,3.7708676147460936,0,0,0,0
0.21527275898552034,9.509768994140625,-1.7860744384765623,3.758896606445312,0,0,0,0
0.21636178198968992,9.49300958251953,-1.7453730102539062,3.775656018066406,0,0,0,0
0.21747752699593548,9.449913952636718,-1.7717092285156248,3.7134067749023436,0,0,0,0
0.21857090199773666,9.423577734375,-1.7214309936523438,3.689464758300781,0,0,0,0
0.21981688699452206,9.447519750976562,-1.7669208251953124,3.7134067749023436,0,0,0,0
0.22103353799320757,9.466673364257812,-1.7453730102539062,3.8187516479492185,0,0,0,0
0.22243859399168286,9.435548742675781,-1.7501614135742187,3.835511059570312,0,0,0,0
0.22358741299831308,9.435548742675781,-1.7118541870117185,3.754108203125,0,0,0,0
0.22472937998827547,9.37808790283203,-1.6831237670898436,3.744531396484375,0,0,0,0
0.22599064199312124,9.390058911132812,-1.70467158203125,3.787627026367187,0,0,0,0
0.22750914099742658,9.404424121093749,-1.695094775390625,3.806780639648437,0,0,0,0
0.22880090298713185,9.387664709472656,-1.6831237670898436,3.766079211425781,0,0,0,0
0.23000742399017327,9.425971936035156,-1.7429788085937499,3.6846763549804686,0,0,0,0
0.2311871499987319,9.435548742675781,-1.838746875,3.6846763549804686,0,0,0,0
0.2324005609989399,9.382876306152344,-1.6807295654296874,3.787627026367187,0,0,0,0
0.23360706398671027,9.435548742675781,-1.656787548828125,3.763685009765625,0,0,0,0
0.23506280498986598,9.435548742675781,-1.7453730102539062,3.708618371582031,0,0,0,0
0.23621375299990177,9.457096557617186,-1.6735469604492186,3.727771984863281,0,0,0,0
0.23732125799870118,9.49300958251953,-1.7334020019531249,3.77326181640625,0,0,0,0
0.2385599269910017,9.524134204101562,-1.695094775390625,3.758896606445312,0,0,0,0
0.2403251089999685,9.485826977539062,-1.7094599853515624,3.778050219726562,0,0,0,0
0.24147790898859967,9.612719665527344,-1.6927005737304686,3.756502404785156,0,0,0,0
0.24264000498806126,9.6151138671875,-1.6448165405273436,3.7804444213867185,0,0,0,0
0.2438873409992084,9.557653027343749,-1.6735469604492186,3.794809631347656,0,0,0,0
0.2450759189960081,9.567229833984374,-1.687912170410156,3.7110125732421873,0,0,0,0
0.246490196994273,9.593566052246093,-1.678335363769531,3.6822821533203123,0,0,0,0
0.24765157198999077,9.631873278808593,-1.6615759521484375,3.7014357666015623,0,0,0,0
0.2487902419961756,9.610325463867188,-1.6927005737304686,3.775656018066406,0,0,0,0
0.2500966329971561,9.555258825683593,-1.7214309936523438,3.6822821533203123,0,0,0,0
0.2513758389977738,9.622296472167967,-1.68551796875,3.6942531616210936,0,0,0,0
0.2530140039889375,9.65342109375,-1.6903063720703124,3.6918589599609373,0,0,0,0
0.25434169099025894,9.686939916992188,-1.6639701538085936,3.689464758300781,0,0,0,0
0.25551204598741606,9.686939916992188,-1.707065783691406,3.6727053466796873,0,0,0,0
0.2566046989959432,9.648632690429688,-1.70467158203125,3.6296097167968746,0,0,0,0
0.2578041839879006,9.629479077148437,-1.7549498168945312,3.5889082885742187,0,0,0,0
0.2589535029983381,9.634267480468749,-1.7908628417968748,3.699041564941406,0,0,0,0
0.2600491739867721,9.677363110351562,-1.8195932617187498,3.725377783203125,0,0,0,0
0.2611434749996988,9.634267480468749,-1.7334020019531249,3.7158009765625,0,0,0,0
0.26222775799396913,9.617508068847656,-1.7262193969726563,3.718195178222656,0,0,0,0
0.2633939089864725,9.631873278808593,-1.7334020019531249,3.6679169433593746,0,0,0,0
0.2645548209984554,9.56962403564453,-1.7166425903320313,3.69664736328125,0,0,0,0
0.2656612699938705,9.550470422363281,-1.7669208251953124,3.699041564941406,0,0,0,0
0.26674842298962176,9.562441430664062,-1.7956512451171873,3.7134067749023436,0,0,0,0
0.2678373529925011,9.598354455566406,-1.7812860351562498,3.660734338378906,0,0,0,0
0.26901631998771336,9.629479077148437,-1.7214309936523438,3.7924154296875,0,0,0,0
0.27017713799432386,9.624690673828125,-1.6160861206054686,3.7612908081054686,0,0,0,0
0.27127306899637915,9.576806640625,-1.7717092285156248,3.8690298828125,0,0,0,0
0.27235333299904596,9.600748657226562,-1.7741034301757812,3.84987626953125,0,0,0,0
0.27344680098758545,9.64623848876953,-1.8004396484374998,3.7229835815429686,0,0,0,0
0.274533508985769,9.631873278808593,-1.7022773803710936,3.8235400512695312,0,0,0,0
0.27571740199346095,9.617508068847656,-1.7357962036132812,3.842693664550781,0,0,0,0
0.2768600909912493,9.660603698730467,-1.7741034301757812,3.794809631347656,0,0,0,0
0.277943447988946,9.730035546875,-1.6998831787109374,3.7804444213867185,0,0,0,0
0.27901702698727604,9.641450085449218,-1.7357962036132812,3.83072265625,0,0,0,0
0.2801606599969091,9.660603698730467,-1.8315642700195311,3.8187516479492185,0,0,0,0
0.28132127498975024,9.674968908691406,-1.7884686401367187,3.7421371948242186,0,0,0,0
0.28242111299186945,9.758765966796874,-1.7477672119140624,3.706224169921875,0,0,0,0
0.283507654996356,9.667786303710937,-1.7549498168945312,3.687070556640625,0,0,0,0
0.28459219698561355,9.701305126953125,-1.7836802368164062,3.746925598144531,0,0,0,0
0.2857861999946181,9.694122521972655,-1.8148048583984373,3.758896606445312,0,0,0,0
0.28693125999416225,9.701305126953125,-1.7836802368164062,3.816357446289062,0,0,0,0
0.28802943098708056,9.667786303710937,-1.7381904052734374,3.746925598144531,0,0,0,0
0.28911510299076326,9.662997900390625,-1.7836802368164062,3.7397429931640622,0,0,0,0
0.29018849598651286,9.643844287109374,-1.7238251953125,3.766079211425781,0,0,0,0
0.2913399079989176,9.639055883789062,-1.7884686401367187,3.756502404785156,0,0,0,0
0.2924905229883734,9.576806640625,-1.85790048828125,3.8091748413085935,0,0,0,0
0.29396572599944193,9.564835632324218,-1.7980454467773437,3.797203833007812,0,0,0,0
0.29506806399149355,9.648632690429688,-1.8267758666992187,3.833116857910156,0,0,0,0
0.29622699398896657,9.655815295410155,-1.8243816650390623,3.871424084472656,0,0,0,0
0.29757181099557783,9.545682019042967,-1.8028338500976562,3.864241479492187,0,0,0,0
0.2987216289911885,9.509768994140625,-1.9033903198242186,3.871424084472656,0,0,0,0
0.29993761399236973,9.5384994140625,-1.85790048828125,3.766079211425781,0,0,0,0
0.3010945069981972,9.658209497070311,-1.8124106567382812,3.766079211425781,0,0,0,0
0.30248902599851135,9.524134204101562,-1.8435352783203125,3.787627026367187,0,0,0,0
0.30367047399340663,9.53131680908203,-1.838746875,3.835511059570312,0,0,0,0
0.3048558479931671,9.557653027343749,-1.8507178833007811,3.77326181640625,0,0,0,0
0.3059864819952054,9.581595043945311,-1.867477294921875,3.73495458984375,0,0,0,0
0.3070787459873827,9.591171850585937,-1.848323681640625,3.8043864379882812,0,0,0,0
0.30825015698792413,9.514557397460937,-1.898601916503906,3.859453076171875,0,0,0,0
0.30943101199227385,9.509768994140625,-1.9129671264648436,3.797203833007812,0,0,0,0
0.31080340199696366,9.524134204101562,-1.8842367065429686,3.775656018066406,0,0,0,0
0.31352062699443195,9.572018237304688,-1.886630908203125,3.7804444213867185,0,0,0,0
0.31509914399066474,9.610325463867188,-1.848323681640625,3.758896606445312,0,0,0,0
0.3179774039890617,9.665392102050781,-1.7190367919921874,3.928884924316406,0,0,0,0
0.3195929389912635,9.56962403564453,-1.7788918334960937,3.9240965209960934,0,0,0,0
0.32198707599309273,9.617508068847656,-1.7525556152343749,3.871424084472656,0,0,0,0
0.32388862599327695,9.560047229003906,-1.7477672119140624,3.81156904296875,0,0,0,0
0.32515429498744197,9.610325463867188,-1.7525556152343749,3.8235400512695312,0,0,0,0
0.32627439199131913,9.627084875488281,-1.7860744384765623,3.7804444213867185,0,0,0,0
0.32737389698741026,9.624690673828125,-1.7884686401367187,3.7995980346679685,0,0,0,0
0.3286818239866989,9.64623848876953,-1.8219874633789062,3.785232824707031,0,0,0,0
0.3298177919932641,9.718064538574218,-1.8339584716796873,3.744531396484375,0,0,0,0
0.3309969619876938,9.72285294189453,-1.85790048828125,3.794809631347656,0,0,0,0
0.3323383339884458,9.682151513671874,-1.85790048828125,3.706224169921875,0,0,0,0
0.33345918999111746,9.686939916992188,-1.8076222534179687,3.7038299682617186,0,0,0,0
0.33478122898668516,9.636661682128906,-1.8219874633789062,3.6535517333984373,0,0,0,0
0.33607160099199973,9.677363110351562,-1.8339584716796873,3.754108203125,0,0,0,0
0.3375501569971675,9.634267480468749,-1.898601916503906,3.763685009765625,0,0,0,0
0.3389126579859294,9.595960253906249,-1.9321207397460936,3.7995980346679685,0,0,0,0
0.34001403299043886,9.60793126220703,-1.924938134765625,3.794809631347656,0,0,0,0
0.3411361859907629,9.576806640625,-1.9680337646484374,3.746925598144531,0,0,0,0
0.3428550529934,9.598354455566406,-1.9871873779296874,3.816357446289062,0,0,0,0
0.34442268099519424,9.526528405761718,-2.0470424194335934,3.797203833007812,0,0,0,0
0.3456022029859014,9.545682019042967,-2.0374656127929685,3.833116857910156,0,0,0,0
0.346740762994159,9.483432775878907,-2.0446482177734375,3.845087866210937,0,0,0,0
0.3485423329984769,9.41639512939453,-2.023100402832031,3.9552211425781247,0,0,0,0
0.3497089099982986,9.394847314453125,-1.9967641845703124,3.9600095458984375,0,0,0,0
0.3508058969891863,9.366116894531249,-2.051830822753906,3.9432501342773434,0,0,0,0
0.3518963829992572,9.327809667968749,-2.0350714111328125,3.9336733276367184,0,0,0,0
0.3530105719983112,9.49300958251953,-2.0638018310546875,3.9360675292968748,0,0,0,0
0.3547171619866276,9.361328491210937,-2.013523596191406,3.967192150878906,0,0,0,0
0.35589618398807943,9.306261853027344,-1.9800047729492187,3.9312791259765625,0,0,0,0
0.3573726469912799,9.313444458007812,-2.01112939453125,3.9408559326171875,0,0,0,0
0.35851552098756656,9.33978067626953,-2.01112939453125,3.8857892944335934,0,0,0,0
0.3600476499996148,9.320627062988281,-2.0278888061523435,3.890577697753906,0,0,0,0
0.36145329898863565,9.258377819824219,-1.9991583862304687,3.8690298828125,0,0,0,0
0.36255143299058545,9.289502441406249,-2.0063409912109376,3.9528269409179684,0,0,0,0
0.3636371419997886,9.344569079589844,-1.9632453613281249,3.938461730957031,0,0,0,0
0.3647227019973798,9.330203869628905,-2.0087351928710935,3.9240965209960934,0,0,0,0
0.3658118729945272,9.325415466308593,-2.0159177978515626,4.000710974121094,0,0,0,0
0.3675430739967851,9.3086560546875,-2.0470424194335934,3.9695863525390624,0,0,0,0
0.368997795987525,9.303867651367186,-2.068590234375,4.017470385742187,0,0,0,0
0.3702080029906938,9.495403784179686,-2.0638018310546875,3.995922570800781,0,0,0,0
0.37134545198932756,9.363722692871093,-2.070984436035156,4.053383410644531,0,0,0,0
0.37343251799757127,9.361328491210937,-2.1260510742187497,4.017470385742187,0,0,0,0
0.3746498169930419,9.373299499511718,-2.104503259277344,4.036623999023437,0,0,0,0
0.3759380789997522,9.399635717773437,-2.1164742675781247,3.9983167724609374,0,0,0,0
0.3772487659880426,9.449913952636718,-2.1164742675781247,3.9935283691406247,0,0,0,0
0.37846349099709187,9.406818322753905,-2.0733786376953125,3.986345764160156,0,0,0,0
0.3797423449868802,9.392453112792968,-2.0829554443359375,4.00310517578125,0,0,0,0
0.3810549029876711,9.473855969238281,-2.0159177978515626,3.9600095458984375,0,0,0,0
0.38227559099323116,9.49300958251953,-1.9919757812499999,3.928884924316406,0,0,0,0
0.38360803699470125,9.502586389160156,-2.051830822753906,3.9719805541992184,0,0,0,0
0.38474987499648705,9.519345800781249,-2.01112939453125,4.127603662109375,0,0,0,0
0.3858382499893196,9.53131680908203,-2.04943662109375,3.859453076171875,0,0,0,0
0.38691982899035793,9.548076220703125,-2.059013427734375,3.8666356811523435,0,0,0,0
0.38814305399137083,9.528922607421874,-2.0925322509765625,3.816357446289062,0,0,0,0
0.389449574999162,9.548076220703125,-2.039859814453125,3.77326181640625,0,0,0,0
0.3906701329979114,9.600748657226562,-2.104503259277344,3.9791631591796874,0,0,0,0
0.39179817399417516,9.581595043945311,-2.1068974609374997,3.83072265625,0,0,0,0
0.39289817899407353,9.605537060546874,-2.0829554443359375,3.88818349609375,0,0,0,0
0.39406547899125144,9.672574707031249,-2.0781670410156248,3.873818286132812,0,0,0,0
0.3952353719942039,9.598354455566406,-2.068590234375,3.900154504394531,0,0,0,0
0.39633635799691547,9.586383447265625,-2.0661960327148434,3.9360675292968748,0,0,0,0
0.3974246769939782,9.550470422363281,-2.020706201171875,3.9552211425781247,0,0,0,0
0.39849684899672866,9.516951599121093,-2.0566192260742184,3.9336733276367184,0,0,0,0
0.3996610009926371,9.591171850585937,-2.085349645996094,3.9791631591796874,0,0,0,0
0.40102602099068463,9.550470422363281,-2.0159177978515626,3.948038537597656,0,0,0,0
0.402173820999451,9.418789331054686,-2.003946789550781,3.9169139160156248,0,0,0,0
0.40329438098706305,9.514557397460937,-2.039859814453125,4.017470385742187,0,0,0,0
0.4045086249971064,9.447519750976562,-2.051830822753906,4.007893579101562,0,0,0,0
0.40580429398687556,9.49300958251953,-2.090138049316406,3.9456443359374997,0,0,0,0
0.40693727899633814,9.483432775878907,-2.1260510742187497,3.976768957519531,0,0,0,0
0.40806417299609166,9.576806640625,-2.109291662597656,3.9647979492187497,0,0,0,0
0.40916580699558835,9.560047229003906,-2.114080065917969,3.976768957519531,0,0,0,0
0.41039864299818873,9.560047229003906,-2.0542250244140625,3.9504327392578125,0,0,0,0
0.4116302009933861,9.521740002441407,-2.0374656127929685,3.976768957519531,0,0,0,0
0.4128249089990277,9.562441430664062,-2.0661960327148434,4.082113830566406,0,0,0,0
0.4139664499962237,9.536105212402344,-2.085349645996094,3.9983167724609374,0,0,0,0
0.41519472999789286,9.581595043945311,-2.042254016113281,3.9312791259765625,0,0,0,0
0.4164068449899787,9.490615380859374,-2.080561242675781,3.995922570800781,0,0,0,0
0.41751395999745,9.466673364257812,-2.080561242675781,4.031835595703125,0,0,0,0
0.4186025019880617,9.488221179199218,-2.0829554443359375,4.019864587402344,0,0,0,0
0.4196934509964194,9.425971936035156,-2.104503259277344,3.976768957519531,0,0,0,0
0.42078799298906233,9.440337145996093,-2.085349645996094,3.995922570800781,0,0,0,0
0.42203529199468903,9.485826977539062,-2.123656872558594,3.84987626953125,0,0,0,0
0.42324855498736724,9.447519750976562,-2.094926452636719,3.9336733276367184,0,0,0,0
0.4244994649925502,9.471461767578125,-2.138022082519531,3.921702319335937,0,0,0,0
0.42560756199236494,9.452308154296874,-2.1643583007812497,3.986345764160156,0,0,0,0
0.42668952999520116,9.418789331054686,-2.1308394775390624,3.8762124877929685,0,0,0,0
0.4277727379958378,9.442731347656249,-2.133233679199219,3.8690298828125,0,0,0,0
0.4310996399872238,9.634267480468749,-2.068590234375,3.787627026367187,0,0,0,0
0.4322785519907484,9.677363110351562,-2.0781670410156248,3.842693664550781,0,0,0,0
0.4334922579873819,9.706093530273437,-2.0925322509765625,3.881000891113281,0,0,0,0
0.434734316993854,9.698910925292969,-2.0829554443359375,3.967192150878906,0,0,0,0
0.4359385419957107,9.713276135253906,-2.123656872558594,3.9360675292968748,0,0,0,0
0.43713967499206774,9.739612353515625,-2.0925322509765625,3.9432501342773434,0,0,0,0
0.43824262398993596,9.789890588378906,-2.0781670410156248,3.9312791259765625,0,0,0,0
0.43933383299736306,9.794678991699218,-1.9919757812499999,3.9456443359374997,0,0,0,0
0.440904701987165,9.710881933593749,-2.042254016113281,3.88818349609375,0,0,0,0
0.4421096489968477,9.6917283203125,-2.0374656127929685,3.907337109375,0,0,0,0
0.44349827998667024,9.670180505371093,-2.0350714111328125,3.821145849609375,0,0,0,0
0.44459319199086167,9.636661682128906,-2.0973206542968748,3.9360675292968748,0,0,0,0
0.4457325849944027,9.605537060546874,-2.0661960327148434,3.8953661010742184,0,0,0,0
0.4480463149957359,9.593566052246093,-2.0973206542968748,3.8570588745117185,0,0,0,0
0.4492889849934727,9.548076220703125,-2.042254016113281,3.845087866210937,0,0,0,0
0.45046263599942904,9.552864624023437,-2.0925322509765625,3.897760302734375,0,0,0,0
0.45199102399055846,9.514557397460937,-2.059013427734375,3.921702319335937,0,0,0,0
0.4532520639913855,9.490615380859374,-2.061407629394531,3.9264907226562498,0,0,0,0
0.45462497299013194,9.514557397460937,-2.0542250244140625,3.938461730957031,0,0,0,0
0.4559583629888948,9.514557397460937,-2.142810485839844,3.928884924316406,0,0,0,0
0.4571701259992551,9.548076220703125,-2.0973206542968748,3.928884924316406,0,0,0,0
0.45836585099459626,9.528922607421874,-2.118868469238281,3.766079211425781,0,0,0,0
0.46008403299492784,9.536105212402344,-2.0925322509765625,3.8235400512695312,0,0,0,0
0.4613663319905754,9.516951599121093,-2.0638018310546875,3.778050219726562,0,0,0,0
0.46249396599887405,9.557653027343749,-2.0661960327148434,3.7708676147460936,0,0,0,0
0.46358041498751845,9.540893615722656,-2.070984436035156,3.890577697753906,0,0,0,0
0.464666326995939,9.485826977539062,-2.051830822753906,3.852270471191406,0,0,0,0
0.46575342399592046,9.440337145996093,-2.0925322509765625,3.821145849609375,0,0,0,0
0.4669857239932753,9.409212524414063,-2.0925322509765625,3.8690298828125,0,0,0,0
0.46819830099411774,9.445125549316407,-2.1068974609374997,3.845087866210937,0,0,0,0
0.4693031389906537,9.397241516113281,-2.123656872558594,3.77326181640625,0,0,0,0
0.4703889399970649,9.356540087890625,-2.1356278808593747,3.8187516479492185,0,0,0,0
0.47182558799977414,9.255983618164063,-2.1499930908203124,3.835511059570312,0,0,0,0
0.47305597999366,9.327809667968749,-2.059013427734375,3.7325603881835936,0,0,0,0
0.4742107059864793,9.212887988281249,-2.133233679199219,3.7158009765625,0,0,0,0
0.47530750698933844,9.1554271484375,-2.176329309082031,3.787627026367187,0,0,0,0
0.4763931049965322,9.085995300292968,-2.233790148925781,3.8666356811523435,0,0,0,0
0.47795008499815594,9.100360510253905,-2.2649147705078123,3.8474820678710935,0,0,0,0
0.4792012729885755,8.98304462890625,-2.2936451904296873,3.8474820678710935,0,0,0,0
0.4803405179991387,8.908824377441405,-2.262520568847656,3.845087866210937,0,0,0,0
0.4814452819991857,8.889670764160156,-2.262520568847656,3.821145849609375,0,0,0,0
0.48261017398908734,8.844180932617187,-2.3582886352539063,3.797203833007812,0,0,0,0
0.48412463699060027,8.798691101074219,-2.3774422485351563,3.9145197143554684,0,0,0,0
0.48527052999997977,8.78432589111328,-2.4061726684570313,3.9552211425781247,0,0,0,0
0.48638118199596647,8.808267907714843,-2.360682836914062,3.8953661010742184,0,0,0,0
0.48753468599170446,8.75320126953125,-2.3822306518554686,3.7014357666015623,0,0,0,0
0.4886860049882671,8.700528833007812,-2.3726538452148436,3.861847277832031,0,0,0,0
0.4897905649995664,8.738836059570312,-2.384624853515625,3.8139632446289062,0,0,0,0
0.49116921398672275,8.760383874511719,-2.442085693359375,3.873818286132812,0,0,0,0
0.4925567339960253,8.695740429687499,-2.4109610717773435,3.9432501342773434,0,0,0,0
0.49416456499602646,8.66940421142578,-2.4396914916992185,3.8666356811523435,0,0,0,0
0.4953336989856325,8.623914379882812,-2.480392919921875,3.897760302734375,0,0,0,0
0.49642979599593673,8.635885388183594,-2.4851813232421875,3.938461730957031,0,0,0,0
0.4979881839972222,8.585607153320312,-2.4133552734375,3.9743747558593747,0,0,0,0
0.5006625019886997,8.568847741699217,-2.501940734863281,3.9169139160156248,0,0,0,0
0.5018762079998851,8.595183959960938,-2.5522189697265625,3.9240965209960934,0,0,0,0
0.5032041179947555,8.556876733398436,-2.592920397949219,3.9049429077148434,0,0,0,0
0.5045182119938545,8.578424548339843,-2.6096798095703124,3.835511059570312,0,0,0,0
0.5057423449907219,8.511386901855468,-2.6527754394531247,3.9624037475585934,0,0,0,0
0.5070552359975409,8.497021691894531,-2.645592834472656,3.9169139160156248,0,0,0,0
0.5082358499930706,8.432378247070313,-2.6144682128906247,3.890577697753906,0,0,0,0
0.5095348339964403,8.47786807861328,-2.6240450195312497,3.9049429077148434,0,0,0,0
0.5107323189877206,8.52335791015625,-2.6479870361328124,3.892971899414062,0,0,0,0
0.51188259999617,8.44674345703125,-2.616862414550781,3.921702319335937,0,0,0,0
0.5130054749897681,8.441955053710936,-2.6575638427734374,3.921702319335937,0,0,0,0
0.5141261649987428,8.487444885253906,-2.693476867675781,3.9456443359374997,0,0,0,0
0.5154567399877124,8.463502868652343,-2.7198130859375,3.9552211425781247,0,0,0,0
0.5167635939869797,8.425195642089843,-2.6695348510742187,3.948038537597656,0,0,0,0
0.5178848389914492,8.475473876953124,-2.693476867675781,3.912125512695312,0,0,0,0
0.5189791029988555,8.55448253173828,-2.710236279296875,3.854664672851562,0,0,0,0
0.5200705709867179,8.583212951660157,-2.674323254394531,3.9336733276367184,0,0,0,0
0.5213335739972536,8.580818749999999,-2.7557261108398436,3.88818349609375,0,0,0,0
0.5235024719877401,8.588001354980468,-2.6599580444335937,3.900154504394531,0,0,0,0
0.5246694759989623,8.604760766601562,-2.5737667846679684,3.9743747558593747,0,0,0,0
0.5257961649913341,8.681375219726561,-2.6240450195312497,4.024652990722656,0,0,0,0
0.5269659099867567,8.657433203124999,-2.6048914062499997,3.938461730957031,0,0,0,0
0.528315355986706,8.82263311767578,-2.6096798095703124,3.859453076171875,0,0,0,0
0.5296932269993704,8.805873706054687,-2.5450363647460934,3.907337109375,0,0,0,0
0.5311844119860325,8.884882360839843,-2.588131994628906,3.778050219726562,0,0,0,0
0.5323938599904068,8.89924757080078,-2.588131994628906,3.842693664550781,0,0,0,0
0.5337160099879839,8.923189587402343,-2.501940734863281,3.8379052612304685,0,0,0,0
0.5348588649940211,8.904035974121093,-2.5139117431640625,3.878606689453125,0,0,0,0
0.5359786659973906,8.968679418945312,-2.5043349365234375,3.8570588745117185,0,0,0,0
0.5373822409892455,8.99501563720703,-2.50912333984375,3.797203833007812,0,0,0,0
0.5386657249910058,9.028534460449219,-2.5378537597656248,3.7924154296875,0,0,0,0
0.5399766159971477,9.131485131835937,-2.5450363647460934,3.775656018066406,0,0,0,0
0.5413642279891064,9.157821350097656,-2.5258827514648434,3.845087866210937,0,0,0,0
0.5425824709964218,9.129090930175781,-2.5378537597656248,3.8570588745117185,0,0,0,0
0.543795029996545,9.157821350097656,-2.5258827514648434,3.8762124877929685,0,0,0,0
0.5449244599876693,9.26316622314453,-2.4971523315429685,3.840299462890625,0,0,0,0
0.5462780909874709,9.248801013183593,-2.4301146850585935,3.816357446289062,0,0,0,0
0.5477083139994647,9.313444458007812,-2.583343591308594,3.7995980346679685,0,0,0,0
0.548816132999491,9.337386474609374,-2.4492682983398435,3.902548706054687,0,0,0,0
0.5501695789862424,9.409212524414063,-2.4899697265625,3.873818286132812,0,0,0,0
0.5514453589858022,9.45470235595703,-2.473210314941406,3.967192150878906,0,0,0,0
0.5527635829930659,9.504980590820312,-2.5330653564453125,3.948038537597656,0,0,0,0
0.553938457989716,9.387664709472656,-2.50912333984375,3.967192150878906,0,0,0,0
0.5550452029856388,9.543287817382812,-2.4971523315429685,3.9743747558593747,0,0,0,0
0.5562134839856299,9.504980590820312,-2.5474305664062498,3.9600095458984375,0,0,0,0
0.5575966329924995,9.469067565917967,-2.384624853515625,4.036623999023437,0,0,0,0
0.5588931729871547,9.440337145996093,-2.3391350219726563,4.019864587402344,0,0,0,0
0.5601395459962077,9.402029919433593,-2.3678654418945313,3.9791631591796874,0,0,0,0
0.5613139939960092,9.373299499511718,-2.3487118286132813,4.237736938476562,0,0,0,0
0.562619606993394,9.303867651367186,-2.3439234252929686,4.060566015625,0,0,0,0
0.5637135749857407,9.366116894531249,-2.300827795410156,4.086902233886718,0,0,0,0
0.5648022089881124,9.323021264648437,-2.3535002319335936,4.125209460449218,0,0,0,0
0.5658892509964062,9.241618408203124,-2.4133552734375,4.113238452148437,0,0,0,0
0.5670530319912359,9.382876306152344,-2.4061726684570313,4.139574670410156,0,0,0,0
0.5684014039870817,9.433154541015625,-2.4516625,4.187458703613281,0,0,0,0
0.5695018159894971,9.459490759277344,-2.4349030883789062,4.225765930175781,0,0,0,0
0.5705889879900496,9.514557397460937,-2.3582886352539063,4.1754876953124995,0,0,0,0
0.5719301369972527,9.488221179199218,-2.3582886352539063,4.192247106933594,0,0,0,0
0.573248620989034,9.514557397460937,-2.365471240234375,4.005499377441406,0,0,0,0
0.5745164569962071,9.519345800781249,-2.3151930053710936,4.151545678710937,0,0,0,0
0.5756071839859942,9.557653027343749,-2.2361843505859373,4.144363073730468,0,0,0,0
0.5766891699895496,9.557653027343749,-2.2768857788085937,4.139574670410156,0,0,0,0
0.5777779709897004,9.60793126220703,-2.2649147705078123,4.180276098632812,0,0,0,0
0.5789510299946414,9.643844287109374,-2.2649147705078123,4.261678955078125,0,0,0,0
0.5802842909906758,9.631873278808593,-2.195482922363281,4.218583325195312,0,0,0,0
0.5813830549886916,9.586383447265625,-2.2098481323242187,4.189852905273438,0,0,0,0
0.5827172419958515,9.557653027343749,-2.2098481323242187,4.168305090332031,0,0,0,0
0.5840050029946724,9.540893615722656,-2.185906115722656,4.211400720214844,0,0,0,0
0.5852233579935273,9.526528405761718,-2.2098481323242187,4.180276098632812,0,0,0,0
0.5865798599988921,9.567229833984374,-2.2098481323242187,4.223371728515625,0,0,0,0
0.5876822159916628,9.612719665527344,-2.1883003173828124,4.3813890380859375,0,0,0,0
0.589111030989443,9.631873278808593,-2.1643583007812497,4.3430818115234375,0,0,0,0
0.5903396819921909,9.636661682128906,-2.109291662597656,4.278438366699218,0,0,0,0
0.5917004059883766,9.624690673828125,-2.0470424194335934,4.347870214843749,0,0,0,0
0.5927944849972846,9.730035546875,-2.061407629394531,4.352658618164062,0,0,0,0
0.5941550789866596,9.7683427734375,-2.070984436035156,4.347870214843749,0,0,0,0
0.5961631639947882,9.797073193359374,-2.0350714111328125,4.383783239746093,0,0,0,0
0.5973490379983559,9.811438403320311,-2.059013427734375,4.347870214843749,0,0,0,0
0.5984491169947432,9.797073193359374,-1.9967641845703124,4.376600634765625,0,0,0,0
0.599539435992483,9.854534033203125,-2.0350714111328125,4.393360046386719,0,0,0,0
0.601466393985902,9.87608184814453,-1.9776105712890624,4.369418029785156,0,0,0,0
0.6029675229947316,9.945513696289062,-1.9297265380859374,4.402936853027343,0,0,0,0
0.6042512289859587,10.01733974609375,-1.9632453613281249,4.441244079589843,0,0,0,0
0.6061075199977495,10.05564697265625,-1.944091748046875,4.395754248046875,0,0,0,0
0.607284041994717,10.053252770996092,-1.8842367065429686,4.386177441406249,0,0,0,0
0.6083758989989292,10.038887561035155,-1.8363526733398436,4.304774584960938,0,0,0,0
0.6094661629904294,10.019733947753906,-1.898601916503906,4.374206433105469,0,0,0,0
0.6114098049874883,10.014945544433592,-1.8195932617187498,4.410119458007812,0,0,0,0
0.6125934009905905,9.97184991455078,-1.8028338500976562,4.352658618164062,0,0,0,0
0.6137386829941534,10.024522351074218,-1.8243816650390623,4.390965844726562,0,0,0,0
0.6155474009865429,10.024522351074218,-1.7788918334960937,4.378994836425781,0,0,0,0
0.6175642459857045,9.952696301269532,-1.7836802368164062,4.398148449707031,0,0,0,0
0.619238872997812,9.976638317871092,-1.8052280517578123,4.4005426513671875,0,0,0,0
0.6203881729888963,9.89523546142578,-1.7310078002929687,4.405331054687499,0,0,0,0
0.6214789919904433,9.919177478027343,-1.695094775390625,4.393360046386719,0,0,0,0
0.6229990839929087,9.962273107910155,-1.7118541870117185,4.460397692871093,0,0,0,0
0.624660284986021,9.935936889648437,-1.668758557128906,4.369418029785156,0,0,0,0
0.6258509559993399,9.976638317871092,-1.7190367919921874,4.42448466796875,0,0,0,0
0.6269646449945867,10.065223779296874,-1.6639701538085936,4.3622354248046875,0,0,0,0
0.6280496689869324,10.050858569335936,-1.6328455322265625,4.3622354248046875,0,0,0,0
0.6298082569992403,10.067617980957031,-1.5729904907226562,4.369418029785156,0,0,0,0
0.6312484429945471,10.081983190917969,-1.5370774658203123,4.321533996582031,0,0,0,0
0.6330931789998431,10.081983190917969,-1.39821376953125,4.321533996582031,0,0,0,0
0.634604862993001,10.175357055664062,-1.39821376953125,4.290409374999999,0,0,0,0
0.6366993919946253,10.172962854003906,-1.2832920898437499,4.206612316894531,0,0,0,0
0.6390300299972296,10.280701928710936,-1.2928688964843749,4.106055847167968,0,0,0,0
0.6402486989973113,10.237606298828124,-1.2761094848632812,4.074931225585937,0,0,0,0
0.6413605929992627,10.283096130371094,-1.1611878051757811,3.938461730957031,0,0,0,0
0.6425766889879014,10.319009155273436,-1.24498486328125,3.9336733276367184,0,0,0,0
0.6441529089934193,10.330980163574218,-1.1731588134765625,3.928884924316406,0,0,0,0
0.6453408199886326,10.347739575195313,-1.1276689819335937,3.9169139160156248,0,0,0,0
0.6464854349906091,10.43871923828125,-1.1516109985351561,3.8857892944335934,0,0,0,0
0.6476696239988087,10.560823522949217,-1.0726023437499999,3.825934252929687,0,0,0,0
0.64884533098666,10.443507641601562,-1.0534487304687499,3.737348791503906,0,0,0,0
0.6499504839885049,10.453084448242187,-1.0510545288085937,3.768473413085937,0,0,0,0
0.6510409889888251,10.474632263183594,-1.0438719238281249,3.7517140014648436,0,0,0,0
0.6521301789907739,10.436325036621094,-1.0031704956054688,3.744531396484375,0,0,0,0
0.653642677993048,10.51533369140625,-0.9528922607421875,3.7995980346679685,0,0,0,0
0.6551622699917061,10.474632263183594,-0.9409212524414062,3.8235400512695312,0,0,0,0
0.6563518659968395,10.596736547851561,-0.948103857421875,3.73495458984375,0,0,0,0
0.6574874069920043,10.615890161132812,-0.9169792358398436,3.706224169921875,0,0,0,0
0.6586559109855443,10.697293017578124,-0.74699091796875,3.6296097167968746,0,0,0,0
0.6601436889905017,10.663774194335938,-0.7062894897460937,3.5577836669921874,0,0,0,0
0.6613201000000117,10.702081420898438,-0.6631938598632812,3.5960908935546874,0,0,0,0
0.6624817329866346,10.764330664062498,-0.6943184814453125,3.4715924072265625,0,0,0,0
0.663581737986533,10.754753857421875,-0.5985504150390625,3.4811692138671875,0,0,0,0
0.6647729449905455,10.843339318847656,-0.5578489868164063,3.411737365722656,0,0,0,0
0.66594987399003,10.848127722167968,-0.5315127685546874,3.430890979003906,0,0,0,0
0.6674479479988804,10.939107385253905,-0.4429273071289062,3.208230224609375,0,0,0,0
0.6687530979979783,10.953472595214842,-0.48123453369140623,3.1507693847656246,0,0,0,0
0.670142061993829,10.94868419189453,-0.44053310546874996,3.114856359863281,0,0,0,0
0.6714733049884671,11.020510241699219,-0.41898529052734373,3.0837317382812497,0,0,0,0
0.672688622988062,11.027692846679686,-0.4285620971679687,3.1172505615234374,0,0,0,0
0.6737816829991061,11.099518896484375,-0.41898529052734373,3.0238766967773434,0,0,0,0
0.6748628169880249,11.061211669921875,-0.37828386230468747,3.028665100097656,0,0,0,0
0.676031487993896,11.068394274902342,-0.3136404174804687,2.9376854370117185,0,0,0,0
0.6772204359876923,11.123460913085937,-0.30406361083984373,2.9089550170898435,0,0,0,0
0.6785187339992262,11.039663854980468,-0.34237083740234375,2.942473840332031,0,0,0,0
0.6797459409863222,11.008539233398437,-0.34715924072265625,2.8945898071289062,0,0,0,0
0.6812302739999723,10.977414611816405,-0.36631285400390623,2.882618798828125,0,0,0,0
0.6824952759925509,10.93671318359375,-0.34237083740234375,2.9472622436523435,0,0,0,0
0.6836984459951054,10.836156713867187,-0.30406361083984373,2.868253588867187,0,0,0,0
0.685029484986444,10.843339318847656,-0.3711012573242187,2.8227637573242186,0,0,0,0
0.6863876159914071,10.855310327148437,-0.3184288208007812,2.8658593872070313,0,0,0,0
0.6876081929949578,10.809820495605468,-0.37828386230468747,2.882618798828125,0,0,0,0
0.6888161039969418,10.802637890625,-0.3591302490234375,2.8323405639648436,0,0,0,0
0.6899108489888022,10.766724865722656,-0.3711012573242187,2.8275521606445313,0,0,0,0
0.6909864469926106,10.70686982421875,-0.3280056274414062,2.8514941772460936,0,0,0,0
0.6920671549887629,10.711658227539061,-0.35673604736328124,2.7916391357421872,0,0,0,0
0.693409008992603,10.620678564453124,-0.3758896606445312,2.7437551025390623,0,0,0,0
0.6946471229894087,10.68053360595703,-0.33758243408203126,2.7748797241210936,0,0,0,0
0.6957303679955658,10.481814868164061,-0.32561142578124996,2.7964275390625,0,0,0,0
0.6968083549872972,10.484209069824217,-0.35194764404296874,2.8419173706054686,0,0,0,0
0.6979832659999374,10.436325036621094,-0.3327940307617187,2.932897033691406,0,0,0,0
0.6992181199893821,10.424354028320312,-0.3447650390625,2.906560815429687,0,0,0,0
0.7003190689865733,10.436325036621094,-0.39743747558593745,2.7653029174804686,0,0,0,0
0.7014123889966868,10.374075793457031,-0.4261678955078125,2.7557261108398436,0,0,0,0
0.7024960229900898,10.307038146972655,-0.4261678955078125,2.7269956909179687,0,0,0,0
0.7035836759896483,10.292672937011718,-0.4429273071289062,2.7916391357421872,0,0,0,0
0.7047696979861939,10.230423693847655,-0.5123591552734374,2.77727392578125,0,0,0,0
0.7059916829894064,10.149020837402343,-0.5985504150390625,2.741360900878906,0,0,0,0
0.7070870389870834,10.103531005859374,-0.6057330200195312,2.712630480957031,0,0,0,0
0.7081727109907661,10.058041174316406,-0.5865794067382812,2.6192566162109374,0,0,0,0
0.7092670669953804,10.091559997558592,-0.5985504150390625,2.7748797241210936,0,0,0,0
0.7104341639933409,10.046070166015625,-0.6272808349609375,2.789244934082031,0,0,0,0
0.7116467779997038,10.014945544433592,-0.6560112548828124,2.825157958984375,0,0,0,0
0.7127447269886034,9.95987890625,-0.737414111328125,2.829946362304687,0,0,0,0
0.7138462319999235,9.969455712890625,-0.6871358764648438,2.7174188842773437,0,0,0,0
0.7150049949996173,9.962273107910155,-0.6943184814453125,2.7629087158203123,0,0,0,0
0.7162299049959984,9.916783276367187,-0.7493851196289062,2.789244934082031,0,0,0,0
0.7173323169990908,9.904812268066406,-0.6967126831054687,2.770091320800781,0,0,0,0
0.718421617988497,9.909600671386718,-0.7613561279296874,2.7748797241210936,0,0,0,0
0.7195061229867861,9.883264453125,-0.852335791015625,2.786850732421875,0,0,0,0
0.7205914059886709,9.835380419921874,-0.8068459594726562,2.868253588867187,0,0,0,0
0.7217930759943556,9.773131176757811,-0.7996633544921875,2.8945898071289062,0,0,0,0
0.7229645419865847,9.746794958496093,-0.8307879760742187,2.906560815429687,0,0,0,0
0.72406828799285,9.715670336914062,-0.8259995727539062,2.93050283203125,0,0,0,0
0.7251834959897678,9.64623848876953,-0.93852705078125,2.96881005859375,0,0,0,0
0.7262994819902815,9.617508068847656,-0.9097966308593749,2.9472622436523435,0,0,0,0
0.7275507069862215,9.603142858886718,-0.9792284790039062,2.93050283203125,0,0,0,0
0.7289200599916512,9.595960253906249,-0.9624690673828125,2.9496564453125,0,0,0,0
0.7301634509931318,9.524134204101562,-0.9576806640625,3.0071172851562498,0,0,0,0
0.7312748999975156,9.509768994140625,-0.9864110839843749,3.071760729980469,0,0,0,0
0.7323793489922537,9.471461767578125,-1.0558429321289062,3.1220389648437497,0,0,0,0
0.7335514829901513,9.490615380859374,-1.1156979736328125,3.2130186279296873,0,0,0,0
0.7348087999998825,9.440337145996093,-1.0630255371093749,3.143586779785156,0,0,0,0
0.7359045449993573,9.363722692871093,-1.1540052001953125,3.071760729980469,0,0,0,0
0.7370002349925926,9.318232861328125,-1.180341418457031,3.1459809814453124,0,0,0,0
0.7381732569920132,9.313444458007812,-1.2330138549804688,3.1699229980468746,0,0,0,0
0.7393672239995794,9.325415466308593,-1.1180921752929687,3.2321722412109373,0,0,0,0
0.7404638769949088,9.291896643066405,-1.3024457031249999,3.162740393066406,0,0,0,0
0.7415562699898146,9.2320416015625,-1.3192051147460937,3.1866824096679687,0,0,0,0
0.7426428859907901,9.299079248046874,-1.3359645263671873,3.201047619628906,0,0,0,0
0.7438527779886499,9.248801013183593,-1.4030021728515625,3.189076611328125,0,0,0,0
0.745058540996979,9.2320416015625,-1.4341267944335936,3.2920272827148436,0,0,0,0
0.7461658789979992,9.1554271484375,-1.419761584472656,3.356670727539062,0,0,0,0
0.7472495689871721,9.13627353515625,-1.4820108276367188,3.385401147460937,0,0,0,0
0.7483357219898608,9.172186560058593,-1.5586252807617187,3.399766357421875,0,0,0,0
0.7498793319973629,9.172186560058593,-1.5346832641601562,3.373430139160156,0,0,0,0
0.7510684649896575,9.129090930175781,-1.5586252807617187,3.27526787109375,0,0,0,0
0.7522655419888906,9.081206896972656,-1.6711527587890624,3.39018955078125,0,0,0,0
0.7533696579921525,9.047688073730468,-1.7214309936523438,3.3446997192382812,0,0,0,0
0.754505976990913,9.191340173339842,-1.7094599853515624,3.385401147460937,0,0,0,0
0.7557763129880186,9.026140258789061,-1.7741034301757812,3.361459130859375,0,0,0,0
0.7571290179912467,8.985438830566405,-1.838746875,3.373430139160156,0,0,0,0
0.7589477909932612,8.971073620605468,-1.8842367065429686,3.399766357421875,0,0,0,0
0.7601797199895373,8.942343200683593,-1.917755529785156,3.497928625488281,0,0,0,0
0.7618395879981108,8.913612780761719,-1.9823989746093749,3.42849677734375,0,0,0,0
0.7642718899878673,8.80347950439453,-2.128445275878906,3.4955344238281247,0,0,0,0
0.7655183929891791,8.872911352539061,-2.2002713256835937,3.418919970703125,0,0,0,0
0.766614378997474,8.67658681640625,-2.2649147705078123,3.402160559082031,0,0,0,0
0.7677974199905293,8.664615808105468,-2.3487118286132813,3.4931402221679684,0,0,0,0
0.7689760899957037,8.681375219726561,-2.3918074584960936,3.5721488769531247,0,0,0,0
0.7700810579990502,8.655039001464843,-2.3726538452148436,3.4548329956054684,0,0,0,0
0.7711688219860662,8.595183959960938,-2.43250888671875,3.497928625488281,0,0,0,0
0.7722573259961791,8.609549169921875,-2.480392919921875,3.459621398925781,0,0,0,0
0.7734241819998715,8.664615808105468,-2.4756045166015626,3.5889082885742187,0,0,0,0
0.7745948889933061,8.78432589111328,-2.4013842651367185,3.622427111816406,0,0,0,0
0.7756884679984068,8.796296899414061,-2.3415292236328122,3.6367923217773437,0,0,0,0
0.7767725099984091,8.769960681152343,-2.2553379638671873,3.6487633300781246,0,0,0,0
0.777859236986842,8.647856396484375,-2.2649147705078123,3.6679169433593746,0,0,0,0
0.7790331479918677,8.602366564941406,-2.3415292236328122,3.545812658691406,0,0,0,0
0.780212836994906,8.602366564941406,-2.427720483398437,3.7995980346679685,0,0,0,0
0.7817940949898912,8.568847741699217,-2.4516625,3.852270471191406,0,0,0,0
0.7830879489920335,8.614337573242187,-2.530671154785156,3.6679169433593746,0,0,0,0
0.784436616988387,8.652644799804687,-2.6599580444335937,3.6679169433593746,0,0,0,0
0.7857963399874279,8.686163623046875,-2.798821740722656,3.6846763549804686,0,0,0,0
0.7870050839992473,8.801085302734375,-2.789244934082031,3.6463691284179687,0,0,0,0
0.7881034219899448,8.789114294433594,-2.8275521606445313,3.545812658691406,0,0,0,0
0.7891897599911317,8.78432589111328,-2.844311572265625,3.6583401367187496,0,0,0,0
0.7904167079977924,8.667010009765624,-2.85388837890625,3.7014357666015623,0,0,0,0
0.7917603949899785,8.564059338378906,-2.868253588867187,3.6391865234374996,0,0,0,0
0.7934982249862514,8.580818749999999,-2.844311572265625,3.7325603881835936,0,0,0,0
0.7951482409989694,8.633491186523438,-2.712630480957031,3.873818286132812,0,0,0,0
0.7967797199962661,8.578424548339843,-2.741360900878906,3.900154504394531,0,0,0,0
0.798273367996444,8.607154968261717,-2.6599580444335937,3.9456443359374997,0,0,0,0
0.7993811689957511,8.564059338378906,-2.5665841796874997,3.9528269409179684,0,0,0,0
0.8005102279857965,8.633491186523438,-2.5617957763671875,4.046200805664062,0,0,0,0
0.8017260279884795,8.482656481933594,-2.6384102294921874,4.108450048828125,0,0,0,0
0.8032972489891108,8.418013037109375,-3.0741549316406247,4.00310517578125,0,0,0,0
0.8044977519894019,8.44674345703125,-3.3207577026367185,3.9408559326171875,0,0,0,0
0.805635626995354,8.635885388183594,-3.5577836669921874,3.9240965209960934,0,0,0,0
0.8070357759861508,8.588001354980468,-3.7038299682617186,3.9408559326171875,0,0,0,0
0.8082535559951793,8.633491186523438,-3.84987626953125,3.9312791259765625,0,0,0,0
0.8096294089918956,8.51617530517578,-3.7995980346679685,4.000710974121094,0,0,0,0
0.8108710599917686,8.504204296874999,-3.7110125732421873,4.053383410644531,0,0,0,0
0.8121906179876532,8.511386901855468,-3.6367923217773437,4.168305090332031,0,0,0,0
0.8135043049987871,8.52335791015625,-3.4093431640625,4.264073156738281,0,0,0,0
0.8148548619938083,8.518569506835936,-3.3255461059570313,4.2497079467773435,0,0,0,0
0.8159536809980636,8.556876733398436,-3.2800562744140622,4.180276098632812,0,0,0,0
0.8170476299856091,8.540117321777343,-3.2345664428710936,4.280832568359375,0,0,0,0
0.8182091339986073,8.585607153320312,-3.1771056030273437,4.254496350097656,0,0,0,0
0.819492710987106,8.480262280273436,-3.2345664428710936,4.185064501953125,0,0,0,0
0.8206034929899033,8.451531860351562,-3.380612744140625,4.383783239746093,0,0,0,0
0.8222265649965266,8.47786807861328,-3.5865140869140624,4.299986181640625,0,0,0,0
0.8237343239889015,8.463502868652343,-3.7134067749023436,4.350264416503906,0,0,0,0
0.824869456992019,8.451531860351562,-3.754108203125,4.4005426513671875,0,0,0,0
0.8261132009938592,8.425195642089843,-3.8379052612304685,4.448426684570312,0,0,0,0
0.8272073169937357,8.379705810546875,-3.9360675292968748,4.426878869628906,0,0,0,0
0.8282903959916439,8.410830432128906,-3.9432501342773434,4.525041137695312,0,0,0,0
0.8297413959953701,8.303091357421874,-3.9169139160156248,4.484339709472656,0,0,0,0
0.8309657509962562,8.252813122558594,-3.679887951660156,4.520252734375,0,0,0,0
0.8323948809993453,8.386888415527343,-3.7995980346679685,4.493916516113281,0,0,0,0
0.8335049589950358,8.288726147460936,-3.6727053466796873,4.6064439941406246,0,0,0,0
0.8349460889876354,8.358157995605469,-3.5697546752929687,4.6639048339843745,0,0,0,0
0.8360771119914716,8.377311608886718,-3.5386300537109374,4.599261389160156,0,0,0,0
0.8372637079883134,8.396465222167969,-3.4644098022460934,4.61602080078125,0,0,0,0
0.8384313229908003,8.36294639892578,-3.4356793823242184,4.6064439941406246,0,0,0,0
0.8395315499947174,8.367734802246094,-3.430890979003906,4.611232397460937,0,0,0,0
0.8406170919915894,8.40125362548828,-3.4763808105468748,4.630386010742187,0,0,0,0
0.8417066519905347,8.398859423828124,-3.5146880371093747,4.65432802734375,0,0,0,0
0.842794211988803,8.377311608886718,-3.5027170288085934,4.675875842285156,0,0,0,0
0.8446132259996375,8.394071020507813,-3.450044592285156,4.632780212402343,0,0,0,0
0.8457859709887998,8.374917407226562,-3.5146880371093747,4.781220715332031,0,0,0,0
0.8468831239879364,8.386888415527343,-3.4572271972656248,4.661510632324219,0,0,0,0
0.8479809059936088,8.336610180664062,-3.5769372802734374,4.7189714721679685,0,0,0,0
0.8496954769943841,8.25520732421875,-3.6152445068359373,4.6639048339843745,0,0,0,0
0.8508691839961102,8.2743609375,-3.622427111816406,4.630386010742187,0,0,0,0
0.8526043099991512,8.183381274414062,-3.7804444213867185,4.7955859252929685,0,0,0,0
0.8550085949973436,8.154650854492187,-3.84987626953125,4.843469958496094,0,0,0,0
0.8569065339979716,8.128314636230469,-3.8857892944335934,4.855440966796874,0,0,0,0
0.8580866859992966,8.20971749267578,-3.907337109375,4.915296008300781,0,0,0,0
0.8591841719899094,8.12113203125,-3.897760302734375,4.896142395019531,0,0,0,0
0.8609401309950044,8.125920434570313,-3.900154504394531,4.886565588378906,0,0,0,0
0.8621179679903435,8.068459594726562,-3.967192150878906,4.927267016601562,0,0,0,0
0.8632102869887603,7.943961108398437,-3.744531396484375,5.030217687988281,0,0,0,0
0.8642976629926125,7.692569934082031,-3.6727053466796873,5.015852478027344,0,0,0,0
0.866055176986265,7.886500268554687,-3.6463691284179687,4.989516259765625,0,0,0,0
0.8673723639949458,7.908048083496094,-3.670311145019531,5.0182466796875,0,0,0,0
0.8685007209860487,8.09479581298828,-3.6104561035156246,4.99909306640625,0,0,0,0
0.8696718169958331,8.267178332519531,-3.6272155151367187,5.0206408813476555,0,0,0,0
0.8709341709909495,8.394071020507813,-3.6296097167968746,5.097255334472656,0,0,0,0
0.8721625999896787,8.44674345703125,-3.450044592285156,4.936843823242187,0,0,0,0
0.8732836789858993,8.504204296874999,-3.450044592285156,4.905719201660156,0,0,0,0
0.8743695169978309,8.547299926757812,-3.5410242553710933,4.805162731933594,0,0,0,0
0.8755057989910711,8.501810095214843,-3.574543078613281,4.843469958496094,0,0,0,0
0.8767438569921069,8.621520178222656,-3.5482068603515624,4.855440966796874,0,0,0,0
0.8780880989943398,8.655039001464843,-3.404554760742187,4.814739538574218,0,0,0,0
0.8794914519967278,8.71489404296875,-3.5410242553710933,4.774038110351563,0,0,0,0
0.880685028998414,8.71489404296875,-3.5338416503906247,4.76924970703125,0,0,0,0
0.8818329959904077,8.80347950439453,-3.4572271972656248,4.6351744140625,0,0,0,0
0.8830097779864445,8.798691101074219,-3.3207577026367185,4.774038110351563,0,0,0,0
0.8841872439952567,8.772354882812499,-3.323151904296875,4.714183068847656,0,0,0,0
0.8852856749872444,8.801085302734375,-3.3111808959960936,4.826710546875,0,0,0,0
0.8864205679856241,8.734047656249999,-3.303998291015625,4.824316345214844,0,0,0,0
0.8877954579947982,8.743624462890624,-3.296815686035156,4.841075756835937,0,0,0,0
0.8891490889945999,8.741230261230468,-3.366247534179687,4.84586416015625,0,0,0,0
0.8904134429903934,8.729259252929687,-3.3638533325195312,4.723759875488281,0,0,0,0
0.8915175779984565,8.643067993164061,-3.3446997192382812,4.695029455566406,0,0,0,0
0.8926103049889207,8.645462194824217,-3.342305517578125,4.778826513671874,0,0,0,0
0.8937047169893049,8.681375219726561,-3.294421484375,4.8650177734375,0,0,0,0
0.8951179579889867,8.686163623046875,-3.220201232910156,4.687846850585937,0,0,0,0
0.8963505909923697,8.748412866210938,-3.227383837890625,4.709394665527343,0,0,0,0
0.897506371999043,8.78432589111328,-3.1699229980468746,4.759672900390624,0,0,0,0
0.8986015439877519,8.731653454589843,-3.114856359863281,4.6830584472656245,0,0,0,0
0.8996933819871629,8.750807067871094,-3.066972326660156,4.6998178588867185,0,0,0,0
0.9010590679972665,8.719682446289061,-3.1028853515624997,4.695029455566406,0,0,0,0
0.9024524759879569,8.688557824707031,-3.181894006347656,4.745307690429687,0,0,0,0
0.9036344429914607,8.66940421142578,-3.1675287963867187,4.632780212402343,0,0,0,0
0.904848445992684,8.621520178222656,-3.1387983764648437,4.6064439941406246,0,0,0,0
0.9060679859976517,8.655039001464843,-3.1268273681640624,4.594472985839843,0,0,0,0
0.9074755979963811,8.568847741699217,-3.1771056030273437,4.709394665527343,0,0,0,0
0.908749470996554,8.602366564941406,-3.153163586425781,4.764461303710937,0,0,0,0
0.9099223999946844,8.609549169921875,-3.1555577880859373,4.752490295410156,0,0,0,0
0.9110154789959779,8.528146313476562,-3.086125939941406,4.747701892089843,0,0,0,0
0.9122418709885096,8.451531860351562,-3.0214824951171875,4.7117888671875,0,0,0,0
0.9136763529968448,8.470685473632813,-2.971204260253906,4.613626599121093,0,0,0,0
0.9149168739968445,8.487444885253906,-3.019088293457031,4.819527941894531,0,0,0,0
0.9160527119965991,8.47786807861328,-2.9927520751953125,4.826710546875,0,0,0,0
0.9172951409855159,8.389282617187499,-2.978386865234375,4.7381250854492185,0,0,0,0
0.9185690319864079,8.396465222167969,-3.028665100097656,4.704606262207031,0,0,0,0
0.919668628994259,8.434772448730468,-3.0909143432617188,4.759672900390624,0,0,0,0
0.9207581149967154,8.52335791015625,-3.0310593017578125,4.762067102050781,0,0,0,0
0.9218498979898868,8.623914379882812,-2.9089550170898435,4.805162731933594,0,0,0,0
0.9230419199884636,8.681375219726561,-2.8730419921875,4.84586416015625,0,0,0,0
0.9242355899914401,8.590395556640624,-3.0023288818359375,4.73094248046875,0,0,0,0
0.9254740929900436,8.595183959960938,-3.0909143432617188,4.630386010742187,0,0,0,0
0.9266908369900193,8.70771143798828,-3.0334535034179684,4.656722229003906,0,0,0,0
0.9284457029862097,8.882488159179687,-2.729389892578125,4.709394665527343,0,0,0,0
0.9299084629892604,8.870517150878905,-2.4971523315429685,4.740519287109374,0,0,0,0
0.93330410499766,8.963891015625,-2.375048046875,4.778826513671874,0,0,0,0
0.9345019039901672,8.966285217285156,-2.39420166015625,4.8123453369140625,0,0,0,0
0.9357344259915408,9.009380847167968,-2.389413256835937,4.697423657226563,0,0,0,0
0.9371059639961459,9.069235888671875,-2.5426421630859375,4.5968671875,0,0,0,0
0.9384563539933879,9.095572106933593,-2.6096798095703124,4.671087438964843,0,0,0,0
0.939871910988586,9.129090930175781,-2.6527754394531247,4.599261389160156,0,0,0,0
0.9411979119904572,9.169792358398437,-2.7246014892578123,4.517858532714843,0,0,0,0
0.9425060809880961,9.191340173339842,-2.77727392578125,4.568136767578125,0,0,0,0
0.9438404719985556,9.234435803222656,-2.829946362304687,4.484339709472656,0,0,0,0
0.9450304559868528,9.270348828125,-2.8203695556640622,4.513070129394531,0,0,0,0
0.9464225499978056,9.337386474609374,-2.789244934082031,4.510675927734375,0,0,0,0
0.9477724399912404,9.311050256347656,-2.8203695556640622,4.50109912109375,0,0,0,0
0.9491634599980898,9.315838659667968,-2.6862942626953124,4.460397692871093,0,0,0,0
0.9503663889918244,9.325415466308593,-2.6886884643554687,4.510675927734375,0,0,0,0
0.9515713739965577,9.390058911132812,-2.729389892578125,4.429273071289062,0,0,0,0
0.9528478579886723,9.380482104492186,-2.6575638427734374,4.429273071289062,0,0,0,0
0.9541171929886332,9.246406811523437,-2.5905261962890624,4.527435339355469,0,0,0,0
0.955477138995775,9.323021264648437,-2.6001030029296874,4.491522314453125,0,0,0,0
0.9567545119934948,9.464279162597656,-2.607285607910156,4.311957189941406,0,0,0,0
0.9579505889996653,9.459490759277344,-2.70065947265625,4.398148449707031,0,0,0,0
0.9593687749875244,9.552864624023437,-2.6791116577148437,4.350264416503906,0,0,0,0
0.9605966859962791,9.550470422363281,-2.674323254394531,4.42448466796875,0,0,0,0
0.9619392979948316,9.579200842285156,-2.5737667846679684,4.165910888671875,0,0,0,0
0.9632624109945027,9.552864624023437,-2.6096798095703124,4.259284753417968,0,0,0,0
0.9644665069936309,9.567229833984374,-2.5570073730468748,4.364629626464843,0,0,0,0
0.9657206759875407,9.6151138671875,-2.559401574707031,4.438849877929687,0,0,0,0
0.9669496049900772,9.567229833984374,-2.3918074584960936,4.283226770019531,0,0,0,0
0.9682491809944622,9.478644372558593,-2.365471240234375,4.276044165039062,0,0,0,0
0.9696085349860368,9.488221179199218,-2.3343466186523436,4.321533996582031,0,0,0,0
0.9709667209972395,9.49300958251953,-2.3056161987304686,4.206612316894531,0,0,0,0
0.9722190389875323,9.49300958251953,-2.269703173828125,4.273649963378906,0,0,0,0
0.9734598189970711,9.497797985839844,-2.3056161987304686,4.316745593261719,0,0,0,0
0.974657266997383,9.466673364257812,-2.2601263671875,4.333505004882812,0,0,0,0
0.9759478429914452,9.428366137695312,-2.2768857788085937,4.369418029785156,0,0,0,0
0.9773230669961777,9.342174877929686,-2.288856787109375,4.283226770019531,0,0,0,0
0.9785786059946986,9.387664709472656,-2.3535002319335936,4.352658618164062,0,0,0,0
0.9797998869908042,9.409212524414063,-2.4588451049804685,4.2305543334960936,0,0,0,0
0.9810710009915056,9.354145886230468,-2.4492682983398435,4.235342736816406,0,0,0,0
0.9823637069930555,9.3852705078125,-2.437297290039062,4.220977526855468,0,0,0,0
0.9837722259981092,9.425971936035156,-2.446874096679687,4.168305090332031,0,0,0,0
0.9851074129983317,9.382876306152344,-2.461239306640625,4.173093493652344,0,0,0,0
0.9863305639883038,9.390058911132812,-2.375048046875,4.165910888671875,0,0,0,0
0.9875452709966339,9.433154541015625,-2.3415292236328122,4.165910888671875,0,0,0,0
0.9888176619861042,9.428366137695312,-2.157175695800781,4.211400720214844,0,0,0,0
0.9899896289862227,9.433154541015625,-2.3223756103515623,4.206612316894531,0,0,0,0
0.9911036329867784,9.370905297851563,-2.3127988037109373,4.149151477050781,0,0,0,0
0.9921894159924705,9.560047229003906,-2.310404602050781,4.125209460449218,0,0,0,0
0.9932793459884124,9.560047229003906,-2.243366955566406,4.094084838867187,0,0,0,0
0.9943638879922219,9.552864624023437,-2.252943762207031,4.187458703613281,0,0,0,0
0.995598853987758,9.540893615722656,-2.2361843505859373,4.012681982421875,0,0,0,0
0.9968283199996222,9.622296472167967,-2.152387292480469,4.1946413085937495,0,0,0,0
0.998020822997205,9.591171850585937,-2.1499930908203124,4.153939880371094,0,0,0,0
0.99910740199266,9.519345800781249,-2.1906945190429687,4.103661645507812,0,0,0,0
1.0001857779861894,9.507374792480467,-2.1883003173828124,4.024652990722656,0,0,0,0
1.0014512249908876,9.536105212402344,-2.1978771240234374,4.0988732421875,0,0,0,0
1.0027950219955528,9.528922607421874,-2.1906945190429687,4.050989208984375,0,0,0,0
1.004341983993072,9.516951599121093,-2.1499930908203124,4.029441394042968,0,0,0,0
1.0060454629856395,9.368511096191405,-2.099714855957031,4.165910888671875,0,0,0,0
1.0075329069950385,9.306261853027344,-2.1212626708984375,4.261678955078125,0,0,0,0
1.0088545009930385,9.363722692871093,-2.233790148925781,4.110844250488281,0,0,0,0
1.0101392999931704,9.406818322753905,-2.2649147705078123,4.091690637207031,0,0,0,0
1.0112285819923272,9.514557397460937,-2.3223756103515623,4.070142822265625,0,0,0,0
1.0122999209997943,9.600748657226562,-2.346317626953125,4.113238452148437,0,0,0,0
1.0135573119914625,9.639055883789062,-2.3582886352539063,4.031835595703125,0,0,0,0
1.0147570749977604,9.6151138671875,-2.1595698974609374,3.9983167724609374,0,0,0,0
1.0158815239992691,9.555258825683593,-2.3415292236328122,4.012681982421875,0,0,0,0
1.016999360988848,9.583989245605467,-2.3582886352539063,3.9432501342773434,0,0,0,0
1.0182423459918937,9.550470422363281,-2.4492682983398435,3.9791631591796874,0,0,0,0
1.0195092919893796,9.572018237304688,-2.398990063476562,3.9911341674804683,0,0,0,0
1.0206397599977208,9.557653027343749,-2.365471240234375,3.9240965209960934,0,0,0,0
1.0217400239926064,9.610325463867188,-2.3223756103515623,3.9360675292968748,0,0,0,0
1.0228337689914042,9.6151138671875,-2.3032219970703123,3.9815573608398434,0,0,0,0
1.0241623259935295,9.60793126220703,-2.288856787109375,3.921702319335937,0,0,0,0
1.02547325399064,9.550470422363281,-2.3151930053710936,3.9312791259765625,0,0,0,0
1.0266107029892737,9.576806640625,-2.3151930053710936,3.8666356811523435,0,0,0,0
1.0277035779872676,9.550470422363281,-2.288856787109375,3.986345764160156,0,0,0,0
1.0287911569903372,9.555258825683593,-2.272097375488281,4.012681982421875,0,0,0,0
1.0300969359959709,9.536105212402344,-2.2553379638671873,3.976768957519531,0,0,0,0
1.031345920986496,9.548076220703125,-2.269703173828125,3.9647979492187497,0,0,0,0
1.0324758879869478,9.528922607421874,-2.2553379638671873,3.871424084472656,0,0,0,0
1.0335989109880757,9.469067565917967,-2.281674182128906,4.11802685546875,0,0,0,0
1.0346939149894752,9.464279162597656,-2.262520568847656,4.2305543334960936,0,0,0,0
1.0359436589933466,9.447519750976562,-2.2577321655273437,4.113238452148437,0,0,0,0
1.037125754999579,9.483432775878907,-2.2577321655273437,4.096479040527344,0,0,0,0
1.038222721996135,9.4618849609375,-2.29843359375,4.153939880371094,0,0,0,0
1.0393087639968144,9.4618849609375,-2.243366955566406,4.125209460449218,0,0,0,0
1.0405844889901346,9.504980590820312,-2.1930887207031247,4.165910888671875,0,0,0,0
1.041888323990861,9.488221179199218,-2.2481553588867187,4.110844250488281,0,0,0,0
1.0430902909865836,9.414000927734374,-2.2098481323242187,4.077325427246094,0,0,0,0
1.0441942029865459,9.421183532714844,-2.2649147705078123,4.144363073730468,0,0,0,0
1.045289743997273,9.433154541015625,-2.3127988037109373,4.201823913574218,0,0,0,0
1.0466961709898897,9.373299499511718,-2.233790148925781,4.036623999023437,0,0,0,0
1.0480040799884591,9.354145886230468,-2.319981408691406,4.019864587402344,0,0,0,0
1.0492399349896004,9.334992272949219,-2.389413256835937,4.060566015625,0,0,0,0
1.0504172529908828,9.351751684570312,-2.39420166015625,4.055777612304687,0,0,0,0
1.0516262749879388,9.325415466308593,-2.384624853515625,4.062960217285156,0,0,0,0
1.0530159429908963,9.258377819824219,-2.4444798950195312,4.015076184082031,0,0,0,0
1.054155557998456,9.200916979980468,-2.463633508300781,4.072537023925781,0,0,0,0
1.055285209993599,9.212887988281249,-2.408566870117187,4.067748620605468,0,0,0,0
1.0563827339938143,9.255983618164063,-2.422932080078125,4.084508032226562,0,0,0,0
1.0576173849985935,9.220070593261719,-2.4396914916992185,4.0988732421875,0,0,0,0
1.0590657549910247,9.181763366699219,-2.4205378784179685,4.218583325195312,0,0,0,0
1.0602879059879342,9.145850341796875,-2.408566870117187,4.151545678710937,0,0,0,0
1.0613995589956176,9.162609753417968,-2.427720483398437,4.010287780761718,0,0,0,0
1.0626223209983436,9.191340173339842,-2.403778466796875,4.1754876953124995,0,0,0,0
1.0638268429902382,9.200916979980468,-2.4492682983398435,4.216189123535156,0,0,0,0
1.0649493469973095,9.150638745117186,-2.454056701660156,4.161122485351562,0,0,0,0
1.066051518995664,9.121908325195312,-2.480392919921875,4.290409374999999,0,0,0,0
1.0672666889877291,9.076418493652342,-2.492363928222656,4.247313745117188,0,0,0,0
1.068464858995867,9.083601098632812,-2.4516625,4.402936853027343,0,0,0,0
1.0696671399928164,9.114725720214842,-2.4061726684570313,4.216189123535156,0,0,0,0
1.0710464739968302,9.0788126953125,-2.4492682983398435,4.158728283691406,0,0,0,0
1.0724234379886184,9.07163009033203,-2.501940734863281,4.216189123535156,0,0,0,0
1.0738048469938803,9.069235888671875,-2.5617957763671875,4.153939880371094,0,0,0,0
1.0749074809864396,9.09796630859375,-2.492363928222656,4.199429711914062,0,0,0,0
1.0760015409905463,9.083601098632812,-2.5258827514648434,4.261678955078125,0,0,0,0
1.077122470989707,9.100360510253905,-2.4756045166015626,4.177881896972656,0,0,0,0
1.0783503449929412,9.07163009033203,-2.530671154785156,4.170699291992188,0,0,0,0
1.0796650319971377,9.074024291992187,-2.559401574707031,4.206612316894531,0,0,0,0
1.080775572991115,9.114725720214842,-2.518700146484375,4.165910888671875,0,0,0,0
1.0819660399865825,9.107543115234375,-2.5522189697265625,4.149151477050781,0,0,0,0
1.0835303899948485,9.076418493652342,-2.518700146484375,4.180276098632812,0,0,0,0
1.0849795759859262,9.083601098632812,-2.50912333984375,4.244919543457031,0,0,0,0
1.086096931991051,9.018957653808593,-2.5378537597656248,4.264073156738281,0,0,0,0
1.0871852329873946,8.980650427246093,-2.5570073730468748,4.319139794921875,0,0,0,0
1.0886214739875868,8.978256225585938,-2.5713725830078125,4.350264416503906,0,0,0,0
1.089940364996437,9.07163009033203,-2.5905261962890624,4.299986181640625,0,0,0,0
1.091310624993639,9.100360510253905,-2.5857377929687497,4.316745593261719,0,0,0,0
1.0924088149913587,9.05965908203125,-2.5522189697265625,4.2329485351562495,0,0,0,0
1.0936075589997927,9.100360510253905,-2.5737667846679684,4.374206433105469,0,0,0,0
1.09503846699954,9.006986645507812,-2.559401574707031,4.273649963378906,0,0,0,0
1.0963291539956117,9.045293872070312,-2.5713725830078125,4.311957189941406,0,0,0,0
1.097687062996556,9.02135185546875,-2.549824768066406,4.328716601562499,0,0,0,0
1.0988246409979183,9.05965908203125,-2.5570073730468748,4.378994836425781,0,0,0,0
1.1003737699938938,9.026140258789061,-2.5474305664062498,4.3430818115234375,0,0,0,0
1.1015106439881492,8.963891015625,-2.5761609863281247,4.295197778320312,0,0,0,0
1.102762979993713,9.009380847167968,-2.6479870361328124,4.2880151733398435,0,0,0,0
1.1040289269876666,8.999804040527343,-2.6671406494140624,4.340687609863281,0,0,0,0
1.105143135995604,9.038111267089842,-2.6599580444335937,4.3239281982421875,0,0,0,0
1.1062620839948067,9.069235888671875,-2.6503812377929687,4.331110803222656,0,0,0,0
1.1073567929997807,9.045293872070312,-2.674323254394531,4.259284753417968,0,0,0,0
1.1084398529928876,9.04050546875,-2.6719290527343746,4.237736938476562,0,0,0,0
1.1096062829892617,9.018957653808593,-2.683900061035156,4.309562988281249,0,0,0,0
1.110760619994835,9.042899670410156,-2.6958710693359373,4.3239281982421875,0,0,0,0
1.112053566990653,9.011775048828124,-2.712630480957031,4.302380383300781,0,0,0,0
1.1133003469876712,8.935160595703124,-2.693476867675781,4.285620971679688,0,0,0,0
1.1145162759930827,8.990227233886719,-2.6503812377929687,4.163516687011718,0,0,0,0
1.1156468729896005,9.054870678710937,-2.703053674316406,4.170699291992188,0,0,0,0
1.1167438039992703,9.069235888671875,-2.7198130859375,4.247313745117188,0,0,0,0
1.117834826989565,9.014169250488282,-2.712630480957031,4.254496350097656,0,0,0,0
1.1189951639971696,8.98304462890625,-2.6982652709960937,4.235342736816406,0,0,0,0
1.120166259992402,9.009380847167968,-2.6791116577148437,4.211400720214844,0,0,0,0
1.121259209990967,9.064447485351561,-2.693476867675781,4.209006518554688,0,0,0,0
1.1223317139956634,9.07163009033203,-2.6431986328124997,4.192247106933594,0,0,0,0
1.1238874909904553,9.066841687011719,-2.6479870361328124,4.290409374999999,0,0,0,0
1.1252475289948052,9.117119921875,-2.6384102294921874,4.2497079467773435,0,0,0,0
1.1264629029901698,9.145850341796875,-2.6312276245117188,4.149151477050781,0,0,0,0
1.1275618339859648,9.153032946777342,-2.6384102294921874,4.2521021484374995,0,0,0,0
1.1286495979875326,9.17458076171875,-2.7581203125,4.206612316894531,0,0,0,0
1.1297424729855265,9.1554271484375,-2.5234885498046875,4.276044165039062,0,0,0,0
1.1315904859948205,9.141061938476563,-2.5426421630859375,4.228160131835938,0,0,0,0
1.1328697659919271,9.057264880371093,-2.5354595581054684,4.2521021484374995,0,0,0,0
1.1343743959878339,9.26316622314453,-2.5426421630859375,4.2688615600585935,0,0,0,0
1.1354803999856813,9.253589416503905,-2.6001030029296874,4.177881896972656,0,0,0,0
1.1370439539896324,9.272743029785156,-2.4756045166015626,4.129997863769531,0,0,0,0
1.1383273639949039,9.244012609863281,-2.540247961425781,4.149151477050781,0,0,0,0
1.1394244429975515,9.267954626464844,-2.5163059448242184,4.163516687011718,0,0,0,0
1.1411476989887888,9.299079248046874,-2.4492682983398435,4.153939880371094,0,0,0,0
1.1423790539993206,9.294290844726563,-2.454056701660156,4.060566015625,0,0,0,0
1.1436108339985367,9.361328491210937,-2.4756045166015626,4.074931225585937,0,0,0,0
1.1447334679978667,9.342174877929686,-2.4971523315429685,4.141968872070312,0,0,0,0
1.1463478919904446,9.275137231445312,-2.454056701660156,4.2521021484374995,0,0,0,0
1.1475088589941151,9.303867651367186,-2.4492682983398435,4.077325427246094,0,0,0,0
1.1486455479898723,9.356540087890625,-2.3774422485351563,4.11802685546875,0,0,0,0
1.149835718999384,9.284714038085937,-2.398990063476562,4.132392065429687,0,0,0,0
1.1509874819894321,9.330203869628905,-2.422932080078125,4.103661645507812,0,0,0,0
1.152669885996147,9.3086560546875,-2.473210314941406,4.129997863769531,0,0,0,0
1.1538626119872788,9.258377819824219,-2.463633508300781,4.11802685546875,0,0,0,0
1.1549631909874734,9.287108239746093,-2.5067291381835934,4.127603662109375,0,0,0,0
1.1561330459953751,9.279925634765624,-2.4756045166015626,4.11802685546875,0,0,0,0
1.1576941559906118,9.291896643066405,-2.50912333984375,4.170699291992188,0,0,0,0
1.1589303629880305,9.291896643066405,-2.50912333984375,4.209006518554688,0,0,0,0
1.1600651629996719,9.244012609863281,-2.5163059448242184,4.168305090332031,0,0,0,0
1.1612406299973372,9.167398156738281,-2.4516625,4.247313745117188,0,0,0,0
1.1623986709892051,9.200916979980468,-2.4061726684570313,4.237736938476562,0,0,0,0
1.1634946939884685,9.212887988281249,-2.437297290039062,4.223371728515625,0,0,0,0
1.1645754579949426,9.236830004882812,-2.427720483398437,4.187458703613281,0,0,0,0
1.165663814987056,9.196128576660156,-2.389413256835937,4.153939880371094,0,0,0,0
1.1668405219970737,9.167398156738281,-2.4205378784179685,4.244919543457031,0,0,0,0
1.1679836739931488,9.248801013183593,-2.3774422485351563,4.223371728515625,0,0,0,0
1.1690774199960288,9.234435803222656,-2.4061726684570313,4.180276098632812,0,0,0,0
1.170601492995047,9.248801013183593,-2.3630770385742186,4.173093493652344,0,0,0,0
1.1717310899985023,9.294290844726563,-2.3582886352539063,4.151545678710937,0,0,0,0
1.1729806479997933,9.299079248046874,-2.4396914916992185,4.170699291992188,0,0,0,0
1.1741401519975625,9.34696328125,-2.422932080078125,4.074931225585937,0,0,0,0
1.1752381379919825,9.3086560546875,-2.4061726684570313,4.228160131835938,0,0,0,0
1.176368234999245,9.330203869628905,-2.4013842651367185,4.165910888671875,0,0,0,0
1.1774656099878484,9.320627062988281,-2.3630770385742186,4.187458703613281,0,0,0,0
1.1785706329974346,9.342174877929686,-2.3487118286132813,4.144363073730468,0,0,0,0
1.179764617991168,9.423577734375,-2.3678654418945313,4.168305090332031,0,0,0,0
1.1817012229876127,9.49300958251953,-2.375048046875,4.170699291992188,0,0,0,0
1.183160370987025,9.5001921875,-2.4061726684570313,4.192247106933594,0,0,0,0
1.1842747269984102,9.447519750976562,-2.3535002319335936,4.220977526855468,0,0,0,0
1.1855177859979449,9.41639512939453,-2.4516625,4.168305090332031,0,0,0,0
1.1871995239926036,9.411606726074218,-2.29843359375,4.163516687011718,0,0,0,0
1.1884950259991456,9.421183532714844,-2.4133552734375,4.187458703613281,0,0,0,0
1.1897970839927439,9.390058911132812,-2.250549560546875,4.283226770019531,0,0,0,0
1.1912277509982232,9.414000927734374,-2.27927998046875,4.271255761718749,0,0,0,0
1.1923658289888408,9.397241516113281,-2.291250988769531,4.359841223144531,0,0,0,0
1.1937447739910567,9.430760339355468,-2.327164013671875,4.302380383300781,0,0,0,0
1.195028646994615,9.521740002441407,-2.3918074584960936,4.2329485351562495,0,0,0,0
1.1962585939909332,9.488221179199218,-2.365471240234375,4.197035510253906,0,0,0,0
1.1977038539916975,9.572018237304688,-2.3391350219726563,4.177881896972656,0,0,0,0
1.1988043399906019,9.586383447265625,-2.2266075439453124,4.146757275390625,0,0,0,0
1.2002616729878355,9.586383447265625,-2.2481553588867187,4.201823913574218,0,0,0,0
1.2015959159907652,9.593566052246093,-2.35589443359375,4.11802685546875,0,0,0,0
1.2027273459971184,9.6151138671875,-2.3343466186523436,4.187458703613281,0,0,0,0
1.2038215359934838,9.572018237304688,-2.31758720703125,4.206612316894531,0,0,0,0
1.204936132999137,9.631873278808593,-2.319981408691406,4.237736938476562,0,0,0,0
1.2061659879982471,9.622296472167967,-2.3870190551757813,4.204218115234375,0,0,0,0
1.2074094899871852,9.516951599121093,-2.446874096679687,4.280832568359375,0,0,0,0
1.2085077909869142,9.562441430664062,-2.1691467041015624,4.328716601562499,0,0,0,0
1.2095895179954823,9.574412438964844,-2.29843359375,4.2521021484374995,0,0,0,0
1.210656356997788,9.543287817382812,-2.319981408691406,4.309562988281249,0,0,0,0
1.2119813589961268,9.564835632324218,-2.3056161987304686,4.3454760131835934,0,0,0,0
1.213205472988193,9.576806640625,-2.291250988769531,4.357447021484375,0,0,0,0
1.2143869019928388,9.490615380859374,-2.2936451904296873,4.378994836425781,0,0,0,0
1.2154893879924202,9.490615380859374,-2.2840683837890623,4.426878869628906,0,0,0,0
1.2165761519863736,9.540893615722656,-2.2649147705078123,4.374206433105469,0,0,0,0
1.2176717679976719,9.564835632324218,-2.2673089721679687,4.390965844726562,0,0,0,0
1.2189300489990273,9.562441430664062,-2.24097275390625,4.412513659667969,0,0,0,0
1.2201831439888338,9.588777648925781,-2.2936451904296873,4.3813890380859375,0,0,0,0
1.2212952589907218,9.56962403564453,-2.24097275390625,4.438849877929687,0,0,0,0
1.2223702269984642,9.574412438964844,-2.1787235107421874,4.4196962646484375,0,0,0,0
1.2234456399892224,9.588777648925781,-2.250549560546875,4.458003491210937,0,0,0,0
1.2249104359943885,9.667786303710937,-2.2744915771484373,4.407725256347656,0,0,0,0
1.22626851098903,9.643844287109374,-2.1906945190429687,4.390965844726562,0,0,0,0
1.227568253991194,9.627084875488281,-2.1404162841796874,4.352658618164062,0,0,0,0
1.228745683998568,9.665392102050781,-2.1691467041015624,4.390965844726562,0,0,0,0
1.229918168988661,9.70369932861328,-2.0829554443359375,4.484339709472656,0,0,0,0
1.2313249099970562,9.655815295410155,-2.085349645996094,4.402936853027343,0,0,0,0
1.2327482259861426,9.746794958496093,-2.0781670410156248,4.309562988281249,0,0,0,0
1.2342630399944028,9.813832604980469,-2.0757728393554684,4.3239281982421875,0,0,0,0
1.235635133998585,9.753977563476562,-2.1404162841796874,4.352658618164062,0,0,0,0
1.237170761989546,9.79946739501953,-2.123656872558594,4.402936853027343,0,0,0,0
1.2384875419957098,9.78031378173828,-2.0877438476562498,4.302380383300781,0,0,0,0
1.2397473589953734,9.816226806640625,-2.059013427734375,4.3454760131835934,0,0,0,0
1.2409346959902905,9.83777462158203,-2.109291662597656,4.42448466796875,0,0,0,0
1.24222736498632,9.832986218261718,-2.1212626708984375,4.359841223144531,0,0,0,0
1.243527255996014,9.852139831542969,-2.1164742675781247,4.2688615600585935,0,0,0,0
1.244694000997697,9.957484704589843,-2.118868469238281,4.242525341796875,0,0,0,0
1.246088741987478,9.749189160156249,-2.114080065917969,4.436455676269531,0,0,0,0
1.247310855993419,9.777919580078125,-2.01112939453125,4.292803576660156,0,0,0,0
1.2485867479990702,9.756371765136718,-2.0973206542968748,4.3071687866210935,0,0,0,0
1.2497738439997192,9.739612353515625,-2.1116858642578125,4.390965844726562,0,0,0,0
1.2514841549855191,9.78031378173828,-2.099714855957031,4.414907861328125,0,0,0,0
1.2527379169914639,9.753977563476562,-2.0781670410156248,4.367023828124999,0,0,0,0
1.2538503289979417,9.756371765136718,-2.1021090576171875,4.376600634765625,0,0,0,0
1.25502683299419,9.70369932861328,-2.0781670410156248,4.402936853027343,0,0,0,0
1.2562500029889634,9.679757312011718,-2.1619640991210938,4.417302062988281,0,0,0,0
1.2573502289887983,9.634267480468749,-2.080561242675781,4.436455676269531,0,0,0,0
1.258621527987998,9.658209497070311,-2.090138049316406,4.448426684570312,0,0,0,0
1.2598032719979528,9.667786303710937,-2.1643583007812497,4.469974499511719,0,0,0,0
1.2610792009945726,9.658209497070311,-2.133233679199219,4.477157104492187,0,0,0,0
1.2622834999929182,9.674968908691406,-2.104503259277344,4.520252734375,0,0,0,0
1.2635358549887314,9.65342109375,-2.128445275878906,4.460397692871093,0,0,0,0
1.2650737799995113,9.6917283203125,-2.0973206542968748,4.515464331054687,0,0,0,0
1.2663018199964426,9.636661682128906,-2.123656872558594,4.378994836425781,0,0,0,0
1.267601339990506,9.667786303710937,-2.1811177124023438,4.4196962646484375,0,0,0,0
1.2689108609920368,9.68454571533203,-2.1643583007812497,4.386177441406249,0,0,0,0
1.2701448269945104,9.639055883789062,-2.185906115722656,4.386177441406249,0,0,0,0
1.271393940987764,9.648632690429688,-2.1595698974609374,4.407725256347656,0,0,0,0
1.272697664986481,9.636661682128906,-2.1906945190429687,4.503493322753906,0,0,0,0
1.2744818279898027,9.562441430664062,-2.288856787109375,4.402936853027343,0,0,0,0
1.2759126059972914,9.555258825683593,-2.2481553588867187,4.407725256347656,0,0,0,0
1.2773514949949458,9.528922607421874,-2.221819140625,4.3622354248046875,0,0,0,0
1.2789228079927852,9.509768994140625,-2.2266075439453124,4.364629626464843,0,0,0,0
1.2803789939935086,9.519345800781249,-2.2744915771484373,4.484339709472656,0,0,0,0
1.2816227929870365,9.433154541015625,-2.2649147705078123,4.434061474609375,0,0,0,0
1.2828941469924757,9.375693701171874,-2.2744915771484373,4.458003491210937,0,0,0,0
1.2842046309961006,9.399635717773437,-2.3032219970703123,4.438849877929687,0,0,0,0
1.2855574649875052,9.203311181640624,-2.3582886352539063,4.510675927734375,0,0,0,0
1.286961113990401,9.323021264648437,-2.389413256835937,4.589684582519531,0,0,0,0
1.2881785059871618,9.315838659667968,-2.3726538452148436,4.505887524414062,0,0,0,0
1.2894191019877326,9.318232861328125,-2.379836450195312,4.467580297851562,0,0,0,0
1.2905813649995252,9.200916979980468,-2.346317626953125,4.369418029785156,0,0,0,0
1.2918589229957433,9.368511096191405,-2.327164013671875,4.295197778320312,0,0,0,0
1.29310598099255,9.430760339355468,-2.2361843505859373,4.225765930175781,0,0,0,0
1.2942655029910384,9.3852705078125,-2.166752502441406,4.3430818115234375,0,0,0,0
1.2956094309920445,9.459490759277344,-2.288856787109375,4.3430818115234375,0,0,0,0
1.2970126349973725,9.466673364257812,-2.2744915771484373,4.3813890380859375,0,0,0,0
1.2982965449918993,9.3852705078125,-2.2553379638671873,4.3071687866210935,0,0,0,0
1.2996202129870653,9.545682019042967,-2.29843359375,4.290409374999999,0,0,0,0
1.300962677996722,9.497797985839844,-2.3056161987304686,4.240131140136718,0,0,0,0
1.3023979749996215,9.464279162597656,-2.2960393920898436,4.407725256347656,0,0,0,0
1.3035064049909124,9.452308154296874,-2.3295582153320313,4.340687609863281,0,0,0,0
1.3048819429968717,9.387664709472656,-2.308010400390625,4.240131140136718,0,0,0,0
1.306211610994069,9.358934289550781,-2.35589443359375,4.319139794921875,0,0,0,0
1.3076621299987892,9.318232861328125,-2.375048046875,4.374206433105469,0,0,0,0
1.3087599309947109,9.327809667968749,-2.3918074584960936,4.42448466796875,0,0,0,0
1.309843416995136,9.327809667968749,-2.4157494750976563,4.402936853027343,0,0,0,0
1.3109151629905682,9.284714038085937,-2.473210314941406,4.2521021484374995,0,0,0,0
1.312061074990197,9.270348828125,-2.4516625,4.3263223999023435,0,0,0,0
1.3132357629947364,9.239224206542968,-2.3726538452148436,4.309562988281249,0,0,0,0
1.3143199529877165,9.260772021484375,-2.6001030029296874,4.331110803222656,0,0,0,0
1.315390383999329,9.200916979980468,-2.480392919921875,4.376600634765625,0,0,0,0
1.3166173129866365,9.124302526855468,-2.463633508300781,4.3263223999023435,0,0,0,0
1.3179105749877635,9.129090930175781,-2.473210314941406,4.242525341796875,0,0,0,0
1.3191470589954406,9.129090930175781,-2.4875755249023435,4.240131140136718,0,0,0,0
1.3202596189948963,9.090783703613281,-2.5809493896484375,4.302380383300781,0,0,0,0
1.321363400988048,9.09796630859375,-2.4684219116210935,4.2137949218749995,0,0,0,0
1.3224378319864627,9.107543115234375,-2.4516625,4.187458703613281,0,0,0,0
1.3235963549959706,9.143456140136719,-2.4564509033203126,4.218583325195312,0,0,0,0
1.324762265998288,9.167398156738281,-2.422932080078125,4.204218115234375,0,0,0,0
1.3258480109943775,9.1554271484375,-2.437297290039062,4.141968872070312,0,0,0,0
1.3269243869872298,9.203311181640624,-2.418143676757812,4.161122485351562,0,0,0,0
1.3282875179866096,9.143456140136719,-2.4109610717773435,4.113238452148437,0,0,0,0
1.3296110929950373,9.143456140136719,-2.4564509033203126,4.108450048828125,0,0,0,0
1.3307588569878135,9.129090930175781,-2.4684219116210935,4.113238452148437,0,0,0,0
1.3318505469942465,9.076418493652342,-2.4396914916992185,4.168305090332031,0,0,0,0
1.333055308990879,9.076418493652342,-2.4301146850585935,4.07971962890625,0,0,0,0
1.3342647009994835,9.050082275390624,-2.5354595581054684,4.091690637207031,0,0,0,0
1.3353616129898,9.023746057128905,-2.5234885498046875,4.110844250488281,0,0,0,0
1.3364462659956189,9.081206896972656,-2.5139117431640625,4.168305090332031,0,0,0,0
1.3375279559986666,9.0021982421875,-2.588131994628906,4.134786267089844,0,0,0,0
1.3386821449967101,9.0021982421875,-2.5426421630859375,4.218583325195312,0,0,0,0
1.3399867399857612,8.932766394042968,-2.5641899780273434,4.2497079467773435,0,0,0,0
1.3411980209930334,8.94473740234375,-2.7269956909179687,4.2137949218749995,0,0,0,0
1.3423783209873363,8.968679418945312,-2.5617957763671875,4.225765930175781,0,0,0,0
1.3435825089982245,8.942343200683593,-2.612074011230469,4.266467358398438,0,0,0,0
1.3447968269902049,8.8872765625,-2.6192566162109374,4.261678955078125,0,0,0,0
1.3461333849991206,8.84178673095703,-2.518700146484375,4.297591979980469,0,0,0,0
1.3473468509910163,8.853757739257812,-2.6001030029296874,4.170699291992188,0,0,0,0
1.3485294839920243,8.817844714355468,-2.6671406494140624,4.149151477050781,0,0,0,0
1.3497024129901547,8.75320126953125,-2.6048914062499997,4.182670300292968,0,0,0,0
1.3509370269894134,8.789114294433594,-2.683900061035156,4.223371728515625,0,0,0,0
1.3522300669865217,8.801085302734375,-2.6886884643554687,4.247313745117188,0,0,0,0
1.3534141259879107,8.827421520996094,-2.693476867675781,4.165910888671875,0,0,0,0
1.3545471859979443,8.870517150878905,-2.710236279296875,4.170699291992188,0,0,0,0
1.355727392990957,8.889670764160156,-2.6527754394531247,4.170699291992188,0,0,0,0
1.3569845989986788,8.968679418945312,-2.6503812377929687,4.261678955078125,0,0,0,0
1.358077807992231,9.004592443847656,-2.5953145996093747,4.333505004882812,0,0,0,0
1.3594500679901103,8.916006982421875,-2.5378537597656248,4.290409374999999,0,0,0,0
1.3606979039905127,8.851363537597656,-2.5546131713867184,4.185064501953125,0,0,0,0
1.3622764399915468,8.80347950439453,-2.5713725830078125,4.355052819824219,0,0,0,0
1.3633793699991656,8.78432589111328,-2.6001030029296874,4.355052819824219,0,0,0,0
1.3647834259900264,8.808267907714843,-2.636016027832031,4.309562988281249,0,0,0,0
1.3660690579999937,8.796296899414061,-2.703053674316406,4.2305543334960936,0,0,0,0
1.3673109319934156,8.86812294921875,-2.693476867675781,4.3239281982421875,0,0,0,0
1.368404806999024,8.98304462890625,-2.748543505859375,4.285620971679688,0,0,0,0
1.3695103479985846,8.863334545898438,-2.7653029174804686,4.3622354248046875,0,0,0,0
1.3707684799883282,8.875305554199219,-2.789244934082031,4.2880151733398435,0,0,0,0
1.3720251499908045,8.839392529296875,-2.834734765625,4.331110803222656,0,0,0,0
1.3732083939976292,8.834604125976561,-2.89219560546875,4.367023828124999,0,0,0,0
1.3744989519909723,8.825027319335938,-2.77727392578125,4.414907861328125,0,0,0,0
1.3756476039998233,8.89924757080078,-2.6958710693359373,4.304774584960938,0,0,0,0
1.3778531319985632,8.913612780761719,-2.6431986328124997,4.486733911132812,0,0,0,0
1.3789850619941717,8.90643017578125,-2.607285607910156,4.357447021484375,0,0,0,0
1.3801232139958302,8.961496813964843,-2.6479870361328124,4.347870214843749,0,0,0,0
1.3813927909941413,8.963891015625,-2.6695348510742187,4.3454760131835934,0,0,0,0
1.3825968119926983,9.0021982421875,-2.7341782958984373,4.383783239746093,0,0,0,0
1.3836856319976505,9.004592443847656,-2.89219560546875,4.395754248046875,0,0,0,0
1.385451183989062,9.054870678710937,-2.8036101440429686,4.283226770019531,0,0,0,0
1.3868237769929692,9.016563452148437,-2.8371289672851563,4.402936853027343,0,0,0,0
1.3880972059996566,9.05965908203125,-2.7844565307617186,4.185064501953125,0,0,0,0
1.3892427649989258,9.124302526855468,-2.920926025390625,4.223371728515625,0,0,0,0
1.3910095389874186,8.978256225585938,-2.9185318237304685,4.266467358398438,0,0,0,0
1.3921889869961888,9.074024291992187,-2.868253588867187,4.302380383300781,0,0,0,0
1.3932840659981593,9.088389501953124,-2.849099975585937,4.235342736816406,0,0,0,0
1.3951260059984634,9.04050546875,-2.7940333374023436,4.426878869628906,0,0,0,0
1.3966348199901404,9.083601098632812,-2.760514514160156,4.520252734375,0,0,0,0
1.3978475449985126,9.112331518554686,-2.731784094238281,4.299986181640625,0,0,0,0
1.3991832879983122,9.0788126953125,-2.760514514160156,4.414907861328125,0,0,0,0
1.4009776909952052,8.942343200683593,-2.77727392578125,4.50109912109375,0,0,0,0
1.4022868409956573,8.93755479736328,-2.8275521606445313,4.489128112792969,0,0,0,0
1.4033889749989612,8.961496813964843,-2.798821740722656,4.467580297851562,0,0,0,0
1.4045741829904728,8.990227233886719,-2.8036101440429686,4.390965844726562,0,0,0,0
1.4058704809867777,9.042899670410156,-2.760514514160156,4.390965844726562,0,0,0,0
1.4070337809971534,9.085995300292968,-2.806004345703125,4.417302062988281,0,0,0,0
1.408129896997707,9.179369165039063,-2.7246014892578123,4.429273071289062,0,0,0,0
1.4104222199966898,9.064447485351561,-2.6815058593749996,4.505887524414062,0,0,0,0
1.411601111991331,9.13627353515625,-2.703053674316406,4.50109912109375,0,0,0,0
1.4126933209918207,9.160215551757812,-2.703053674316406,4.438849877929687,0,0,0,0
1.4146786099881865,9.157821350097656,-2.73896669921875,4.467580297851562,0,0,0,0
1.4162866269907681,9.169792358398437,-2.674323254394531,4.472368701171875,0,0,0,0
1.4173995209857821,9.193734375,-2.6312276245117188,4.465186096191406,0,0,0,0
1.4184843219991308,9.217676391601563,-2.741360900878906,4.460397692871093,0,0,0,0
1.4195749739883468,9.169792358398437,-2.770091320800781,4.469974499511719,0,0,0,0
1.4212862489948748,9.160215551757812,-2.760514514160156,4.5585599609375,0,0,0,0
1.422451252990868,9.141061938476563,-2.7054478759765623,4.529829541015625,0,0,0,0
1.424195489991689,9.090783703613281,-2.73896669921875,4.599261389160156,0,0,0,0
1.4258758579962887,9.141061938476563,-2.712630480957031,4.649539624023437,0,0,0,0
1.4273084879969247,9.14824454345703,-2.674323254394531,4.5322237426757805,0,0,0,0
1.4284718619892374,9.176974963378905,-2.6958710693359373,4.522646936035156,0,0,0,0
1.4295905329927336,9.239224206542968,-2.693476867675781,4.623203405761719,0,0,0,0
1.4306643159943633,9.236830004882812,-2.6479870361328124,4.553771557617187,0,0,0,0
1.4323869239888154,9.203311181640624,-2.7150246826171873,4.618415002441406,0,0,0,0
1.4338422389992047,9.160215551757812,-2.7246014892578123,4.584896179199219,0,0,0,0
1.435139055000036,9.172186560058593,-2.693476867675781,4.5585599609375,0,0,0,0
1.436375428995234,9.229647399902344,-2.7341782958984373,4.5322237426757805,0,0,0,0
1.4376082089875126,9.251195214843749,-2.7341782958984373,4.587290380859375,0,0,0,0
1.4388412309926935,9.291896643066405,-2.731784094238281,4.537012145996093,0,0,0,0
1.4400396419950994,9.30147344970703,-2.674323254394531,4.604049792480469,0,0,0,0
1.4411536829866236,9.284714038085937,-2.6791116577148437,4.627991809082031,0,0,0,0
1.442251539992867,9.05965908203125,-2.6575638427734374,4.675875842285156,0,0,0,0
1.4434736719995271,9.26316622314453,-2.6431986328124997,4.630386010742187,0,0,0,0
1.444692341989139,9.270348828125,-2.6001030029296874,4.623203405761719,0,0,0,0
1.445904474996496,9.320627062988281,-2.6048914062499997,4.632780212402343,0,0,0,0
1.447073385992553,9.234435803222656,-2.7054478759765623,4.65432802734375,0,0,0,0
1.448215648997575,9.045293872070312,-2.674323254394531,4.5968671875,0,0,0,0
1.449470299994573,9.200916979980468,-2.6623522460937497,4.666299035644531,0,0,0,0
1.450698561995523,9.188945971679686,-2.6862942626953124,4.65432802734375,0,0,0,0
1.4518778439960442,9.18655177001953,-2.7341782958984373,4.642357019042969,0,0,0,0
1.4531246799888322,9.172186560058593,-2.6695348510742187,4.630386010742187,0,0,0,0
1.454252961993916,9.150638745117186,-2.6312276245117188,4.687846850585937,0,0,0,0
1.4554578729876084,9.153032946777342,-2.6336218261718747,4.745307690429687,0,0,0,0
1.456629301988869,9.124302526855468,-2.6599580444335937,4.714183068847656,0,0,0,0
1.4577299739903538,9.126696728515624,-2.602497204589844,4.6998178588867185,0,0,0,0
1.4588158119877335,9.200916979980468,-2.5905261962890624,4.726154077148437,0,0,0,0
1.459902834991226,9.191340173339842,-2.607285607910156,4.666299035644531,0,0,0,0
1.4610728759871563,9.181763366699219,-2.607285607910156,4.61602080078125,0,0,0,0
1.4622476019867463,9.169792358398437,-2.6479870361328124,4.611232397460937,0,0,0,0
1.46334206899337,9.208099584960937,-2.6384102294921874,4.627991809082031,0,0,0,0
1.464421536991722,9.236830004882812,-2.6527754394531247,4.565742565917969,0,0,0,0
1.4655116159992758,9.184157568359375,-2.645592834472656,4.546588952636719,0,0,0,0
1.4666778789978707,9.275137231445312,-2.6910826660156246,4.469974499511719,0,0,0,0
1.4678427719918545,9.323021264648437,-2.7198130859375,4.520252734375,0,0,0,0
1.4689693129912484,9.320627062988281,-2.6719290527343746,4.467580297851562,0,0,0,0
1.4700607439881423,9.26316622314453,-2.6910826660156246,4.472368701171875,0,0,0,0
1.4712196919863345,9.255983618164063,-2.7198130859375,4.592078784179687,0,0,0,0
1.4724147879896918,9.200916979980468,-2.6431986328124997,4.601655590820312,0,0,0,0
1.4735240699956194,9.234435803222656,-2.5761609863281247,4.529829541015625,0,0,0,0
1.4746096119924914,9.212887988281249,-2.5809493896484375,4.611232397460937,0,0,0,0
1.4756930799921975,9.181763366699219,-2.559401574707031,4.642357019042969,0,0,0,0
1.4768754169926979,9.18655177001953,-2.5378537597656248,4.642357019042969,0,0,0,0
1.4780495869927108,9.188945971679686,-2.530671154785156,4.675875842285156,0,0,0,0
1.4791456289967755,9.217676391601563,-2.5522189697265625,4.570530969238281,0,0,0,0
1.480226262996439,9.07163009033203,-2.549824768066406,4.580107775878906,0,0,0,0
1.4813156009913655,9.227253198242186,-2.492363928222656,4.642357019042969,0,0,0,0
1.482482141989749,9.212887988281249,-2.5522189697265625,4.671087438964843,0,0,0,0
1.4836721639876487,9.22485899658203,-2.5522189697265625,4.627991809082031,0,0,0,0
1.4847689649905078,9.222464794921875,-2.5641899780273434,4.7189714721679685,0,0,0,0
1.4858543959999224,9.253589416503905,-2.5617957763671875,4.747701892089843,0,0,0,0
1.4870146959874546,9.255983618164063,-2.578555187988281,4.762067102050781,0,0,0,0
1.4881938289909158,9.220070593261719,-2.5905261962890624,4.7022120605468745,0,0,0,0
1.489297814987367,9.193734375,-2.5474305664062498,4.666299035644531,0,0,0,0
1.4904092639917508,9.212887988281249,-2.5546131713867184,4.582501977539062,0,0,0,0
1.4914973239938263,9.234435803222656,-2.5857377929687497,4.534617944335937,0,0,0,0
1.4926566059875768,9.253589416503905,-2.583343591308594,4.65432802734375,0,0,0,0
1.494083587997011,9.296685046386719,-2.5450363647460934,4.671087438964843,0,0,0,0
1.4951882959867362,9.284714038085937,-2.6144682128906247,4.687846850585937,0,0,0,0
1.496308281988604,9.342174877929686,-2.530671154785156,4.6639048339843745,0,0,0,0
1.4980119639949407,9.363722692871093,-2.5665841796874997,4.647145422363281,0,0,0,0
1.4993256509915227,9.315838659667968,-2.521094348144531,4.728548278808593,0,0,0,0
1.5006724859995302,9.409212524414063,-2.499546533203125,4.608838195800781,0,0,0,0
1.501821823985665,9.440337145996093,-2.5163059448242184,4.587290380859375,0,0,0,0
1.5030384749989025,9.425971936035156,-2.4851813232421875,4.57771357421875,0,0,0,0
1.5042197929869872,9.519345800781249,-2.5163059448242184,4.57771357421875,0,0,0,0
1.5053235009982018,9.49300958251953,-2.588131994628906,4.560954162597656,0,0,0,0
1.5068807229981758,9.495403784179686,-2.602497204589844,4.580107775878906,0,0,0,0
1.5081357989984099,9.502586389160156,-2.578555187988281,4.548983154296875,0,0,0,0
1.5093180989933899,9.560047229003906,-2.5857377929687497,4.582501977539062,0,0,0,0
1.5104882319865283,9.572018237304688,-2.5665841796874997,4.436455676269531,0,0,0,0
1.5115824039967265,9.574412438964844,-2.5258827514648434,4.441244079589843,0,0,0,0
1.512665667993133,9.5384994140625,-2.511517541503906,4.436455676269531,0,0,0,0
1.5137545799952932,9.521740002441407,-2.5617957763671875,4.446032482910156,0,0,0,0
1.514838195987977,9.445125549316407,-2.5522189697265625,4.364629626464843,0,0,0,0
1.5160046629898716,9.49300958251953,-2.5570073730468748,4.374206433105469,0,0,0,0
1.517212295992067,9.49300958251953,-2.518700146484375,4.371812231445312,0,0,0,0
1.5183099299902096,9.449913952636718,-2.5258827514648434,4.359841223144531,0,0,0,0
1.5193928049993701,9.442731347656249,-2.4971523315429685,4.434061474609375,0,0,0,0
1.520478327991441,9.397241516113281,-2.50912333984375,4.493916516113281,0,0,0,0
1.5216730359970825,9.394847314453125,-2.492363928222656,4.3454760131835934,0,0,0,0
