Time (s),Accel X1,Accel Y1,Accel Z1,Accel X2,Accel Y2,Accel Z2
9.935100024449639e-05,0,0,1.3742717529296875,0,0,1.6078125
0.0037358099998527905,0,0,1.2952630981445312,0,0,0.6890625
0.007908854999186588,0,0,1.2928688964843749,0,0,0.45937500000000003
0.01170044199898257,0,0,1.4939818359375,0,0,0.5359375000000001
0.01616461499907018,0,0,1.5945383056640625,0,0,0.5359375000000001
0.020167569999102852,0,0,1.2880804931640624,0,0,-9.49375
0.02498275600009947,0,0,1.254561669921875,0,0,1.1484375
0.029140894999727607,0,0,1.2665326782226562,0,0,0.3828125
0.03350569699978223,0,0,1.3383587280273437,0,0,0.6890625
0.03758383700005652,0,0,1.3407529296874998,0,0,0.9187500000000001
0.042580650999298086,0,0,1.4628572143554686,0,0,0.3828125
0.04707839699949545,0,0,1.5155296508789062,0,0,0.8421875000000001
0.05153651299951889,0,0,1.3383587280273437,0,0,1.378125
0.05610233199877257,0,0,1.5777788940429687,0,0,0.6890625
0.06015413899876876,0,0,1.158793603515625,0,0,0.6890625
0.06410131699885824,0,0,1.455674609375,0,0,0.5359375000000001
0.0683295469989389,0,0,1.369483349609375,0,0,0.5359375000000001
0.07253498099998978,0,0,1.2569558715820313,0,0,1.3015625000000002
0.07701152299887326,0,0,1.388636962890625,0,0,0.765625
0.08208100400042895,0,0,1.5059528442382812,0,0,1.1484375
0.08656073099882633,0,0,1.438915197753906,0,0,0.6890625
0.09077203499873576,0,0,1.3623007446289062,0,0,0.0
0.09512480099874665,0,0,1.5179238525390624,0,0,0.6125
0.0994417900001281,0,0,1.2018892333984375,0,0,0.6125
0.10357361400019727,0,0,1.5298948608398437,0,0,1.6843750000000002
0.10763675300040632,0,0,1.3479355346679687,0,0,0.8421875000000001
0.11104093699941586,0,0,1.5011644409179687,0,0,0.765625
0.11363481599983061,0,0,1.465251416015625,0,0,1.225
0.11632221099898743,0,0,1.4173673828125,0,0,1.1484375
0.11889781199897698,0,0,1.3024457031249999,0,0,1.4546875000000001
0.12158570799874724,0,0,1.5227122558593749,0,0,1.1484375
0.1241921969995019,0,0,1.5155296508789062,0,0,0.22968750000000002
0.1268667969998205,0,0,1.5394716674804687,0,0,0.9187500000000001
0.12945621200015012,0,0,1.2976572998046874,0,0,0.5359375000000001
0.1321305149995169,0,0,1.4221557861328125,0,0,1.53125
0.13477870799943048,0,0,1.4341267944335936,0,0,1.1484375
0.1375566019996768,0,0,1.3144167114257812,0,0,0.6125
0.14019962800011854,0,0,1.1324573852539062,0,0,0.765625
0.14288000600026862,0,0,1.2976572998046874,0,0,0.0
0.14573515899974154,0,0,1.3168109130859373,0,0,0.6890625
0.14859018199967977,0,0,1.37906015625,0,0,1.0718750000000001
0.15174505399954796,0,0,1.369483349609375,0,0,0.9187500000000001
0.15517851599906862,0,0,1.3479355346679687,0,0,1.0718750000000001
0.15838675699887972,0,0,1.3551181396484375,0,0,0.8421875000000001
0.16118187400024908,0,0,1.3144167114257812,0,0,0.9953125
0.16437965299883217,0,0,1.3838485595703125,0,0,0.22968750000000002
0.16707015999963915,0,0,1.5729904907226562,0,0,0.9187500000000001
0.1697419069987518,0,0,1.3407529296874998,0,0,0.765625
0.17252380199897743,0,0,1.35990654296875,0,0,0.45937500000000003
0.17537175200050115,0,0,1.5298948608398437,0,0,0.9953125
0.17807790599908913,0,0,1.4891934326171874,0,0,0.765625
0.1813101480001933,0,0,1.3048399047851562,0,0,0.5359375000000001
0.18397632199958025,0,0,1.5107412475585937,0,0,1.378125
0.18672686500030977,0,0,1.6065093139648436,0,0,0.9953125
0.18961318400033633,0,0,1.2210428466796874,0,0,0.6125
0.19271900099920458,0,0,1.350329736328125,0,0,0.30625
0.19542198899944196,0,0,1.4700398193359374,0,0,1.1484375
0.19856115800030238,0,0,1.37906015625,0,0,0.765625
0.20164212300005602,0,0,1.3862427612304686,0,0,0.6890625
0.20440455499920063,0,0,1.5298948608398437,0,0,0.45937500000000003
0.2071990240001469,0,0,1.8267758666992187,0,0,0.8421875000000001
0.20979236499988474,0,0,1.158793603515625,0,0,0.8421875000000001
0.2127262760004669,0,0,1.4053963745117186,0,0,-9.340625000000001
0.21562165099931008,0,0,1.2761094848632812,0,0,0.8421875000000001
0.21857165499932307,0,0,1.2808978881835937,0,0,0.6890625
0.22163600999920163,0,0,1.419761584472656,0,0,0.765625
0.22463425400019332,0,0,1.4125789794921875,0,0,0.30625
0.22749520300021686,0,0,1.5873557006835937,0,0,0.6890625
0.23041846599880955,0,0,1.2282254516601563,0,0,0.6890625
0.2333008779987722,0,0,1.5035586425781249,0,0,0.0765625
0.23620884599949932,0,0,1.3287819213867187,0,0,0.153125
0.23908957300045586,0,0,1.2378022583007813,0,0,1.3015625000000002
0.2419768549989385,0,0,1.3048399047851562,0,0,0.45937500000000003
0.24485743399964122,0,0,1.2330138549804688,0,0,0.22968750000000002
0.2477530679989286,0,0,1.5322890624999999,0,0,1.0718750000000001
0.2506651089988736,0,0,1.199495031738281,0,0,0.9187500000000001
0.25359035399924323,0,0,1.4173673828125,0,0,0.0
0.25691940899923793,0,0,1.6711527587890624,0,0,0.9953125
0.25995661599881714,0,0,1.3359645263671873,0,0,0.6890625
0.26298328600023524,0,0,1.2378022583007813,0,0,832.69375
0.26604986199890845,0,0,1.0893617553710937,0,0,0.5359375000000001
0.2689960139996401,0,0,1.2832920898437499,0,0,0.5359375000000001
0.2720202580003388,0,0,1.3407529296874998,0,0,0.3828125
0.2749091329988005,0,0,1.4700398193359374,0,0,0.0
0.2777958229999058,0,0,1.4030021728515625,0,0,0.8421875000000001
0.2806800309990649,0,0,1.13006318359375,0,0,0.9953125
0.28423362099965743,0,0,1.2282254516601563,0,0,0.6890625
0.28767589699964446,0,0,1.4915876342773438,0,0,0.6890625
0.29078304699942237,0,0,1.199495031738281,0,0,0.3828125
0.2936019970002235,0,0,1.3527239379882812,0,0,0.0
0.2965951859987399,0,0,1.4628572143554686,0,0,0.765625
0.299636300000202,0,0,1.3479355346679687,0,0,1.0718750000000001
0.3028019680004945,0,0,1.4820108276367188,0,0,1.3015625000000002
0.3057499160004227,0,0,1.2928688964843749,0,0,1.0718750000000001
0.30887745499967423,0,0,1.3551181396484375,0,0,0.8421875000000001
0.3119114399996761,0,0,1.5227122558593749,0,0,0.6890625
0.31486368399964704,0,0,1.388636962890625,0,0,1.1484375
0.31762196799900266,0,0,1.5705962890624998,0,0,1.1484375
0.32041713999933563,0,0,1.3168109130859373,0,0,0.9187500000000001
0.3230354259994783,0,0,1.4317325927734375,0,0,1.4546875000000001
0.32576885799971933,0,0,1.3239935180664062,0,0,0.8421875000000001
0.3286376220003149,0,0,1.2018892333984375,0,0,0.6890625
0.3314728309997008,0,0,1.0941501586914062,0,0,1.1484375
0.33420426299926476,0,0,1.429338391113281,0,0,0.6125
0.3369273810003506,0,0,1.3527239379882812,0,0,0.6890625
0.3396164619989577,0,0,1.388636962890625,0,0,1.3015625000000002
0.34235248699951626,0,0,1.2497732666015624,0,0,0.6890625
0.344955956999911,0,0,1.4700398193359374,0,0,1.0718750000000001
0.34780188799959433,0,0,1.668758557128906,0,0,1.1484375
0.3506427079992136,0,0,1.1228805786132812,0,0,0.9953125
0.35334940000029746,0,0,1.2952630981445312,0,0,1.8375000000000001
0.3559361119987443,0,0,1.2808978881835937,0,0,0.765625
0.3587289509996481,0,0,1.2761094848632812,0,0,0.765625
0.3613596619998134,0,0,1.1061211669921875,0,0,0.9187500000000001
0.36418961199888145,0,0,1.2904746948242187,0,0,0.3828125
0.3668458409993036,0,0,1.2330138549804688,0,0,0.6890625
0.3696032909992937,0,0,1.4437036010742186,0,0,0.6125
0.37221779900028196,0,0,1.2569558715820313,0,0,0.5359375000000001
0.3749505279993173,0,0,1.5203180541992187,0,0,1.225
0.37762223800018546,0,0,1.7238251953125,0,0,1.0718750000000001
0.3807463329994789,0,0,1.16837041015625,0,0,0.6125
0.38336867399993935,0,0,1.3958195678710936,0,0,1.990625
0.3861317169994436,0,0,1.407790576171875,0,0,1.0718750000000001
0.38919618199906836,0,0,1.35990654296875,0,0,0.5359375000000001
0.39203124300001946,0,0,1.2689268798828124,0,0,0.6125
0.3946540469987667,0,0,1.5298948608398437,0,0,1.0718750000000001
0.39743055299913976,0,0,1.3479355346679687,0,0,0.8421875000000001
0.4001104489998397,0,0,1.3120225097656248,0,0,0.9953125
0.40291165800044837,0,0,1.467645617675781,0,0,1.1484375
0.4067147629993997,0,0,1.2306196533203124,0,0,0.765625
0.409974467000211,0,0,1.3335703247070312,0,0,0.765625
0.4126581040000019,0,0,1.458068811035156,0,0,0.9187500000000001
0.4155507380000927,0,0,1.429338391113281,0,0,-853.1359375000001
0.4182923179996578,0,0,1.7214309936523438,0,0,0.8421875000000001
0.42139671000040835,0,0,1.3144167114257812,0,0,0.9953125
0.42407634600021993,0,0,1.5131354492187499,0,0,0.0765625
0.4272024780002539,0,0,1.3359645263671873,0,0,0.9953125
0.42988209599934635,0,0,1.3383587280273437,0,0,1.1484375
0.4325627509988408,0,0,1.2665326782226562,0,0,0.8421875000000001
0.43515474000014365,0,0,1.3287819213867187,0,0,1.0718750000000001
0.43804848499894433,0,0,1.6136919189453125,0,0,0.8421875000000001
0.4410684880003828,0,0,1.2665326782226562,0,0,0.6125
0.44371471799968276,0,0,1.3215993164062498,0,0,1.53125
0.44628807799927017,0,0,1.3623007446289062,0,0,0.765625
0.44901986199874955,0,0,1.4006079711914061,0,0,0.9187500000000001
0.4521038459988631,0,0,1.1755530151367186,0,0,0.9187500000000001
0.45508444199913356,0,0,1.3072341064453123,0,0,1.3015625000000002
0.458051001000058,0,0,1.6328455322265625,0,0,0.8421875000000001
0.460894580999593,0,0,1.3766659545898436,0,0,0.765625
0.4640779709989147,0,0,1.5179238525390624,0,0,0.0765625
0.46697132699955546,0,0,1.2330138549804688,0,0,0.6890625
0.46972633299992594,0,0,1.3479355346679687,0,0,0.45937500000000003
0.4724547839996376,0,0,1.1875240234375,0,0,0.8421875000000001
0.47506973599956837,0,0,1.4820108276367188,0,0,1.53125
0.47794099999919126,0,0,1.5346832641601562,0,0,1.225
0.48082122699997853,0,0,1.3168109130859373,0,0,0.6890625
0.48362417699900107,0,0,1.3934253662109375,0,0,1.378125
0.48622227699888754,0,0,1.5059528442382812,0,0,0.5359375000000001
0.4889335799998662,0,0,1.5969325073242187,0,0,0.8421875000000001
0.49165606799942907,0,0,1.1563994018554686,0,0,0.6125
0.4943956859988248,0,0,1.4413093994140624,0,0,0.5359375000000001
0.49701224899945373,0,0,1.22583125,0,0,0.765625
0.4997624959996756,0,0,1.218648645019531,0,0,0.765625
0.5107788530003745,0,0,1.5227122558593749,0,0,0.6125
0.5148232150004333,0,0,1.3192051147460937,0,0,832.6171875000001
0.517465204000473,0,0,1.4987702392578124,0,0,0.9187500000000001
0.5201380260004953,0,0,1.3623007446289062,0,0,0.9953125
0.5228874029999133,0,0,1.2138602416992186,0,0,0.6125
0.5254829469995457,0,0,1.2593500732421874,0,0,0.9187500000000001
0.5281527690003713,0,0,1.426944189453125,0,0,0.45937500000000003
0.5307147589992383,0,0,1.3575123413085937,0,0,0.8421875000000001
0.5335950039989257,0,0,1.4532804077148436,0,0,0.5359375000000001
0.5362417899996217,0,0,1.4532804077148436,0,0,1.0718750000000001
0.5394976419993327,0,0,1.6136919189453125,0,0,0.6125
0.5423261100004311,0,0,1.139639990234375,0,0,0.9953125
0.5455552959992929,0,0,1.2473790649414063,0,0,1.4546875000000001
0.5484149860003527,0,0,1.2641384765625,0,0,1.1484375
0.5513089910000417,0,0,1.3838485595703125,0,0,0.6890625
0.5541317369988974,0,0,1.4221557861328125,0,0,1.53125
0.5569144090004556,0,0,1.3958195678710936,0,0,0.5359375000000001
0.5595444169994153,0,0,1.8028338500976562,0,0,0.9953125
0.5622765529988101,0,0,1.1611878051757811,0,0,0.5359375000000001
0.5649029489995883,0,0,1.3359645263671873,0,0,-9.49375
0.5677777689998038,0,0,1.2473790649414063,0,0,0.6890625
0.5705596819989296,0,0,1.350329736328125,0,0,0.9187500000000001
0.5733371690002969,0,0,1.3551181396484375,0,0,0.3828125
0.5759459729997616,0,0,1.3000515014648437,0,0,1.4546875000000001
0.5787195720004092,0,0,1.6711527587890624,0,0,0.9953125
0.5813267639987316,0,0,1.3455413330078123,0,0,0.6890625
0.5840667519987619,0,0,1.407790576171875,0,0,1.378125
0.5868711839993921,0,0,1.3144167114257812,0,0,0.45937500000000003
0.5895785049997357,0,0,1.4125789794921875,0,0,0.8421875000000001
0.5921691059993464,0,0,1.3575123413085937,0,0,0.3828125
0.5947424839996529,0,0,1.3718775512695311,0,0,0.153125
0.59753343400007,0,0,1.5131354492187499,0,0,1.0718750000000001
0.6002680700003111,0,0,1.3168109130859373,0,0,1.0718750000000001
0.6031912219987134,0,0,1.1085153686523437,0,0,0.765625
0.6059563950002484,0,0,1.3934253662109375,0,0,1.3015625000000002
0.6090776559994993,0,0,1.6136919189453125,0,0,0.765625
0.6127771520004899,0,0,1.2114660400390624,0,0,0.6890625
0.6158469319998403,0,0,1.5466542724609373,0,0,1.0718750000000001
0.6187925289996201,0,0,1.5897499023437498,0,0,1.3015625000000002
0.6221233989999746,0,0,1.3359645263671873,0,0,0.45937500000000003
0.625445731999207,0,0,1.35990654296875,0,0,0.22968750000000002
0.6300864570002886,0,0,1.3862427612304686,0,0,0.5359375000000001
0.6336673989990231,0,0,1.3934253662109375,0,0,0.6890625
0.6364633489993139,0,0,1.4173673828125,0,0,0.45937500000000003
0.6399929569997767,0,0,1.5298948608398437,0,0,0.9953125
0.6427200010002707,0,0,1.1923124267578125,0,0,0.765625
0.6461224809991108,0,0,1.2976572998046874,0,0,1.1484375
0.6488005989995145,0,0,1.458068811035156,0,0,1.9140625000000002
0.6515733830001409,0,0,1.3192051147460937,0,0,0.9187500000000001
0.6542575559997204,0,0,1.22583125,0,0,0.765625
0.6573478179998347,0,0,1.4030021728515625,0,0,0.6125
0.6601941930002795,0,0,1.6328455322265625,0,0,0.8421875000000001
0.6630419569992227,0,0,1.1037269653320312,0,0,0.5359375000000001
0.6656430759994691,0,0,1.3192051147460937,0,0,0.153125
0.6682265290000942,0,0,1.2928688964843749,0,0,0.6890625
0.6709444799998892,0,0,1.2761094848632812,0,0,0.765625
0.6754615959998773,0,0,1.4101847778320311,0,0,-9.340625000000001
0.6783920999987458,0,0,1.2378022583007813,0,0,0.45937500000000003
0.6817604879997816,0,0,1.3455413330078123,0,0,0.765625
0.6845101050002995,0,0,1.5251064575195312,0,0,0.6890625
0.6874454609987879,0,0,1.426944189453125,0,0,0.153125
0.6901644119989214,0,0,1.5873557006835937,0,0,0.8421875000000001
0.6928457710000657,0,0,1.2378022583007813,0,0,0.5359375000000001
0.6955512029999227,0,0,1.4987702392578124,0,0,0.5359375000000001
0.6989926280002692,0,0,1.3551181396484375,0,0,0.765625
0.7016713749999326,0,0,1.2210428466796874,0,0,0.9187500000000001
0.7042964569991454,0,0,1.407790576171875,0,0,0.6890625
0.7070226300002105,0,0,1.5227122558593749,0,0,1.4546875000000001
0.7097250070000882,0,0,1.5897499023437498,0,0,1.0718750000000001
0.7122509050004737,0,0,1.3072341064453123,0,0,1.0718750000000001
0.714470953998898,0,0,1.3000515014648437,0,0,1.1484375
0.7167790200001036,0,0,1.4437036010742186,0,0,0.30625
0.7189972920004948,0,0,1.3766659545898436,0,0,0.9953125
0.7213915609991091,0,0,1.2306196533203124,0,0,0.6890625
0.723682331999953,0,0,1.1061211669921875,0,0,0.9187500000000001
0.7259508429997368,0,0,1.35990654296875,0,0,0.6890625
0.7281734659991344,0,0,1.4413093994140624,0,0,0.6125
0.7304583669993008,0,0,1.5442600708007812,0,0,0.765625
0.7327289709992328,0,0,1.1133037719726562,0,0,0.8421875000000001
0.734920778999367,0,0,1.3359645263671873,0,0,0.3828125
0.7372215309987951,0,0,1.5203180541992187,0,0,1.7609375
0.7395277460000216,0,0,1.2401964599609374,0,0,0.6890625
0.7424054919993068,0,0,1.4891934326171874,0,0,1.0718750000000001
0.7448593709996203,0,0,1.3383587280273437,0,0,0.5359375000000001
0.7480284840003151,0,0,1.3862427612304686,0,0,0.30625
0.7504579199994623,0,0,1.659181750488281,0,0,1.0718750000000001
0.7529229479987407,0,0,1.218648645019531,0,0,-9.034375
0.7552459399994405,0,0,1.3527239379882812,0,0,0.9187500000000001
0.757661208999707,0,0,1.419761584472656,0,0,1.0718750000000001
0.7601205329992808,0,0,1.7884686401367187,0,0,-8.728125
0.7627762629999779,0,0,1.1540052001953125,0,0,0.9187500000000001
0.7650644959994679,0,0,1.369483349609375,0,0,0.45937500000000003
0.7677080960002058,0,0,1.4915876342773438,0,0,1.1484375
0.7700788290003402,0,0,1.5490484741210937,0,0,0.9953125
0.7725788009993266,0,0,1.3575123413085937,0,0,0.765625
0.7750049589994887,0,0,1.369483349609375,0,0,0.3828125
0.7774689119996765,0,0,1.3958195678710936,0,0,1.0718750000000001
0.7796971099996881,0,0,1.2569558715820313,0,0,0.5359375000000001
0.7821040090002498,0,0,1.3359645263671873,0,0,0.3828125
0.7843335950001347,0,0,1.1276689819335937,0,0,0.8421875000000001
0.7869907309996051,0,0,1.5059528442382812,0,0,0.30625
0.789387111999531,0,0,1.2425906616210938,0,0,0.6890625
0.7923002269999415,0,0,1.3263877197265623,0,0,0.6890625
0.7947228109987918,0,0,1.3718775512695311,0,0,0.6890625
0.7971767649996764,0,0,1.4772224243164063,0,0,0.45937500000000003
0.7995064429997001,0,0,1.2569558715820313,0,0,0.6890625
0.8018441019994498,0,0,1.3215993164062498,0,0,0.5359375000000001
0.8043095920002088,0,0,1.1324573852539062,0,0,0.9187500000000001
0.8067477869990398,0,0,1.4245499877929686,0,0,-852.8296875000001
0.8091413160000229,0,0,1.2306196533203124,0,0,1.1484375
0.8113625869991665,0,0,1.4796166259765624,0,0,0.9953125
0.8138870399998268,0,0,1.1516109985351561,0,0,0.5359375000000001
0.8164539739991596,0,0,1.388636962890625,0,0,-8.881250000000001
0.8189688539987401,0,0,1.2665326782226562,0,0,0.9187500000000001
0.8215767319998122,0,0,1.6519991455078125,0,0,0.765625
0.8242939049996494,0,0,1.180341418457031,0,0,0.9187500000000001
0.8270504479987721,0,0,1.3958195678710936,0,0,832.8468750000001
0.8294386059988028,0,0,1.3359645263671873,0,0,0.9187500000000001
0.8324680719997559,0,0,1.3527239379882812,0,0,0.765625
0.8350550799987104,0,0,1.2282254516601563,0,0,0.3828125
0.8378218449997803,0,0,1.458068811035156,0,0,1.3015625000000002
0.8405465559990262,0,0,1.458068811035156,0,0,0.9953125
0.8431459709991032,0,0,1.2976572998046874,0,0,0.6890625
0.8456521650005016,0,0,1.2378022583007813,0,0,0.0765625
0.8481851359993016,0,0,1.4772224243164063,0,0,1.0718750000000001
0.8507251629998791,0,0,1.5514426757812498,0,0,1.4546875000000001
0.8531186740001431,0,0,1.407790576171875,0,0,0.6125
0.855704440999034,0,0,1.22583125,0,0,0.6125
0.858130042999619,0,0,1.458068811035156,0,0,1.225
0.8606162380001479,0,0,1.4963760375976562,0,0,0.5359375000000001
0.8630583399990428,0,0,1.3958195678710936,0,0,0.9953125
0.8655527379996784,0,0,1.5251064575195312,0,0,0.45937500000000003
0.8680566909988556,0,0,1.5059528442382812,0,0,1.4546875000000001
0.8707252349995542,0,0,1.3551181396484375,0,0,1.0718750000000001
0.8731064860003244,0,0,1.2665326782226562,0,0,0.45937500000000003
0.8755814029991598,0,0,1.2904746948242187,0,0,0.30625
0.8780094499998086,0,0,1.4796166259765624,0,0,1.378125
0.8803814969996893,0,0,1.3048399047851562,0,0,0.9953125
0.8828701539987378,0,0,1.429338391113281,0,0,1.3015625000000002
0.8853168299992831,0,0,1.886630908203125,0,0,0.9187500000000001
0.8877171000003727,0,0,1.8028338500976562,0,0,0.22968750000000002
0.8902159609988303,0,0,1.7022773803710936,0,0,1.0718750000000001
0.8926061929996649,0,0,1.7741034301757812,0,0,0.6890625
0.8951163679994352,0,0,1.1923124267578125,0,0,0.8421875000000001
0.8974996750002902,0,0,1.2641384765625,0,0,832.3875
0.8998867779991997,0,0,1.6256629272460936,0,0,0.9953125
0.9023609719988599,0,0,1.5179238525390624,0,0,0.6890625
0.9053295499998057,0,0,1.3096283081054687,0,0,0.30625
0.9081376849990193,0,0,1.6831237670898436,0,0,1.225
0.9107208779987559,0,0,1.5227122558593749,0,0,0.9953125
0.9133913850000681,0,0,1.4317325927734375,0,0,0.9187500000000001
0.916014799999175,0,0,1.4796166259765624,0,0,0.3828125
0.9188086760004808,0,0,1.5179238525390624,0,0,0.30625
0.9215870150001138,0,0,1.7549498168945312,0,0,1.0718750000000001
0.9244752049999079,0,0,1.5203180541992187,0,0,0.9187500000000001
0.9272539699995832,0,0,1.446097802734375,0,0,0.0
0.9303301389991248,0,0,1.4030021728515625,0,0,0.8421875000000001
0.933267865999369,0,0,1.3311761230468748,0,0,0.9953125
0.9359781319999456,0,0,1.2282254516601563,0,0,0.5359375000000001
0.9388887469995097,0,0,1.5825672973632812,0,0,0.6890625
0.9415259209999931,0,0,1.6903063720703124,0,0,1.4546875000000001
0.9442301500002941,0,0,1.446097802734375,0,0,0.9187500000000001
0.9468111949990998,0,0,1.649604943847656,0,0,1.6843750000000002
0.9495940710003197,0,0,1.6448165405273436,0,0,0.8421875000000001
0.9522058940001443,0,0,1.4532804077148436,0,0,0.765625
0.954952140999012,0,0,1.0486603271484374,0,0,0.8421875000000001
0.9575822409988177,0,0,1.3000515014648437,0,0,0.22968750000000002
0.9602855809989705,0,0,1.446097802734375,0,0,0.8421875000000001
0.9629173840003205,0,0,1.3623007446289062,0,0,0.9953125
0.9656018169989693,0,0,1.3814543579101561,0,0,0.9187500000000001
0.9682081030005065,0,0,1.6208745239257811,0,0,2.5265625000000003
0.9708792580004229,0,0,1.6615759521484375,0,0,0.5359375000000001
0.97345930299889,0,0,1.458068811035156,0,0,0.765625
0.9761185879997356,0,0,1.5251064575195312,0,0,0.3828125
0.9787030219995358,0,0,1.2976572998046874,0,0,1.0718750000000001
0.9813616219998949,0,0,1.4125789794921875,0,0,1.1484375
0.9843096999993577,0,0,1.5442600708007812,0,0,1.1484375
0.9871972229993844,0,0,1.7573440185546874,0,0,2.296875
0.9897960449998209,0,0,1.9704279663085937,0,0,0.765625
0.9924799229993368,0,0,1.8243816650390623,0,0,0.5359375000000001
0.9953343529996346,0,0,1.0630255371093749,0,0,0.765625
0.9981541739998647,0,0,1.2114660400390624,0,0,0.9187500000000001
1.0025361989992234,0,0,1.6998831787109374,0,0,1.378125
1.0072335349996138,0,0,1.6998831787109374,0,0,1.3015625000000002
1.0102340379999077,0,0,1.3431471313476562,0,0,0.9953125
1.0131647090001934,0,0,1.0582371337890624,0,0,0.9953125
1.0160210659996665,0,0,1.3311761230468748,0,0,1.1484375
1.0188575709998986,0,0,1.668758557128906,0,0,1.7609375
1.0217567050003709,0,0,1.7357962036132812,0,0,1.1484375
1.0249527609994402,0,0,1.3000515014648437,0,0,0.6125
1.027721508000468,0,0,1.189918225097656,0,0,-9.5703125
1.0307677519995195,0,0,1.5322890624999999,0,0,1.1484375
1.0336682750003092,0,0,1.216254443359375,0,0,0.6890625
1.0367839619993902,0,0,1.4149731811523436,0,0,0.6890625
1.0397602619996178,0,0,1.7429788085937499,0,0,0.6125
1.0426788770000712,0,0,1.5394716674804687,0,0,0.6125
1.0454667159992823,0,0,1.2641384765625,0,0,1.1484375
1.0481914629999665,0,0,1.697488977050781,0,0,0.0
1.051069078999717,0,0,1.24498486328125,0,0,0.8421875000000001
1.0537873260000197,0,0,1.1947066284179686,0,0,0.6125
1.0567815889990015,0,0,1.3168109130859373,0,0,0.6125
1.0596232049992977,0,0,1.4796166259765624,0,0,1.0718750000000001
1.0623360819990921,0,0,1.8052280517578123,0,0,1.6078125
1.065340715000275,0,0,1.4006079711914061,0,0,0.3828125
1.068244459998823,0,0,1.6065093139648436,0,0,832.5406250000001
1.0716865510003117,0,0,1.407790576171875,0,0,1.3015625000000002
1.0744794829988678,0,0,1.1947066284179686,0,0,0.9187500000000001
1.077501077999841,0,0,1.1731588134765625,0,0,1.6078125
1.0804470450002555,0,0,1.9033903198242186,0,0,1.9140625000000002
1.083310697998968,0,0,1.7693150268554687,0,0,1.0718750000000001
1.0863318310002796,0,0,0.9720458740234375,0,0,0.30625
1.0891563549994316,0,0,1.687912170410156,0,0,1.53125
1.092275893999613,0,0,1.7932570434570312,0,0,0.9953125
1.0955329129992606,0,0,0.8188169677734375,0,0,0.153125
1.0986062299998594,0,0,1.7357962036132812,0,0,0.765625
1.1014140129991574,0,0,2.068590234375,0,0,1.3015625000000002
1.1044141089987534,0,0,1.0366893188476562,0,0,0.0
1.1072350409995124,0,0,2.080561242675781,0,0,0.6125
1.1100506389993825,0,0,1.3311761230468748,0,0,0.765625
1.1125669069988362,0,0,0.7422025146484375,0,0,0.0
1.1142978869993385,0,0,1.0534487304687499,0,0,0.5359375000000001
1.1161507739998342,0,0,2.1068974609374997,0,0,1.4546875000000001
1.1177854409997963,0,0,2.384624853515625,0,0,2.0671875
1.1194622179991711,0,0,1.4508862060546874,0,0,0.9953125
1.1210820149990468,0,0,0.928950244140625,0,0,-9.49375
1.1226541639989591,0,0,1.2641384765625,0,0,0.0
1.1241681470000913,0,0,2.1308394775390624,0,0,0.765625
1.1257409619993268,0,0,2.104503259277344,0,0,0.9187500000000001
1.1273528330002591,0,0,0.9792284790039062,0,0,0.6890625
1.1291142760001094,0,0,0.19632453613281248,0,0,1.1484375
1.1307116659991152,0,0,0.7062894897460937,0,0,0.9953125
1.1323166479996871,0,0,2.1930887207031247,0,0,1.4546875000000001
1.1339644259987836,0,0,1.7788918334960937,0,0,1.9140625000000002
1.1357341459988675,0,0,1.5298948608398437,0,0,1.378125
1.1373384799990163,0,0,1.189918225097656,0,0,0.8421875000000001
1.139161940998747,0,0,1.9776105712890624,0,0,1.7609375
1.1408234409991564,0,0,2.389413256835937,0,0,1.6078125
1.1424206449992198,0,0,1.9608511596679685,0,0,0.9187500000000001
1.144361882999874,0,0,0.49799394531249996,0,0,0.6890625
1.1460775489995285,0,0,0.7565677246093749,0,0,0.6125
1.1477030299993203,0,0,1.5825672973632812,0,0,0.8421875000000001
1.149312530998941,0,0,1.8650830932617186,0,0,1.6078125
1.1509954189987184,0,0,1.1563994018554686,0,0,1.1484375
1.1525966419994802,0,0,1.0941501586914062,0,0,0.5359375000000001
1.1541817170000286,0,0,1.5011644409179687,0,0,0.765625
1.1558776980000403,0,0,1.39821376953125,0,0,0.6125
1.157585492999715,0,0,1.235408056640625,0,0,0.765625
1.159384565999062,0,0,0.9265560424804687,0,0,0.9187500000000001
1.1611508419991878,0,0,1.4317325927734375,0,0,0.9187500000000001
1.16284813799939,0,0,1.5753846923828123,0,0,0.9953125
1.1646494699998584,0,0,1.39821376953125,0,0,1.225
1.166273581000496,0,0,1.2808978881835937,0,0,1.225
1.1678537850002613,0,0,1.7525556152343749,0,0,1.225
1.1694457680005144,0,0,1.7118541870117185,0,0,1.3015625000000002
1.171168396000212,0,0,1.5849614990234373,0,0,1.0718750000000001
1.1729408390001481,0,0,1.6256629272460936,0,0,0.9187500000000001
1.1744818779989146,0,0,1.3096283081054687,0,0,0.6125
1.1760965260000376,0,0,1.2521674682617188,0,0,1.378125
1.17797531999895,0,0,1.2689268798828124,0,0,0.6890625
1.1795519320003223,0,0,1.3431471313476562,0,0,1.9140625000000002
1.1812225239991676,0,0,1.5322890624999999,0,0,0.0
1.1830213189987262,0,0,1.5490484741210937,0,0,0.30625
1.1846040050004376,0,0,1.0271125122070313,0,0,0.5359375000000001
1.18622754199896,0,0,1.2306196533203124,0,0,0.9187500000000001
1.1880081700001028,0,0,1.6927005737304686,0,0,1.4546875000000001
1.1895894299996144,0,0,1.6352397338867186,0,0,1.6078125
1.1913482069994643,0,0,1.429338391113281,0,0,0.45937500000000003
1.193043224999201,0,0,2.104503259277344,0,0,0.9187500000000001
1.1945912999999564,0,0,1.889025109863281,0,0,0.765625
1.1961748929988971,0,0,1.4221557861328125,0,0,0.9953125
1.1978046900003392,0,0,1.2928688964843749,0,0,1.3015625000000002
1.199419393999051,0,0,1.4221557861328125,0,0,1.4546875000000001
1.2009687279987702,0,0,1.369483349609375,0,0,1.4546875000000001
1.2025403030002053,0,0,1.2306196533203124,0,0,0.6125
1.2042682470000727,0,0,1.4030021728515625,0,0,1.4546875000000001
1.2059248389996355,0,0,1.3335703247070312,0,0,0.765625
1.207468599999629,0,0,1.2808978881835937,0,0,0.8421875000000001
1.2091781919989444,0,0,0.7230489013671875,0,0,1.0718750000000001
1.2108826169987879,0,0,1.2617442749023438,0,0,1.6078125
1.212428598999395,0,0,1.5969325073242187,0,0,1.6078125
1.2140040260001115,0,0,1.419761584472656,0,0,1.6843750000000002
1.2156465999996726,0,0,1.3263877197265623,0,0,0.9953125
1.2171923610003432,0,0,1.687912170410156,0,0,0.9187500000000001
1.2187232140004198,0,0,1.8219874633789062,0,0,0.765625
1.220354695999049,0,0,1.9536685546875,0,0,0.22968750000000002
1.2221142309990682,0,0,1.8195932617187498,0,0,1.0718750000000001
1.2237198989987519,0,0,1.9680337646484374,0,0,1.0718750000000001
1.2253767129986954,0,0,1.0342951171875,0,0,0.3828125
1.2270937310004228,0,0,1.218648645019531,0,0,0.22968750000000002
1.2286887499994918,0,0,1.4317325927734375,0,0,0.153125
1.2303046389988594,0,0,1.3958195678710936,0,0,0.0
1.2319332320003014,0,0,1.1061211669921875,0,0,0.9187500000000001
1.2336591570001474,0,0,1.8411410766601561,0,0,1.7609375
1.2353194160004932,0,0,1.20667763671875,0,0,1.378125
1.236917120999351,0,0,1.2880804931640624,0,0,0.9187500000000001
1.2386746009997296,0,0,1.68551796875,0,0,0.9187500000000001
1.2404157669989218,0,0,2.080561242675781,0,0,0.0
1.2420612109999638,0,0,1.5658078857421873,0,0,0.9953125
1.243706748000477,0,0,1.5921441040039062,0,0,0.9953125
1.2455607270003384,0,0,1.3934253662109375,0,0,1.0718750000000001
1.2471845609998127,0,0,1.0103531005859374,0,0,0.30625
1.2487239689999114,0,0,1.22583125,0,0,0.30625
1.2507265399999596,0,0,1.2497732666015624,0,0,0.0
1.2523800950002624,0,0,0.9696516723632812,0,0,0.22968750000000002
1.253956410999308,0,0,1.4724340209960938,0,0,1.53125
1.2559262220001983,0,0,1.7693150268554687,0,0,1.990625
1.2578020709988778,0,0,1.675941162109375,0,0,0.9187500000000001
1.2594905519999884,0,0,1.6136919189453125,0,0,1.6078125
1.2610941450002429,0,0,1.8004396484374998,0,0,1.53125
1.2629431249988556,0,0,2.1835119140624997,0,0,0.45937500000000003
1.2646781980001833,0,0,2.1164742675781247,0,0,1.3015625000000002
1.2662225320000289,0,0,1.4963760375976562,0,0,1.3015625000000002
1.2677833289999398,0,0,0.737414111328125,0,0,0.0
1.2694486629989115,0,0,0.7350199096679687,0,0,0.0
1.2711146809997445,0,0,0.8810662109374999,0,0,0.30625
1.2727020149995951,0,0,1.1468225952148436,0,0,0.45937500000000003
1.274333884999578,0,0,1.8124106567382812,0,0,2.3734375
1.27592579299926,0,0,1.3431471313476562,0,0,2.0671875
1.2777655139998387,0,0,1.1156979736328125,0,0,0.6890625
1.2794354950001434,0,0,1.5825672973632812,0,0,1.4546875000000001
1.2810175699996762,0,0,2.114080065917969,0,0,1.3015625000000002
1.282818863999637,0,0,2.1595698974609374,0,0,1.0718750000000001
1.2843971980000788,0,0,2.518700146484375,0,0,2.1437500000000003
1.2861996600004204,0,0,1.3623007446289062,0,0,1.3015625000000002
1.2879464729994652,0,0,0.6655880615234374,0,0,-0.153125
1.2895701590005046,0,0,0.8643067993164062,0,0,-0.6890625
1.2911689929987915,0,0,0.8978256225585937,0,0,0.9187500000000001
1.2930956929994863,0,0,1.3718775512695311,0,0,1.53125
1.2946858979994431,0,0,1.6807295654296874,0,0,2.1437500000000003
1.2962844539997604,0,0,1.0366893188476562,0,0,2.0671875
1.298045433999505,0,0,1.4796166259765624,0,0,1.9140625000000002
1.2997616550001112,0,0,1.8770541015625,0,0,2.0671875
1.3014679139996588,0,0,2.6240450195312497,0,0,1.9140625000000002
1.3031505059989286,0,0,2.8562825805664063,0,0,2.3734375
1.304692341000191,0,0,2.4444798950195312,0,0,829.325
1.3062227310001617,0,0,1.2856862915039062,0,0,0.6125
1.3078327499988518,0,0,0.9026140258789062,0,0,832.2343750000001
1.3094664910004212,0,0,0.6847416748046875,0,0,832.3109375
1.3110884170000645,0,0,0.8762778076171874,0,0,0.6125
1.3127411209989077,0,0,1.35990654296875,0,0,1.1484375
1.3144328239995957,0,0,1.16837041015625,0,0,2.2203125000000004
1.3160514720002539,0,0,0.9528922607421875,0,0,1.9140625000000002
1.317584585000077,0,0,1.0773907470703123,0,0,1.0718750000000001
1.3192030110003543,0,0,2.2002713256835937,0,0,1.0718750000000001
1.3208517149996624,0,0,2.6862942626953124,0,0,1.1484375
1.3225157329998183,0,0,2.8706477905273435,0,0,1.225
1.3241756219995295,0,0,1.9895815795898437,0,0,0.9187500000000001
1.3257684370000788,0,0,1.216254443359375,0,0,-0.3828125
1.327313845999015,0,0,0.35673604736328124,0,0,-0.5359375000000001
1.328925771998911,0,0,0.9983820922851562,0,0,0.0
1.330632068000341,0,0,1.4939818359375,0,0,1.0718750000000001
1.332215123999049,0,0,1.1228805786132812,0,0,1.378125
1.333876512999268,0,0,0.6296750366210937,0,0,1.53125
1.335577548999936,0,0,0.9313444458007812,0,0,1.1484375
1.3371900499987532,0,0,2.090138049316406,0,0,1.225
1.3388750679987425,0,0,2.7341782958984373,0,0,2.2203125000000004
1.3405624749993876,0,0,2.35589443359375,0,0,0.5359375000000001
1.3421612900001492,0,0,1.618480322265625,0,0,0.0
1.343821622998803,0,0,0.9696516723632812,0,0,0.30625
1.345570604000386,0,0,0.584185205078125,0,0,0.153125
1.347396638999271,0,0,1.438915197753906,0,0,0.45937500000000003
1.3490118979989347,0,0,1.2018892333984375,0,0,1.4546875000000001
1.3507048239989672,0,0,0.6703764648437499,0,0,1.3015625000000002
1.352379509000457,0,0,0.7230489013671875,0,0,0.765625
1.3540701379988604,0,0,2.3391350219726563,0,0,1.1484375
1.3556065279990435,0,0,2.703053674316406,0,0,2.296875
1.3572077689987054,0,0,2.3487118286132813,0,0,1.6843750000000002
1.3588754729989887,0,0,2.291250988769531,0,0,1.378125
1.3604165849992569,0,0,0.5267243652343749,0,0,0.9953125
1.362142435998976,0,0,0.737414111328125,0,0,-0.153125
1.3640161929997703,0,0,1.7932570434570312,0,0,0.5359375000000001
1.3655679160001455,0,0,1.438915197753906,0,0,0.9953125
1.3671438059991488,0,0,0.7805097412109374,0,0,1.9140625000000002
1.3688797679988056,0,0,0.4572925170898437,0,0,0.8421875000000001
1.370418342999983,0,0,1.3479355346679687,0,0,1.6843750000000002
1.3719951959992613,0,0,2.578555187988281,0,0,1.8375000000000001
1.373967432999052,0,0,2.8131869506835936,0,0,1.225
1.375575284999286,0,0,1.9584569580078124,0,0,0.6125
1.3771690819994546,0,0,0.4285620971679687,0,0,-0.6890625
1.3788440449989139,0,0,0.3327940307617187,0,0,-0.22968750000000002
1.3805551730001753,0,0,1.0558429321289062,0,0,1.6078125
1.3822448769988114,0,0,0.93852705078125,0,0,0.6890625
1.3839318020000064,0,0,0.8379705810546875,0,0,1.378125
1.387735555999825,0,0,1.9680337646484374,0,0,1.7609375
1.3894176479989255,0,0,2.6216508178710938,0,0,1.9140625000000002
1.3910871480002243,0,0,2.346317626953125,0,0,0.153125
1.3927339809997648,0,0,1.5203180541992187,0,0,0.153125
1.394349832999069,0,0,1.0007762939453124,0,0,0.22968750000000002
1.3959547779995773,0,0,1.3646949462890625,0,0,-0.30625
1.3974936309987243,0,0,1.218648645019531,0,0,2.45
1.39919096399899,0,0,0.8188169677734375,0,0,1.0718750000000001
1.4008062419998168,0,0,0.30406361083984373,0,0,0.765625
1.4023384289994283,0,0,1.0295067138671874,0,0,1.7609375
1.4039843729988206,0,0,2.3151930053710936,0,0,1.8375000000000001
1.4056069289999868,0,0,2.2266075439453124,0,0,1.6078125
1.407258761999401,0,0,1.8100164550781248,0,0,1.3015625000000002
1.4089186879991757,0,0,1.1013327636718748,0,0,0.0
1.4111327560003701,0,0,1.6136919189453125,0,0,-0.3828125
1.4129924939988996,0,0,1.7429788085937499,0,0,0.8421875000000001
1.414701048999632,0,0,1.7214309936523438,0,0,1.378125
1.4164614549990802,0,0,0.6751648681640625,0,0,0.45937500000000003
1.418244082999081,0,0,0.9648632690429687,0,0,0.8421875000000001
1.4198666760003107,0,0,1.5370774658203123,0,0,0.8421875000000001
1.4216499340000155,0,0,2.291250988769531,0,0,0.5359375000000001
1.4234210809991055,0,0,1.7214309936523438,0,0,0.765625
1.4250523959999555,0,0,0.5913678100585937,0,0,0.30625
1.4267165990004287,0,0,0.47884033203125,0,0,0.5359375000000001
1.4285591159987234,0,0,1.235408056640625,0,0,0.9953125
1.4302110419994278,0,0,1.369483349609375,0,0,0.8421875000000001
1.431843967999157,0,0,1.455674609375,0,0,1.6078125
1.4336020219998318,0,0,0.8595183959960937,0,0,1.3015625000000002
1.4352920399996947,0,0,1.8171990600585937,0,0,1.4546875000000001
1.436926577000122,0,0,2.288856787109375,0,0,1.378125
1.4386399100003473,0,0,1.9943699829101562,0,0,0.6890625
1.4403383539993229,0,0,0.9265560424804687,0,0,0.765625
1.4420179640001152,0,0,0.55545478515625,0,0,0.0
1.4437039450003795,0,0,1.1947066284179686,0,0,0.6125
1.4460184749987093,0,0,1.1420341918945311,0,0,1.1484375
1.4481268399995315,0,0,0.5051765502929687,0,0,0.9187500000000001
1.4508858829995006,0,0,1.0941501586914062,0,0,1.7609375
1.4528284360003454,0,0,2.7533319091796873,0,0,2.2203125000000004
1.4552676299990708,0,0,2.0183119995117185,0,0,1.1484375
1.4570648509998136,0,0,0.4644751220703125,0,0,-9.8
1.458725073000096,0,0,0.5698199951171875,0,0,0.0765625
1.4602589449987136,0,0,1.2737152832031249,0,0,0.45937500000000003
1.4618204639991745,0,0,1.1563994018554686,0,0,0.3828125
1.4637471089990868,0,0,0.612915625,0,0,0.9187500000000001
1.4653350909993605,0,0,0.45968671875,0,0,1.0718750000000001
1.4668698890000087,0,0,0.8858546142578124,0,0,1.6843750000000002
1.469101104999936,0,0,2.3391350219726563,0,0,3.6750000000000003
1.4707327899996017,0,0,2.492363928222656,0,0,1.53125
1.4723456419997092,0,0,1.5131354492187499,0,0,1.1484375
1.474116306999349,0,0,1.139639990234375,0,0,0.45937500000000003
1.4756661970004643,0,0,1.9105729248046874,0,0,0.45937500000000003
1.4773677149987634,0,0,1.458068811035156,0,0,0.45937500000000003
1.4792214169992803,0,0,0.8116343627929687,0,0,0.9953125
1.4815212060002523,0,0,0.0430956298828125,0,0,0.0
1.4832070939992263,0,0,1.5514426757812498,0,0,0.8421875000000001
1.4848296500003926,0,0,2.2170307373046874,0,0,1.0718750000000001
1.4863664479998988,0,0,2.2649147705078123,0,0,1.6843750000000002
1.4878918189988326,0,0,1.8938135131835936,0,0,1.53125
1.4895416899998963,0,0,0.6631938598632812,0,0,0.22968750000000002
1.4911995969996497,0,0,1.7262193969726563,0,0,1.6078125
1.4927597459991375,0,0,2.0757728393554684,0,0,1.6843750000000002
1.494365968999773,0,0,1.4532804077148436,0,0,1.225
1.4960858750000625,0,0,0.39983167724609375,0,0,0.6890625
1.49761743199997,0,0,0.24181436767578124,0,0,0.9953125
1.4994776339990494,0,0,1.4604630126953124,0,0,1.225
1.501054819998899,0,0,2.0278888061523435,0,0,1.6843750000000002
1.5025847099987004,0,0,2.2481553588867187,0,0,1.7609375
1.5066290899994783,0,0,0.6584054565429687,0,0,0.5359375000000001
1.5082919420001417,0,0,1.5969325073242187,0,0,2.45
1.5099443859999155,0,0,1.7334020019531249,0,0,0.9953125
1.511571109000215,0,0,1.218648645019531,0,0,2.8328125
1.5131667759997072,0,0,0.5889736083984375,0,0,0.5359375000000001
1.5149138309989212,0,0,1.16837041015625,0,0,0.8421875000000001
1.5165986819993122,0,0,2.24097275390625,0,0,1.0718750000000001
1.518249274999107,0,0,1.9680337646484374,0,0,1.4546875000000001
1.5199099599994952,0,0,1.3551181396484375,0,0,0.6890625
1.5214457570000377,0,0,0.258573779296875,0,0,0.3828125
1.5230368319989793,0,0,1.446097802734375,0,0,0.765625
1.5246964609996212,0,0,1.5418658691406248,0,0,1.378125
1.5262687769991317,0,0,1.4604630126953124,0,0,1.225
1.527800166999441,0,0,1.2473790649414063,0,0,1.3015625000000002
1.529456203999871,0,0,0.55545478515625,0,0,0.765625
1.5311814260003302,0,0,1.8363526733398436,0,0,1.6078125
1.5328738699990936,0,0,2.427720483398437,0,0,0.9187500000000001
1.5345490729996527,0,0,2.8514941772460936,0,0,1.6843750000000002
1.5361067220001132,0,0,0.833182177734375,0,0,0.9187500000000001
1.5378452029999607,0,0,0.16759411621093748,0,0,-0.153125
1.5395731089993205,0,0,1.1875240234375,0,0,0.45937500000000003
1.5411401290002686,0,0,1.7357962036132812,0,0,1.3015625000000002
1.5426851299998816,0,0,1.446097802734375,0,0,1.8375000000000001
1.5443054259994824,0,0,0.51714755859375,0,0,1.225
1.5459950739987107,0,0,0.8762778076171874,0,0,0.8421875000000001
1.547640130000218,0,0,1.8124106567382812,0,0,1.1484375
1.5492830559996946,0,0,2.521094348144531,0,0,1.6078125
1.5508759450003708,0,0,2.712630480957031,0,0,0.6890625
1.5524905570000556,0,0,0.9744400756835937,0,0,0.0
1.5540619089988468,0,0,0.5913678100585937,0,0,-0.3828125
1.5557096499996987,0,0,1.7549498168945312,0,0,0.5359375000000001
1.5572817249994841,0,0,1.6927005737304686,0,0,0.6125
1.5589736130004894,0,0,1.1755530151367186,0,0,1.1484375
1.5606835569997202,0,0,0.70868369140625,0,0,0.153125
1.5622413729997788,0,0,1.0486603271484374,0,0,0.0
1.563817021999057,0,0,1.89620771484375,0,0,1.378125
1.5654872989998694,0,0,2.2457611572265623,0,0,1.53125
1.5670427820004988,0,0,1.6136919189453125,0,0,0.5359375000000001
1.56866924499991,0,0,0.9002198242187499,0,0,0.6890625
1.570587649999652,0,0,0.6105214233398437,0,0,0.765625
1.5721960939990822,0,0,1.6615759521484375,0,0,0.6125
1.5739770740001404,0,0,1.6519991455078125,0,0,1.3015625000000002
1.5757311099987419,0,0,1.7860744384765623,0,0,1.6078125
1.577298221998717,0,0,0.9840168823242187,0,0,1.3015625000000002
1.5791784419998294,0,0,1.5897499023437498,0,0,0.6890625
1.5809506440000405,0,0,1.889025109863281,0,0,0.153125
1.5826741620003304,0,0,2.001552587890625,0,0,-0.30625
1.584459641999274,0,0,0.8020575561523438,0,0,0.8421875000000001
1.5862300289991254,0,0,0.22266075439453123,0,0,0.5359375000000001
1.5879974910003511,0,0,1.1252747802734375,0,0,2.1437500000000003
1.5896451019998494,0,0,1.6735469604492186,0,0,0.9187500000000001
1.5914965809988644,0,0,1.6017209106445311,0,0,2.45
1.5932916909987398,0,0,1.0295067138671874,0,0,1.6843750000000002
1.5950194489996647,0,0,2.3343466186523436,0,0,1.6843750000000002
1.5966324869987147,0,0,2.195482922363281,0,0,0.9953125
1.598901590999958,0,0,2.085349645996094,0,0,0.8421875000000001
1.6006497929993202,0,0,0.689530078125,0,0,-0.22968750000000002
1.6038140540003951,0,0,1.0773907470703123,0,0,0.45937500000000003
1.6057126809992042,0,0,1.70467158203125,0,0,1.990625
1.6088001089992758,0,0,1.0342951171875,0,0,0.765625
1.6106292549993668,0,0,1.3311761230468748,0,0,0.8421875000000001
1.6122633849990962,0,0,2.3343466186523436,0,0,1.1484375
1.6139322369999718,0,0,2.3223756103515623,0,0,1.225
1.615580162999322,0,0,2.1452046874999997,0,0,0.6890625
1.6171749219993217,0,0,0.46208092041015625,0,0,0.0
1.618720589998702,0,0,0.17238251953125,0,0,0.30625
1.6205879579993052,0,0,0.8762778076171874,0,0,1.0718750000000001
1.6222493650002434,0,0,1.2856862915039062,0,0,2.0671875
1.6237918669994542,0,0,1.4915876342773438,0,0,2.0671875
1.6253203119995305,0,0,0.9744400756835937,0,0,1.378125
1.62720108800022,0,0,1.70467158203125,0,0,1.7609375
1.62891371600017,0,0,2.0925322509765625,0,0,0.765625
1.6305462170003011,0,0,2.1906945190429687,0,0,0.9187500000000001
1.6325551379995886,0,0,1.216254443359375,0,0,-9.034375
1.6342495640001289,0,0,0.5243301635742187,0,0,0.30625
1.6359187300004123,0,0,1.2306196533203124,0,0,0.9187500000000001
1.6380274839993945,0,0,1.3646949462890625,0,0,0.9953125
1.639804500999162,0,0,1.1228805786132812,0,0,1.1484375
1.641428150000138,0,0,0.9050082275390624,0,0,0.765625
1.642978335999942,0,0,1.3623007446289062,0,0,0.30625
1.6446495580003102,0,0,2.094926452636719,0,0,0.6890625
1.6463540949989692,0,0,2.231395947265625,0,0,0.9953125
1.6479644470000494,0,0,1.3910311645507811,0,0,0.30625
1.649498095999661,0,0,0.1484405029296875,0,0,-0.3828125
1.651160354998865,0,0,1.1516109985351561,0,0,0.22968750000000002
1.6533094419992267,0,0,1.8818425048828125,0,0,1.7609375
1.65514020000046,0,0,1.2904746948242187,0,0,1.9140625000000002
1.6572319169990806,0,0,0.7278373046875,0,0,0.5359375000000001
1.6589677310003026,0,0,1.455674609375,0,0,1.6078125
1.6606757110002945,0,0,2.521094348144531,0,0,1.3015625000000002
1.662546208999629,0,0,1.8004396484374998,0,0,-8.957812500000001
1.6643392259993561,0,0,0.5770026000976562,0,0,0.6890625
1.665951873999802,0,0,0.10295067138671875,0,0,9.49375
1.667581096999129,0,0,1.1228805786132812,0,0,0.6125
1.6691788939988328,0,0,1.7860744384765623,0,0,1.53125
1.670717228000285,0,0,1.6304513305664061,0,0,2.2203125000000004
1.6722466549999808,0,0,0.8212111694335937,0,0,1.7609375
1.6738369519989647,0,0,0.9361328491210937,0,0,1.53125
1.6754755639994983,0,0,2.346317626953125,0,0,1.8375000000000001
1.677159507999022,0,0,2.269703173828125,0,0,0.9953125
1.6788109890003398,0,0,2.085349645996094,0,0,0.22968750000000002
1.680525839999973,0,0,0.5386953735351562,0,0,0.3828125
1.6821728220002115,0,0,0.17956512451171874,0,0,9.5703125
1.6837169159989571,0,0,1.1731588134765625,0,0,0.6890625
1.685245638998822,0,0,1.5203180541992187,0,0,1.3015625000000002
1.6869900080000662,0,0,1.6735469604492186,0,0,1.7609375
1.68890378299875,0,0,0.8307879760742187,0,0,1.3015625000000002
1.6907154669988813,0,0,1.2904746948242187,0,0,1.4546875000000001
1.6923862259991438,0,0,2.3487118286132813,0,0,2.0671875
1.6940136699995492,0,0,2.2960393920898436,0,0,1.9140625000000002
1.695592967000266,0,0,1.7597382202148437,0,0,1.1484375
1.6971251349987142,0,0,0.373495458984375,0,0,-0.5359375000000001
1.6991244460004964,0,0,1.1372457885742187,0,0,0.30625
1.7007694280000578,0,0,1.3431471313476562,0,0,1.6078125
1.7023342060001596,0,0,0.8164227661132812,0,0,1.7609375
1.7038793190004071,0,0,0.9648632690429687,0,0,1.9140625000000002
1.7057394639996346,0,0,0.7445967163085937,0,0,1.3015625000000002
1.7073875940004655,0,0,2.1906945190429687,0,0,2.45
1.708936946999529,0,0,2.592920397949219,0,0,1.53125
1.7105878359998314,0,0,2.085349645996094,0,0,1.0718750000000001
1.712255094998909,0,0,0.9504980590820312,0,0,0.45937500000000003
1.7138018000005104,0,0,0.5363011718749999,0,0,-0.6890625
1.7155019660003745,0,0,1.7094599853515624,0,0,0.153125
1.7171994099990116,0,0,1.668758557128906,0,0,0.9953125
1.7188027060001332,0,0,1.2138602416992186,0,0,1.225
1.7204130030004308,0,0,0.4070142822265625,0,0,0.6890625
1.7220210590003262,0,0,0.7038952880859375,0,0,0.5359375000000001
1.723551764000149,0,0,2.157175695800781,0,0,0.3828125
1.725347726000109,0,0,2.0757728393554684,0,0,0.6890625
1.7270195769997372,0,0,2.3127988037109373,0,0,0.765625
1.728594152000369,0,0,0.7661445312499999,0,0,0.3828125
1.7302043559993763,0,0,0.39983167724609375,0,0,0.0
1.7319134480003413,0,0,1.6017209106445311,0,0,0.6890625
1.7335445219996473,0,0,1.6065093139648436,0,0,0.0
1.735165762998804,0,0,0.9361328491210937,0,0,1.0718750000000001
1.7367522459990141,0,0,1.2880804931640624,0,0,0.45937500000000003
1.7383673019994603,0,0,1.5514426757812498,0,0,1.225
1.7400359120001667,0,0,2.205059729003906,0,0,1.6843750000000002
1.7416534869989846,0,0,1.9919757812499999,0,0,1.3015625000000002
1.7431964690003952,0,0,1.4437036010742186,0,0,0.22968750000000002
1.74485457999981,0,0,0.8307879760742187,0,0,-1.0718750000000001
1.746746003998851,0,0,0.8667010009765624,0,0,0.5359375000000001
1.7483268929991027,0,0,1.4006079711914061,0,0,1.0718750000000001
1.7498530239990941,0,0,1.4987702392578124,0,0,0.9953125
1.7515594500000589,0,0,0.9074024291992187,0,0,1.1484375
1.7531698200000392,0,0,1.005564697265625,0,0,0.765625
1.7549373009987903,0,0,1.915361328125,0,0,1.378125
1.7566107820002799,0,0,2.636016027832031,0,0,1.0718750000000001
1.7583374659989204,0,0,1.9847931762695312,0,0,1.3015625000000002
1.7598995970001852,0,0,1.4437036010742186,0,0,-9.8
1.7614400610000303,0,0,0.19632453613281248,0,0,-1.225
1.7631681709990517,0,0,1.465251416015625,0,0,0.6890625
1.764946298999348,0,0,1.599326708984375,0,0,1.0718750000000001
1.7664807820001442,0,0,1.1109095703125,0,0,1.225
1.76854801799891,0,0,0.4836287353515625,0,0,1.225
1.770257758000298,0,0,1.2928688964843749,0,0,1.0718750000000001
1.771802666999065,0,0,2.250549560546875,0,0,2.296875
1.7733234639999864,0,0,2.2864625854492187,0,0,1.7609375
1.775163424999846,0,0,1.908178723144531,0,0,0.30625
1.7769798680001259,0,0,1.4700398193359374,0,0,0.0
1.7786776630000531,0,0,0.40222587890625,0,0,0.0
1.7802961269990192,0,0,1.0845733520507812,0,0,0.765625
1.781961570999556,0,0,1.2042834350585936,0,0,1.990625
1.7838085319999664,0,0,0.7829039428710937,0,0,0.3828125
1.7856620290003775,0,0,0.7493851196289062,0,0,1.53125
1.7873047889988811,0,0,2.1547814941406247,0,0,2.296875
1.789313098999628,0,0,2.2170307373046874,0,0,1.9140625000000002
1.7912301710002794,0,0,1.8459294799804686,0,0,0.9187500000000001
1.792858503999014,0,0,1.1563994018554686,0,0,0.45937500000000003
1.7946040959996026,0,0,0.6392518432617187,0,0,0.8421875000000001
1.7962606879991654,0,0,1.5801730957031248,0,0,0.8421875000000001
1.797899872999551,0,0,1.68551796875,0,0,0.8421875000000001
1.7995614840001508,0,0,1.0414777221679687,0,0,0.9953125
1.8012250579995452,0,0,0.5578489868164063,0,0,0.765625
1.8028987249999773,0,0,1.1372457885742187,0,0,0.9953125
1.8046284089996334,0,0,2.1619640991210938,0,0,1.1484375
1.806281556999238,0,0,2.250549560546875,0,0,1.6078125
1.8079518159993313,0,0,1.8938135131835936,0,0,1.1484375
1.8097306479994586,0,0,0.5051765502929687,0,0,9.340625000000001
1.8114003880000382,0,0,1.66636435546875,0,0,0.6890625
1.8130705919993488,0,0,1.5873557006835937,0,0,1.7609375
1.8146592220000457,0,0,1.3287819213867187,0,0,1.8375000000000001
1.8163268139996944,0,0,1.0462661254882812,0,0,0.9953125
1.817960091999339,0,0,1.0007762939453124,0,0,1.3015625000000002
1.819643795999582,0,0,1.4173673828125,0,0,1.225
1.8212496109990752,0,0,2.070984436035156,0,0,0.6125
1.8227858720001677,0,0,2.1787235107421874,0,0,0.9187500000000001
1.8244480379999004,0,0,1.1133037719726562,0,0,0.8421875000000001
1.8260541309991822,0,0,0.16998831787109375,0,0,0.153125
1.827616020998903,0,0,1.4963760375976562,0,0,0.8421875000000001
1.8293004469996959,0,0,1.8004396484374998,0,0,1.0718750000000001
1.8309104279996973,0,0,1.4149731811523436,0,0,1.0718750000000001
1.832439689000239,0,0,1.1324573852539062,0,0,0.8421875000000001
1.8341883550001512,0,0,1.37906015625,0,0,0.153125
1.8357987809995393,0,0,1.714248388671875,0,0,1.225
1.8374350769990997,0,0,2.4396914916992185,0,0,1.4546875000000001
1.8390813179994439,0,0,1.6208745239257811,0,0,0.3828125
1.8407486879987118,0,0,0.8092401611328125,0,0,0.153125
1.8423583740004688,0,0,0.44532150878906246,0,0,0.0765625
1.8438878750002914,0,0,1.1372457885742187,0,0,0.3828125
1.8455625049991795,0,0,1.5203180541992187,0,0,0.3828125
1.847118079998836,0,0,1.5538368774414062,0,0,2.8328125
1.8486530809987016,0,0,0.8595183959960937,0,0,0.45937500000000003
1.8503439689993684,0,0,1.1635820068359375,0,0,1.1484375
1.851949099000194,0,0,1.838746875,0,0,2.1437500000000003
1.8535730999992666,0,0,2.2098481323242187,0,0,2.3734375
1.8552293960001407,0,0,1.707065783691406,0,0,1.7609375
1.8570412089993624,0,0,0.948103857421875,0,0,-0.45937500000000003
1.8588928360004502,0,0,0.469263525390625,0,0,0.0
1.860563688000184,0,0,1.455674609375,0,0,0.9953125
1.862141096000414,0,0,1.199495031738281,0,0,0.8421875000000001
1.8636780969991378,0,0,0.9816226806640624,0,0,1.7609375
1.8652072839995526,0,0,0.5865794067382812,0,0,0.9953125
1.8668097839999973,0,0,0.8547299926757812,0,0,1.225
1.8685735979997844,0,0,2.2768857788085937,0,0,1.225
1.8701446729992313,0,0,2.480392919921875,0,0,1.990625
1.871675544000027,0,0,1.9297265380859374,0,0,1.378125
1.8733537850002904,0,0,0.21787235107421873,0,0,-0.153125
1.8750687840001774,0,0,0.5770026000976562,0,0,0.3828125
1.8766785070001788,0,0,1.5586252807617187,0,0,1.53125
1.8783250989999942,0,0,1.4891934326171874,0,0,1.3015625000000002
1.8799535260004632,0,0,1.1468225952148436,0,0,1.1484375
1.8814853789990593,0,0,0.2609679809570312,0,0,0.5359375000000001
1.883090027000435,0,0,1.3455413330078123,0,0,1.225
1.884912395998981,0,0,1.9656395629882812,0,0,0.153125
1.886580487998799,0,0,2.138022082519531,0,0,1.3015625000000002
1.8881756549999409,0,0,1.1540052001953125,0,0,1.3015625000000002
1.8899394130003202,0,0,0.6272808349609375,0,0,0.3828125
1.8915189139988797,0,0,1.7477672119140624,0,0,0.5359375000000001
1.893111229999704,0,0,1.8148048583984373,0,0,1.3015625000000002
1.894834524999169,0,0,1.2785036865234374,0,0,0.6125
1.8965261359990109,0,0,0.603338818359375,0,0,0.30625
1.8984359289988788,0,0,0.9097966308593749,0,0,0.9953125
1.900204630999724,0,0,1.9033903198242186,0,0,1.378125
1.9017806880001444,0,0,2.0973206542968748,0,0,1.6843750000000002
1.90337263299989,0,0,1.199495031738281,0,0,0.6125
1.9052105199989455,0,0,0.16759411621093748,0,0,0.0
1.9068864820001181,0,0,0.5003881469726562,0,0,0.9187500000000001
1.908490427000288,0,0,2.068590234375,0,0,1.378125
1.9102278150003258,0,0,1.8004396484374998,0,0,1.4546875000000001
1.9120383319987013,0,0,1.3766659545898436,0,0,1.378125
1.9135681850002584,0,0,0.5482721801757812,0,0,0.8421875000000001
1.915150333999918,0,0,1.7238251953125,0,0,1.225
1.9169958869988477,0,0,1.9129671264648436,0,0,0.6890625
1.9185715549992892,0,0,2.1021090576171875,0,0,1.225
1.9204096449993813,0,0,0.7422025146484375,0,0,0.765625
1.9222035689999757,0,0,0.6416460449218749,0,0,0.8421875000000001
1.9238064399996802,0,0,1.4891934326171874,0,0,0.5359375000000001
1.9254798660003871,0,0,1.7357962036132812,0,0,1.225
1.927147958000205,0,0,1.6448165405273436,0,0,1.6843750000000002
1.9286821629993938,0,0,1.177947216796875,0,0,0.9953125
1.9303917739998724,0,0,1.0366893188476562,0,0,1.225
1.9320925880001596,0,0,1.6208745239257811,0,0,1.53125
1.9338804380004149,0,0,2.540247961425781,0,0,3.1390625
1.9355117159993824,0,0,1.5658078857421873,0,0,1.53125
1.9371331239999563,0,0,0.3280056274414062,0,0,-0.22968750000000002
1.938854955998977,0,0,0.8858546142578124,0,0,0.5359375000000001
1.9405106599988358,0,0,1.7741034301757812,0,0,1.53125
1.9422388999992108,0,0,1.2689268798828124,0,0,0.9187500000000001
1.9438671039988549,0,0,1.0917559570312498,0,0,0.9187500000000001
1.9454104939995887,0,0,0.5339069702148437,0,0,0.30625
1.946989105999819,0,0,0.7996633544921875,0,0,0.9187500000000001
1.948605827999927,0,0,2.1930887207031247,0,0,1.3015625000000002
1.9503070680002565,0,0,2.5043349365234375,0,0,1.3015625000000002
1.9521188809994783,0,0,1.1109095703125,0,0,1.3015625000000002
1.953756140999758,0,0,0.42377369384765623,0,0,9.49375
1.955516361998889,0,0,1.7190367919921874,0,0,1.378125
1.9572687309992034,0,0,1.9512743530273435,0,0,1.1484375
1.958900489998996,0,0,1.8124106567382812,0,0,1.6078125
1.9604524909991596,0,0,0.97683427734375,0,0,0.5359375000000001
1.9622027129989874,0,0,1.01514150390625,0,0,0.30625
1.9640017290003016,0,0,1.6041151123046875,0,0,1.3015625000000002
1.9656176190001133,0,0,1.9632453613281249,0,0,0.30625
1.967147768000359,0,0,1.6065093139648436,0,0,1.225
1.9690633579994028,0,0,1.3359645263671873,0,0,0.0
1.970787948999714,0,0,0.9504980590820312,0,0,1.1484375
1.9723632280001766,0,0,1.5969325073242187,0,0,1.3015625000000002
1.9742827249992843,0,0,1.3311761230468748,0,0,1.6078125
1.9761317779993988,0,0,1.2785036865234374,0,0,1.53125
1.9777080749991,0,0,1.0965443603515623,0,0,0.9187500000000001
1.9795367959995929,0,0,1.618480322265625,0,0,1.53125
1.9812011100002564,0,0,1.7669208251953124,0,0,0.9187500000000001
1.982844350999585,0,0,1.714248388671875,0,0,0.5359375000000001
1.9843806299995776,0,0,0.4572925170898437,0,0,1.1484375
1.985964759998751,0,0,0.22266075439453123,0,0,1.0718750000000001
1.9877072959989164,0,0,1.5610194824218748,0,0,0.9187500000000001
1.9893204999989393,0,0,2.0374656127929685,0,0,1.3015625000000002
1.9908756129989342,0,0,1.7597382202148437,0,0,1.990625
1.9925536489990918,0,0,1.0989385620117187,0,0,1.3015625000000002
1.9941716310004267,0,0,0.9600748657226562,0,0,1.1484375
1.9957116879995738,0,0,1.838746875,0,0,0.6890625
1.997325632999491,0,0,2.2290017456054687,0,0,0.0765625
1.9989094299999124,0,0,2.47081611328125,0,0,0.6125
2.0004409499997564,0,0,0.9313444458007812,0,0,0.765625
2.002043579999736,0,0,-0.06464344482421874,0,0,0.0765625
2.003659042999061,0,0,1.0319009155273438,0,0,1.378125
2.005287636000503,0,0,1.6256629272460936,0,0,-0.3828125
2.006924283999979,0,0,1.6041151123046875,0,0,0.9187500000000001
2.0085695429988846,0,0,1.426944189453125,0,0,0.153125
2.0101440439993894,0,0,1.1707646118164061,0,0,1.1484375
2.01167297199936,0,0,1.9416975463867185,0,0,2.45
2.0132823789990653,0,0,1.9416975463867185,0,0,0.9187500000000001
2.0148623989989574,0,0,1.8818425048828125,0,0,0.153125
2.0166188049988705,0,0,0.8786720092773437,0,0,0.22968750000000002
2.0182389349993173,0,0,1.0845733520507812,0,0,0.0
2.019829695000226,0,0,1.2832920898437499,0,0,0.9953125
2.021366028999182,0,0,1.216254443359375,0,0,1.3015625000000002
2.02294482599973,0,0,1.199495031738281,0,0,1.53125
2.0245884929991007,0,0,0.51714755859375,0,0,2.1437500000000003
2.0261449390000053,0,0,0.6560112548828124,0,0,0.9953125
2.0276770319997013,0,0,2.0087351928710935,0,0,2.45
2.0298353229991335,0,0,2.499546533203125,0,0,1.3015625000000002
2.0319810210003197,0,0,1.448492004394531,0,0,1.378125
2.0342791809998744,0,0,0.6153098266601562,0,0,0.153125
2.035960494999017,0,0,1.5227122558593749,0,0,0.6890625
2.037501978000364,0,0,1.838746875,0,0,0.45937500000000003
2.0393963269998494,0,0,1.2904746948242187,0,0,1.3015625000000002
2.0414360079994367,0,0,0.3950432739257812,0,0,0.22968750000000002
2.0429886749989237,0,0,0.9169792358398436,0,0,0.9187500000000001
2.044520788000227,0,0,1.9512743530273435,0,0,1.3015625000000002
2.046189806000257,0,0,2.2840683837890623,0,0,1.9140625000000002
2.048041395999462,0,0,1.66636435546875,0,0,1.6843750000000002
2.049704859000485,0,0,0.277727392578125,0,0,9.1875
2.051344211000469,0,0,1.37906015625,0,0,0.6890625
2.0530531730000803,0,0,1.8315642700195311,0,0,1.8375000000000001
2.0546262669995485,0,0,1.7429788085937499,0,0,1.6843750000000002
2.0562819329988997,0,0,0.948103857421875,0,0,1.0718750000000001
2.0580641359993024,0,0,0.5123591552734374,0,0,0.6125
2.059678265999537,0,0,1.924938134765625,0,0,1.225
2.061366709998765,0,0,2.080561242675781,0,0,1.1484375
2.063080486999752,0,0,1.7597382202148437,0,0,0.6890625
2.064760004999698,0,0,0.3902548706054687,0,0,0.22968750000000002
2.0663005799997336,0,0,0.34715924072265625,0,0,9.1109375
2.0678780250000273,0,0,1.388636962890625,0,0,0.6890625
2.0695234880004136,0,0,2.2361843505859373,0,0,1.53125
2.071072340999308,0,0,1.9823989746093749,0,0,2.8328125
2.07275958199898,0,0,0.7781155395507812,0,0,1.225
2.074612487000195,0,0,1.1875240234375,0,0,0.3828125
2.076328929999363,0,0,2.3582886352539063,0,0,0.6890625
2.078163427999243,0,0,2.5330653564453125,0,0,1.378125
2.07991559400034,0,0,1.4939818359375,0,0,0.5359375000000001
2.0816424820004613,0,0,-0.086191259765625,0,0,832.0046875
2.0832983889995376,0,0,0.9816226806640624,0,0,0.22968750000000002
2.085166646000289,0,0,1.2521674682617188,0,0,1.6078125
2.0870307549994322,0,0,1.5155296508789062,0,0,1.6078125
2.0886877909997565,0,0,1.2785036865234374,0,0,1.225
2.090455474999544,0,0,1.8219874633789062,0,0,1.53125
2.0921427339999354,0,0,2.422932080078125,0,0,1.9140625000000002
2.0937533269989217,0,0,2.185906115722656,0,0,1.4546875000000001
2.095417679000093,0,0,1.4987702392578124,0,0,0.0765625
2.0973611749996053,0,0,0.2154781494140625,0,0,-1.8375000000000001
2.0990598419994058,0,0,0.8547299926757812,0,0,832.8468750000001
2.1007364519991825,0,0,1.1252747802734375,0,0,0.6890625
2.1025800240004173,0,0,1.0510545288085937,0,0,1.53125
2.1041954689990234,0,0,0.5793968017578125,0,0,0.9187500000000001
2.105805283999871,0,0,0.7110778930664062,0,0,-852.8296875000001
2.1078702800004976,0,0,2.2385785522460937,0,0,1.990625
2.1096851299989794,0,0,2.7916391357421872,0,0,2.2203125000000004
2.111491756999385,0,0,1.5059528442382812,0,0,0.9187500000000001
2.113556049000181,0,0,0.0047884033203125,0,0,-0.8421875000000001
2.1154763239992462,0,0,1.3958195678710936,0,0,0.0
2.1180887020000227,0,0,1.7860744384765623,0,0,1.53125
2.1197616459994606,0,0,1.0079588989257813,0,0,1.4546875000000001
2.1215210890004528,0,0,0.4955997436523437,0,0,0.8421875000000001
2.123428679000426,0,0,2.023100402832031,0,0,1.53125
2.1252323989992874,0,0,2.4205378784179685,0,0,2.296875
2.1270798789992114,0,0,2.310404602050781,0,0,1.0718750000000001
2.1288181179988896,0,0,0.9193734375,0,0,0.0
2.130396489999839,0,0,0.5386953735351562,0,0,0.22968750000000002
2.1322169689992734,0,0,1.419761584472656,0,0,0.5359375000000001
2.1339351530004933,0,0,1.7980454467773437,0,0,1.0718750000000001
2.1358112809994054,0,0,1.2617442749023438,0,0,1.225
2.1374176509998506,0,0,0.4908113403320312,0,0,-9.49375
2.139065096000195,0,0,1.235408056640625,0,0,0.9953125
2.14063898600034,0,0,2.2457611572265623,0,0,1.225
2.142161079998914,0,0,2.427720483398437,0,0,1.8375000000000001
2.1438585229989258,0,0,1.599326708984375,0,0,1.6078125
2.1455679859991506,0,0,-0.028730419921875,0,0,-0.153125
2.1474037429998134,0,0,1.419761584472656,0,0,0.3828125
2.1490380949999235,0,0,1.9823989746093749,0,0,1.6843750000000002
2.1507519829992816,0,0,1.5610194824218748,0,0,1.990625
2.1524084270004096,0,0,0.4525041137695312,0,0,1.4546875000000001
2.154011298000114,0,0,0.4860229370117187,0,0,0.9187500000000001
2.155743352999707,0,0,1.7741034301757812,0,0,1.990625
2.1573212610001065,0,0,2.6192566162109374,0,0,1.6078125
2.158976390999669,0,0,2.664746447753906,0,0,0.8421875000000001
2.1607983889989555,0,0,0.5961562133789062,0,0,-9.723437500000001
2.162659867999537,0,0,0.12449848632812499,0,0,-9.5703125
2.164364514999761,0,0,1.0366893188476562,0,0,1.3015625000000002
2.166201623998859,0,0,1.2018892333984375,0,0,0.45937500000000003
2.1680063450003217,0,0,1.2306196533203124,0,0,0.765625
2.1696418079991417,0,0,1.1707646118164061,0,0,1.225
2.171385528999963,0,0,2.379836450195312,0,0,2.0671875
2.172981510999307,0,0,2.73896669921875,0,0,1.378125
2.17452771599892,0,0,2.559401574707031,0,0,0.6890625
2.176443971999106,0,0,0.8188169677734375,0,0,-0.9187500000000001
2.1781309349989897,0,0,0.05027823486328125,0,0,-0.8421875000000001
2.1797130279992416,0,0,1.637633935546875,0,0,0.0
2.1813812870004767,0,0,1.4341267944335936,0,0,0.6125
2.1830190460004815,0,0,1.0486603271484374,0,0,1.7609375
2.1845937139987655,0,0,0.27293898925781246,0,0,0.3828125
2.1863282499998604,0,0,1.0462661254882812,0,0,0.153125
2.1880079719994683,0,0,2.114080065917969,0,0,1.0718750000000001
2.1896475089997693,0,0,3.0789433349609374,0,0,2.2203125000000004
2.19138774899875,0,0,1.8602946899414061,0,0,0.8421875000000001
2.1930702299996483,0,0,0.7829039428710937,0,0,-0.45937500000000003
2.194787135998922,0,0,0.6296750366210937,0,0,0.0
2.1963535449995106,0,0,1.5059528442382812,0,0,0.153125
2.198017673999857,0,0,1.678335363769531,0,0,0.6125
2.1997352479993424,0,0,1.2832920898437499,0,0,0.6125
2.201334952000252,0,0,0.42377369384765623,0,0,0.9953125
2.202874767999674,0,0,0.9696516723632812,0,0,0.5359375000000001
2.204500100999212,0,0,2.3223756103515623,0,0,1.1484375
2.206339061998733,0,0,2.3391350219726563,0,0,1.6078125
2.207890915000462,0,0,1.7405846069335937,0,0,0.9953125
2.2097004869992816,0,0,0.6607996582031249,0,0,-0.3828125
2.2114103570002044,0,0,1.3838485595703125,0,0,-0.30625
2.2130046729998867,0,0,1.6208745239257811,0,0,0.6890625
2.2146246539996355,0,0,1.4891934326171874,0,0,1.378125
2.2161919699992723,0,0,1.1061211669921875,0,0,1.53125
2.217712211999242,0,0,0.22744915771484372,0,0,0.8421875000000001
2.219323027000428,0,0,1.6136919189453125,0,0,1.378125
2.2211617100001604,0,0,1.867477294921875,0,0,0.153125
2.2228123959994264,0,0,2.2577321655273437,0,0,0.765625
2.2244470619989443,0,0,1.2018892333984375,0,0,1.0718750000000001
2.226151431999824,0,0,0.3399766357421875,0,0,0.5359375000000001
2.2277999319994706,0,0,1.6831237670898436,0,0,0.9187500000000001
2.22944035799992,0,0,2.1547814941406247,0,0,1.4546875000000001
2.2310196369999176,0,0,1.7788918334960937,0,0,1.9140625000000002
2.2326222299998335,0,0,0.8212111694335937,0,0,0.8421875000000001
2.2346707439992315,0,0,0.9504980590820312,0,0,0.8421875000000001
2.2362809850001213,0,0,2.0877438476562498,0,0,1.990625
2.2378077459998167,0,0,2.365471240234375,0,0,1.3015625000000002
2.239821667999422,0,0,2.070984436035156,0,0,0.9187500000000001
2.241576463000456,0,0,-0.040701428222656245,0,0,-0.765625
2.2431803709987435,0,0,0.411802685546875,0,0,0.0765625
2.24486557399905,0,0,1.3048399047851562,0,0,1.225
2.2466323690005083,0,0,1.4413093994140624,0,0,1.0718750000000001
2.248228405998816,0,0,0.7996633544921875,0,0,0.9953125
2.2498650180004915,0,0,1.0271125122070313,0,0,1.0718750000000001
2.25151831400035,0,0,2.118868469238281,0,0,1.9140625000000002
2.253146683999148,0,0,2.1811177124023438,0,0,1.225
2.2549599229987507,0,0,2.0254946044921875,0,0,0.5359375000000001
2.2565521279993845,0,0,0.86191259765625,0,0,0.3828125
2.258230793999246,0,0,1.0654197387695312,0,0,0.22968750000000002
2.2599882739996247,0,0,1.908178723144531,0,0,0.45937500000000003
2.261594903999139,0,0,1.35990654296875,0,0,0.6125
2.263438550000501,0,0,0.8475473876953125,0,0,1.4546875000000001
2.265575303999867,0,0,0.4429273071289062,0,0,0.6890625
2.2671323609993124,0,0,1.0390835205078124,0,0,0.9187500000000001
2.26902665399939,0,0,2.5163059448242184,0,0,1.53125
2.2707287459998042,0,0,2.655169641113281,0,0,1.4546875000000001
2.272284413998932,0,0,0.852335791015625,0,0,1.378125
2.273893063000287,0,0,-0.07422025146484375,0,0,0.0
2.275612524999815,0,0,1.4700398193359374,0,0,-0.3828125
2.2772561909987417,0,0,1.7717092285156248,0,0,0.5359375000000001
2.2789347839989205,0,0,1.3646949462890625,0,0,1.225
2.2805517649994727,0,0,0.430956298828125,0,0,0.765625
2.28221039500022,0,0,0.7996633544921875,0,0,1.0718750000000001
2.2839603379998152,0,0,1.7908628417968748,0,0,1.4546875000000001
2.285511783999027,0,0,2.454056701660156,0,0,1.225
2.287104246999661,0,0,2.4875755249023435,0,0,0.153125
2.2888634869996167,0,0,0.9935936889648437,0,0,0.153125
2.290442321000228,0,0,1.1851298217773436,0,0,0.153125
2.292022191999422,0,0,1.6256629272460936,0,0,0.8421875000000001
2.2937473019992467,0,0,1.6448165405273436,0,0,0.30625
2.2953514700002415,0,0,1.3239935180664062,0,0,1.3015625000000002
2.2968838599990704,0,0,0.38786066894531246,0,0,-0.30625
2.298645580998709,0,0,0.6392518432617187,0,0,0.30625
2.3002382479990047,0,0,2.3918074584960936,0,0,1.0718750000000001
2.3017679900003714,0,0,2.1787235107421874,0,0,2.0671875
2.3035716920003324,0,0,1.2569558715820313,0,0,0.9953125
2.3052066740001464,0,0,0.6775590698242188,0,0,-0.6125
2.3068747659999644,0,0,0.5530605834960938,0,0,-0.5359375000000001
2.308626079999158,0,0,2.0781670410156248,0,0,1.225
2.3103428939994046,0,0,2.0063409912109376,0,0,1.990625
2.3119903939987125,0,0,1.35990654296875,0,0,0.9187500000000001
2.3137589109992405,0,0,0.16759411621093748,0,0,0.5359375000000001
2.3154534659988713,0,0,2.003946789550781,0,0,0.9187500000000001
2.3170437259996106,0,0,2.5905261962890624,0,0,0.30625
2.318593244999647,0,0,2.138022082519531,0,0,0.5359375000000001
2.320256300999972,0,0,0.7972691528320313,0,0,0.9953125
2.3218681159996777,0,0,-0.15083470458984374,0,0,-0.5359375000000001
2.3235380789992632,0,0,1.139639990234375,0,0,0.0
2.3251782829993317,0,0,1.659181750488281,0,0,1.225
2.3268279490002897,0,0,1.4700398193359374,0,0,2.296875
2.3284586720001244,0,0,0.7589619262695312,0,0,0.765625
2.3300972460001503,0,0,0.814028564453125,0,0,0.9953125
2.331763078998847,0,0,2.1978771240234374,0,0,1.4546875000000001
2.333335134999288,0,0,2.061407629394531,0,0,1.0718750000000001
2.33502189399951,0,0,2.090138049316406,0,0,0.5359375000000001
2.336704634999478,0,0,0.48123453369140623,0,0,0.0
2.3383040059998166,0,0,0.8834604125976562,0,0,0.8421875000000001
2.33995028299978,0,0,1.5873557006835937,0,0,1.3015625000000002
2.341692541998782,0,0,1.5682020874023437,0,0,1.1484375
2.3435438169999543,0,0,1.2330138549804688,0,0,1.378125
2.345148798998707,0,0,0.5746083984375,0,0,0.5359375000000001
2.346842242999628,0,0,1.0893617553710937,0,0,1.378125
2.3484880949999933,0,0,2.731784094238281,0,0,-8.6515625
2.3502279829990584,0,0,2.4851813232421875,0,0,1.8375000000000001
2.3521488129990757,0,0,1.3263877197265623,0,0,1.225
2.353942570998697,0,0,-0.2059013427734375,0,0,0.0
2.3555672000002232,0,0,1.5945383056640625,0,0,0.0
2.3574919940001564,0,0,1.9680337646484374,0,0,0.0
2.3592431590004708,0,0,1.1827356201171875,0,0,1.3015625000000002
2.3608281779997924,0,0,0.622492431640625,0,0,0.6125
2.362639490998845,0,0,1.0175357055664063,0,0,0.8421875000000001
2.3643248429998494,0,0,2.4660277099609376,0,0,1.1484375
2.3659283429988136,0,0,2.5857377929687497,0,0,1.3015625000000002
2.3676944529997854,0,0,1.5011644409179687,0,0,0.0
2.3694247669991455,0,0,-0.15562310791015624,0,0,-0.6125
2.3711028039997473,0,0,1.0510545288085937,0,0,0.3828125
2.3728230809992965,0,0,1.8914193115234375,0,0,1.53125
2.3744782659996417,0,0,1.5945383056640625,0,0,1.6078125
2.3764479660003417,0,0,0.6679822631835937,0,0,0.9953125
2.378268370999649,0,0,0.9026140258789062,0,0,0.9953125
2.379832168999201,0,0,1.8052280517578123,0,0,1.1484375
2.381494928000393,0,0,2.2649147705078123,0,0,1.3015625000000002
2.383178889998817,0,0,2.0781670410156248,0,0,0.765625
2.3848257239988015,0,0,0.4070142822265625,0,0,-9.8
2.3865207790004206,0,0,0.22505495605468748,0,0,0.0
2.388196944999436,0,0,1.3958195678710936,0,0,1.6843750000000002
2.3898890189993836,0,0,2.1547814941406247,0,0,1.7609375
2.3914814639992983,0,0,1.8004396484374998,0,0,2.2203125000000004
2.393160462999731,0,0,0.8834604125976562,0,0,0.765625
2.3949465539990342,0,0,1.1276689819335937,0,0,1.0718750000000001
2.3964826479987096,0,0,2.1068974609374997,0,0,0.5359375000000001
2.3980594820004626,0,0,2.2840683837890623,0,0,1.6843750000000002
2.400096310999288,0,0,1.2617442749023438,0,0,0.8421875000000001
2.4017041269999027,0,0,-0.20350714111328125,0,0,-0.5359375000000001
2.4032835159996466,0,0,0.967257470703125,0,0,0.22968750000000002
2.405230104999646,0,0,1.89620771484375,0,0,1.225
2.4068956239989348,0,0,1.7094599853515624,0,0,2.9859375000000004
2.409267004999492,0,0,0.6967126831054687,0,0,1.0718750000000001
2.4114564239989704,0,0,2.300827795410156,0,0,1.9140625000000002
2.413116165000247,0,0,2.360682836914062,0,0,1.0718750000000001
2.414727535999191,0,0,2.29843359375,0,0,1.3015625000000002
2.4162778520003485,0,0,0.3687070556640625,0,0,0.6890625
2.4179628330002743,0,0,-0.36152445068359373,0,0,0.0765625
2.4196514430004754,0,0,1.1707646118164061,0,0,0.0
2.421495163000145,0,0,1.9967641845703124,0,0,3.7515625000000004
2.4232551810000587,0,0,1.2976572998046874,0,0,2.296875
2.4251624739990802,0,0,0.34237083740234375,0,0,1.225
2.4268457329999364,0,0,1.2210428466796874,0,0,1.225
2.428456677998838,0,0,2.480392919921875,0,0,1.6843750000000002
2.43007704899901,0,0,2.729389892578125,0,0,1.9140625000000002
2.431624697999723,0,0,1.9393033447265624,0,0,1.225
2.433205179999277,0,0,0.8978256225585937,0,0,-0.5359375000000001
2.434984233999785,0,0,0.2059013427734375,0,0,0.0765625
2.4365962720003154,0,0,1.2617442749023438,0,0,1.53125
2.4381783649987483,0,0,1.4628572143554686,0,0,1.3015625000000002
2.439889494000454,0,0,1.3000515014648437,0,0,1.0718750000000001
2.4414296989998547,0,0,0.7589619262695312,0,0,0.8421875000000001
2.4430082740000216,0,0,1.3287819213867187,0,0,1.3015625000000002
2.444722180000099,0,0,2.1164742675781247,0,0,0.6125
2.4462991259988485,0,0,2.1356278808593747,0,0,0.8421875000000001
2.4478371820005123,0,0,1.5227122558593749,0,0,0.0
2.4494538489998376,0,0,-0.02154781494140625,0,0,-1.378125
2.4511478490003356,0,0,0.4860229370117187,0,0,0.0
2.4526762389996293,0,0,1.3287819213867187,0,0,1.6078125
2.454291091000414,0,0,1.1875240234375,0,0,1.6078125
2.4560077940004703,0,0,1.235408056640625,0,0,1.3015625000000002
2.457742866999979,0,0,0.8858546142578124,0,0,0.5359375000000001
2.459342330999789,0,0,2.0278888061523435,0,0,0.8421875000000001
2.4610962189999555,0,0,2.5067291381835934,0,0,0.45937500000000003
2.4627743479995843,0,0,2.1452046874999997,0,0,0.0
2.4643948299999465,0,0,0.411802685546875,0,0,0.22968750000000002
2.46601675599959,0,0,-0.28730419921875,0,0,-0.3828125
2.467648255998938,0,0,1.0965443603515623,0,0,0.0
2.4692859599999792,0,0,1.6424223388671875,0,0,0.9187500000000001
2.470905144999051,0,0,1.5418658691406248,0,0,2.3734375
2.4724377210004604,0,0,0.9648632690429687,0,0,1.0718750000000001
2.474173405000329,0,0,1.1180921752929687,0,0,0.9953125
2.475895125999159,0,0,2.3391350219726563,0,0,1.6078125
2.4775352380002005,0,0,2.3439234252929686,0,0,1.53125
2.479565695999554,0,0,1.3048399047851562,0,0,0.3828125
2.4817078019987093,0,0,-0.04548983154296875,0,0,-0.8421875000000001
2.4832847469988337,0,0,1.0965443603515623,0,0,0.30625
2.4848217479993764,0,0,0.9624690673828125,0,0,0.9953125
2.486853947999407,0,0,1.350329736328125,0,0,1.9140625000000002
2.488519503000134,0,0,0.6584054565429687,0,0,0.6125
2.490130539999882,0,0,0.7829039428710937,0,0,0.5359375000000001
2.491816891999406,0,0,2.7341782958984373,0,0,1.8375000000000001
2.4937630179992993,0,0,2.583343591308594,0,0,1.6843750000000002
2.495404833000066,0,0,1.5705962890624998,0,0,1.1484375
2.4970647219997772,0,0,0.40940848388671874,0,0,-0.765625
2.499066087999381,0,0,0.5051765502929687,0,0,0.0
2.5007909019986982,0,0,1.599326708984375,0,0,1.378125
2.5025275489988417,0,0,1.216254443359375,0,0,1.9140625000000002
2.5041107349989034,0,0,1.1180921752929687,0,0,1.225
2.5057231249993492,0,0,0.6177040283203125,0,0,0.45937500000000003
2.507465845999832,0,0,2.1739351074218747,0,0,2.6031250000000004
2.5091141979992244,0,0,2.50912333984375,0,0,1.8375000000000001
2.510698734999096,0,0,2.6384102294921874,0,0,0.9953125
2.5123896049990435,0,0,0.6344634399414062,0,0,1.1484375
2.5140476979995583,0,0,-0.02154781494140625,0,0,0.0
2.515708271999756,0,0,1.2928688964843749,0,0,0.22968750000000002
2.5172592729995813,0,0,1.35990654296875,0,0,0.9187500000000001
2.5189068839990796,0,0,1.1444283935546875,0,0,2.2203125000000004
2.5206025499992393,0,0,0.5291185668945312,0,0,1.0718750000000001
2.522222753999813,0,0,0.9313444458007812,0,0,1.1484375
2.5237638109992986,0,0,2.4756045166015626,0,0,1.9140625000000002
2.525304311999207,0,0,2.3822306518554686,0,0,1.4546875000000001
2.526882645999649,0,0,2.013523596191406,0,0,0.3828125
2.528664347999438,0,0,0.7062894897460937,0,0,9.5703125
2.5303325329987274,0,0,0.9648632690429687,0,0,0.153125
2.5318763309987844,0,0,1.7645266235351562,0,0,0.6125
2.5335812749999604,0,0,1.4173673828125,0,0,1.378125
2.5353395879992604,0,0,0.8738836059570312,0,0,1.6843750000000002
2.536935366999387,0,0,0.5961562133789062,0,0,1.378125
2.5384616640003514,0,0,1.2569558715820313,0,0,0.22968750000000002
2.540166718999899,0,0,2.1308394775390624,0,0,1.0718750000000001
2.5418088489986985,0,0,2.849099975585937,0,0,1.990625
2.543349350000426,0,0,1.675941162109375,0,0,0.9187500000000001
2.54488573999879,0,0,0.4644751220703125,0,0,0.0765625
2.546608683998784,0,0,0.39264907226562495,0,0,0.30625
2.548222072999124,0,0,1.1875240234375,0,0,0.45937500000000003
2.5498583879998478,0,0,1.419761584472656,0,0,0.6890625
2.5515269989991793,0,0,1.3000515014648437,0,0,1.6843750000000002
2.5531809619988053,0,0,0.47165772705078124,0,0,1.3015625000000002
2.5548191660000157,0,0,1.458068811035156,0,0,1.3015625000000002
2.556353685000431,0,0,2.5426421630859375,0,0,1.7609375
2.558104239999011,0,0,2.499546533203125,0,0,1.6078125
2.559751257998869,0,0,1.5346832641601562,0,0,0.6890625
2.5613647769987438,0,0,0.201112939453125,0,0,-1.225
2.5629104639992875,0,0,0.6536170532226562,0,0,0.0
2.5645297600003687,0,0,1.4317325927734375,0,0,1.3015625000000002
2.566136593999545,0,0,1.3096283081054687,0,0,1.4546875000000001
2.5676990390002175,0,0,0.718260498046875,0,0,1.6843750000000002
2.569385094999234,0,0,0.8044517578125,0,0,1.3015625000000002
2.5710994459986978,0,0,1.7477672119140624,0,0,2.3734375
2.572666316998948,0,0,2.6767174560546874,0,0,1.225
2.5742899279994162,0,0,2.2864625854492187,0,0,1.378125
2.5759065949987416,0,0,1.419761584472656,0,0,1.3015625000000002
2.5774517449990526,0,0,-0.055066638183593745,0,0,-0.9953125
2.5790727629992034,0,0,0.4860229370117187,0,0,0.30625
2.5806689679993724,0,0,1.3407529296874998,0,0,1.378125
2.5822443019987986,0,0,1.4053963745117186,0,0,1.378125
2.5837669510001433,0,0,0.82360537109375,0,0,1.6078125
2.58537509999951,0,0,0.7517793212890624,0,0,1.0718750000000001
2.587095135999334,0,0,1.695094775390625,0,0,1.53125
2.5886548969992873,0,0,2.6862942626953124,0,0,0.5359375000000001
2.5902799519990367,0,0,2.528276953125,0,0,1.4546875000000001
2.591985062999811,0,0,1.879448303222656,0,0,0.9953125
2.5935195089987246,0,0,0.0047884033203125,0,0,0.0
2.5955957999995007,0,0,1.419761584472656,0,0,-0.30625
2.597336909999285,0,0,1.2689268798828124,0,0,0.45937500000000003
2.598885892999533,0,0,0.6153098266601562,0,0,0.6890625
2.6019850430002407,0,0,1.0462661254882812,0,0,1.6078125
2.6040148909996788,0,0,2.4779987182617185,0,0,1.7609375
2.6059119059991644,0,0,2.741360900878906,0,0,2.1437500000000003
2.607792478000192,0,0,1.5538368774414062,0,0,1.225
2.609752344998924,0,0,0.5195417602539062,0,0,-0.153125
2.6116184160000557,0,0,1.905784521484375,0,0,0.153125
2.6132717309992586,0,0,1.5729904907226562,0,0,1.225
2.6150608219995775,0,0,0.814028564453125,0,0,1.1484375
2.6168085059998702,0,0,0.08379705810546874,0,0,0.45937500000000003
2.618544689999908,0,0,1.2138602416992186,0,0,0.3828125
2.620134839000457,0,0,2.003946789550781,0,0,1.1484375
2.6217555059993174,0,0,2.9089550170898435,0,0,2.6031250000000004
2.6233118219988683,0,0,1.4125789794921875,0,0,0.9953125
2.6248407309994946,0,0,0.47644613037109373,0,0,0.0
2.6264500269990094,0,0,0.7948749511718749,0,0,0.30625
2.62802571300017,0,0,1.8148048583984373,0,0,0.9953125
2.6295495479989768,0,0,1.9608511596679685,0,0,1.53125
2.6313507319991913,0,0,1.3838485595703125,0,0,2.1437500000000003
2.632936566000353,0,0,0.34715924072265625,0,0,1.1484375
2.6345085479988484,0,0,0.70868369140625,0,0,0.6125
2.636270749999312,0,0,1.6400281372070311,0,0,1.0718750000000001
2.637968119999641,0,0,2.9640216552734375,0,0,3.0625
2.639786654999625,0,0,1.8100164550781248,0,0,1.6843750000000002
2.641583061000347,0,0,0.1580173095703125,0,0,-0.6890625
2.643283542000063,0,0,0.6967126831054687,0,0,0.0
2.6448964869996416,0,0,1.8171990600585937,0,0,1.0718750000000001
2.6465459129994997,0,0,1.180341418457031,0,0,1.6843750000000002
2.648411613999997,0,0,0.4572925170898437,0,0,0.8421875000000001
2.6501910200004204,0,0,0.5410895751953124,0,0,0.8421875000000001
2.6518542239991802,0,0,2.5378537597656248,0,0,1.4546875000000001
2.653558574998897,0,0,2.4013842651367185,0,0,1.7609375
2.655206815999918,0,0,2.157175695800781,0,0,0.45937500000000003
2.6568162419989676,0,0,0.5626373901367188,0,0,-0.6125
2.658548166999026,0,0,0.833182177734375,0,0,0.765625
2.6603153689993633,0,0,1.678335363769531,0,0,0.8421875000000001
2.662126404000446,0,0,1.7860744384765623,0,0,1.3015625000000002
2.663869681000506,0,0,1.0414777221679687,0,0,1.225
2.665758604000075,0,0,0.1580173095703125,0,0,0.5359375000000001
2.6675599919999513,0,0,2.3343466186523436,0,0,1.7609375
2.6693157499994413,0,0,2.834734765625,0,0,1.9140625000000002
2.6710492860001978,0,0,2.655169641113281,0,0,0.9187500000000001
2.672662842000136,0,0,0.9050082275390624,0,0,0.30625
2.674367118999726,0,0,0.8020575561523438,0,0,0.30625
2.6764222250003513,0,0,1.5370774658203123,0,0,0.9187500000000001
2.67808048400002,0,0,1.419761584472656,0,0,1.8375000000000001
2.6799804259990196,0,0,0.9361328491210937,0,0,0.9187500000000001
2.681747147000351,0,0,0.39983167724609375,0,0,0.6890625
2.683514942000329,0,0,2.0781670410156248,0,0,1.7609375
2.6853858470003615,0,0,2.4660277099609376,0,0,1.6843750000000002
2.6872176229990146,0,0,2.499546533203125,0,0,0.8421875000000001
2.688894843999151,0,0,0.70868369140625,0,0,-0.9187500000000001
2.690550252000321,0,0,1.1707646118164061,0,0,0.153125
2.692269713999849,0,0,2.090138049316406,0,0,0.6890625
2.694037526998727,0,0,1.5682020874023437,0,0,1.1484375
2.6958541919993877,0,0,0.689530078125,0,0,0.8421875000000001
2.6975282659986988,0,0,-0.01915361328125,0,0,0.0
2.699333578999358,0,0,2.0566192260742184,0,0,0.3828125
2.7010070599990286,0,0,2.6001030029296874,0,0,1.225
2.702706467000098,0,0,2.511517541503906,0,0,1.0718750000000001
2.7045240579991514,0,0,0.3902548706054687,0,0,1.53125
2.7061359839990473,0,0,-0.2561795776367187,0,0,0.0
2.707848390999061,0,0,1.9776105712890624,0,0,0.765625
2.7097378700000263,0,0,2.212242333984375,0,0,1.378125
2.7114084429995273,0,0,1.24498486328125,0,0,1.7609375
2.71300540700031,0,0,0.41898529052734373,0,0,0.6125
2.714718109999012,0,0,1.1037269653320312,0,0,0.6890625
2.7163557399999263,0,0,2.5809493896484375,0,0,0.9187500000000001
2.718213588999788,0,0,2.7341782958984373,0,0,1.6843750000000002
2.7199861249991955,0,0,1.3215993164062498,0,0,1.8375000000000001
2.72162753199882,0,0,0.0430956298828125,0,0,-0.5359375000000001
2.723456992998763,0,0,1.675941162109375,0,0,0.22968750000000002
2.725332416999663,0,0,1.7214309936523438,0,0,1.225
2.7269487129997287,0,0,1.446097802734375,0,0,2.0671875
2.7287870259988267,0,0,0.1771709228515625,0,0,1.225
2.7306178199996793,0,0,1.1372457885742187,0,0,0.22968750000000002
2.732496540000284,0,0,2.8227637573242186,0,0,0.8421875000000001
2.734187521000422,0,0,2.5737667846679684,0,0,1.0718750000000001
2.735893261000456,0,0,0.737414111328125,0,0,0.9953125
2.7375050760001614,0,0,-0.5195417602539062,0,0,-1.6078125
2.7395121089994063,0,0,1.9512743530273435,0,0,9.1875
2.7412620519990014,0,0,2.549824768066406,0,0,1.6078125
2.7428824229991733,0,0,1.9009961181640624,0,0,2.5265625000000003
2.7452394339998136,0,0,0.3184288208007812,0,0,0.153125
2.747676851000506,0,0,2.4660277099609376,0,0,1.1484375
2.7501552300000185,0,0,2.8107927490234372,0,0,2.296875
2.7522727619998477,0,0,1.254561669921875,0,0,1.3015625000000002
2.7541891660002875,0,0,-0.4644751220703125,0,0,0.0765625
2.755960275999314,0,0,1.465251416015625,0,0,0.8421875000000001
2.757673905000047,0,0,1.6352397338867186,0,0,0.9187500000000001
2.759553068999594,0,0,1.3024457031249999,0,0,0.5359375000000001
2.7611577179995948,0,0,0.5482721801757812,0,0,0.22968750000000002
2.762709200000245,0,0,1.649604943847656,0,0,1.0718750000000001
2.764357125999595,0,0,2.528276953125,0,0,0.9187500000000001
2.7659544229991297,0,0,2.4253262817382812,0,0,2.2203125000000004
2.767486905999249,0,0,1.1540052001953125,0,0,0.9953125
2.769294292998893,0,0,0.009576806640625,0,0,-2.0671875
2.770908127000439,0,0,1.1875240234375,0,0,0.0
2.7724255729990546,0,0,2.327164013671875,0,0,0.9953125
2.7739398699995945,0,0,1.7286135986328124,0,0,1.990625
2.7757181099987065,0,0,0.9241618408203125,0,0,0.9187500000000001
2.7773664249998546,0,0,-0.01915361328125,0,0,0.153125
2.7789753140004905,0,0,0.814028564453125,0,0,1.3015625000000002
2.7806091839993314,0,0,2.6575638427734374,0,0,1.4546875000000001
2.782239111000308,0,0,2.612074011230469,0,0,2.2203125000000004
2.7838774069987267,0,0,1.139639990234375,0,0,1.225
2.785404074998951,0,0,-0.3016694091796875,0,0,-1.1484375
2.7871953140002006,0,0,0.6344634399414062,0,0,0.0
2.7888972950004245,0,0,2.1883003173828124,0,0,2.2203125000000004
2.790535979998822,0,0,1.7286135986328124,0,0,2.1437500000000003
2.7925123469995015,0,0,0.4381389038085937,0,0,0.5359375000000001
2.7942489569995814,0,0,0.0909796630859375,0,0,0.22968750000000002
2.795803105998857,0,0,2.114080065917969,0,0,0.9187500000000001
2.7973911999997654,0,0,2.5809493896484375,0,0,1.378125
2.7990601069996046,0,0,2.099714855957031,0,0,1.378125
2.8006991809998,0,0,0.0909796630859375,0,0,0.765625
2.802328199999465,0,0,-0.39983167724609375,0,0,0.765625
2.803965569999491,0,0,1.659181750488281,0,0,0.8421875000000001
2.80564866199893,0,0,1.9201497314453124,0,0,1.1484375
2.8072927550001623,0,0,1.66636435546875,0,0,2.45
2.8088208669996675,0,0,0.4525041137695312,0,0,1.53125
2.8103534059991944,0,0,1.35990654296875,0,0,0.9187500000000001
2.8120764790000976,0,0,2.221819140625,0,0,1.6843750000000002
2.813748496999324,0,0,2.3056161987304686,0,0,2.1437500000000003
2.8156944940001267,0,0,0.9935936889648437,0,0,0.0765625
2.81736778999948,0,0,-0.39743747558593745,0,0,-1.0718750000000001
2.8189158469995164,0,0,0.49320554199218747,0,0,0.3828125
2.820668307998858,0,0,1.9105729248046874,0,0,1.9140625000000002
2.8224573810002767,0,0,1.8914193115234375,0,0,2.5265625000000003
2.8240823630003433,0,0,0.9313444458007812,0,0,1.4546875000000001
2.825745232999907,0,0,0.3591302490234375,0,0,0.3828125
2.827484157998697,0,0,2.29843359375,0,0,1.53125
2.8291260469995905,0,0,2.616862414550781,0,0,2.3734375
2.8308432679987163,0,0,2.5665841796874997,0,0,1.225
2.832428601999709,0,0,0.6177040283203125,0,0,0.9953125
2.834009418000278,0,0,-0.6057330200195312,0,0,-0.3828125
2.8356471030001558,0,0,1.0989385620117187,0,0,-0.22968750000000002
2.83722817799935,0,0,1.5658078857421873,0,0,1.1484375
2.838754919999701,0,0,1.5083470458984374,0,0,2.6796875
2.8404448829987814,0,0,0.36391865234375,0,0,1.6078125
2.842212269999436,0,0,0.3854664672851562,0,0,0.6125
2.8437577900003816,0,0,2.549824768066406,0,0,1.378125
2.8454795479992754,0,0,2.7557261108398436,0,0,1.4546875000000001
2.8471383260002767,0,0,2.001552587890625,0,0,0.9187500000000001
2.8486734199996135,0,0,0.04548983154296875,0,0,-0.6890625
2.850391234000199,0,0,0.6631938598632812,0,0,0.765625
2.8521538810000493,0,0,1.5155296508789062,0,0,1.6078125
2.8537390109995613,0,0,1.7645266235351562,0,0,1.3015625000000002
2.8552687720002723,0,0,1.2761094848632812,0,0,2.296875
2.8568688459999976,0,0,0.047884033203124995,0,0,0.30625
2.8586377520005044,0,0,1.4796166259765624,0,0,0.22968750000000002
2.8602198459993815,0,0,2.7557261108398436,0,0,0.8421875000000001
2.861742790999415,0,0,2.4971523315429685,0,0,1.9140625000000002
2.8634208839994244,0,0,1.13006318359375,0,0,0.9187500000000001
2.86510841999916,0,0,0.22266075439453123,0,0,-1.225
2.8667083099990123,0,0,0.5458779785156249,0,0,0.0765625
2.868360512999061,0,0,1.5897499023437498,0,0,0.8421875000000001
2.8699623470001825,0,0,1.9680337646484374,0,0,0.22968750000000002
2.8714950710000267,0,0,1.0031704956054688,0,0,1.53125
2.873142144999292,0,0,0.41898529052734373,0,0,0.3828125
2.8748378669988597,0,0,1.1611878051757811,0,0,0.5359375000000001
2.8764738669997314,0,0,2.5761609863281247,0,0,1.3015625000000002
2.878126847999738,0,0,2.5522189697265625,0,0,1.8375000000000001
2.8798841059997358,0,0,1.2593500732421874,0,0,0.0765625
2.881551975999173,0,0,-0.5315127685546874,0,0,-2.296875
2.8832429199992475,0,0,-0.22505495605468748,0,0,0.0
2.884880253999654,0,0,1.7932570434570312,0,0,1.6843750000000002
2.8866953439992358,0,0,1.0390835205078124,0,0,1.378125
2.8884106949990382,0,0,0.4836287353515625,0,0,0.8421875000000001
2.8900883799997246,0,0,0.8164227661132812,0,0,-0.45937500000000003
2.8916853070004436,0,0,2.252943762207031,0,0,1.0718750000000001
2.8932228819994634,0,0,2.8706477905273435,0,0,1.3015625000000002
2.894817845999569,0,0,1.5897499023437498,0,0,1.0718750000000001
2.8964908449997893,0,0,0.55545478515625,0,0,0.0
2.8981624749994808,0,0,0.181959326171875,0,0,-1.53125
2.8997148649996234,0,0,1.0678139404296874,0,0,0.0765625
2.901382771999124,0,0,1.5418658691406248,0,0,1.378125
2.9030626980002125,0,0,1.4245499877929686,0,0,0.6890625
2.9046061059998465,0,0,0.622492431640625,0,0,1.3015625000000002
2.9061352190001344,0,0,0.3064578125,0,0,1.225
2.9077707559990813,0,0,1.4987702392578124,0,0,0.5359375000000001
2.9094247189987072,0,0,2.8131869506835936,0,0,1.225
2.911384270999406,0,0,1.7932570434570312,0,0,0.9187500000000001
2.9131504359993414,0,0,1.2282254516601563,0,0,-0.153125
2.915081007000481,0,0,0.4908113403320312,0,0,-9.646875000000001
2.9168124129992066,0,0,0.5746083984375,0,0,0.0765625
2.9184427469990624,0,0,1.3479355346679687,0,0,0.6125
2.92006989499896,0,0,1.5035586425781249,0,0,-0.22968750000000002
2.9217282099998556,0,0,0.6919242797851562,0,0,1.6843750000000002
2.9235513379990152,0,0,1.0654197387695312,0,0,0.6890625
2.925399058000039,0,0,2.0350714111328125,0,0,0.9187500000000001
2.927028521000466,0,0,2.6192566162109374,0,0,1.9140625000000002
2.9285556329996325,0,0,1.936909143066406,0,0,1.1484375
2.930257558999074,0,0,1.2425906616210938,0,0,-0.8421875000000001
2.93186170700028,0,0,0.7876923461914062,0,0,-1.1484375
2.9335724840002513,0,0,0.9409212524414062,0,0,-0.6125
2.9353785749990493,0,0,1.0223241088867188,0,0,1.3015625000000002
2.937089148999803,0,0,1.1563994018554686,0,0,1.378125
2.9386299830002827,0,0,0.2442085693359375,0,0,0.3828125
2.9402017800002795,0,0,0.16759411621093748,0,0,0.5359375000000001
2.9418256509998173,0,0,0.9552864624023437,0,0,0.22968750000000002
2.9433640229999583,0,0,1.4508862060546874,0,0,0.5359375000000001
2.945009614999435,0,0,2.418143676757812,0,0,1.8375000000000001
2.9466938559999107,0,0,1.8148048583984373,0,0,1.7609375
2.9483005040001444,0,0,1.3838485595703125,0,0,0.45937500000000003
2.9500855400001456,0,0,0.7972691528320313,0,0,-0.45937500000000003
2.95173565100049,0,0,0.603338818359375,0,0,-0.6125
2.9534678159998293,0,0,0.9361328491210937,0,0,-0.3828125
2.955065112999364,0,0,1.5969325073242187,0,0,0.5359375000000001
2.956593855000392,0,0,1.235408056640625,0,0,2.6796875
2.95829090999905,0,0,0.49799394531249996,0,0,0.765625
2.9600763349990302,0,0,0.8212111694335937,0,0,-0.6125
2.9620076829996833,0,0,1.6472107421875,0,0,0.9953125
2.963885772998765,0,0,2.5163059448242184,0,0,1.378125
2.965536959000019,0,0,2.2673089721679687,0,0,1.1484375
2.9671254040003987,0,0,1.6136919189453125,0,0,0.9953125
2.969317064000279,0,0,0.42377369384765623,0,0,0.3828125
2.971062192998943,0,0,0.8978256225585937,0,0,0.45937500000000003
2.972668397000234,0,0,0.9217676391601562,0,0,0.0765625
2.974349803998848,0,0,1.2832920898437499,0,0,1.6843750000000002
2.9758836759992846,0,0,1.2306196533203124,0,0,1.378125
2.9773985849988094,0,0,0.7709329345703124,0,0,1.4546875000000001
2.978982159000225,0,0,0.7278373046875,0,0,1.0718750000000001
2.981016988000192,0,0,1.5849614990234373,0,0,1.1484375
2.982700524999018,0,0,2.070984436035156,0,0,1.53125
2.9842898589995457,0,0,2.2601263671875,0,0,1.6843750000000002
2.9861050420004176,0,0,1.9632453613281249,0,0,1.378125
2.987822207998761,0,0,0.5506663818359374,0,0,0.0
2.989407486998971,0,0,0.814028564453125,0,0,0.765625
2.9914630749990465,0,0,1.1444283935546875,0,0,0.22968750000000002
2.993243351000274,0,0,0.8882488159179687,0,0,-9.340625000000001
2.9948650739988807,0,0,0.6703764648437499,0,0,0.9187500000000001
2.99674914499883,0,0,1.13006318359375,0,0,0.9953125
2.9982860540003458,0,0,1.1085153686523437,0,0,2.45
2.9998138699993433,0,0,0.8667010009765624,0,0,1.6078125
3.00143703699905,0,0,1.8052280517578123,0,0,1.3015625000000002
3.003209608999896,0,0,2.1212626708984375,0,0,1.3015625000000002
3.005017792998842,0,0,1.7836802368164062,0,0,0.765625
3.006764587998987,0,0,1.8531120849609375,0,0,1.0718750000000001
3.0084668839990627,0,0,0.9864110839843749,0,0,0.9953125
3.0099962370004505,0,0,0.5578489868164063,0,0,0.153125
3.0115244789994904,0,0,1.0127473022460938,0,0,0.6890625
3.01323807100016,0,0,1.0007762939453124,0,0,0.30625
3.014889514999595,0,0,0.5267243652343749,0,0,0.153125
3.0167642529995646,0,0,0.4572925170898437,0,0,0.30625
3.018547882000348,0,0,1.5634136840820312,0,0,1.53125
3.020143530000496,0,0,1.6735469604492186,0,0,2.9093750000000003
3.021684068999093,0,0,0.9457096557617187,0,0,1.990625
3.0233074579991808,0,0,0.9361328491210937,0,0,1.1484375
3.024892994999391,0,0,1.8243816650390623,0,0,0.6890625
3.0264191629994457,0,0,2.042254016113281,0,0,1.225
3.0286292870005127,0,0,1.6112977172851561,0,0,0.765625
3.030240120999224,0,0,1.2569558715820313,0,0,0.765625
3.0318971569995483,0,0,0.8259995727539062,0,0,0.45937500000000003
3.033561287000339,0,0,1.216254443359375,0,0,0.30625
3.0352211569988867,0,0,1.35990654296875,0,0,0.8421875000000001
3.0367583070001274,0,0,1.2282254516601563,0,0,0.6890625
3.038279751999653,0,0,1.0007762939453124,0,0,0.22968750000000002
3.040251452999655,0,0,0.8571241943359375,0,0,0.30625
3.0419372849992214,0,0,1.8028338500976562,0,0,1.4546875000000001
3.0438629489999585,0,0,1.714248388671875,0,0,1.53125
3.045487133998904,0,0,0.4955997436523437,0,0,0.5359375000000001
3.0472686889988836,0,0,0.44532150878906246,0,0,-0.6125
3.048799115998918,0,0,1.668758557128906,0,0,0.3828125
3.0506991499987635,0,0,1.66636435546875,0,0,0.0
3.052354130999447,0,0,1.5035586425781249,0,0,0.6890625
3.053894983999271,0,0,1.5849614990234373,0,0,1.1484375
3.0554303560002154,0,0,1.2976572998046874,0,0,0.9953125
3.057060523000473,0,0,1.2473790649414063,0,0,0.8421875000000001
3.058661838000262,0,0,1.3168109130859373,0,0,0.8421875000000001
3.060183784000401,0,0,1.3215993164062498,0,0,0.153125
3.062205112999436,0,0,1.0414777221679687,0,0,-0.45937500000000003
3.064010240999778,0,0,1.4700398193359374,0,0,832.2343750000001
3.065614167999229,0,0,0.8379705810546875,0,0,0.0765625
3.0674025360003725,0,0,0.9313444458007812,0,0,1.4546875000000001
3.0690557959987927,0,0,1.455674609375,0,0,0.153125
3.0707475170002,0,0,1.0414777221679687,0,0,0.153125
3.0723294809995423,0,0,1.218648645019531,0,0,0.6890625
3.0738551309987088,0,0,2.042254016113281,0,0,1.0718750000000001
3.0759091449999687,0,0,1.9608511596679685,0,0,1.1484375
3.0775062190004974,0,0,0.9864110839843749,0,0,1.1484375
3.079183699999703,0,0,1.0438719238281249,0,0,0.153125
3.0808153489997494,0,0,1.3670891479492187,0,0,-852.8296875000001
3.0823569980002503,0,0,1.7621324218749999,0,0,0.6125
3.0838854069988884,0,0,1.7741034301757812,0,0,0.0
3.0856410169999435,0,0,0.7541735229492187,0,0,0.22968750000000002
3.0873348679997434,0,0,1.218648645019531,0,0,0.153125
3.0888724619999266,0,0,1.675941162109375,0,0,0.0
3.0904813329998433,0,0,1.7286135986328124,0,0,0.3828125
3.0921638139989227,0,0,1.3048399047851562,0,0,0.6125
3.0936903149995487,0,0,1.2401964599609374,0,0,0.6890625
3.0953149449997,0,0,1.3551181396484375,0,0,1.1484375
3.096969296999305,0,0,1.9033903198242186,0,0,1.225
3.0988808120000613,0,0,1.1276689819335937,0,0,0.6125
3.1005589790001977,0,0,0.7733271362304687,0,0,0.3828125
3.102150757000345,0,0,1.0319009155273438,0,0,0.30625
3.103872849000254,0,0,2.1212626708984375,0,0,0.9187500000000001
3.105684513999222,0,0,1.3287819213867187,0,0,1.0718750000000001
3.1072946439999214,0,0,0.7230489013671875,0,0,0.45937500000000003
3.1088303859996813,0,0,0.5817910034179687,0,0,0.6890625
3.110729326999717,0,0,1.3670891479492187,0,0,-8.957812500000001
3.1123616980003135,0,0,1.93451494140625,0,0,1.0718750000000001
3.113912957998764,0,0,2.0302830078125,0,0,1.0718750000000001
3.1154907740001363,0,0,1.0342951171875,0,0,0.8421875000000001
3.117270697999629,0,0,0.8283937744140625,0,0,0.6125
3.1189871610004047,0,0,1.3623007446289062,0,0,0.5359375000000001
3.1205738089993247,0,0,1.5873557006835937,0,0,832.6171875000001
3.1226357679988723,0,0,0.8092401611328125,0,0,0.0765625
3.1242197129995475,0,0,0.7852981445312499,0,0,832.8468750000001
3.125765306998801,0,0,1.1611878051757811,0,0,0.5359375000000001
3.1273985659991013,0,0,1.5514426757812498,0,0,1.4546875000000001
3.129059380999024,0,0,1.3431471313476562,0,0,0.9187500000000001
3.130650084998706,0,0,0.6703764648437499,0,0,0.765625
3.1322858439998527,0,0,0.7661445312499999,0,0,0.5359375000000001
3.134030842998982,0,0,1.8339584716796873,0,0,0.8421875000000001
3.1360746169993945,0,0,2.0973206542968748,0,0,1.6078125
3.137767782998708,0,0,1.1468225952148436,0,0,1.225
3.139350060999277,0,0,0.7254431030273437,0,0,0.30625
3.141176392999114,0,0,0.6847416748046875,0,0,-853.4421875
3.1428852810004173,0,0,1.5562310791015623,0,0,0.30625
3.1445530029996007,0,0,2.1164742675781247,0,0,1.225
3.146222298999419,0,0,1.668758557128906,0,0,1.225
3.1478128369999467,0,0,0.4213794921875,0,0,0.45937500000000003
3.149435336999886,0,0,0.5889736083984375,0,0,0.0765625
3.1510188749998633,0,0,1.1923124267578125,0,0,832.8468750000001
3.152702651999789,0,0,2.0638018310546875,0,0,0.765625
3.1543798179991427,0,0,2.0278888061523435,0,0,0.8421875000000001
3.1559640229988872,0,0,0.8068459594726562,0,0,0.45937500000000003
3.1576927629994316,0,0,0.21068974609375,0,0,0.22968750000000002
3.1596549810001306,0,0,0.9911994873046874,0,0,1.3015625000000002
3.162296618000255,0,0,1.9752163696289062,0,0,1.53125
3.1639949700002035,0,0,1.6160861206054686,0,0,0.9187500000000001
3.1656158589994448,0,0,0.63206923828125,0,0,0.45937500000000003
3.1671522859996912,0,0,1.0630255371093749,0,0,0.153125
3.168806229999973,0,0,1.2593500732421874,0,0,0.45937500000000003
3.1706567839992204,0,0,1.5131354492187499,0,0,1.3015625000000002
3.172274524999011,0,0,1.8052280517578123,0,0,1.378125
3.1738044889989396,0,0,1.5298948608398437,0,0,1.6843750000000002
3.1754388039989863,0,0,1.3455413330078123,0,0,0.765625
3.1769896570003766,0,0,0.9050082275390624,0,0,0.5359375000000001
3.1785441579995677,0,0,1.158793603515625,0,0,0.6125
3.1802597679998144,0,0,1.2521674682617188,0,0,1.225
3.1819399899995915,0,0,1.6160861206054686,0,0,1.4546875000000001
3.183527547000267,0,0,1.649604943847656,0,0,1.53125
3.185186769000211,0,0,1.4628572143554686,0,0,1.1484375
3.186802305999663,0,0,0.9241618408203125,0,0,0.30625
3.1891511689991603,0,0,1.0486603271484374,0,0,0.153125
3.1912298669994925,0,0,1.659181750488281,0,0,0.0765625
3.1929321449988493,0,0,1.5634136840820312,0,0,0.9953125
3.195153656999537,0,0,1.1947066284179686,0,0,0.8421875000000001
3.1969002109999565,0,0,0.7134720947265625,0,0,0.22968750000000002
3.1989188919997105,0,0,1.0773907470703123,0,0,-9.5703125
3.200713316000474,0,0,1.4867992309570313,0,0,1.1484375
3.202690164998785,0,0,1.438915197753906,0,0,0.6890625
3.204512217998854,0,0,1.5107412475585937,0,0,0.9953125
3.2062726610001846,0,0,1.1563994018554686,0,0,0.9187500000000001
3.207967734999329,0,0,0.9337386474609375,0,0,0.9953125
3.209764326000368,0,0,1.254561669921875,0,0,1.378125
3.211709859999246,0,0,1.649604943847656,0,0,0.45937500000000003
3.2134620990000258,0,0,1.3814543579101561,0,0,0.22968750000000002
3.2152571719998377,0,0,1.2856862915039062,0,0,0.6125
3.2168182099994738,0,0,1.1061211669921875,0,0,0.8421875000000001
3.2183783399996173,0,0,0.9744400756835937,0,0,0.8421875000000001
3.2199412299996766,0,0,1.1923124267578125,0,0,0.3828125
3.221658340000431,0,0,1.455674609375,0,0,0.5359375000000001
3.2233213399995293,0,0,1.5203180541992187,0,0,0.45937500000000003
3.224868859999333,0,0,1.5897499023437498,0,0,0.6125
3.2265500079993217,0,0,1.3048399047851562,0,0,0.765625
3.2282046000000264,0,0,1.0582371337890624,0,0,0.765625
3.229858766999314,0,0,1.1372457885742187,0,0,0.0
3.231520803999956,0,0,1.199495031738281,0,0,832.3875
3.233202617999268,0,0,1.1851298217773436,0,0,0.22968750000000002
3.2347663040000043,0,0,1.6400281372070311,0,0,0.3828125
3.2363113049996173,0,0,1.5275006591796874,0,0,1.0718750000000001
3.2378905469995516,0,0,1.3096283081054687,0,0,0.6125
3.239628471999822,0,0,1.2042834350585936,0,0,0.765625
3.241177231999245,0,0,1.199495031738281,0,0,0.5359375000000001
3.242757881000216,0,0,1.0941501586914062,0,0,0.30625
3.2443958629992267,0,0,1.2976572998046874,0,0,0.5359375000000001
3.246000789000391,0,0,1.2713210815429687,0,0,0.9953125
3.2475960299998405,0,0,1.0414777221679687,0,0,0.6125
3.2491892159996496,0,0,0.9840168823242187,0,0,0.0765625
3.250810012999864,0,0,1.0630255371093749,0,0,0.765625
3.2523906429996714,0,0,1.2330138549804688,0,0,0.9953125
3.2539961250004126,0,0,1.6112977172851561,0,0,0.8421875000000001
3.2557723649988475,0,0,1.3646949462890625,0,0,0.6125
3.258103004998702,0,0,0.9959878906249999,0,0,0.45937500000000003
3.2601091309988988,0,0,1.0654197387695312,0,0,0.153125
3.26167570600046,0,0,1.1156979736328125,0,0,832.5406250000001
3.2632751319997624,0,0,1.0797849487304687,0,0,1.0718750000000001
3.265091425999344,0,0,1.5825672973632812,0,0,1.1484375
3.266870776998985,0,0,1.22583125,0,0,0.9953125
3.2685374800003046,0,0,1.3934253662109375,0,0,1.0718750000000001
3.270248905999324,0,0,1.4245499877929686,0,0,0.765625
3.272476120999272,0,0,1.6615759521484375,0,0,0.9187500000000001
3.2740950289989996,0,0,1.4700398193359374,0,0,0.9187500000000001
3.275706270000228,0,0,1.0606313354492187,0,0,0.22968750000000002
3.277458843000204,0,0,0.9433154541015625,0,0,0.5359375000000001
3.279004473999521,0,0,0.9002198242187499,0,0,0.3828125
3.2805292720004218,0,0,1.1156979736328125,0,0,0.45937500000000003
3.282217011999819,0,0,1.0726023437499999,0,0,1.0718750000000001
3.28406784300023,0,0,1.3335703247070312,0,0,0.765625
3.285671231999004,0,0,1.1755530151367186,0,0,0.8421875000000001
3.2874526569994487,0,0,1.24498486328125,0,0,0.8421875000000001
3.2890490459994908,0,0,1.3215993164062498,0,0,0.765625
3.2905955469996115,0,0,1.3670891479492187,0,0,0.765625
3.2923238610001135,0,0,1.5682020874023437,0,0,1.1484375
3.2938746959989658,0,0,1.2593500732421874,0,0,0.6125
3.2954155489987897,0,0,1.4149731811523436,0,0,0.6890625
3.29709530800028,0,0,1.3766659545898436,0,0,1.1484375
3.298710992999986,0,0,1.0749965454101562,0,0,0.5359375000000001
3.300250234999112,0,0,1.0678139404296874,0,0,0.5359375000000001
3.3017746440000337,0,0,1.1635820068359375,0,0,832.3875
3.303400717999466,0,0,1.139639990234375,0,0,0.22968750000000002
3.3050690879990725,0,0,1.4628572143554686,0,0,0.765625
3.3067501810000977,0,0,1.177947216796875,0,0,0.45937500000000003
3.30846845799897,0,0,1.1516109985351561,0,0,0.6890625
3.3100777170002402,0,0,1.3551181396484375,0,0,0.6890625
3.3116774400004942,0,0,1.4317325927734375,0,0,-852.8296875000001
3.313312162999864,0,0,1.4915876342773438,0,0,832.8468750000001
3.31494699599898,0,0,1.6927005737304686,0,0,0.6890625
3.3164913119999255,0,0,1.0773907470703123,0,0,0.6125
3.318075109000347,0,0,1.1276689819335937,0,0,0.22968750000000002
3.320109289999891,0,0,1.2306196533203124,0,0,0.8421875000000001
3.321810381999967,0,0,1.3383587280273437,0,0,832.8468750000001
3.3236498610003764,0,0,1.2617442749023438,0,0,0.8421875000000001
3.3253415830004087,0,0,1.5370774658203123,0,0,0.5359375000000001
3.326987286998701,0,0,1.197100830078125,0,0,0.765625
3.328659971999514,0,0,1.1755530151367186,0,0,0.3828125
3.3304390069988585,0,0,1.3287819213867187,0,0,0.30625
3.332134469999801,0,0,1.0821791503906248,0,0,0.0765625
3.3337367479998647,0,0,1.189918225097656,0,0,0.6125
3.3354141729996627,0,0,1.6472107421875,0,0,0.6890625
3.3370901179987413,0,0,1.2689268798828124,0,0,0.30625
3.338700432999758,0,0,1.2018892333984375,0,0,0.8421875000000001
3.340390617999219,0,0,1.0702081420898437,0,0,0.22968750000000002
3.3422235599991836,0,0,1.2737152832031249,0,0,832.69375
3.343887225999424,0,0,1.438915197753906,0,0,1.0718750000000001
3.3461451080002007,0,0,1.216254443359375,0,0,0.6890625
3.348232788999667,0,0,1.20667763671875,0,0,0.765625
3.349816586000088,0,0,1.407790576171875,0,0,0.6125
3.3514244010002585,0,0,1.2401964599609374,0,0,0.9187500000000001
3.353102103999845,0,0,0.7757213378906249,0,0,0.22968750000000002
3.3547042529989994,0,0,1.6927005737304686,0,0,0.6890625
3.3562376059999224,0,0,1.8124106567382812,0,0,1.225
3.357821124998736,0,0,1.4413093994140624,0,0,2.45
3.359610587000134,0,0,1.20667763671875,0,0,1.0718750000000001
3.3613490859988815,0,0,1.1037269653320312,0,0,1.3015625000000002
3.3628800499991485,0,0,1.2138602416992186,0,0,0.8421875000000001
3.3645996790000936,0,0,1.659181750488281,0,0,0.45937500000000003
3.3662335310000344,0,0,1.4413093994140624,0,0,0.8421875000000001
3.3677740690000064,0,0,1.0390835205078124,0,0,0.30625
3.369388106999395,0,0,0.6919242797851562,0,0,0.6890625
3.3711904379997577,0,0,0.93852705078125,0,0,0.6125
3.372763605999353,0,0,1.4963760375976562,0,0,0.5359375000000001
3.3744064019992948,0,0,1.6807295654296874,0,0,0.8421875000000001
3.376262621999558,0,0,1.8243816650390623,0,0,1.1484375
3.3779952879995108,0,0,1.4604630126953124,0,0,0.8421875000000001
3.379810581998754,0,0,1.3000515014648437,0,0,0.6125
3.3814246009987983,0,0,1.3455413330078123,0,0,1.3015625000000002
3.3831505629987078,0,0,1.5107412475585937,0,0,0.45937500000000003
3.385003097999288,0,0,1.5322890624999999,0,0,0.8421875000000001
3.3868396329999086,0,0,1.2880804931640624,0,0,1.225
3.3886297609988105,0,0,1.1109095703125,0,0,1.225
3.390305463999539,0,0,1.3144167114257812,0,0,0.8421875000000001
3.391931983000177,0,0,1.3120225097656248,0,0,0.30625
3.393775165999614,0,0,1.465251416015625,0,0,0.5359375000000001
3.3955125350003073,0,0,1.8219874633789062,0,0,0.9187500000000001
3.397130424998977,0,0,1.3024457031249999,0,0,0.9187500000000001
3.3987392029994226,0,0,1.0342951171875,0,0,0.9187500000000001
3.400550218999342,0,0,1.3383587280273437,0,0,0.6890625
3.4021866639996006,0,0,1.3838485595703125,0,0,-9.1875
3.403798552999433,0,0,1.2689268798828124,0,0,0.3828125
3.4055863300000055,0,0,1.4221557861328125,0,0,0.765625
3.407272643999022,0,0,1.2737152832031249,0,0,0.6890625
3.408882495999933,0,0,1.24498486328125,0,0,0.9187500000000001
3.41063769900029,0,0,1.4604630126953124,0,0,0.6890625
3.413464223000119,0,0,1.5203180541992187,0,0,0.0
3.415156629000194,0,0,1.4891934326171874,0,0,0.5359375000000001
3.41697412800022,0,0,1.254561669921875,0,0,0.9953125
3.418546888000492,0,0,1.2306196533203124,0,0,0.6125
3.4201727399995434,0,0,1.3359645263671873,0,0,0.6125
3.421890980000171,0,0,1.4030021728515625,0,0,0.22968750000000002
3.4237882180004817,0,0,1.3455413330078123,0,0,0.0765625
3.4253954960004194,0,0,1.4125789794921875,0,0,0.6125
3.4270772549989488,0,0,1.2928688964843749,0,0,0.8421875000000001
3.4288207169993257,0,0,1.24498486328125,0,0,0.6890625
3.4304650869999023,0,0,1.4006079711914061,0,0,0.9187500000000001
3.4320596990000922,0,0,1.3311761230468748,0,0,0.153125
3.433629347999158,0,0,1.3263877197265623,0,0,0.0
3.4352749779991427,0,0,1.429338391113281,0,0,0.765625
3.4369462369995745,0,0,1.3670891479492187,0,0,0.6890625
3.4385572930004855,0,0,1.209071838378906,0,0,0.5359375000000001
3.4401685889988585,0,0,1.3096283081054687,0,0,0.765625
3.441827884998929,0,0,1.2832920898437499,0,0,1.378125
3.4435830879992864,0,0,1.4101847778320311,0,0,1.0718750000000001
3.445300827999745,0,0,1.4341267944335936,0,0,0.45937500000000003
3.446960401999604,0,0,1.3048399047851562,0,0,0.5359375000000001
3.4485639020003873,0,0,1.1324573852539062,0,0,0.6125
3.450370603999545,0,0,1.3335703247070312,0,0,0.8421875000000001
3.4520865109989245,0,0,1.2880804931640624,0,0,0.30625
3.4539394900002662,0,0,1.2952630981445312,0,0,0.3828125
3.4556772479991196,0,0,1.6472107421875,0,0,0.8421875000000001
3.4574246920001315,0,0,1.2689268798828124,0,0,0.8421875000000001
3.4592770599992946,0,0,1.0797849487304687,0,0,0.9187500000000001
3.4611744089997956,0,0,1.5227122558593749,0,0,0.30625
3.4630074439992313,0,0,1.4915876342773438,0,0,1.225
3.4648797560003004,0,0,1.2928688964843749,0,0,1.0718750000000001
3.466578755000228,0,0,1.2856862915039062,0,0,0.765625
3.4681183859993325,0,0,1.438915197753906,0,0,0.8421875000000001
3.4696481279988802,0,0,1.235408056640625,0,0,0.765625
3.4713313869997364,0,0,1.3024457031249999,0,0,0.45937500000000003
3.4730098500003805,0,0,1.4173673828125,0,0,0.30625
3.4745931649995327,0,0,1.5155296508789062,0,0,0.6125
3.4762523509998573,0,0,1.5466542724609373,0,0,0.9187500000000001
3.4779403869997623,0,0,1.448492004394531,0,0,0.9187500000000001
3.4794869990000734,0,0,1.177947216796875,0,0,0.9187500000000001
3.481158073000188,0,0,1.467645617675781,0,0,0.3828125
3.482882406000499,0,0,1.47482822265625,0,0,0.30625
3.4844496469995647,0,0,1.4101847778320311,0,0,0.5359375000000001
3.4860330920000706,0,0,1.5442600708007812,0,0,0.8421875000000001
3.4876871109991043,0,0,1.4149731811523436,0,0,0.8421875000000001
3.4892641299993556,0,0,1.1372457885742187,0,0,0.9187500000000001
3.4908167789999425,0,0,1.2785036865234374,0,0,0.765625
3.492612777999966,0,0,1.4341267944335936,0,0,832.5406250000001
3.494267852000121,0,0,1.3168109130859373,0,0,0.0765625
3.4958429639991664,0,0,1.5801730957031248,0,0,0.6890625
3.497461389999444,0,0,1.3168109130859373,0,0,0.6125
3.4990595199997188,0,0,1.199495031738281,0,0,0.8421875000000001
3.5007487229995604,0,0,1.39821376953125,0,0,0.8421875000000001
3.502388204999079,0,0,1.2401964599609374,0,0,0.5359375000000001
3.5040485939989594,0,0,1.3335703247070312,0,0,0.6125
3.505712742000469,0,0,1.5945383056640625,0,0,0.6890625
3.5077137749995018,0,0,1.4030021728515625,0,0,0.6890625
3.509489587999269,0,0,1.24498486328125,0,0,0.9953125
3.5110378669996862,0,0,1.35990654296875,0,0,0.6125
3.512842346999605,0,0,1.3958195678710936,0,0,0.153125
3.514635363999332,0,0,1.43652099609375,0,0,0.45937500000000003
3.516273289998935,0,0,1.6160861206054686,0,0,0.9953125
3.518514838999181,0,0,1.35990654296875,0,0,0.9187500000000001
3.520464928000365,0,0,1.3072341064453123,0,0,0.8421875000000001
3.5221815379991313,0,0,1.2880804931640624,0,0,0.8421875000000001
3.523996313999305,0,0,1.37906015625,0,0,0.45937500000000003
3.5256738320003933,0,0,1.618480322265625,0,0,0.6890625
3.52823339600036,0,0,1.4149731811523436,0,0,0.9953125
3.5298724889998994,0,0,1.2378022583007813,0,0,0.8421875000000001
3.531467544999032,0,0,1.448492004394531,0,0,0.9187500000000001
3.5336681499993574,0,0,1.5131354492187499,0,0,1.4546875000000001
3.5354598329995497,0,0,1.3048399047851562,0,0,0.6890625
3.537165110999922,0,0,1.2641384765625,0,0,0.9953125
3.5387354260001302,0,0,1.199495031738281,0,0,0.0765625
3.540405574000033,0,0,1.3144167114257812,0,0,0.9953125
3.5420152970000345,0,0,1.2928688964843749,0,0,2.45
3.5435472239987575,0,0,1.455674609375,0,0,0.9187500000000001
3.5451618539991614,0,0,1.4939818359375,0,0,1.0718750000000001
3.5468198170001415,0,0,1.3670891479492187,0,0,0.9953125
3.548417336000057,0,0,1.3670891479492187,0,0,0.765625
3.549946244998864,0,0,1.2976572998046874,0,0,0.9953125
3.5517365020004945,0,0,1.3407529296874998,0,0,1.378125
3.5533898169996974,0,0,1.5083470458984374,0,0,1.0718750000000001
3.5552178710004227,0,0,1.2473790649414063,0,0,1.0718750000000001
3.556759852999676,0,0,1.3311761230468748,0,0,0.9187500000000001
3.558386872000483,0,0,1.2306196533203124,0,0,0.8421875000000001
3.560030094000467,0,0,1.2210428466796874,0,0,0.8421875000000001
3.5615549289996125,0,0,1.47482822265625,0,0,0.3828125
3.563241891999496,0,0,1.4173673828125,0,0,0.0
3.564901521000138,0,0,1.2138602416992186,0,0,0.6125
3.5664778919999662,0,0,1.6831237670898436,0,0,0.9953125
3.5681261890003952,0,0,1.2425906616210938,0,0,0.6125
3.5697357629996986,0,0,1.2473790649414063,0,0,0.6890625
3.5712585049986956,0,0,1.5011644409179687,0,0,0.6890625
3.572827542999221,0,0,1.426944189453125,0,0,0.0
3.5745663569996395,0,0,1.3814543579101561,0,0,0.6890625
3.576357726000424,0,0,1.6160861206054686,0,0,0.9953125
3.57793415299966,0,0,1.3096283081054687,0,0,0.9187500000000001
3.5795757269988826,0,0,1.3000515014648437,0,0,0.9187500000000001
3.581242819000181,0,0,1.3335703247070312,0,0,0.765625
3.5828902079992986,0,0,1.4221557861328125,0,0,0.153125
3.5845317080002133,0,0,1.2401964599609374,0,0,0.30625
3.586156356999709,0,0,1.5777788940429687,0,0,0.6125
3.5879146520001086,0,0,1.3455413330078123,0,0,0.9187500000000001
3.5895612629992684,0,0,1.2569558715820313,0,0,0.765625
3.5912654839994502,0,0,1.3551181396484375,0,0,0.6890625
3.5927905600001395,0,0,1.3766659545898436,0,0,0.0
3.5946551309989445,0,0,1.3551181396484375,0,0,0.0765625
3.5963073349994374,0,0,1.5466542724609373,0,0,0.6890625
3.5978398179995565,0,0,1.3646949462890625,0,0,0.5359375000000001
3.5995089289990574,0,0,1.3455413330078123,0,0,0.6890625
3.60119653899892,0,0,1.3120225097656248,0,0,0.6125
3.6028077809987735,0,0,1.3575123413085937,0,0,0.153125
3.604467631999796,0,0,1.5298948608398437,0,0,0.0
3.606176706000042,0,0,1.5394716674804687,0,0,0.6125
3.607967889000065,0,0,1.3431471313476562,0,0,0.6125
3.609830941999462,0,0,1.2330138549804688,0,0,0.765625
3.6114957199988567,0,0,1.448492004394531,0,0,0.6890625
3.613283089000106,0,0,1.4532804077148436,0,0,0.153125
3.61487531199964,0,0,1.3910311645507811,0,0,0.3828125
3.6165419409990136,0,0,1.6065093139648436,0,0,0.9187500000000001
3.6183408279994183,0,0,1.3000515014648437,0,0,1.0718750000000001
3.6199992170004407,0,0,1.2114660400390624,0,0,0.9953125
3.621643235999727,0,0,1.3742717529296875,0,0,0.3828125
3.6233157539991225,0,0,1.426944189453125,0,0,0.0765625
3.6248901069993735,0,0,1.3431471313476562,0,0,0.5359375000000001
3.6265465689994016,0,0,1.649604943847656,0,0,0.765625
3.628128274000119,0,0,1.2425906616210938,0,0,0.765625
3.6300961779998033,0,0,1.216254443359375,0,0,1.0718750000000001
3.632018786000117,0,0,1.3575123413085937,0,0,1.1484375
3.633649804000015,0,0,1.4173673828125,0,0,0.5359375000000001
3.6356597260000854,0,0,1.5538368774414062,0,0,0.9953125
3.637610316000064,0,0,1.3383587280273437,0,0,0.9187500000000001
3.639307203999124,0,0,1.5155296508789062,0,0,0.9187500000000001
3.641354551000404,0,0,1.4963760375976562,0,0,0.45937500000000003
3.643136919999961,0,0,1.3024457031249999,0,0,0.0765625
3.6447371800004476,0,0,1.350329736328125,0,0,0.45937500000000003
3.6462697369988746,0,0,1.6112977172851561,0,0,0.8421875000000001
3.647868625999763,0,0,1.3000515014648437,0,0,0.6890625
3.6496831240001484,0,0,1.2713210815429687,0,0,0.5359375000000001
3.6512290699993173,0,0,1.4508862060546874,0,0,0.6125
3.652760570999817,0,0,1.4604630126953124,0,0,0.0765625
3.6547534559995256,0,0,1.3431471313476562,0,0,0.30625
3.656382159999339,0,0,1.6711527587890624,0,0,0.765625
3.6583854149994295,0,0,1.3455413330078123,0,0,1.0718750000000001
3.660061507998762,0,0,1.1372457885742187,0,0,0.9187500000000001
3.661741395999343,0,0,1.3359645263671873,0,0,0.5359375000000001
3.6634826919998886,0,0,1.3383587280273437,0,0,832.69375
3.6655211319994123,0,0,1.4915876342773438,0,0,1.3015625000000002
3.6671969649996754,0,0,1.4053963745117186,0,0,0.6890625
3.6687321879999217,0,0,1.3527239379882812,0,0,0.9187500000000001
3.670414242998959,0,0,1.1947066284179686,0,0,0.9953125
3.6720297439987917,0,0,1.3287819213867187,0,0,0.5359375000000001
3.6736418370001047,0,0,1.4820108276367188,0,0,832.6171875000001
3.6751821899997594,0,0,1.3814543579101561,0,0,0.0
3.6768225229989184,0,0,1.5203180541992187,0,0,0.8421875000000001
3.67860089199894,0,0,1.2785036865234374,0,0,0.6125
3.6802095219991315,0,0,1.2210428466796874,0,0,0.8421875000000001
3.681993964999492,0,0,1.3862427612304686,0,0,0.6125
3.683682464999947,0,0,1.4820108276367188,0,0,0.30625
3.6853110199990624,0,0,1.3479355346679687,0,0,0.9187500000000001
3.686910946998978,0,0,1.5514426757812498,0,0,0.765625
3.6884417999990546,0,0,1.1420341918945311,0,0,0.6890625
3.6900171159995807,0,0,1.2378022583007813,0,0,0.6125
3.6916267269989476,0,0,1.4508862060546874,0,0,0.6125
3.693149024999002,0,0,1.3144167114257812,0,0,0.6890625
3.6948828759996104,0,0,1.3455413330078123,0,0,0.3828125
3.696562912000445,0,0,1.5251064575195312,0,0,0.8421875000000001
3.6981021169995074,0,0,1.3215993164062498,0,0,0.9953125
3.6999269489988365,0,0,1.177947216796875,0,0,0.6890625
3.701725335999072,0,0,1.429338391113281,0,0,0.6890625
3.703345410000111,0,0,1.2665326782226562,0,0,0.5359375000000001
3.705093927999769,0,0,1.3335703247070312,0,0,0.45937500000000003
3.706857240998943,0,0,1.458068811035156,0,0,0.6890625
3.7084764640003414,0,0,1.1444283935546875,0,0,0.5359375000000001
3.710010279999551,0,0,1.180341418457031,0,0,0.6890625
3.7117920749988116,0,0,1.3431471313476562,0,0,0.765625
3.7134232049993443,0,0,1.3096283081054687,0,0,0.765625
3.715019649998794,0,0,1.4030021728515625,0,0,0.6890625
3.7166387239994947,0,0,1.5969325073242187,0,0,0.8421875000000001
3.718431833000068,0,0,1.2641384765625,0,0,1.1484375
3.7201573139991524,0,0,1.1827356201171875,0,0,0.6890625
3.721771702999831,0,0,1.3766659545898436,0,0,0.765625
3.7234341290004522,0,0,1.3455413330078123,0,0,0.30625
3.725137553999957,0,0,1.2330138549804688,0,0,0.6125
3.7273535109998193,0,0,1.5418658691406248,0,0,0.8421875000000001
3.729062102998796,0,0,1.3383587280273437,0,0,0.765625
3.7307997690004413,0,0,1.3359645263671873,0,0,0.9953125
3.732589470999301,0,0,1.254561669921875,0,0,1.0718750000000001
3.73443067199878,0,0,1.5107412475585937,0,0,0.9187500000000001
3.7361338199989405,0,0,1.4820108276367188,0,0,0.8421875000000001
3.7381020939992595,0,0,1.35990654296875,0,0,0.765625
3.7399794249995466,0,0,1.197100830078125,0,0,0.3828125
3.7418829029993503,0,0,1.3383587280273437,0,0,0.6125
3.743501662998824,0,0,1.2832920898437499,0,0,0.765625
3.7452638470003876,0,0,1.3575123413085937,0,0,0.6125
3.747578913000325,0,0,1.5921441040039062,0,0,1.0718750000000001
3.749246264998874,0,0,1.2569558715820313,0,0,1.225
3.7509320239987574,0,0,1.2785036865234374,0,0,0.9953125
3.7526109680002264,0,0,1.3263877197265623,0,0,0.6125
3.754233301999193,0,0,1.39821376953125,0,0,0.9953125
3.7558972089991585,0,0,1.5035586425781249,0,0,1.1484375
3.757946964000439,0,0,1.350329736328125,0,0,0.8421875000000001
3.759796053998798,0,0,1.16837041015625,0,0,0.6890625
3.7614929979990848,0,0,1.3287819213867187,0,0,0.765625
3.7631334609995974,0,0,1.3910311645507811,0,0,1.4546875000000001
3.764715850998982,0,0,1.4867992309570313,0,0,1.0718750000000001
3.7662901659987256,0,0,1.3623007446289062,0,0,0.8421875000000001
3.7678827219988307,0,0,1.3742717529296875,0,0,0.9953125
3.7695653329992638,0,0,1.3551181396484375,0,0,0.8421875000000001
3.7712622950002697,0,0,1.3168109130859373,0,0,0.6125
3.7729128319988376,0,0,1.2665326782226562,0,0,2.9859375000000004
3.7746714419990894,0,0,1.4173673828125,0,0,0.8421875000000001
3.7763777569998638,0,0,1.47482822265625,0,0,0.6890625
3.777923091000048,0,0,1.2904746948242187,0,0,0.9953125
3.7794525919998705,0,0,1.2641384765625,0,0,1.9140625000000002
3.7813173859995004,0,0,1.5227122558593749,0,0,0.765625
3.782994589999362,0,0,1.3263877197265623,0,0,1.378125
3.784591867999552,0,0,1.3359645263671873,0,0,1.378125
3.7864754580004956,0,0,1.3359645263671873,0,0,0.765625
3.7883860660003847,0,0,1.3718775512695311,0,0,0.6125
3.790023621999353,0,0,1.2282254516601563,0,0,0.5359375000000001
3.791702861999511,0,0,1.2808978881835937,0,0,0.6125
3.793504027000381,0,0,1.3335703247070312,0,0,1.1484375
3.795165231000283,0,0,1.4724340209960938,0,0,0.6890625
3.7967838980002853,0,0,1.649604943847656,0,0,0.6890625
3.7985186369987787,0,0,1.2713210815429687,0,0,2.296875
3.800237413999639,0,0,1.2138602416992186,0,0,0.45937500000000003
3.801881858998968,0,0,1.438915197753906,0,0,0.6125
3.8035860059990227,0,0,1.2689268798828124,0,0,1.0718750000000001
3.8054497630000697,0,0,1.3862427612304686,0,0,0.0
3.807140688999425,0,0,1.6112977172851561,0,0,0.9187500000000001
3.8088613729996723,0,0,1.3120225097656248,0,0,0.45937500000000003
3.810670482000205,0,0,1.3407529296874998,0,0,0.765625
3.8123238159987523,0,0,1.465251416015625,0,0,0.5359375000000001
3.8139909639994585,0,0,1.407790576171875,0,0,0.0
3.8155960379990574,0,0,1.5011644409179687,0,0,0.3828125
3.817257611999594,0,0,1.6017209106445311,0,0,0.6890625
3.818938963999244,0,0,1.35990654296875,0,0,0.8421875000000001
3.820544185999097,0,0,1.3072341064453123,0,0,0.0765625
3.822202315999675,0,0,1.426944189453125,0,0,0.45937500000000003
3.8239408699992055,0,0,1.4221557861328125,0,0,0.0765625
3.8255549629993766,0,0,1.5011644409179687,0,0,0.0765625
3.82774071699896,0,0,1.4341267944335936,0,0,1.0718750000000001
3.829504270999678,0,0,1.3958195678710936,0,0,1.0718750000000001
3.8310517899990373,0,0,1.3120225097656248,0,0,0.9953125
3.832575161999557,0,0,1.4820108276367188,0,0,0.6890625
3.8341977179989044,0,0,1.35990654296875,0,0,832.8468750000001
3.8359810869987996,0,0,1.2952630981445312,0,0,0.6125
3.8375181249994057,0,0,1.5418658691406248,0,0,0.765625
3.839144514000509,0,0,1.3479355346679687,0,0,0.6890625
3.8408321059996524,0,0,1.2018892333984375,0,0,0.8421875000000001
3.842355626000426,0,0,1.3215993164062498,0,0,0.45937500000000003
3.8446145830002934,0,0,1.467645617675781,0,0,0.6125
3.8463283780001802,0,0,1.350329736328125,0,0,0.5359375000000001
3.8484241139994992,0,0,1.4413093994140624,0,0,0.8421875000000001
3.8505917559996305,0,0,1.2641384765625,0,0,0.765625
3.852233886000249,0,0,1.35990654296875,0,0,0.765625
3.8537688500000513,0,0,1.369483349609375,0,0,1.0718750000000001
3.855317980998734,0,0,1.2521674682617188,0,0,1.0718750000000001
3.8569130369996856,0,0,1.5586252807617187,0,0,0.6890625
3.858708628000386,0,0,1.2761094848632812,0,0,0.765625
3.8604809409989684,0,0,1.3766659545898436,0,0,0.5359375000000001
3.8620688859991787,0,0,1.4173673828125,0,0,0.6890625
3.8637484419996326,0,0,1.4413093994140624,0,0,1.4546875000000001
3.8656345500003226,0,0,1.5107412475585937,0,0,0.22968750000000002
3.8672764759994607,0,0,1.5777788940429687,0,0,0.5359375000000001
3.8688443840001128,0,0,1.2904746948242187,0,0,0.6125
3.870526458000313,0,0,1.2880804931640624,0,0,0.22968750000000002
3.872258104998764,0,0,1.43652099609375,0,0,0.5359375000000001
3.8740169190004963,0,0,1.3623007446289062,0,0,0.153125
3.8757174919992394,0,0,1.2689268798828124,0,0,0.30625
3.877408029000435,0,0,1.5921441040039062,0,0,0.9187500000000001
3.8791293060003227,0,0,1.3048399047851562,0,0,0.9187500000000001
3.8808319899999333,0,0,1.254561669921875,0,0,0.6890625
3.882541916000264,0,0,1.484405029296875,0,0,0.6125
3.8841908049998892,0,0,1.2952630981445312,0,0,832.0812500000001
3.885898358999839,0,0,1.369483349609375,0,0,0.3828125
3.8877100800000335,0,0,1.5227122558593749,0,0,0.8421875000000001
3.889415227000427,0,0,1.2785036865234374,0,0,0.6890625
3.8911165419995086,0,0,1.1635820068359375,0,0,0.9187500000000001
