Time (s),Accel X,Accel Y,Accel Z,Gyro X,Gyro Y,Gyro Z,Temperature (C)
0.008408615991356783,9.78031378173828,-0.7589619262695312,1.4724340209960938,0,0,0,0
0.01080621599976439,9.79946739501953,-0.6248866333007812,1.5897499023437498,0,0,0,0
0.012439472993719392,9.749189160156249,-0.5770026000976562,1.5538368774414062,0,0,0,0
0.013931934998254292,9.718064538574218,-0.6368576416015624,1.5155296508789062,0,0,0,0
0.015375528004369698,9.758765966796874,-0.5985504150390625,1.446097802734375,0,0,0,0
0.01681119599379599,9.82580361328125,-0.47165772705078124,1.3934253662109375,0,0,0,0
0.018428953000693582,9.897629663085937,-0.699106884765625,1.4053963745117186,0,0,0,0
0.01982923199830111,9.916783276367187,-0.6823474731445313,1.3718775512695311,0,0,0,0
0.021145085003809072,10.012551342773437,-0.6919242797851562,1.2785036865234374,0,0,0,0
0.022480771993286908,9.974244116210937,-0.6871358764648438,1.1252747802734375,0,0,0,0
0.02382018099888228,9.945513696289062,-0.7326257080078125,1.2641384765625,0,0,0,0
0.025176498005748726,9.943119494628906,-0.6919242797851562,1.3168109130859373,0,0,0,0
0.02642953699978534,9.91438907470703,-0.6392518432617187,1.216254443359375,0,0,0,0
0.027645337002468295,9.89523546142578,-0.5985504150390625,1.2808978881835937,0,0,0,0
0.029052597004920244,9.823409411621093,-0.6177040283203125,1.216254443359375,0,0,0,0
0.030709076003404334,10.019733947753906,-0.488417138671875,1.2617442749023438,0,0,0,0
0.03191830200375989,10.005368737792969,-0.4908113403320312,1.235408056640625,0,0,0,0
0.03314084200246725,10.019733947753906,-0.4477157104492187,1.2593500732421874,0,0,0,0
0.03433069700258784,9.988609326171874,-0.38786066894531246,1.3072341064453123,0,0,0,0
0.035579496005084366,10.034099157714843,-0.38307226562499996,1.3742717529296875,0,0,0,0
0.03678770299302414,10.01733974609375,-0.41898529052734373,1.2018892333984375,0,0,0,0
0.03791042999364436,10.019733947753906,-0.38307226562499996,1.197100830078125,0,0,0,0
0.038985564999165945,10.024522351074218,-0.35673604736328124,1.1635820068359375,0,0,0,0
0.04006825499527622,10.103531005859374,-0.39743747558593745,1.177947216796875,0,0,0,0
0.04119396299938671,9.97903251953125,-0.3806780639648437,1.1372457885742187,0,0,0,0
0.04234855899994727,10.041281762695311,-0.28730419921875,1.1133037719726562,0,0,0,0
0.04350436000095215,10.05564697265625,-0.29448680419921874,1.1156979736328125,0,0,0,0
0.04465580800024327,10.0748005859375,-0.316034619140625,0.948103857421875,0,0,0,0
0.04576392400485929,10.098742602539062,-0.45489831542968745,1.0319009155273438,0,0,0,0
0.046866706004948355,10.09395419921875,-0.3112462158203125,1.0223241088867188,0,0,0,0
0.04794385899731424,10.117896215820313,-0.29448680419921874,0.9935936889648437,0,0,0,0
0.049201973000890575,10.184933862304687,-0.28969840087890625,0.9313444458007812,0,0,0,0
0.05050219799159095,10.268730920410155,-0.26815058593749996,0.97683427734375,0,0,0,0
0.05160685000009835,10.340556970214843,-0.24899697265624998,0.9935936889648437,0,0,0,0
0.05269783700350672,10.31661495361328,-0.2154781494140625,0.9696516723632812,0,0,0,0
0.05386039600125514,10.383652600097655,-0.3064578125,1.0103531005859374,0,0,0,0
0.0550724359927699,10.43153663330078,-0.28490999755859375,0.9504980590820312,0,0,0,0
0.05627701399498619,10.441113439941406,-0.26336218261718747,0.8690952026367187,0,0,0,0
0.05749051699240226,10.441113439941406,-0.26336218261718747,0.9026140258789062,0,0,0,0
0.0586576130008325,10.436325036621094,-0.2825157958984375,0.9193734375,0,0,0,0
0.059818690991960466,10.46984385986328,-0.32561142578124996,0.9121908325195311,0,0,0,0
0.06108291599957738,10.59194814453125,-0.4070142822265625,0.9528922607421875,0,0,0,0
0.06264613699750043,10.625466967773438,-0.3495534423828125,0.8571241943359375,0,0,0,0
0.06393123199813999,10.656591589355468,-0.3447650390625,0.852335791015625,0,0,0,0
0.06550263799726963,10.635043774414061,-0.32082302246093747,0.7757213378906249,0,0,0,0
0.06707693300268147,10.692504614257812,-0.33518823242187495,0.718260498046875,0,0,0,0
0.06832110299728811,10.656591589355468,-0.30885201416015623,0.7613561279296874,0,0,0,0
0.06948621799529064,10.682927807617187,-0.3016694091796875,0.8044517578125,0,0,0,0
0.07063568499870598,10.608707556152343,-0.24181436767578124,0.507570751953125,0,0,0,0
0.07178920799924526,10.625466967773438,-0.2346317626953125,0.6560112548828124,0,0,0,0
0.0731608200003393,10.781090075683593,-0.13168109130859373,0.6057330200195312,0,0,0,0
0.07464930099376943,10.773907470703124,-0.0143652099609375,0.622492431640625,0,0,0,0
0.07657620299141854,10.778695874023438,-0.13407529296874998,0.6919242797851562,0,0,0,0
0.07812918299168814,10.886434948730468,-0.086191259765625,0.5458779785156249,0,0,0,0
0.08007939999515656,10.864887133789061,-0.1771709228515625,0.5482721801757812,0,0,0,0
0.08133108699985314,10.855310327148437,-0.14125789794921875,0.5339069702148437,0,0,0,0
0.08251736899546813,10.86009873046875,-0.15322890625,0.5698199951171875,0,0,0,0
0.08390518500527833,10.800243688964843,-0.18914193115234373,0.6512228515624999,0,0,0,0
0.08555638599500526,10.764330664062498,-0.1771709228515625,0.5602431884765625,0,0,0,0
0.08684020300279371,10.735600244140624,-0.18435352783203124,0.5506663818359374,0,0,0,0
0.0889641770045273,10.66137999267578,-0.201112939453125,0.5817910034179687,0,0,0,0
0.09068652499991003,10.63025537109375,-0.2561795776367187,0.622492431640625,0,0,0,0
0.09232976399653126,10.596736547851561,-0.2059013427734375,0.6584054565429687,0,0,0,0
0.09361254400573671,10.582371337890624,-0.229843359375,0.6560112548828124,0,0,0,0
0.09508145200379658,10.682927807617187,-0.2537853759765625,0.689530078125,0,0,0,0
0.09669876399857458,10.690110412597656,-0.28012159423828126,0.6464344482421874,0,0,0,0
0.0983144479978364,10.66856259765625,-0.26336218261718747,0.6847416748046875,0,0,0,0
0.09959208000509534,10.704475622558594,-0.277727392578125,0.6584054565429687,0,0,0,0
0.10082987899659202,10.675745202636719,-0.3280056274414062,0.7254431030273437,0,0,0,0
0.10232784200343303,10.71884083251953,-0.25139117431640623,0.8355763793945312,0,0,0,0
0.10459320199151989,10.675745202636719,-0.40462008056640625,0.7445967163085937,0,0,0,0
0.10590644499461632,10.594342346191405,-0.4213794921875,0.7757213378906249,0,0,0,0
0.10708859699661843,10.69968721923828,-0.4477157104492187,0.8188169677734375,0,0,0,0
0.10818089799431618,10.726023437499999,-0.4955997436523437,0.8834604125976562,0,0,0,0
0.10992504299792927,10.625466967773438,-0.4836287353515625,0.8810662109374999,0,0,0,0
0.1112692850001622,10.575188732910156,-0.5243301635742187,0.9217676391601562,0,0,0,0
0.11244332599744666,10.551246716308594,-0.49320554199218747,0.7685387329101562,0,0,0,0
0.11354512699472252,10.512939489746094,-0.48123453369140623,0.9816226806640624,0,0,0,0
0.11500566400354728,10.517727893066406,-0.488417138671875,0.9888052856445312,0,0,0,0
0.11637786899518687,10.498574279785156,-0.5219359619140624,1.0390835205078124,0,0,0,0
0.11747931799618527,10.467449658203124,-0.49320554199218747,0.7876923461914062,0,0,0,0
0.11856939700373914,10.43871923828125,-0.5195417602539062,0.9528922607421875,0,0,0,0
0.12048827999387868,10.429142431640624,-0.469263525390625,0.8882488159179687,0,0,0,0
0.121821855995222,10.548852514648438,-0.5770026000976562,0.9911994873046874,0,0,0,0
0.1231154879933456,10.386046801757812,-0.5889736083984375,1.0414777221679687,0,0,0,0
0.12446237799304072,10.330980163574218,-0.5913678100585937,1.0342951171875,0,0,0,0
0.12574408399814274,10.256759912109374,-0.5865794067382812,1.1156979736328125,0,0,0,0
0.12743454400333576,10.20169327392578,-0.6105214233398437,1.1659762084960936,0,0,0,0
0.12858010399213526,10.299855541992187,-0.6679822631835937,1.1540052001953125,0,0,0,0
0.12968670099508017,10.309432348632813,-0.7062894897460937,1.0630255371093749,0,0,0,0
0.13089422299526632,10.172962854003906,-0.7685387329101562,1.0917559570312498,0,0,0,0
0.13207765300467145,10.184933862304687,-0.8020575561523438,1.0845733520507812,0,0,0,0
0.13317354599712417,10.189722265624999,-0.8068459594726562,1.0678139404296874,0,0,0,0
0.1342516809963854,10.180145458984374,-0.8164227661132812,1.120486376953125,0,0,0,0
0.1357621249917429,10.261548315429687,-0.8906430175781249,1.1659762084960936,0,0,0,0
0.13727629100321792,10.034099157714843,-0.8786720092773437,1.1875240234375,0,0,0,0
0.13844051699561533,9.955090502929687,-0.9145850341796874,1.1731588134765625,0,0,0,0
0.13952398499532137,9.993397729492187,-1.0079588989257813,1.2282254516601563,0,0,0,0
0.14061078599479515,9.952696301269532,-1.0534487304687499,1.2928688964843749,0,0,0,0
0.14181023399578407,9.943119494628906,-0.948103857421875,1.3311761230468748,0,0,0,0
0.14300294099666644,9.91438907470703,-0.9648632690429687,1.39821376953125,0,0,0,0
0.1441014269948937,9.964667309570311,-1.024718310546875,1.3335703247070312,0,0,0,0
0.145166488000541,9.94072529296875,-1.0486603271484374,1.2928688964843749,0,0,0,0
0.1462292520009214,9.892841259765625,-1.0893617553710937,1.3623007446289062,0,0,0,0
0.14741944099660031,9.849745629882811,-1.0678139404296874,1.369483349609375,0,0,0,0
0.14865070299129002,9.832986218261718,-1.0773907470703123,1.4939818359375,0,0,0,0
0.14974331899429671,9.883264453125,-1.0558429321289062,1.4508862060546874,0,0,0,0
0.1509101190022193,9.86411083984375,-1.0462661254882812,1.4101847778320311,0,0,0,0
0.15207756799645722,9.909600671386718,-1.1252747802734375,1.465251416015625,0,0,0,0
0.15325244200357702,9.900023864746093,-1.1611878051757811,1.4867992309570313,0,0,0,0
0.15455503699195106,9.888052856445311,-1.1180921752929687,1.5490484741210937,0,0,0,0
0.15584239100280683,9.957484704589843,-1.0917559570312498,1.5849614990234373,0,0,0,0
0.15702609799336642,9.943119494628906,-1.1013327636718748,1.637633935546875,0,0,0,0
0.15819695399841294,9.904812268066406,-1.13006318359375,1.5849614990234373,0,0,0,0
0.15949975200055633,9.94072529296875,-1.1731588134765625,1.6065093139648436,0,0,0,0
0.1607810139976209,9.928754284667969,-1.2497732666015624,1.6232687255859375,0,0,0,0
0.16231104999314994,10.01015714111328,-1.180341418457031,1.599326708984375,0,0,0,0
0.1637314950057771,10.012551342773437,-1.235408056640625,1.6160861206054686,0,0,0,0
0.16514357000414748,10.070012182617187,-1.2234370483398436,1.618480322265625,0,0,0,0
0.16637031399295665,10.139444030761718,-1.20667763671875,1.687912170410156,0,0,0,0
0.16790312799275853,10.175357055664062,-1.2593500732421874,1.6256629272460936,0,0,0,0
0.16929129599884618,10.117896215820313,-1.2569558715820313,1.649604943847656,0,0,0,0
0.1706953520042589,10.206481677246094,-1.16837041015625,1.6519991455078125,0,0,0,0
0.17194705799920484,10.20169327392578,-1.199495031738281,1.66636435546875,0,0,0,0
0.1732110239972826,10.213664282226562,-1.2713210815429687,1.668758557128906,0,0,0,0
0.17484815200441517,10.263942517089843,-1.3479355346679687,1.6472107421875,0,0,0,0
0.1760739140008809,10.206481677246094,-1.3575123413085937,1.6448165405273436,0,0,0,0
0.17745365599694196,10.139444030761718,-1.5203180541992187,1.7573440185546874,0,0,0,0
0.1786581960041076,10.101136804199218,-1.47482822265625,1.668758557128906,0,0,0,0
0.1798652739962563,10.072406384277343,-1.4700398193359374,1.6519991455078125,0,0,0,0
0.18146282799716573,10.04846436767578,-1.4413093994140624,1.6543933471679686,0,0,0,0
0.18274858899530955,10.019733947753906,-1.6041151123046875,1.678335363769531,0,0,0,0
0.18400048099283595,9.919177478027343,-1.5562310791015623,1.6639701538085936,0,0,0,0
0.1852221689914586,9.967061511230469,-1.5945383056640625,1.5418658691406248,0,0,0,0
0.18650354200508446,9.93354268798828,-1.6615759521484375,1.695094775390625,0,0,0,0
0.1878041000018129,9.83777462158203,-1.7262193969726563,1.6519991455078125,0,0,0,0
0.18903475100523792,9.777919580078125,-1.7214309936523438,1.659181750488281,0,0,0,0
0.19023125400417484,9.758765966796874,-1.707065783691406,1.5394716674804687,0,0,0,0
0.19144710899854545,9.734823950195311,-1.5658078857421873,1.618480322265625,0,0,0,0
0.1927511859976221,9.794678991699218,-1.6735469604492186,1.6232687255859375,0,0,0,0
0.19412194599863142,9.811438403320311,-1.697488977050781,1.656787548828125,0,0,0,0
0.19548952199693304,9.830592016601562,-1.8339584716796873,1.6136919189453125,0,0,0,0
0.19684641200001352,9.880870251464843,-1.695094775390625,1.5873557006835937,0,0,0,0
0.19811887700052466,9.91438907470703,-1.6735469604492186,1.62805712890625,0,0,0,0
0.1996724130003713,9.854534033203125,-1.6807295654296874,1.5538368774414062,0,0,0,0
0.20100130399805494,9.888052856445311,-1.7094599853515624,1.697488977050781,0,0,0,0
0.20223177000298165,9.9215716796875,-1.7310078002929687,1.66636435546875,0,0,0,0
0.2035298279952258,9.957484704589843,-1.7262193969726563,1.6160861206054686,0,0,0,0
0.20480070100165904,9.94072529296875,-1.714248388671875,1.608903515625,0,0,0,0
0.20601777799311094,9.962273107910155,-1.7477672119140624,1.695094775390625,0,0,0,0
0.20722355900215916,9.926360083007811,-1.838746875,1.70467158203125,0,0,0,0
0.20846789500501473,9.97184991455078,-1.7956512451171873,1.697488977050781,0,0,0,0
0.20970774999295827,9.995791931152343,-1.848323681640625,1.7118541870117185,0,0,0,0
0.2109232350048842,9.993397729492187,-1.8459294799804686,1.6615759521484375,0,0,0,0
0.2123433649976505,10.002974536132811,-1.7429788085937499,1.6328455322265625,0,0,0,0
0.21358762700401712,10.002974536132811,-1.695094775390625,1.6160861206054686,0,0,0,0
0.21476727900153492,9.888052856445311,-1.5538368774414062,1.5610194824218748,0,0,0,0
0.21586871000181418,9.821015209960937,-1.6065093139648436,1.6112977172851561,0,0,0,0
0.21735400600300636,9.782707983398437,-1.6065093139648436,1.6424223388671875,0,0,0,0
0.21853236100287177,9.794678991699218,-1.5658078857421873,1.707065783691406,0,0,0,0
0.21968793899577577,9.674968908691406,-1.5921441040039062,1.687912170410156,0,0,0,0
0.22078090699505992,9.543287817382812,-1.5729904907226562,1.7381904052734374,0,0,0,0
0.22186122699349653,9.572018237304688,-1.6065093139648436,1.7549498168945312,0,0,0,0
0.22294371300085913,9.512163195800781,-1.6160861206054686,1.7381904052734374,0,0,0,0
0.2241105129942298,9.481038574218749,-1.695094775390625,1.6615759521484375,0,0,0,0
0.225248406000901,9.45470235595703,-1.70467158203125,1.6615759521484375,0,0,0,0
0.22633357800077647,9.459490759277344,-1.714248388671875,1.6831237670898436,0,0,0,0
0.2274112869927194,9.488221179199218,-1.7477672119140624,1.68551796875,0,0,0,0
0.22881745400081854,9.490615380859374,-1.7908628417968748,1.8076222534179687,0,0,0,0
0.23030784299771767,9.497797985839844,-1.7477672119140624,1.599326708984375,0,0,0,0
0.23148040199885145,9.447519750976562,-1.7310078002929687,1.6208745239257811,0,0,0,0
0.23297477199230343,9.545682019042967,-1.7357962036132812,1.6041151123046875,0,0,0,0
0.23412094300147146,9.610325463867188,-1.7621324218749999,1.5466542724609373,0,0,0,0
0.2353109649993712,9.617508068847656,-1.697488977050781,1.6927005737304686,0,0,0,0
0.2365027649939293,9.619902270507811,-1.62805712890625,1.6998831787109374,0,0,0,0
0.23793069100065622,9.634267480468749,-1.5969325073242187,1.675941162109375,0,0,0,0
0.23913980599900242,9.70369932861328,-1.6112977172851561,1.7932570434570312,0,0,0,0
0.24028875399380922,9.732429748535155,-1.6041151123046875,1.6903063720703124,0,0,0,0
0.24175812500470784,9.72285294189453,-1.5921441040039062,1.608903515625,0,0,0,0
0.2431448110000929,9.715670336914062,-1.6136919189453125,1.6831237670898436,0,0,0,0
0.24431411099794786,9.789890588378906,-1.7884686401367187,1.66636435546875,0,0,0,0
0.24547870700189378,9.80665,-1.5873557006835937,1.68551796875,0,0,0,0
0.24667747000057716,9.835380419921874,-1.5873557006835937,1.62805712890625,0,0,0,0
0.24816819200350437,9.909600671386718,-1.608903515625,1.6543933471679686,0,0,0,0
0.24954678599897306,10.041281762695311,-1.5298948608398437,1.5682020874023437,0,0,0,0
0.25136826299421955,10.098742602539062,-1.5179238525390624,1.5322890624999999,0,0,0,0
0.252530340992962,10.158597644042969,-1.5873557006835937,1.5610194824218748,0,0,0,0
0.2536284939997131,10.228029492187499,-1.5753846923828123,1.6041151123046875,0,0,0,0
0.25525954700424336,10.333374365234375,-1.5442600708007812,1.4221557861328125,0,0,0,0
0.2563778479961911,10.421959826660157,-1.5370774658203123,1.4772224243164063,0,0,0,0
0.25746107500162907,10.429142431640624,-1.484405029296875,1.3742717529296875,0,0,0,0
0.25854443199932575,10.539275708007812,-1.5131354492187499,1.4030021728515625,0,0,0,0
0.2604141119954875,10.539275708007812,-1.4963760375976562,1.4053963745117186,0,0,0,0
0.2615960969997104,10.651803186035156,-1.4867992309570313,1.4221557861328125,0,0,0,0
0.2626782689912943,10.670956799316405,-1.419761584472656,1.3096283081054687,0,0,0,0
0.26468055800069124,10.716446630859375,-1.4796166259765624,1.3168109130859373,0,0,0,0
0.2662280389922671,10.63025537109375,-1.4867992309570313,1.2713210815429687,0,0,0,0
0.26734374699299224,10.615890161132812,-1.3934253662109375,1.2042834350585936,0,0,0,0
0.26846684400516097,10.66856259765625,-1.5275006591796874,1.2234370483398436,0,0,0,0
0.2695562379958574,10.675745202636719,-1.5203180541992187,1.2138602416992186,0,0,0,0
0.27119855099590495,10.702081420898438,-1.4700398193359374,1.189918225097656,0,0,0,0
0.272380627997336,10.675745202636719,-1.3551181396484375,1.189918225097656,0,0,0,0
0.2737414809962502,10.577582934570312,-1.3335703247070312,1.2521674682617188,0,0,0,0
0.2752470919949701,10.500968481445312,-1.39821376953125,1.1516109985351561,0,0,0,0
0.2764956689934479,10.46984385986328,-1.3623007446289062,1.1827356201171875,0,0,0,0
0.27800844599551056,10.235212097167969,-1.3407529296874998,1.1061211669921875,0,0,0,0
0.27913415399962105,10.40041201171875,-1.426944189453125,1.2569558715820313,0,0,0,0
0.2809943159954855,10.168174450683592,-1.426944189453125,1.24498486328125,0,0,0,0
0.282205782001256,10.141838232421874,-1.47482822265625,1.2976572998046874,0,0,0,0
0.28329832399322186,10.110713610839843,-1.6160861206054686,1.3144167114257812,0,0,0,0
0.28438914399885107,10.043675964355469,-1.7381904052734374,1.2904746948242187,0,0,0,0
0.2854701489995932,9.964667309570311,-1.8195932617187498,1.4125789794921875,0,0,0,0
0.2865534500015201,10.134655627441406,-1.7357962036132812,1.4317325927734375,0,0,0,0
0.2885712580027757,10.165780249023436,-1.8100164550781248,1.4532804077148436,0,0,0,0
0.2898144460050389,10.129867224121092,-1.7525556152343749,1.3814543579101561,0,0,0,0
0.2909508390002884,10.156203442382813,-1.7693150268554687,1.369483349609375,0,0,0,0
0.2920525100053055,10.189722265624999,-1.675941162109375,1.4532804077148436,0,0,0,0
0.29372485999192577,10.218452685546874,-1.656787548828125,1.5107412475585937,0,0,0,0
0.2950816759985173,10.237606298828124,-1.599326708984375,1.5418658691406248,0,0,0,0
0.29713955700572114,10.330980163574218,-1.5729904907226562,1.419761584472656,0,0,0,0
0.2983589499926893,10.31661495361328,-1.6424223388671875,1.39821376953125,0,0,0,0
0.2994871020055143,10.369287390136718,-1.599326708984375,1.3958195678710936,0,0,0,0
0.3006039579922799,10.359710583496094,-1.5801730957031248,1.4101847778320311,0,0,0,0
0.3016921300004469,10.472238061523436,-1.6400281372070311,1.3910311645507811,0,0,0,0
0.30281874499632977,10.493785876464843,-1.6256629272460936,1.3958195678710936,0,0,0,0
0.3040203040000051,10.54645831298828,-1.6519991455078125,1.3072341064453123,0,0,0,0
0.30528882499493193,10.572794531249999,-1.675941162109375,1.3862427612304686,0,0,0,0
0.30649319899384864,10.647014782714843,-1.6400281372070311,1.350329736328125,0,0,0,0
0.30770429500262253,10.69968721923828,-1.6352397338867186,1.35990654296875,0,0,0,0
0.3088626690005185,10.704475622558594,-1.637633935546875,1.3287819213867187,0,0,0,0
0.3100720609945711,10.716446630859375,-1.66636435546875,1.3527239379882812,0,0,0,0
0.31133578599838074,10.761936462402343,-1.6448165405273436,1.3168109130859373,0,0,0,0
0.3125208449928323,10.817003100585938,-1.608903515625,1.2928688964843749,0,0,0,0
0.3136249060044065,10.896011755371093,-1.5897499023437498,1.3024457031249999,0,0,0,0
0.31471800299186725,10.989385620117186,-1.608903515625,1.1851298217773436,0,0,0,0
0.31589780299691483,11.015721838378905,-1.6256629272460936,1.24498486328125,0,0,0,0
0.317032973995083,11.037269653320312,-1.5562310791015623,1.0103531005859374,0,0,0,0
0.3182886799913831,11.077971081542968,-1.5705962890624998,0.9193734375,0,0,0,0
0.3194563690049108,11.123460913085937,-1.5131354492187499,0.9648632690429687,0,0,0,0
0.3205766329920152,11.156979736328124,-1.5586252807617187,0.9457096557617187,0,0,0,0
0.32168591499794275,11.238382592773437,-1.5179238525390624,0.9074024291992187,0,0,0,0
0.3227706049947301,11.247959399414063,-1.448492004394531,0.8212111694335937,0,0,0,0
0.32385431400325615,11.310208642578125,-1.5011644409179687,0.7829039428710937,0,0,0,0
0.3250945019972278,11.444283935546874,-1.484405029296875,0.6847416748046875,0,0,0,0
0.3262669690011535,11.535263598632811,-1.5490484741210937,0.6488286499023437,0,0,0,0
0.3274658430018462,11.520898388671874,-1.467645617675781,0.6153098266601562,0,0,0,0
0.3285882359923562,11.698069311523437,-1.448492004394531,0.5195417602539062,0,0,0,0
0.3298200909921434,11.724405529785155,-1.467645617675781,0.565031591796875,0,0,0,0
0.3310164279973833,11.827356201171874,-1.4820108276367188,0.4572925170898437,0,0,0,0
0.3321056730055716,11.877634436035155,-1.5131354492187499,0.39983167724609375,0,0,0,0
0.33319943699461874,11.884817041015625,-1.5346832641601562,0.33758243408203126,0,0,0,0
0.33428529399679974,11.9518546875,-1.5442600708007812,0.34237083740234375,0,0,0,0
0.3354973529931158,12.152967626953124,-1.4820108276367188,0.3447650390625,0,0,0,0
0.3366870600002585,12.217611071777343,-1.4413093994140624,0.2825157958984375,0,0,0,0
0.33778367600461934,12.27746611328125,-1.4006079711914061,0.25139117431640623,0,0,0,0
0.3388687919941731,12.322955944824217,-1.3766659545898436,0.23223756103515625,0,0,0,0
0.33995637099724263,12.404358801269531,-1.4149731811523436,0.0909796630859375,0,0,0,0
0.3412602619937388,12.387599389648436,-1.3623007446289062,0.1292868896484375,0,0,0,0
0.3424786719988333,12.488155859374999,-1.3646949462890625,0.1197100830078125,0,0,0,0
0.3436050279997289,12.579135522460938,-1.3431471313476562,0.14604630126953125,0,0,0,0
0.34469771799922455,12.59589493408203,-1.3479355346679687,0.143652099609375,0,0,0,0
0.345785593992332,12.638990563964843,-1.458068811035156,0.14125789794921875,0,0,0,0
0.34727009299967904,12.751518041992187,-1.5897499023437498,0.10295067138671875,0,0,0,0
0.348585058003664,12.868833923339842,-1.6639701538085936,-0.00239420166015625,0,0,0,0
0.34989109699381515,12.957419384765624,-1.678335363769531,0.0718260498046875,0,0,0,0
0.3510593789978884,13.000515014648437,-1.7405846069335937,0.0526724365234375,0,0,0,0
0.3523285669944016,13.060370056152342,-1.7741034301757812,0.09576806640624999,0,0,0,0
0.3535726069967495,13.187262744140623,-1.7812860351562498,0.11252747802734374,0,0,0,0
0.3547221110056853,13.239935180664062,-1.7956512451171873,0.16280571289062498,0,0,0,0
0.3558495969919022,13.309367028808593,-1.7908628417968748,0.27293898925781246,0,0,0,0
0.3569465089967707,13.263877197265625,-1.8363526733398436,0.12689268798828124,0,0,0,0
0.3580374019948067,13.309367028808593,-1.8315642700195311,0.181959326171875,0,0,0,0
0.3593176639988087,13.4458365234375,-1.7741034301757812,0.22266075439453123,0,0,0,0
0.3605499449913623,13.395558288574218,-1.8004396484374998,0.2825157958984375,0,0,0,0
0.36164422699948773,13.462595935058593,-1.7645266235351562,0.33039982910156246,0,0,0,0
0.3628201569954399,13.565546606445311,-1.7764976318359373,0.40940848388671874,0,0,0,0
0.3639482720027445,13.596671228027343,-1.838746875,0.18914193115234373,0,0,0,0
0.36557551099394914,13.80975517578125,-1.9704279663085937,0.16759411621093748,0,0,0,0
0.3668665690056514,13.850456604003906,-2.023100402832031,0.30406361083984373,0,0,0,0
0.3680922200001078,13.898340637207031,-2.023100402832031,0.11013327636718749,0,0,0,0
0.3692851499945391,13.951013073730469,-2.0925322509765625,0.08858546142578125,0,0,0,0
0.3704176540049957,14.190433239746094,-2.094926452636719,0.10295067138671875,0,0,0,0
0.3719283760001417,14.281412902832031,-2.0159177978515626,0.09816226806640624,0,0,0,0
0.37319011900399346,14.369998364257812,-1.946485949707031,0.181959326171875,0,0,0,0
0.37428151299536694,14.279018701171875,-1.9105729248046874,0.15083470458984374,0,0,0,0
0.3753682209935505,14.49928525390625,-1.9656395629882812,0.08379705810546874,0,0,0,0
0.3767970549961319,14.585476513671875,-1.9823989746093749,0.0,0,0,0,0
0.378095113002928,14.647725756835937,-2.118868469238281,0.17956512451171874,0,0,0,0
0.37942016999295447,14.707580798339842,-2.1547814941406247,0.2154781494140625,0,0,0,0
0.3805941000027815,14.707580798339842,-2.2457611572265623,0.23223756103515625,0,0,0,0
0.3817677329934668,14.803348864746093,-2.3343466186523436,0.28730419921875,0,0,0,0
0.3829322189994855,14.85602130126953,-2.4684219116210935,0.38307226562499996,0,0,0,0
0.38405724200129043,14.81771407470703,-2.5474305664062498,0.3687070556640625,0,0,0,0
0.38516080200497527,14.870386511230468,-2.3487118286132813,0.4477157104492187,0,0,0,0
0.38636343499820214,14.784195251464842,-2.4157494750976563,0.5219359619140624,0,0,0,0
0.3875588270020671,14.812925671386719,-2.4564509033203126,0.6703764648437499,0,0,0,0
0.38867992399900686,14.820108276367186,-2.4492682983398435,0.7565677246093749,0,0,0,0
0.38976148499932606,14.834473486328124,-2.4779987182617185,0.7493851196289062,0,0,0,0
0.3908410080039175,14.822502478027342,-2.418143676757812,0.6823474731445313,0,0,0,0
0.3919243650016142,14.767435839843749,-2.4899697265625,0.9983820922851562,0,0,0,0
0.3931251460016938,14.736311218261719,-2.5139117431640625,0.9241618408203125,0,0,0,0
0.3951495840010466,14.719551806640624,-2.1356278808593747,1.1851298217773436,0,0,0,0
0.39640597499965224,14.405911389160156,-2.2098481323242187,1.5107412475585937,0,0,0,0
0.39767677399504464,14.314931726074217,-2.2840683837890623,1.4987702392578124,0,0,0,0
0.39887350000208244,14.195221643066406,-2.3032219970703123,1.3263877197265623,0,0,0,0
0.4001668349956162,14.180856433105468,-2.521094348144531,1.4867992309570313,0,0,0,0
0.40126185899134725,14.33887374267578,-2.4875755249023435,1.707065783691406,0,0,0,0
0.4023448450025171,14.640543151855468,-2.5570073730468748,1.697488977050781,0,0,0,0
0.4034267569950316,14.745888024902342,-2.5354595581054684,1.5298948608398437,0,0,0,0
0.4046055939979851,14.879963317871093,-2.540247961425781,1.5011644409179687,0,0,0,0
0.40585718999500386,14.947000964355468,-2.5330653564453125,1.4604630126953124,0,0,0,0
0.4069450829993002,15.026009619140623,-2.5713725830078125,1.3048399047851562,0,0,0,0
0.40812169799755793,14.951789367675781,-2.583343591308594,1.2737152832031249,0,0,0,0
0.4093071829993278,15.198392138671874,-2.5905261962890624,1.3455413330078123,0,0,0,0
0.4111907710030209,15.298948608398437,-2.4492682983398435,1.2856862915039062,0,0,0,0
0.41237782999814954,15.337255834960937,-2.389413256835937,1.2497732666015624,0,0,0,0
0.4135133899981156,15.356409448242186,-2.4253262817382812,1.2785036865234374,0,0,0,0
0.41461019100097474,15.358803649902343,-2.4133552734375,1.0893617553710937,0,0,0,0
0.41606381999736186,15.325284826660155,-2.3535002319335936,1.0893617553710937,0,0,0,0
0.417293823993532,15.406687683105467,-2.24097275390625,1.1923124267578125,0,0,0,0
0.4183898839983158,15.399505078125,-2.1906945190429687,1.1444283935546875,0,0,0,0
0.41947711100510787,15.356409448242186,-2.1811177124023438,1.1372457885742187,0,0,0,0
0.4209080190048553,15.241487768554686,-2.1787235107421874,1.2856862915039062,0,0,0,0
0.4221295400056988,15.097835668945311,-2.147598889160156,1.3383587280273437,0,0,0,0
0.4232222120044753,14.982913989257812,-2.1811177124023438,1.3168109130859373,0,0,0,0
0.4243139939935645,14.547169287109375,-2.195482922363281,1.3718775512695311,0,0,0,0
0.4256750140048098,14.441824414062499,-2.2002713256835937,1.2856862915039062,0,0,0,0
0.42710970000189263,14.446612817382812,-2.1811177124023438,1.3766659545898436,0,0,0,0
0.4282412229949841,14.286201306152343,-2.157175695800781,1.3934253662109375,0,0,0,0
0.42933061700023245,14.281412902832031,-2.157175695800781,1.37906015625,0,0,0,0
0.43064389600476716,14.221557861328124,-2.1930887207031247,1.4891934326171874,0,0,0,0
0.4320868600043468,14.061146350097655,-2.128445275878906,1.5322890624999999,0,0,0,0
0.4334691389958607,13.788207360839843,-2.1212626708984375,1.6160861206054686,0,0,0,0
0.4345612360048108,13.642161059570311,-2.138022082519531,1.7094599853515624,0,0,0,0
0.43586466400302015,13.563152404785155,-2.0829554443359375,1.6160861206054686,0,0,0,0
0.4373114049958531,13.304578625488281,-2.020706201171875,1.649604943847656,0,0,0,0
0.4387406650057528,13.314155432128905,-1.9512743530273435,1.5370774658203123,0,0,0,0
0.4398325579968514,13.24711778564453,-1.8770541015625,1.7022773803710936,0,0,0,0
0.4409279709943803,13.141772912597656,-2.1164742675781247,1.6232687255859375,0,0,0,0
0.4428133729961701,13.103465686035156,-2.2290017456054687,1.6472107421875,0,0,0,0
0.44407433799642604,13.057975854492186,-2.157175695800781,1.5155296508789062,0,0,0,0
0.44525167599203996,12.84489190673828,-2.109291662597656,1.3263877197265623,0,0,0,0
0.4463514020026196,12.667720983886719,-2.0877438476562498,1.3934253662109375,0,0,0,0
0.4475131840008544,12.473790649414061,-2.0374656127929685,1.426944189453125,0,0,0,0
0.4486697620013729,12.375628381347655,-1.9488801513671874,1.4724340209960938,0,0,0,0
0.4500875779922353,12.23915888671875,-1.675941162109375,1.4891934326171874,0,0,0,0
0.45128374799969606,12.033257543945313,-1.599326708984375,1.5011644409179687,0,0,0,0
0.45246708499325905,11.8369330078125,-1.5418658691406248,1.4772224243164063,0,0,0,0
0.4535838669980876,11.654973681640625,-1.5155296508789062,1.5442600708007812,0,0,0,0
0.45466857599967625,11.441889733886718,-1.5969325073242187,1.649604943847656,0,0,0,0
0.45575106199248694,11.197681164550781,-1.7022773803710936,1.6472107421875,0,0,0,0
0.45683427099720575,11.015721838378905,-1.7262193969726563,1.6400281372070311,0,0,0,0
0.45792108999739867,10.77630167236328,-1.8148048583984373,1.7956512451171873,0,0,0,0
0.45909687200037297,10.462661254882812,-1.7741034301757812,1.8770541015625,0,0,0,0
0.460259800995118,10.115502014160155,-1.668758557128906,1.915361328125,0,0,0,0
0.4613363440003013,9.897629663085937,-1.6400281372070311,2.114080065917969,0,0,0,0
0.462403126002755,9.60793126220703,-1.6903063720703124,1.9943699829101562,0,0,0,0
0.4634705019998364,9.4618849609375,-1.8004396484374998,1.8770541015625,0,0,0,0
0.4646282280009473,9.3086560546875,-1.8291700683593748,1.8339584716796873,0,0,0,0
0.4657766019954579,9.14824454345703,-1.7836802368164062,1.915361328125,0,0,0,0
0.46686564400442876,8.975862023925782,-1.7693150268554687,1.7118541870117185,0,0,0,0
0.46794711200345773,8.889670764160156,-1.9129671264648436,1.6232687255859375,0,0,0,0
0.469035857997369,8.765172277832031,-1.9536685546875,1.6711527587890624,0,0,0,0
0.470201175994589,8.556876733398436,-1.9321207397460936,1.6543933471679686,0,0,0,0
0.4716543249960523,8.497021691894531,-1.9919757812499999,1.62805712890625,0,0,0,0
0.47278912499314174,8.398859423828124,-2.0566192260742184,1.5107412475585937,0,0,0,0
0.47391946299467236,8.317456567382813,-2.0829554443359375,1.6352397338867186,0,0,0,0
0.47526926100545097,8.221688500976562,-2.013523596191406,1.6831237670898436,0,0,0,0
0.4768776849959977,7.994239343261718,-1.8842367065429686,1.6208745239257811,0,0,0,0
0.47846951699466445,7.876923461914062,-1.8555062866210936,1.7357962036132812,0,0,0,0
0.4798638700012816,7.809885815429687,-1.7812860351562498,1.70467158203125,0,0,0,0
0.48104378099378664,7.692569934082031,-1.7477672119140624,1.7908628417968748,0,0,0,0
0.48231135700189043,7.46272657470703,-1.7621324218749999,1.707065783691406,0,0,0,0
0.4838561340002343,7.369352709960937,-1.70467158203125,1.7094599853515624,0,0,0,0
0.48554772400530055,7.189787585449218,-1.7334020019531249,1.697488977050781,0,0,0,0
0.48763067899562884,7.022193469238281,-1.8195932617187498,1.656787548828125,0,0,0,0
0.49003498199454043,6.909665991210937,-1.4724340209960938,1.6998831787109374,0,0,0,0
0.4913174480025191,6.940790612792968,-1.4724340209960938,1.668758557128906,0,0,0,0
0.4926141350006219,6.976703637695312,-1.3551181396484375,1.7717092285156248,0,0,0,0
0.49431124300463125,6.959944226074218,-1.16837041015625,1.7525556152343749,0,0,0,0
0.4964068099943688,6.983886242675781,-0.9935936889648437,1.7884686401367187,0,0,0,0
0.4977540149993729,7.024587670898437,-1.0726023437499999,1.7956512451171873,0,0,0,0
0.49894175899680704,7.062894897460937,-0.6967126831054687,1.7693150268554687,0,0,0,0
0.5002652239927556,7.067683300781249,-0.5099649536132812,1.8818425048828125,0,0,0,0
0.5018610370025272,7.1395093505859375,-0.39264907226562495,1.7597382202148437,0,0,0,0
0.5032232420053333,7.161057165527343,-0.3399766357421875,1.8243816650390623,0,0,0,0
0.5045406519930111,7.149086157226562,-0.24660277099609373,1.9680337646484374,0,0,0,0
0.5058311540051363,7.168239770507812,-0.08858546142578125,1.944091748046875,0,0,0,0
0.5074843930051429,7.170633972167968,0.0143652099609375,1.936909143066406,0,0,0,0
0.5087505429983139,7.204152795410156,0.009576806640625,1.9704279663085937,0,0,0,0
0.5100707669917028,7.235277416992187,0.2609679809570312,2.0757728393554684,0,0,0,0
0.5113691949954955,7.204152795410156,0.3232172241210937,2.166752502441406,0,0,0,0
0.5129207129939459,7.254431030273437,0.430956298828125,2.1356278808593747,0,0,0,0
0.514094012993155,7.173028173828125,0.5339069702148437,2.1547814941406247,0,0,0,0
0.5154406259971438,7.096413720703125,0.5961562133789062,2.2361843505859373,0,0,0,0
0.5168069229985122,7.096413720703125,0.6631938598632812,2.398990063476562,0,0,0,0
0.5182906819973141,7.055712292480468,0.9050082275390624,2.31758720703125,0,0,0,0
0.519550110999262,6.964732629394531,0.8834604125976562,2.5665841796874997,0,0,0,0
0.5207290779944742,6.792350109863281,1.0127473022460938,2.6431986328124997,0,0,0,0
0.5244909009925323,6.155492468261718,1.0342951171875,2.844311572265625,0,0,0,0
0.5257128849916626,5.877765075683594,1.0821791503906248,3.1387983764648437,0,0,0,0
0.5271278860018356,5.413289953613281,1.0773907470703123,3.210624426269531,0,0,0,0
0.5285017949936446,5.183446594238281,1.0726023437499999,3.347093920898437,0,0,0,0
0.5299701839976478,5.011064074707031,1.01514150390625,3.4644098022460934,0,0,0,0
0.5310555769974599,4.479551306152343,1.0558429321289062,3.5146880371093747,0,0,0,0
0.5321222679922357,4.309562988281249,1.0606313354492187,3.6248213134765623,0,0,0,0
0.5331989760015858,4.005499377441406,0.9313444458007812,3.699041564941406,0,0,0,0
0.5347576049971394,3.725377783203125,0.7805097412109374,3.9240965209960934,0,0,0,0
0.5360068479931215,3.19865341796875,0.7254431030273437,3.986345764160156,0,0,0,0
0.5371431490057148,2.932897033691406,0.7398083129882812,4.062960217285156,0,0,0,0
0.5382206719950773,2.6384102294921874,0.7062894897460937,4.201823913574218,0,0,0,0
0.5394309910043376,2.360682836914062,0.699106884765625,4.314351391601562,0,0,0,0
0.5406462160026422,2.152387292480469,0.6631938598632812,4.371812231445312,0,0,0,0
0.5417419239965966,1.9393033447265624,0.7493851196289062,4.367023828124999,0,0,0,0
0.5428255779988831,1.6735469604492186,0.565031591796875,4.4196962646484375,0,0,0,0
0.5439097490016138,1.4532804077148436,0.5339069702148437,4.469974499511719,0,0,0,0
0.5453362679982092,1.0749965454101562,0.5003881469726562,4.747701892089843,0,0,0,0
0.5469133220030926,0.9097966308593749,0.5339069702148437,4.814739538574218,0,0,0,0
0.548099399995408,0.3016694091796875,0.5410895751953124,4.857835168457031,0,0,0,0
0.5493474029935896,0.0526724365234375,0.5458779785156249,4.7764323120117185,0,0,0,0
0.5505844979925314,-0.22026655273437498,0.49320554199218747,5.1523219726562495,0,0,0,0
0.5519101480022073,-0.603338818359375,0.4908113403320312,5.322310290527343,0,0,0,0
0.5530328570021084,-1.0342951171875,0.4261678955078125,5.439626171875,0,0,0,0
0.5541577679978218,-1.2952630981445312,0.28969840087890625,5.473144995117187,0,0,0,0
0.5553758829919389,-1.5634136840820312,0.1867477294921875,5.516240625,0,0,0,0
0.5567484950006474,-1.8315642700195311,0.11252747802734374,5.882553479003906,0,0,0,0
0.5580041270004585,-2.454056701660156,-0.0047884033203125,6.030993981933594,0,0,0,0
0.5595571449957788,-3.8379052612304685,0.1388636962890625,5.932831713867187,0,0,0,0
0.5608816650055815,-4.589684582519531,-0.9050082275390624,6.5577183471679685,0,0,0,0
0.5620074100006605,-4.352658618164062,-0.35194764404296874,7.055712292480468,0,0,0,0
0.563205080004991,-4.074931225585937,-0.3280056274414062,6.768408093261718,0,0,0,0
0.5645762109925272,-3.19865341796875,0.3950432739257812,6.6343328002929685,0,0,0,0
0.5657129189930856,-4.513070129394531,-0.38786066894531246,6.813897924804687,0,0,0,0
0.5669202559947735,-4.874594580078124,-0.5339069702148437,7.012616662597656,0,0,0,0
0.5680906670022523,-5.331887097167969,-0.689530078125,7.182604980468749,0,0,0,0
0.5691919490054715,-5.68862314453125,-0.7709329345703124,7.261613635253906,0,0,0,0
0.5702769170020474,-5.942408520507812,-0.8403647827148437,7.376535314941406,0,0,0,0
0.5713621439936105,-6.167463476562499,-0.8212111694335937,7.376535314941406,0,0,0,0
0.5725369260035222,-6.445190869140625,-0.8068459594726562,7.587225061035156,0,0,0,0
0.57382674299879,-6.68461103515625,-0.8738836059570312,7.6997525390625,0,0,0,0
0.5749680250009988,-7.098807922363281,-0.9433154541015625,7.687781530761718,0,0,0,0
0.5761069370055338,-5.200206005859375,-1.0103531005859374,5.317521887207031,0,0,0,0
0.577279995995923,-1.197100830078125,-3.3351229125976563,11.499350573730467,0,0,0,0
0.5787530700035859,-4.034229797363281,7.687781530761718,11.803414184570311,0,0,0,0
0.579850352005451,-6.289567761230469,-0.6919242797851562,5.236119030761718,0,0,0,0
0.5812107060046401,-4.817133740234374,-3.9312791259765625,6.5768719604492185,0,0,0,0
0.582446615997469,-8.59997236328125,-4.955997436523437,6.691793640136718,0,0,0,0
0.5836245270038489,-9.22485899658203,-3.88818349609375,8.32463917236328,0,0,0,0
0.5848999190056929,-9.042899670410156,-3.258508459472656,9.344569079589844,0,0,0,0
0.585992570995586,-10.69968721923828,-1.687912170410156,9.030928662109375,0,0,0,0
0.5870824650046416,-9.72285294189453,-1.9201497314453124,9.229647399902344,0,0,0,0
0.5881676739954855,-9.639055883789062,-1.0366893188476562,9.950302099609374,0,0,0,0
0.5893345289950958,-9.430760339355468,-0.4572925170898437,9.390058911132812,0,0,0,0
0.5906166609929642,-9.248801013183593,-0.51714755859375,9.085995300292968,0,0,0,0
0.5917078329948708,-9.085995300292968,-0.38786066894531246,9.052476477050782,0,0,0,0
0.5927970969933085,-8.468291271972657,-0.411802685546875,8.913612780761719,0,0,0,0
0.5938805460027652,-7.326257080078125,-0.59376201171875,8.66940421142578,0,0,0,0
0.5950686979922466,-6.706158850097656,-0.737414111328125,8.21690009765625,0,0,0,0
0.5973847059940454,-5.05655390625,-0.55545478515625,7.338228088378906,0,0,0,0
0.5997540279931854,-3.854664672851562,-0.5219359619140624,6.797138513183594,0,0,0,0
0.6012350649980363,-2.942473840332031,-0.28969840087890625,6.533776330566406,0,0,0,0
0.6026325290004024,-2.085349645996094,0.7422025146484375,7.302315063476562,0,0,0,0
0.6040792139974656,-2.3032219970703123,1.0199299072265624,6.56968935546875,0,0,0,0
0.60564852799871,-2.094926452636719,0.23223756103515625,5.758054992675781,0,0,0,0
0.6070427139929961,-1.43652099609375,0.06464344482421874,5.942408520507812,0,0,0,0
0.6085075099981623,-1.455674609375,0.15562310791015624,5.76523759765625,0,0,0,0
0.6098752340039937,-1.4221557861328125,0.5434837768554687,5.604826086425781,0,0,0,0
0.6114347139955498,-1.3359645263671873,0.9217676391601562,5.257666845703125,0,0,0,0
0.6131809889920987,-1.0438719238281249,1.2138602416992186,5.125985754394531,0,0,0,0
0.6145663229981437,-0.9696516723632812,1.675941162109375,4.903325,0,0,0,0
0.6163915780052776,-0.24660277099609373,1.7453730102539062,3.859453076171875,0,0,0,0
0.6176445439923555,0.38786066894531246,2.1547814941406247,4.328716601562499,0,0,0,0
0.618817251001019,0.08140285644531249,2.5258827514648434,4.029441394042968,0,0,0,0
0.6200485129957087,0.34237083740234375,2.7269956909179687,3.900154504394531,0,0,0,0
0.6213123310008086,0.6919242797851562,2.760514514160156,2.932897033691406,0,0,0,0
0.6225483890011674,1.649604943847656,2.1787235107421874,3.066972326660156,0,0,0,0
0.6237016709928866,1.8411410766601561,3.0933085449218747,2.6503812377929687,0,0,0,0
0.624791064998135,2.3391350219726563,3.1220389648437497,2.1021090576171875,0,0,0,0
0.6259996419976233,3.5146880371093747,2.8131869506835936,1.3838485595703125,0,0,0,0
0.6271902010048507,4.108450048828125,2.932897033691406,1.2713210815429687,0,0,0,0
0.6283010759943863,4.685452648925781,3.287238879394531,0.7733271362304687,0,0,0,0
0.6294784320052713,5.269637854003906,2.959233251953125,-0.2920926025390625,0,0,0,0
0.6308039339928655,5.485116003417969,1.9321207397460936,-0.40222587890625,0,0,0,0
0.6322798589972081,5.628768103027343,2.5330653564453125,-0.3136404174804687,0,0,0,0
0.6334516219940269,5.147533569335937,2.9735984619140625,0.7565677246093749,0,0,0,0
0.634540350001771,0.19632453613281248,0.8762778076171874,0.086191259765625,0,0,0,0
0.6356680390017573,7.067683300781249,5.346252307128906,-1.1228805786132812,0,0,0,0
0.636978744994849,6.9719152343749995,4.647145422363281,-1.199495031738281,0,0,0,0
0.6382567289983854,6.6702458251953125,3.88818349609375,-2.789244934082031,0,0,0,0
0.6395063240051968,9.545682019042967,5.0206408813476555,-2.901772412109375,0,0,0,0
0.64061301399488,9.86411083984375,3.840299462890625,-3.4548329956054684,0,0,0,0
0.641705093003111,10.687716210937499,3.0789433349609374,-0.316034619140625,0,0,0,0
0.6429880399955437,3.9624037475585934,5.849034655761718,1.1085153686523437,0,0,0,0
0.6443373740039533,9.437942944335937,4.747701892089843,-5.741295581054687,0,0,0,0
0.6455618960026186,11.123460913085937,-3.7804444213867185,-10.141838232421874,0,0,0,0
0.646656882003299,11.188104357910156,3.8283284545898435,1.5346832641601562,0,0,0,0
0.6478721449966542,9.861716638183593,5.7508723876953125,-4.651933825683593,0,0,0,0
0.649099906993797,11.590330236816406,5.137956762695312,-5.2433016357421875,0,0,0,0
0.6501919669972267,12.9861498046875,5.5449710449218745,-5.118803149414062,0,0,0,0
0.6512757869932102,14.250288281249999,6.141127258300781,-6.2392895263671875,0,0,0,0
0.6525136599957477,15.227122558593749,5.896918688964844,-6.873752966308594,0,0,0,0
0.6537631079991115,16.256629272460938,5.0948611328124995,-7.043741284179687,0,0,0,0
0.6548536500049522,16.508020446777344,4.398148449707031,-7.256825231933593,0,0,0,0
0.6559424139995826,16.615759521484375,3.794809631347656,-7.649474304199218,0,0,0,0
0.6570353629940655,16.63730733642578,3.418919970703125,-7.714117749023437,0,0,0,0
0.6582659400010016,16.49126103515625,3.622427111816406,-7.501033801269531,0,0,0,0
0.6594446289964253,16.563087084960937,3.7014357666015623,-7.592013464355468,0,0,0,0
0.6605667440016987,16.723498596191405,3.864241479492187,-7.694964135742187,0,0,0,0
0.6616466569976183,16.8934869140625,4.058171813964844,-7.592013464355468,0,0,0,0
0.6627510319958674,17.063475231933595,4.110844250488281,-7.620743884277343,0,0,0,0
0.6640696630056482,17.207127331542967,4.228160131835938,-7.800309008789062,0,0,0,0
0.6652900180051802,17.26219396972656,4.029441394042968,-7.692569934082031,0,0,0,0
0.6664409850054653,17.381904052734374,3.902548706054687,-7.898471276855468,0,0,0,0
0.6675309900019784,17.549498168945313,3.871424084472656,-8.183381274414062,0,0,0,0
0.6686245500022778,17.827225561523438,3.797203833007812,-8.13310303955078,0,0,0,0
0.669856163993245,18.40422816162109,3.9504327392578125,-7.860164050292968,0,0,0,0
0.6711479069927009,18.32761370849609,4.149151477050781,-8.039729174804688,0,0,0,0
0.6723071519954829,18.478448413085935,4.07971962890625,-7.455543969726562,0,0,0,0
0.6734829710039776,19.098546643066406,4.209006518554688,-8.034940771484374,0,0,0,0
0.6750148029968841,19.61270144958496,3.7900212280273435,-8.650250598144531,0,0,0,0
0.6764168600057019,19.61270144958496,4.060566015625,-8.360552197265624,0,0,0,0
0.6776036969968118,19.61270144958496,3.5122938354492184,-8.341398583984375,0,0,0,0
0.6787642929994036,19.61270144958496,3.0166940917968748,-8.667010009765624,0,0,0,0
0.6801967009960208,19.61270144958496,1.9416975463867185,-7.788338000488281,0,0,0,0
0.6815120550018037,19.61270144958496,2.655169641113281,-8.008604553222655,0,0,0,0
0.6827551500027766,19.61270144958496,2.9496564453125,-7.788338000488281,0,0,0,0
0.683875172995613,19.61270144958496,3.2609026611328122,-7.68059892578125,0,0,0,0
0.6849646039918298,19.61270144958496,3.4668040039062498,-7.436390356445312,0,0,0,0
0.6860449420055375,19.61270144958496,3.6152445068359373,-7.287949853515625,0,0,0,0
0.6871288359980099,19.61270144958496,3.651157531738281,-7.194575988769531,0,0,0,0
0.688370969000971,19.61270144958496,3.6080619018554687,-6.457161877441406,0,0,0,0
0.6895721390028484,19.61270144958496,3.189076611328125,-6.337451794433593,0,0,0,0
0.6906674210040364,19.61270144958496,3.450044592285156,-6.406883642578125,0,0,0,0
0.6917474450019654,19.61270144958496,3.39018955078125,-6.215347509765625,0,0,0,0
0.6928361350001069,19.61270144958496,3.2441432495117186,-5.91846650390625,0,0,0,0
0.6940478420001455,19.61270144958496,3.5601778686523438,-4.970362646484375,0,0,0,0
0.6952523079962702,19.61270144958496,3.6272155151367187,-5.05655390625,0,0,0,0
0.6966516239917837,19.61270144958496,1.189918225097656,-4.582501977539062,0,0,0,0
0.6978600900038145,19.61270144958496,0.699106884765625,-4.398148449707031,0,0,0,0
0.699372681992827,19.61270144958496,0.25139117431640623,-3.718195178222656,0,0,0,0
0.7006313699966995,19.61270144958496,0.14604630126953125,-3.181894006347656,0,0,0,0
0.7017315230041277,19.61270144958496,0.47165772705078124,-2.5641899780273434,0,0,0,0
0.7028210279968334,19.61270144958496,0.9074024291992187,-2.1811177124023438,0,0,0,0
0.7040632159914821,19.61270144958496,0.7302315063476562,-2.1021090576171875,0,0,0,0
0.7052436270023463,19.61270144958496,0.6416460449218749,-1.5322890624999999,0,0,0,0
0.7066955339978449,19.61270144958496,0.5770026000976562,-1.1947066284179686,0,0,0,0
0.7078829639940523,19.61270144958496,0.21308394775390624,-1.0726023437499999,0,0,0,0
0.7091141339915339,19.61270144958496,0.06943184814453125,-0.8403647827148437,0,0,0,0
0.7103686359914718,19.61270144958496,0.14604630126953125,-0.3447650390625,0,0,0,0
0.7114610669959802,19.61270144958496,0.373495458984375,0.10773907470703124,0,0,0,0
0.7125463679985842,19.61270144958496,0.4740519287109375,0.6153098266601562,0,0,0,0
0.713627595003345,19.61270144958496,0.5147533569335937,1.2665326782226562,0,0,0,0
0.7151349280029535,19.61270144958496,0.5243301635742187,2.269703173828125,0,0,0,0
0.7164397449960234,19.61270144958496,0.229843359375,2.808398547363281,0,0,0,0
0.7175656379986322,19.61270144958496,-0.01915361328125,3.1555577880859373,0,0,0,0
0.7186911059980048,19.61270144958496,-0.25139117431640623,3.4668040039062498,0,0,0,0
0.7198988309974084,19.61270144958496,-0.2657563842773437,3.9983167724609374,0,0,0,0
0.7215796249947743,19.61270144958496,-1.3072341064453123,4.276044165039062,0,0,0,0
0.7228110349969938,19.61270144958496,-1.7238251953125,4.3813890380859375,0,0,0,0
0.7239624840003671,19.61270144958496,-2.0757728393554684,4.829104748535156,0,0,0,0
0.7250682110025082,19.61270144958496,-2.454056701660156,5.123591552734375,0,0,0,0
0.7262788429943612,19.61270144958496,-2.73896669921875,5.106832141113281,0,0,0,0
0.7274898100004066,19.61270144958496,-2.93050283203125,5.355829113769531,0,0,0,0
0.728817736991914,19.61270144958496,-2.91134921875,5.363011718749999,0,0,0,0
0.7301886649947846,19.61270144958496,-2.882618798828125,5.248090039062499,0,0,0,0
0.7316739240050083,19.61270144958496,-2.4684219116210935,5.2433016357421875,0,0,0,0
0.7328327239956707,19.61270144958496,-2.1499930908203124,5.216965417480468,0,0,0,0
0.733924507003394,19.61270144958496,-1.8411410766601561,5.2816088623046875,0,0,0,0
0.735003993002465,19.61270144958496,-1.5418658691406248,5.351040710449219,0,0,0,0
0.7360835159925045,19.61270144958496,-1.2928688964843749,5.2816088623046875,0,0,0,0
0.7372722049913136,19.61270144958496,-1.0941501586914062,5.200206005859375,0,0,0,0
0.7388148890022421,19.61270144958496,-0.6655880615234374,5.2624552490234375,0,0,0,0
0.7399376899993513,19.61270144958496,-0.5267243652343749,5.109226342773437,0,0,0,0
0.7411096199939493,19.61270144958496,-0.3687070556640625,4.747701892089843,0,0,0,0
0.7422007730056066,19.61270144958496,-0.22026655273437498,4.6830584472656245,0,0,0,0
0.7433753139921464,19.61270144958496,0.05027823486328125,4.5968671875,0,0,0,0
0.7446299639996141,19.61270144958496,0.24899697265624998,4.472368701171875,0,0,0,0
0.7468407139967894,19.61270144958496,0.6703764648437499,4.302380383300781,0,0,0,0
0.7481653459981317,19.61270144958496,0.8092401611328125,4.206612316894531,0,0,0,0
0.7493583119940013,19.61270144958496,1.0773907470703123,4.058171813964844,0,0,0,0
0.7505451309989439,19.61270144958496,1.1875240234375,3.9145197143554684,0,0,0,0
0.7516416349972133,19.61270144958496,1.2952630981445312,3.782838623046875,0,0,0,0
0.7533768909925129,19.61270144958496,1.3646949462890625,3.744531396484375,0,0,0,0
0.7550193520000903,19.61270144958496,1.39821376953125,3.744531396484375,0,0,0,0
0.7562192079931265,19.61270144958496,1.4987702392578124,3.754108203125,0,0,0,0
0.7573152309923898,19.61270144958496,1.5203180541992187,3.6056677001953124,0,0,0,0
0.759212392003974,19.61270144958496,1.3838485595703125,3.6104561035156246,0,0,0,0
0.7604888950008899,19.61270144958496,1.6615759521484375,3.3303345092773435,0,0,0,0
0.7616877679975005,19.61270144958496,1.5969325073242187,3.399766357421875,0,0,0,0
0.7628117360000033,19.61270144958496,1.7549498168945312,3.3542765258789062,0,0,0,0
0.7642959209915716,19.61270144958496,1.917755529785156,3.201047619628906,0,0,0,0
0.7654475729941623,19.61270144958496,1.9297265380859374,3.1579519897460937,0,0,0,0
0.7666879829921527,19.61270144958496,2.068590234375,3.1579519897460937,0,0,0,0
0.7678708939929493,19.61270144958496,2.109291662597656,3.1771056030273437,0,0,0,0
0.7689679360046284,19.61270144958496,2.152387292480469,3.1028853515624997,0,0,0,0
0.7700515519973123,19.61270144958496,2.195482922363281,3.1292215698242187,0,0,0,0
0.7711344269919209,19.61270144958496,2.29843359375,3.0980969482421874,0,0,0,0
0.7723619119933574,19.61270144958496,2.291250988769531,3.181894006347656,0,0,0,0
0.773541877992102,19.61270144958496,2.4301146850585935,3.2154128295898436,0,0,0,0
0.7748825279995799,19.512743530273436,2.597708801269531,3.239354846191406,0,0,0,0
0.7761532349977642,18.883068493652342,2.655169641113281,3.277662072753906,0,0,0,0
0.7773661270039156,18.351555725097654,2.6001030029296874,3.239354846191406,0,0,0,0
0.778659666000749,16.98207237548828,2.7557261108398436,3.189076611328125,0,0,0,0
0.7803759039961733,16.534356665039063,2.6623522460937497,3.447650390625,0,0,0,0
0.7816708689933876,15.650896252441406,2.8993782104492185,3.402160559082031,0,0,0,0
0.782767447992228,14.992490795898437,2.9544448486328125,2.817975354003906,0,0,0,0
0.78385308200086,14.657302563476561,2.6767174560546874,2.588131994628906,0,0,0,0
0.7854325619991869,14.286201306152343,3.0358477050781247,2.6048914062499997,0,0,0,0
0.7867706559918588,14.010868115234373,3.1842882080078123,3.3327287109375,0,0,0,0
0.7878976049978519,13.32373223876953,3.1579519897460937,3.864241479492187,0,0,0,0
0.7889967579976656,12.605471740722656,2.877830395507812,3.67749375,0,0,0,0
0.790224408992799,11.918335864257811,2.31758720703125,3.2537200561523436,0,0,0,0
0.7913876719976543,11.767501159667969,1.917755529785156,2.6527754394531247,0,0,0,0
0.7924857699981658,12.016498132324218,1.917755529785156,2.2864625854492187,0,0,0,0
0.7935692930041114,12.571952917480468,1.9752163696289062,2.2385785522460937,0,0,0,0
0.794949404997169,12.976572998046874,1.936909143066406,2.39420166015625,0,0,0,0
0.7963186849956401,13.163320727539062,2.3774422485351563,2.0278888061523435,0,0,0,0
0.7976163160055876,12.471396447753905,2.454056701660156,2.4157494750976563,0,0,0,0
0.7995839399955003,11.858480822753906,2.6767174560546874,2.7054478759765623,0,0,0,0
0.8012654929916607,11.566388220214844,2.9376854370117185,2.6336218261718747,0,0,0,0
0.8025138469965896,11.257536206054686,2.9664158569335934,2.3965958618164063,0,0,0,0
0.8037312020023819,10.965443603515624,2.683900061035156,2.2864625854492187,0,0,0,0
0.8049394090048736,10.685322009277343,2.43250888671875,2.157175695800781,0,0,0,0
0.8061216719943332,10.536881506347656,2.2194249389648437,2.4109610717773435,0,0,0,0
0.8073065829958068,10.292672937011718,1.9632453613281249,2.3678654418945313,0,0,0,0
0.8090318579925224,9.794678991699218,1.927332336425781,2.3247698120117186,0,0,0,0
0.8103350269957446,9.548076220703125,2.0254946044921875,2.3391350219726563,0,0,0,0
0.8115125119948061,9.184157568359375,2.104503259277344,2.5330653564453125,0,0,0,0
0.8129971229936928,9.023746057128905,2.3319524169921872,2.5139117431640625,0,0,0,0
0.8142621619917918,8.872911352539061,2.7653029174804686,2.5546131713867184,0,0,0,0
0.8158544939942658,8.585607153320312,2.9185318237304685,2.568978381347656,0,0,0,0
0.8170847379951738,8.59997236328125,3.143586779785156,2.602497204589844,0,0,0,0
0.8182564089947846,8.643067993164061,3.189076611328125,2.463633508300781,0,0,0,0
0.8194243570032995,8.688557824707031,3.1771056030273437,2.3223756103515623,0,0,0,0
0.8213733140000841,8.640673791503906,3.071760729980469,2.085349645996094,0,0,0,0
0.8227413889981108,8.772354882812499,3.0502129150390624,1.9704279663085937,0,0,0,0
0.8239198369992664,8.810662109374999,3.009511486816406,1.9967641845703124,0,0,0,0
0.8250949149951339,8.743624462890624,3.0310593017578125,1.7836802368164062,0,0,0,0
0.8263617320044432,8.595183959960938,3.181894006347656,1.6807295654296874,0,0,0,0
0.8275827540055616,8.425195642089843,3.2704794677734372,1.6256629272460936,0,0,0,0
0.828761423996184,8.291120349121094,3.303998291015625,1.6711527587890624,0,0,0,0
0.829927205995773,8.204929089355469,3.375824340820312,1.5466542724609373,0,0,0,0
0.8310940060036955,8.128314636230469,3.497928625488281,1.47482822265625,0,0,0,0
0.8323762119980529,7.991845141601562,3.4452561889648434,1.448492004394531,0,0,0,0
0.8335852159943897,7.8338278320312495,3.4548329956054684,1.2569558715820313,0,0,0,0
0.8347396640019724,7.589619262695312,3.4620156005859375,1.0223241088867188,0,0,0,0
0.8358076510048704,7.4603323730468745,3.42849677734375,0.8475473876953125,0,0,0,0
0.8369236739963526,7.3549875,3.3255461059570313,1.1156979736328125,0,0,0,0
0.8380849919922184,7.364564306640625,3.385401147460937,1.0342951171875,0,0,0,0
0.8392105889943196,7.331045483398437,3.6080619018554687,0.9935936889648437,0,0,0,0
0.8403195199934999,7.297526660156249,3.749319799804687,0.9097966308593749,0,0,0,0
0.8414014139998471,6.715735656738281,3.727771984863281,1.0558429321289062,0,0,0,0
0.8425451209914172,6.4739212890625,3.727771984863281,1.120486376953125,0,0,0,0
0.8436846260010498,6.361393811035156,3.758896606445312,1.1444283935546875,0,0,0,0
0.8447743709984934,6.217741711425781,3.706224169921875,1.0630255371093749,0,0,0,0
0.8460009669943247,6.0716954101562495,3.536235852050781,0.7565677246093749,0,0,0,0
0.8471469340001931,5.798756420898437,3.6200329101562496,0.8403647827148437,0,0,0,0
0.8483481779985595,5.291185668945312,3.5386300537109374,0.9624690673828125,0,0,0,0
0.8495041260030121,5.032611889648437,3.4811692138671875,0.9576806640625,0,0,0,0
0.850595483003417,4.817133740234374,3.4835634155273434,0.9433154541015625,0,0,0,0
0.8516655249986798,4.632780212402343,3.5098996337890624,1.0726023437499999,0,0,0,0
0.85274821499479,4.422090466308593,3.4907460205078125,0.9528922607421875,0,0,0,0
0.8539034409914166,4.13718046875,3.5434184570312497,1.16837041015625,0,0,0,0
0.8550476859963965,3.873818286132812,3.632003918457031,1.2210428466796874,0,0,0,0
0.8561396909935866,3.5027170288085934,3.5098996337890624,1.3623007446289062,0,0,0,0
0.8572085670020897,3.189076611328125,3.5218706420898434,1.4317325927734375,0,0,0,0
0.8583391449938063,2.6886884643554687,3.6104561035156246,1.5634136840820312,0,0,0,0
0.8594860379962483,2.5378537597656248,3.27526787109375,1.2234370483398436,0,0,0,0
0.8608225950010819,2.2577321655273437,3.342305517578125,2.080561242675781,0,0,0,0
0.8619274520024192,1.7214309936523438,3.5865140869140624,1.9129671264648436,0,0,0,0
0.8630114379920997,1.5969325073242187,3.3399113159179685,1.848323681640625,0,0,0,0
0.8644259760039859,1.3072341064453123,2.839523168945312,2.0087351928710935,0,0,0,0
0.8656392940029036,0.7757213378906249,1.6615759521484375,1.9800047729492187,0,0,0,0
0.8668673899956048,0.6536170532226562,3.2225954345703123,1.7597382202148437,0,0,0,0
0.8679670790006639,0.6607996582031249,2.3367408203125,2.0446482177734375,0,0,0,0
0.8690576950029936,0.4740519287109375,2.50912333984375,1.9871873779296874,0,0,0,0
0.8702236069948412,0.2537853759765625,2.43250888671875,1.9416975463867185,0,0,0,0
0.8714205909927841,-0.1005564697265625,2.300827795410156,2.0302830078125,0,0,0,0
0.8725240219937405,-0.10295067138671875,1.5179238525390624,1.637633935546875,0,0,0,0
0.8736048970022239,-0.1484405029296875,1.6927005737304686,2.2457611572265623,0,0,0,0
0.874689086995204,-0.8092401611328125,2.4061726684570313,2.480392919921875,0,0,0,0
0.8761103659926448,-0.9217676391601562,1.2665326782226562,2.384624853515625,0,0,0,0
0.87727985100355,-0.6727706665039062,1.2114660400390624,1.7357962036132812,0,0,0,0
0.8785750009992626,-1.3192051147460937,2.2026655273437497,3.308786694335937,0,0,0,0
0.8797453570005018,-1.656787548828125,2.588131994628906,3.1364041748046874,0,0,0,0
0.8810426370037021,-1.4867992309570313,1.5921441040039062,3.1411925781249996,0,0,0,0
0.88217323400022,-1.3239935180664062,2.0446482177734375,3.189076611328125,0,0,0,0
0.8832579979934962,-1.8363526733398436,2.1619640991210938,3.019088293457031,0,0,0,0
0.8846236289973604,-1.8818425048828125,1.924938134765625,3.4739866088867184,0,0,0,0
0.8864231619954808,-1.9105729248046874,2.1068974609374997,3.418919970703125,0,0,0,0
0.887692126998445,-2.114080065917969,1.93451494140625,3.318363500976562,0,0,0,0
0.8888768899923889,-1.7357962036132812,1.0630255371093749,4.2521021484374995,0,0,0,0
0.8900512459949823,-2.461239306640625,1.2018892333984375,3.497928625488281,0,0,0,0
0.8913184340053704,-2.3151930053710936,2.549824768066406,3.883395092773437,0,0,0,0
0.8925757329998305,-2.825157958984375,2.480392919921875,3.9647979492187497,0,0,0,0
0.8937380330025917,-2.437297290039062,1.7190367919921874,3.737348791503906,0,0,0,0
0.8948909070022637,-2.5163059448242184,1.0869675537109373,3.4548329956054684,0,0,0,0
0.8960645780025516,-1.2641384765625,1.7693150268554687,3.9528269409179684,0,0,0,0
0.8973186920047738,-3.201047619628906,1.4891934326171874,4.039018200683594,0,0,0,0
0.898526935998234,-3.287238879394531,0.45489831542968745,3.545812658691406,0,0,0,0
0.8996859949984355,-2.308010400390625,0.4333505004882812,4.034229797363281,0,0,0,0
0.9008797019923804,-3.375824340820312,1.3575123413085937,5.482721801757812,0,0,0,0
0.9020530019915896,-5.269637854003906,1.3646949462890625,4.7022120605468745,0,0,0,0
0.9042700860009063,-5.0948611328124995,4.563348364257812,2.7054478759765623,0,0,0,0
0.9075928219972411,-2.0781670410156248,1.2210428466796874,4.778826513671874,0,0,0,0
0.9091027660033433,-3.1316157714843746,0.4572925170898437,4.659116430664063,0,0,0,0
0.9104093049973017,-3.2704794677734372,0.4908113403320312,4.855440966796874,0,0,0,0
0.9116328999953112,-2.9975404785156248,0.5985504150390625,4.829104748535156,0,0,0,0
0.9127344610024011,-2.2266075439453124,0.27293898925781246,3.8570588745117185,0,0,0,0
0.9138253730052384,-2.224213342285156,0.8475473876953125,4.695029455566406,0,0,0,0
0.9151429119956447,-2.461239306640625,1.5179238525390624,4.53940634765625,0,0,0,0
0.9163975629926426,-2.454056701660156,1.5897499023437498,4.431667272949219,0,0,0,0
0.917492790002143,-2.2577321655273437,1.4125789794921875,4.261678955078125,0,0,0,0
0.9185909980005817,-2.032677209472656,1.0869675537109373,3.9935283691406247,0,0,0,0
0.9199115740048001,-1.9201497314453124,0.8379705810546875,3.859453076171875,0,0,0,0
0.9211579289985821,-1.7286135986328124,0.7685387329101562,3.758896606445312,0,0,0,0
0.9223826539964648,-1.8938135131835936,0.8738836059570312,3.859453076171875,0,0,0,0
0.9235968610009877,-1.8770541015625,1.2210428466796874,3.976768957519531,0,0,0,0
0.9248007720016176,-1.848323681640625,1.3958195678710936,3.687070556640625,0,0,0,0
0.9260072379984194,-1.7238251953125,1.3287819213867187,3.593696691894531,0,0,0,0
0.9272986110008787,-1.5634136840820312,1.197100830078125,3.450044592285156,0,0,0,0
0.9285820020013489,-1.4939818359375,1.22583125,3.3399113159179685,0,0,0,0
0.9299502999929246,-1.465251416015625,1.2856862915039062,3.1028853515624997,0,0,0,0
0.9312908010033425,-1.446097802734375,1.3383587280273437,3.047818713378906,0,0,0,0
0.9326330619951477,-1.4796166259765624,1.438915197753906,2.93050283203125,0,0,0,0
0.9338484540057834,-1.3311761230468748,1.2761094848632812,3.0454245117187497,0,0,0,0
0.9351222709956346,-1.3623007446289062,1.8746598999023436,2.806004345703125,0,0,0,0
0.9364249399950495,-1.2210428466796874,1.8243816650390623,2.5378537597656248,0,0,0,0
0.9376958869979717,-1.1037269653320312,1.7549498168945312,2.3391350219726563,0,0,0,0
0.9389823340025032,-1.0319009155273438,1.608903515625,2.2074539306640624,0,0,0,0
0.9401580410049064,-0.8259995727539062,1.5945383056640625,2.0877438476562498,0,0,0,0
0.9413230270001804,-0.7589619262695312,1.6639701538085936,1.9871873779296874,0,0,0,0
0.9427455270051723,-0.603338818359375,1.8243816650390623,1.7884686401367187,0,0,0,0
0.9439738639921416,-0.488417138671875,1.687912170410156,1.70467158203125,0,0,0,0
0.9452220889943419,-0.15322890625,1.675941162109375,1.62805712890625,0,0,0,0
0.9463632230035728,-0.05027823486328125,1.5969325073242187,1.5251064575195312,0,0,0,0
0.9474933379970025,-0.047884033203124995,1.0486603271484374,1.446097802734375,0,0,0,0
0.9487003969989019,0.19871873779296872,0.9361328491210937,1.4939818359375,0,0,0,0
0.9499536770017585,0.1484405029296875,1.9488801513671874,1.3407529296874998,0,0,0,0
0.9511151810002048,0.16041151123046873,1.9823989746093749,1.3551181396484375,0,0,0,0
0.9522695560008287,0.51714755859375,1.944091748046875,1.2880804931640624,0,0,0,0
0.9535666140000103,0.7110778930664062,1.9943699829101562,1.1133037719726562,0,0,0,0
0.9548875600012252,0.948103857421875,2.0087351928710935,0.9744400756835937,0,0,0,0
0.9561590990051627,1.177947216796875,2.1978771240234374,0.9504980590820312,0,0,0,0
0.9573659360030433,1.2952630981445312,2.003946789550781,0.9528922607421875,0,0,0,0
0.9585390139982337,1.3527239379882812,1.6735469604492186,0.928950244140625,0,0,0,0
0.9599722919956548,1.4915876342773438,1.697488977050781,0.9983820922851562,0,0,0,0
0.9612513869942632,1.1037269653320312,-0.9265560424804687,1.0438719238281249,0,0,0,0
0.9625131119973958,1.3575123413085937,1.3072341064453123,0.86191259765625,0,0,0,0
0.9637538929964649,1.6304513305664061,3.0837317382812497,1.0390835205078124,0,0,0,0
0.9653172429971164,0.7757213378906249,1.4987702392578124,1.1947066284179686,0,0,0,0
0.9667108930007089,1.8650830932617186,2.032677209472656,1.120486376953125,0,0,0,0
0.9680089320027037,1.4700398193359374,0.7541735229492187,0.97683427734375,0,0,0,0
0.9692109169991454,1.5777788940429687,1.448492004394531,1.2713210815429687,0,0,0,0
0.970470252999803,1.9297265380859374,1.7405846069335937,1.3168109130859373,0,0,0,0
0.971747162999236,1.467645617675781,1.0941501586914062,2.001552587890625,0,0,0,0
0.9729576660029124,1.0007762939453124,1.5131354492187499,1.149216796875,0,0,0,0
0.9742438160028541,2.9951462768554684,1.66636435546875,1.16837041015625,0,0,0,0
0.975438541994663,3.39018955078125,1.659181750488281,1.0079588989257813,0,0,0,0
0.9768289499916136,3.756502404785156,1.3718775512695311,0.9744400756835937,0,0,0,0
0.9782731169980252,2.6431986328124997,1.2737152832031249,1.388636962890625,0,0,0,0
0.9796217669936595,3.421314172363281,2.0254946044921875,1.4891934326171874,0,0,0,0
0.9809687689994462,4.089296435546875,1.0510545288085937,1.4963760375976562,0,0,0,0
0.9822676040057559,4.61602080078125,0.35194764404296874,1.1659762084960936,0,0,0,0
0.9835583840031177,4.687846850585937,0.3950432739257812,1.484405029296875,0,0,0,0
0.9847717579978053,4.735730883789063,0.6775590698242188,1.1156979736328125,0,0,0,0
0.9859505210042698,4.630386010742187,0.4333505004882812,1.0510545288085937,0,0,0,0
0.9871747650031466,5.561730456542969,0.5219359619140624,1.139639990234375,0,0,0,0
0.9884482490015216,5.846640454101562,0.3854664672851562,1.3527239379882812,0,0,0,0
0.9896374749951065,5.798756420898437,0.7972691528320313,1.3383587280273437,0,0,0,0
0.9908761809929274,5.717353564453124,0.354341845703125,1.927332336425781,0,0,0,0
0.9921567389974371,5.066130712890625,0.4070142822265625,2.4133552734375,0,0,0,0
0.9934137969976291,5.092466931152344,0.6248866333007812,2.2290017456054687,0,0,0,0
0.9946609299950069,5.468356591796875,0.70868369140625,1.7525556152343749,0,0,0,0
0.995777674994315,6.227318518066406,0.04548983154296875,1.5107412475585937,0,0,0,0
0.9976404659973923,7.264007836914062,-0.08858546142578125,0.9337386474609375,0,0,0,0
0.998931634996552,7.45075556640625,-0.5889736083984375,1.5370774658203123,0,0,0,0
1.0002909519971581,7.888894470214844,0.055066638183593745,1.4820108276367188,0,0,0,0
1.001506603002781,8.90643017578125,-1.1133037719726562,1.5418658691406248,0,0,0,0
1.0031730259943288,9.574412438964844,-0.086191259765625,0.8116343627929687,0,0,0,0
1.0044520840019686,10.845733520507812,2.1164742675781247,0.411802685546875,0,0,0,0
1.005807437992189,8.532934716796875,0.5434837768554687,0.009576806640625,0,0,0,0
1.0069945889990777,8.322244970703125,0.028730419921875,1.446097802734375,0,0,0,0
1.0081802229979075,5.57370146484375,-5.518634826660156,0.5698199951171875,0,0,0,0
1.0093589119933313,4.745307690429687,-2.269703173828125,0.9864110839843749,0,0,0,0
1.0105033419968095,5.614402893066406,-0.9792284790039062,4.75009609375,0,0,0,0
1.0117059930053074,6.885723974609375,1.0965443603515623,4.441244079589843,0,0,0,0
1.0128822929982562,3.1842882080078123,-1.2665326782226562,0.06464344482421874,0,0,0,0
1.0139650019991677,7.920019091796875,-0.6943184814453125,0.8475473876953125,0,0,0,0
1.0151362649921793,12.552799304199217,-1.3479355346679687,-0.411802685546875,0,0,0,0
1.0163516199972946,13.213598962402344,-1.5394716674804687,-1.1947066284179686,0,0,0,0
1.0177197879966116,12.717999218749998,-1.0678139404296874,-1.0678139404296874,0,0,0,0
1.0189098099945113,13.297396020507811,-1.3479355346679687,-0.8403647827148437,0,0,0,0
1.0201400539954193,13.129801904296874,-0.8595183959960937,-1.1061211669921875,0,0,0,0
1.0212509099947056,12.887987536621093,-1.0342951171875,-0.622492431640625,0,0,0,0
1.0223987479985226,12.966996191406249,-1.0893617553710937,-0.9145850341796874,0,0,0,0
1.0237014900048962,12.109871997070313,-1.2401964599609374,0.45968671875,0,0,0,0
1.024807438996504,11.645396875,-0.9121908325195311,-1.350329736328125,0,0,0,0
1.025888185002259,13.618219042968748,-2.3439234252929686,-0.6464344482421874,0,0,0,0
1.0272547049971763,11.781866369628906,0.9792284790039062,0.6416460449218749,0,0,0,0
1.028475671002525,12.342109558105468,1.1468225952148436,-1.8531120849609375,0,0,0,0
1.0298798940057168,14.456189624023436,-2.7820623291015623,-1.1923124267578125,0,0,0,0
1.0309806400036905,14.132972399902343,-1.4772224243164063,-0.6009446166992187,0,0,0,0
1.03206797799794,13.608642236328125,-0.7900865478515624,-0.29448680419921874,0,0,0,0
1.0331608900014544,12.931083166503905,-0.7206546997070312,-0.373495458984375,0,0,0,0
1.0343175239977427,12.164938635253906,-2.1835119140624997,0.46686932373046874,0,0,0,0
1.0358770409948193,11.173739147949219,-0.9576806640625,0.23702596435546874,0,0,0,0
1.037055341002997,8.760383874511719,-2.1835119140624997,0.8906430175781249,0,0,0,0
1.0381544199917698,10.077194787597655,-4.544194750976562,-0.8667010009765624,0,0,0,0
1.0396118640055647,10.31661495361328,-3.0933085449218747,-0.7876923461914062,0,0,0,0
1.0409686619968852,11.190498559570312,-2.868253588867187,0.16759411621093748,0,0,0,0
1.0420627040002728,11.769895361328125,-2.3343466186523436,-0.6703764648437499,0,0,0,0
1.0433668539917562,12.045228552246092,-1.7717092285156248,-0.8164227661132812,0,0,0,0
1.0445100799988722,12.765883251953124,-0.46208092041015625,-1.0654197387695312,0,0,0,0
1.0463893160049338,13.608642236328125,0.17956512451171874,-1.0486603271484374,0,0,0,0
1.0474923209985718,14.18564483642578,0.7110778930664062,-0.4908113403320312,0,0,0,0
1.0485793999978341,14.681244580078124,1.120486376953125,-0.7158662963867187,0,0,0,0
1.0496841819986003,15.037980627441405,1.5035586425781249,-0.5913678100585937,0,0,0,0
1.0507661680021556,15.121777685546874,1.0366893188476562,-0.7733271362304687,0,0,0,0
1.0521559659973718,15.734693310546874,0.24660277099609373,-0.5602431884765625,0,0,0,0
1.0539320550014963,14.944606762695312,0.2657563842773437,0.1005564697265625,0,0,0,0
1.0551841129927197,15.303737011718749,-0.5961562133789062,-0.229843359375,0,0,0,0
1.056437837993144,15.672444067382811,-1.6807295654296874,-0.13168109130859373,0,0,0,0
1.0575392869941425,16.136919189453124,-2.0087351928710935,-0.5506663818359374,0,0,0,0
1.0587027909932658,15.289371801757811,-1.6903063720703124,-0.30885201416015623,0,0,0,0
1.0606210440018913,14.714763403320312,-1.4891934326171874,0.584185205078125,0,0,0,0
1.0619233059987891,13.95580147705078,-1.4963760375976562,1.1180921752929687,0,0,0,0
1.0630158659914741,13.1776859375,-1.7884686401367187,1.5801730957031248,0,0,0,0
1.0641856479924172,12.421118212890624,-2.408566870117187,1.438915197753906,0,0,0,0
1.0654719830054091,11.82975040283203,-3.0406361083984375,0.40462008056640625,0,0,0,0
1.0668676329951268,11.518504187011718,-3.6056677001953124,0.6153098266601562,0,0,0,0
1.0683849649940385,12.191274853515624,-3.277662072753906,1.16837041015625,0,0,0,0
1.0695936720003374,12.62223115234375,-2.7844565307617186,1.0989385620117187,0,0,0,0
1.070929415000137,13.254300390625,-1.9752163696289062,1.0702081420898437,0,0,0,0
1.0720254009938799,13.546392993164062,-1.5370774658203123,1.2928688964843749,0,0,0,0
1.0731303499924252,13.627795849609374,-1.3766659545898436,1.7549498168945312,0,0,0,0
1.0742093919980107,13.505691564941406,-1.3910311645507811,1.8842367065429686,0,0,0,0
1.0753709889977472,13.266271398925781,-1.6472107421875,1.2928688964843749,0,0,0,0
1.076780711999163,13.211204760742186,-2.281674182128906,1.1827356201171875,0,0,0,0
1.077906456994242,14.049175341796873,-2.4947581298828125,1.2761094848632812,0,0,0,0
1.079055886992137,14.53759248046875,-2.4971523315429685,1.120486376953125,0,0,0,0
1.0801422799995635,14.927847351074218,-2.5546131713867184,0.97683427734375,0,0,0,0
1.0814598190045217,15.351621044921874,-2.7365724975585937,1.1563994018554686,0,0,0,0
1.082831747000455,15.626954235839843,-2.8658593872070313,0.9935936889648437,0,0,0,0
1.0839859359984985,15.413870288085937,-3.1842882080078123,1.005564697265625,0,0,0,0
1.0851334579929244,15.157690710449218,-3.239354846191406,1.0678139404296874,0,0,0,0
1.0862247589975595,14.872780712890624,-3.3399113159179685,1.4245499877929686,0,0,0,0
1.087401429991587,14.420276599121093,-3.5721488769531247,1.675941162109375,0,0,0,0
1.0885552859981544,14.082694165039062,-3.699041564941406,1.5777788940429687,0,0,0,0
1.0897936590044992,13.70680450439453,-3.825934252929687,1.5275006591796874,0,0,0,0
1.0910371429927181,12.746729638671875,-4.3071687866210935,1.9704279663085937,0,0,0,0
1.0921948699979112,12.59589493408203,-4.410119458007812,2.4971523315429685,0,0,0,0
1.0933553549984936,12.811373083496093,-4.13718046875,2.6479870361328124,0,0,0,0
1.094522229002905,12.77546005859375,-3.859453076171875,3.1220389648437497,0,0,0,0
1.0956158820044948,12.255918298339843,-3.1220389648437497,3.6535517333984373,0,0,0,0
1.0967078870016849,12.014103930664062,-2.8107927490234372,2.7820623291015623,0,0,0,0
1.0978931680001551,12.08592998046875,-3.153163586425781,3.258508459472656,0,0,0,0
1.0990902460034704,12.823344091796875,-3.9743747558593747,3.0166940917968748,0,0,0,0
1.100348377993214,13.144167114257812,-3.708618371582031,3.153163586425781,0,0,0,0
1.101553343993146,13.148955517578123,-3.687070556640625,3.201047619628906,0,0,0,0
1.10266792299808,13.046004846191405,-2.5043349365234375,3.5625720703124997,0,0,0,0
1.1038815189967863,12.69884560546875,-2.8658593872070313,3.2513258544921873,0,0,0,0
1.1050778560020262,13.390769885253906,-3.172317199707031,2.231395947265625,0,0,0,0
1.106317024998134,13.309367028808593,-2.3295582153320313,3.2130186279296873,0,0,0,0
1.1076007679948816,13.326126440429686,-2.8850130004882812,2.8993782104492185,0,0,0,0
1.1088296420057304,13.02445703125,-2.5953145996093747,2.731784094238281,0,0,0,0
1.1100494970014552,12.437877624511717,-2.3630770385742186,3.227383837890625,0,0,0,0
1.1112893149984302,12.421118212890624,-2.808398547363281,3.81156904296875,0,0,0,0
1.1124131520045921,12.272677709960936,-2.7940333374023436,3.1962592163085937,0,0,0,0
1.113659580994863,12.169727038574218,-2.5234885498046875,3.028665100097656,0,0,0,0
1.114813473992399,12.265495104980468,-2.1595698974609374,2.779668127441406,0,0,0,0
1.1160570319916587,12.160150231933594,-1.6639701538085936,2.5665841796874997,0,0,0,0
1.1172612579975976,12.454637036132812,-1.3192051147460937,2.3391350219726563,0,0,0,0
1.1183631699968828,12.938265771484375,-0.8595183959960937,1.419761584472656,0,0,0,0
1.1194600820017513,13.548787194824218,-0.3950432739257812,1.2808978881835937,0,0,0,0
1.1207377509999787,14.324508532714843,0.45010991210937495,1.3168109130859373,0,0,0,0
1.122100437991321,15.69878028564453,0.8164227661132812,1.0917559570312498,0,0,0,0
1.1234185319917742,16.148890197753904,0.7685387329101562,0.258573779296875,0,0,0,0
1.1246770540019497,16.71392178955078,1.3623007446289062,1.1563994018554686,0,0,0,0
1.1258757790055824,16.10818876953125,1.5227122558593749,1.2856862915039062,0,0,0,0
1.127068246001727,16.361974145507812,1.0414777221679687,0.9935936889648437,0,0,0,0
1.1282382859935751,16.61336531982422,1.0319009155273438,0.6081272216796875,0,0,0,0
1.1294055869948352,16.824055065917968,1.0438719238281249,0.15083470458984374,0,0,0,0
1.1305383319995599,17.15445489501953,0.5722141967773438,0.062249243164062495,0,0,0,0
1.1316680580057437,17.367538842773435,1.0702081420898437,-0.7781155395507812,0,0,0,0
1.1328571729973191,16.934188342285154,0.584185205078125,-0.2537853759765625,0,0,0,0
1.1340221769933123,16.704344982910154,0.3591302490234375,-0.45968671875,0,0,0,0
1.1352129019942367,16.575058093261717,0.24181436767578124,-0.6919242797851562,0,0,0,0
1.1363370360049885,16.105794567871094,0.373495458984375,0.16041151123046873,0,0,0,0
1.1374586519959848,15.224728356933593,0.26815058593749996,-0.47165772705078124,0,0,0,0
1.138621748003061,15.440206506347655,0.16759411621093748,-0.51714755859375,0,0,0,0
1.1397951599938096,15.322890625,0.21068974609375,-0.5530605834960938,0,0,0,0
1.1409229970013257,15.444994909667967,0.316034619140625,-0.5267243652343749,0,0,0,0
1.1421856109955115,15.289371801757811,0.5793968017578125,-0.47165772705078124,0,0,0,0
1.1434105959924636,15.263035583496093,0.7038952880859375,-0.6296750366210937,0,0,0,0
1.1445919879915891,15.368380456542967,0.6919242797851562,-0.3184288208007812,0,0,0,0
1.1456925480015343,15.52639776611328,0.8834604125976562,-0.5147533569335937,0,0,0,0
1.1467757569917012,15.083470458984374,0.8451531860351562,-1.1252747802734375,0,0,0,0
1.1478568729944527,14.997279199218749,0.7805097412109374,-1.369483349609375,0,0,0,0
1.1489440080040367,15.20078634033203,0.8906430175781249,-1.448492004394531,0,0,0,0
1.1502638429956278,15.16966171875,0.9026140258789062,-0.10773907470703124,0,0,0,0
1.151552030001767,14.867992309570312,1.0127473022460938,0.22505495605468748,0,0,0,0
1.1529483280028217,14.049175341796873,0.7757213378906249,-0.20829554443359374,0,0,0,0
1.1541371640050784,13.881581225585936,0.5147533569335937,-0.6703764648437499,0,0,0,0
1.155318000994157,13.94861887207031,0.33518823242187495,-1.697488977050781,0,0,0,0
1.1568010750052053,14.769830041503905,0.51714755859375,-1.5705962890624998,0,0,0,0
1.1579450979916146,15.337255834960937,0.6703764648437499,-1.0175357055664063,0,0,0,0
1.1590626209945185,15.286977600097655,0.9744400756835937,-0.9337386474609375,0,0,0,0
1.1601545519952197,14.982913989257812,1.1540052001953125,-0.9361328491210937,0,0,0,0
1.161323888998595,14.719551806640624,1.3168109130859373,-0.6296750366210937,0,0,0,0
1.162835887997062,14.15452021484375,1.4053963745117186,-0.8020575561523438,0,0,0,0
1.163971836998826,13.560758203125,1.0414777221679687,-1.0319009155273438,0,0,0,0
1.165097823002725,13.453019128417967,0.7493851196289062,-0.8451531860351562,0,0,0,0
1.1661902719934005,13.551181396484374,0.8930372192382812,-0.8978256225585937,0,0,0,0
1.167350756993983,13.266271398925781,0.6272808349609375,-0.41419688720703124,0,0,0,0
1.1688801089912886,12.196063256835936,0.18435352783203124,-0.4213794921875,0,0,0,0
1.1699773909931537,11.896788049316406,0.06464344482421874,-0.699106884765625,0,0,0,0
1.1710622849932406,11.765106958007811,0.01915361328125,-0.6536170532226562,0,0,0,0
1.1721452899946598,11.7603185546875,0.06943184814453125,-0.32082302246093747,0,0,0,0
1.1733385900006397,11.827356201171874,0.19153613281249998,-0.3711012573242187,0,0,0,0
1.1745009449950885,11.702857714843748,0.5027823486328125,-0.48123453369140623,0,0,0,0
1.175595060994965,11.61906065673828,0.6584054565429687,-0.24181436767578124,0,0,0,0
1.1766848069964908,12.011709729003906,1.197100830078125,0.2346317626953125,0,0,0,0
1.1777703859988833,11.781866369628906,1.7166425903320313,0.1771709228515625,0,0,0,0
1.1789248529967153,11.238382592773437,1.7597382202148437,0.277727392578125,0,0,0,0
1.1800805230013793,10.970232006835937,1.7764976318359373,0.17238251953125,0,0,0,0
1.1811576390027767,10.874463940429687,1.7621324218749999,0.5578489868164063,0,0,0,0
1.1823293280031066,10.512939489746094,1.5753846923828123,0.74699091796875,0,0,0,0
1.183552182992571,10.026916552734374,1.0223241088867188,0.6248866333007812,0,0,0,0
1.1848415370041039,9.95987890625,0.74699091796875,0.5195417602539062,0,0,0,0
1.1860314299992751,10.046070166015625,0.5267243652343749,0.5746083984375,0,0,0,0
1.187219544997788,10.108319409179687,0.373495458984375,0.373495458984375,0,0,0,0
1.1884617140021874,10.266336718749999,0.33518823242187495,0.28490999755859375,0,0,0,0
1.1897719010012224,10.589553942871094,0.3950432739257812,0.08140285644531249,0,0,0,0
1.1910012750013266,10.809820495605468,0.5674257934570313,-0.0143652099609375,0,0,0,0
1.1924133870052174,11.054029064941405,1.1037269653320312,0.11252747802734374,0,0,0,0
1.1942191230045864,11.470620153808593,1.3407529296874998,0.24181436767578124,0,0,0,0
1.1956591049965937,12.035651745605469,1.7190367919921874,0.38307226562499996,0,0,0,0
1.19728480699996,12.181698046874999,1.7094599853515624,0.30885201416015623,0,0,0,0
1.1988497319980524,12.19366905517578,1.4532804077148436,0.239420166015625,0,0,0,0
1.2000203089992283,12.272677709960936,1.2808978881835937,0.00718260498046875,0,0,0,0
1.2015996599948267,12.46181964111328,0.97683427734375,0.15562310791015624,0,0,0,0
1.2030679559975397,12.495338464355468,0.8786720092773437,0.0718260498046875,0,0,0,0
1.2044773459929274,12.320561743164061,0.7206546997070312,0.09816226806640624,0,0,0,0
1.2059324570000172,12.296619726562499,0.5865794067382812,0.00718260498046875,0,0,0,0
1.2071219049976207,12.291831323242187,0.5626373901367188,0.00718260498046875,0,0,0,0
1.2083957599970745,12.121843005371092,0.35673604736328124,0.00718260498046875,0,0,0,0
1.2099510730040492,12.016498132324218,0.28969840087890625,0.01915361328125,0,0,0,0
1.2116472740017343,12.114660400390624,0.34237083740234375,-0.031124621582031248,0,0,0,0
1.213915635002195,12.212822668457031,0.3399766357421875,0.15562310791015624,0,0,0,0
1.2162194949924015,12.164938635253906,0.34715924072265625,0.35194764404296874,0,0,0,0
1.2184184299985645,12.126631408691406,0.6655880615234374,0.469263525390625,0,0,0,0
1.22012677899329,12.284648718261717,0.7110778930664062,0.4477157104492187,0,0,0,0
1.2217065369914053,12.442666027832031,0.7876923461914062,0.4070142822265625,0,0,0,0
1.2237976960022934,12.332532751464843,0.6105214233398437,0.4285620971679687,0,0,0,0
1.2259550199960358,12.248735693359373,0.4908113403320312,0.4285620971679687,0,0,0,0
1.2279123850021278,12.150573425292968,0.5506663818359374,0.6009446166992187,0,0,0,0
1.2299442109942902,12.129025610351562,0.603338818359375,0.7326257080078125,0,0,0,0
1.2315204320038902,12.018892333984374,0.5530605834960938,0.7733271362304687,0,0,0,0
1.2336212389927823,11.8369330078125,0.3687070556640625,0.7661445312499999,0,0,0,0
1.2352916990057565,11.889605444335936,0.16280571289062498,0.7326257080078125,0,0,0,0
1.2378575740003726,11.870451831054687,0.17956512451171874,0.7038952880859375,0,0,0,0
1.2397974570048973,11.877634436035155,0.22266075439453123,0.7062894897460937,0,0,0,0
1.2413853079924593,11.870451831054687,0.2753331909179687,0.6177040283203125,0,0,0,0
1.2434650590003002,11.700463513183593,0.5243301635742187,0.6081272216796875,0,0,0,0
1.2451787970057921,11.482591162109374,0.5817910034179687,0.6464344482421874,0,0,0,0
1.2467362030001823,11.449072338867186,0.5602431884765625,0.5722141967773438,0,0,0,0
1.249888941005338,11.183315954589844,0.40940848388671874,0.5626373901367188,0,0,0,0
1.2520891169988317,10.939107385253905,0.39743747558593745,0.8690952026367187,0,0,0,0
1.2541094250045717,10.599130749511717,0.5386953735351562,0.8307879760742187,0,0,0,0
1.2559594759950414,10.290278735351562,0.51714755859375,0.9959878906249999,0,0,0,0
1.2575375489977887,10.038887561035155,0.4165910888671875,1.120486376953125,0,0,0,0
1.259726928998134,9.734823950195311,0.32082302246093747,1.158793603515625,0,0,0,0
1.2611737249972066,9.612719665527344,0.24181436767578124,1.0845733520507812,0,0,0,0
1.2624926900025457,9.49300958251953,0.17238251953125,1.0462661254882812,0,0,0,0
1.2635937129962258,9.536105212402344,0.11731588134765625,1.2306196533203124,0,0,0,0
1.2646887919981964,9.555258825683593,0.22505495605468748,1.3383587280273437,0,0,0,0
1.2659131469990825,9.552864624023437,0.3280056274414062,1.1827356201171875,0,0,0,0
1.2673135740042198,9.567229833984374,0.29927520751953124,0.928950244140625,0,0,0,0
1.2687136860040482,9.6151138671875,0.2825157958984375,0.86191259765625,0,0,0,0
1.2700300029973732,9.696516723632811,0.28012159423828126,1.0031704956054688,0,0,0,0
1.271339689992601,9.655815295410155,0.2537853759765625,0.8906430175781249,0,0,0,0
1.2725273050018586,9.80665,0.1867477294921875,0.6679822631835937,0,0,0,0
1.2737326409987872,9.888052856445311,0.2442085693359375,0.6272808349609375,0,0,0,0
1.2749881259951508,10.007762939453125,0.33039982910156246,0.7924807495117187,0,0,0,0
1.2761649629974272,10.115502014160155,0.4333505004882812,0.6560112548828124,0,0,0,0
1.2775040010019438,10.16338604736328,0.51714755859375,0.6392518432617187,0,0,0,0
1.2785986730013974,10.237606298828124,0.38786066894531246,0.8020575561523438,0,0,0,0
1.279683140994166,10.321403356933594,0.5147533569335937,0.8020575561523438,0,0,0,0
1.2808555329975206,10.364498986816406,0.5817910034179687,0.7541735229492187,0,0,0,0
1.282213108992437,10.46984385986328,0.622492431640625,0.8164227661132812,0,0,0,0
1.283885716999066,10.781090075683593,0.7565677246093749,1.0534487304687499,0,0,0,0
1.2852215519960737,10.912771166992187,0.7541735229492187,1.0845733520507812,0,0,0,0
1.2866194789967267,10.888829150390624,0.469263525390625,1.0797849487304687,0,0,0,0
1.2878062240051804,10.81460889892578,0.14125789794921875,0.8834604125976562,0,0,0,0
1.2890615409996826,10.771513269042968,-0.01915361328125,0.7685387329101562,0,0,0,0
1.2904848199978005,11.226411584472656,0.16519991455078123,1.005564697265625,0,0,0,0
1.2916598790034186,11.4538607421875,0.3711012573242187,1.0366893188476562,0,0,0,0
1.2928360119985882,11.559205615234374,0.5626373901367188,1.0486603271484374,0,0,0,0
1.2945528609998291,11.348515869140625,0.699106884765625,1.0175357055664063,0,0,0,0
1.2958716040011495,11.2240173828125,0.7158662963867187,0.8379705810546875,0,0,0,0
1.297281770996051,11.29344923095703,0.6368576416015624,0.8954314208984374,0,0,0,0
1.2985506069962867,11.413159313964844,0.833182177734375,0.9576806640625,0,0,0,0
1.3000019220053218,11.44667813720703,0.9744400756835937,1.13006318359375,0,0,0,0
1.3012102590000723,11.372457885742186,1.1109095703125,1.16837041015625,0,0,0,0
1.3023866330040619,11.226411584472656,1.0965443603515623,1.1540052001953125,0,0,0,0
1.3036351359914988,11.1474029296875,1.024718310546875,1.2928688964843749,0,0,0,0
1.3051370979956118,11.152191333007812,1.0534487304687499,1.2617442749023438,0,0,0,0
1.306314860994462,11.314997045898437,1.0582371337890624,1.3910311645507811,0,0,0,0
1.3080533019965515,11.33175645751953,0.8882488159179687,1.448492004394531,0,0,0,0
1.3097665770037565,11.21683477783203,0.8738836059570312,1.2904746948242187,0,0,0,0
1.3109628950041952,11.02529864501953,0.7541735229492187,1.5370774658203123,0,0,0,0
1.3122435270051938,10.752359655761719,0.7900865478515624,1.6639701538085936,0,0,0,0
1.3136886389984284,10.838550915527343,0.7565677246093749,1.8411410766601561,0,0,0,0
1.3150808619975578,10.79545528564453,0.7062894897460937,1.8746598999023436,0,0,0,0
1.3163043099921197,10.752359655761719,0.8714894042968749,1.6998831787109374,0,0,0,0
1.3175221830024384,10.805032092285156,0.852335791015625,1.5897499023437498,0,0,0,0
1.3188784810045036,10.91037696533203,0.9600748657226562,1.5945383056640625,0,0,0,0
1.3205112010036828,10.939107385253905,1.1085153686523437,1.5203180541992187,0,0,0,0
1.3217459260049509,10.869675537109375,1.16837041015625,1.6711527587890624,0,0,0,0
1.3229478370049037,10.742782849121093,1.35990654296875,1.5155296508789062,0,0,0,0
1.3242437099979725,10.627861169433594,1.1827356201171875,1.5322890624999999,0,0,0,0
1.3254373429954285,10.374075793457031,1.235408056640625,1.5682020874023437,0,0,0,0
1.3265429589955602,10.299855541992187,1.3072341064453123,1.5107412475585937,0,0,0,0
1.3276971659943229,10.175357055664062,1.35990654296875,1.6208745239257811,0,0,0,0
1.3289720019965898,10.026916552734374,1.3431471313476562,1.4987702392578124,0,0,0,0
1.330152709997492,9.988609326171874,1.4101847778320311,1.5346832641601562,0,0,0,0
1.331473896992975,9.811438403320311,1.3311761230468748,1.6136919189453125,0,0,0,0
1.3328496939939214,9.725247143554688,1.3239935180664062,1.6400281372070311,0,0,0,0
1.3341361039929325,9.658209497070311,1.1563994018554686,1.6903063720703124,0,0,0,0
1.3353009410056984,9.737218151855469,1.0654197387695312,1.8076222534179687,0,0,0,0
1.3364181859942619,9.725247143554688,1.0702081420898437,1.678335363769531,0,0,0,0
1.3375841719971504,9.732429748535155,1.0630255371093749,1.668758557128906,0,0,0,0
1.3387728969973978,9.852139831542969,1.0342951171875,1.6519991455078125,0,0,0,0
1.3398715130024357,9.928754284667969,0.9935936889648437,1.6160861206054686,0,0,0,0
1.340965850991779,9.957484704589843,1.0414777221679687,1.4963760375976562,0,0,0,0
1.342158040002687,10.0748005859375,0.7613561279296874,1.2617442749023438,0,0,0,0
1.343459597992478,10.326191760253906,0.74699091796875,1.209071838378906,0,0,0,0
1.3447033970005577,10.462661254882812,0.7852981445312499,1.1133037719726562,0,0,0,0
1.3458092719956767,10.644620581054687,0.8092401611328125,1.1276689819335937,0,0,0,0
1.3469417949963827,10.730811840820312,0.9002198242187499,1.0726023437499999,0,0,0,0
1.348125724005513,10.824185705566405,0.9911994873046874,0.9002198242187499,0,0,0,0
1.3493202829995425,11.1474029296875,1.0486603271484374,0.8164227661132812,0,0,0,0
1.3505593970039627,11.303026037597656,1.1444283935546875,0.7876923461914062,0,0,0,0
1.3516713089920813,11.477802758789062,1.2737152832031249,0.737414111328125,0,0,0,0
1.3528025910054566,11.573570825195311,1.3814543579101561,0.6416460449218749,0,0,0,0
1.353947983996477,11.518504187011718,1.5155296508789062,0.603338818359375,0,0,0,0
1.3551909870002419,11.513715783691406,1.5682020874023437,0.6248866333007812,0,0,0,0
1.3564131379971514,11.698069311523437,1.5873557006835937,0.6631938598632812,0,0,0,0
1.3575417539977934,11.707646118164062,1.6304513305664061,0.6464344482421874,0,0,0,0
1.3586378329928266,11.690886706542969,1.659181750488281,0.6607996582031249,0,0,0,0
1.359733467004844,11.690886706542969,1.6927005737304686,0.8188169677734375,0,0,0,0
1.3608414899936179,11.674127294921874,1.7429788085937499,0.7541735229492187,0,0,0,0
1.3621232150035212,11.609483850097655,1.7645266235351562,0.7900865478515624,0,0,0,0
1.3634289210021961,11.487379565429686,1.8363526733398436,0.8786720092773437,0,0,0,0
1.3645329440041678,11.379640490722656,1.9608511596679685,0.8834604125976562,0,0,0,0
1.3656145599961746,11.317391247558593,1.946485949707031,0.9074024291992187,0,0,0,0
1.366731082991464,11.233594189453123,1.9704279663085937,0.9241618408203125,0,0,0,0
1.3680156409973279,11.173739147949219,1.9919757812499999,1.0678139404296874,0,0,0,0
1.3692582549992949,10.97502041015625,2.0159177978515626,1.1611878051757811,0,0,0,0
1.3704181840003002,10.998962426757812,2.0446482177734375,1.1827356201171875,0,0,0,0
1.3715064300049562,10.934318981933593,2.061407629394531,1.1516109985351561,0,0,0,0
1.3725921389996074,10.843339318847656,2.1595698974609374,1.2330138549804688,0,0,0,0
1.3739690289949067,10.790666882324219,1.9991583862304687,1.4939818359375,0,0,0,0
1.3756719149969285,10.704475622558594,2.020706201171875,1.5705962890624998,0,0,0,0
1.376938657995197,10.68053360595703,2.128445275878906,1.8267758666992187,0,0,0,0
1.3782959929958452,10.620678564453124,1.936909143066406,1.9129671264648436,0,0,0,0
1.3795158290013205,10.618284362792968,1.9321207397460936,1.8938135131835936,0,0,0,0
1.380917552000028,10.620678564453124,1.9871873779296874,1.944091748046875,0,0,0,0
1.3820133349945536,10.644620581054687,2.013523596191406,1.8722656982421875,0,0,0,0
1.3830964689987013,10.71884083251953,1.9991583862304687,1.944091748046875,0,0,0,0
1.3846561719983583,10.70686982421875,2.0350714111328125,1.8507178833007811,0,0,0,0
1.3858792489918415,10.790666882324219,2.042254016113281,1.9919757812499999,0,0,0,0
1.3870706599991536,10.800243688964843,2.085349645996094,2.0063409912109376,0,0,0,0
1.3883602370042354,10.82179150390625,2.003946789550781,1.946485949707031,0,0,0,0
1.3895411849953234,10.896011755371093,2.020706201171875,2.003946789550781,0,0,0,0
1.3908131319913082,10.967837805175781,2.0542250244140625,1.9991583862304687,0,0,0,0
1.3919877279986395,10.941501586914061,2.118868469238281,2.042254016113281,0,0,0,0
1.3930951579968678,11.003750830078124,2.0757728393554684,1.9823989746093749,0,0,0,0
1.3941808300005505,10.886434948730468,2.0302830078125,2.013523596191406,0,0,0,0
1.3952892050001537,11.073182678222656,2.085349645996094,2.0925322509765625,0,0,0,0
1.3965229299938073,11.092336291503905,2.0757728393554684,2.1068974609374997,0,0,0,0
1.3978224509919528,11.168950744628905,2.0542250244140625,1.8076222534179687,0,0,0,0
1.3990609169995878,11.10191309814453,2.099714855957031,1.7573440185546874,0,0,0,0
1.4002334950055229,11.135431921386719,2.094926452636719,1.6903063720703124,0,0,0,0
1.4013930910005001,11.077971081542968,2.1068974609374997,1.6448165405273436,0,0,0,0
1.402728055996704,11.022904443359375,2.114080065917969,1.5203180541992187,0,0,0,0
1.4040639650047524,11.046846459960937,2.0781670410156248,1.3958195678710936,0,0,0,0
1.4051735249959165,11.02529864501953,2.166752502441406,1.3096283081054687,0,0,0,0
1.4062569189991336,10.967837805175781,2.1212626708984375,1.3431471313476562,0,0,0,0
1.4073409609991359,10.927136376953124,2.118868469238281,1.2737152832031249,0,0,0,0
1.4086044629948447,10.82179150390625,2.1068974609374997,1.22583125,0,0,0,0
1.4098286329972325,10.778695874023438,2.032677209472656,1.2210428466796874,0,0,0,0
1.4109491190029075,10.658985791015624,2.0087351928710935,1.1755530151367186,0,0,0,0
1.4120566049969057,10.59194814453125,2.01112939453125,1.24498486328125,0,0,0,0
1.4131463689991506,10.500968481445312,2.0254946044921875,1.3215993164062498,0,0,0,0
1.4144193719985196,10.429142431640624,1.9512743530273435,1.3311761230468748,0,0,0,0
1.415744336991338,10.27830772705078,1.9393033447265624,1.2473790649414063,0,0,0,0
1.4170084499928635,10.244788903808594,1.8650830932617186,1.22583125,0,0,0,0
1.4182138799951645,10.098742602539062,1.8267758666992187,1.2234370483398436,0,0,0,0
1.419309920995147,9.995791931152343,1.8171990600585937,1.1540052001953125,0,0,0,0
1.4205455350020202,9.911994873046874,1.8171990600585937,1.1013327636718748,0,0,0,0
1.4217977600055747,9.787496386718749,1.7956512451171873,1.235408056640625,0,0,0,0
1.4229792270052712,9.64623848876953,1.9632453613281249,1.0414777221679687,0,0,0,0
1.4241155460040318,9.471461767578125,2.3151930053710936,1.0845733520507812,0,0,0,0
1.425219458003994,9.753977563476562,2.5857377929687497,1.649604943847656,0,0,0,0
1.4264464799925918,9.897629663085937,2.636016027832031,2.0661960327148434,0,0,0,0
1.4276259089965606,9.483432775878907,2.4205378784179685,1.9201497314453124,0,0,0,0
1.4287240440025926,8.908824377441405,2.138022082519531,1.0702081420898437,0,0,0,0
1.4299339540011715,8.451531860351562,1.6998831787109374,0.8259995727539062,0,0,0,0
1.4310464589943876,8.176198669433592,1.6304513305664061,0.737414111328125,0,0,0,0
1.4323186840047128,8.044517578125,1.6543933471679686,0.7661445312499999,0,0,0,0
1.4335033349925652,8.173804467773436,1.6831237670898436,0.8667010009765624,0,0,0,0
1.4346046360005857,8.413224633789062,1.66636435546875,1.3239935180664062,0,0,0,0
1.435847417000332,8.501810095214843,1.659181750488281,1.5322890624999999,0,0,0,0
1.4369782180001494,8.705317236328124,1.5251064575195312,1.7405846069335937,0,0,0,0
1.438226554004359,8.422801440429687,1.47482822265625,1.838746875,0,0,0,0
1.4393925949989352,8.327033374023436,1.3575123413085937,1.9105729248046874,0,0,0,0
1.4404889330035076,8.219294299316406,1.2210428466796874,1.8076222534179687,0,0,0,0
1.4415822890005074,8.097190014648437,1.2641384765625,1.5442600708007812,0,0,0,0
1.4427552379929693,8.142679846191406,1.3742717529296875,1.608903515625,0,0,0,0
1.443845464993501,8.1594392578125,1.1875240234375,1.4437036010742186,0,0,0,0
1.445058245997643,8.233659509277343,1.158793603515625,1.3670891479492187,0,0,0,0
1.4462461939983768,8.176198669433592,1.1947066284179686,1.3670891479492187,0,0,0,0
1.4473430130019551,8.111555224609374,1.2138602416992186,1.3024457031249999,0,0,0,0
1.4484949430043343,8.0828248046875,1.3072341064453123,1.24498486328125,0,0,0,0
1.4497495380055625,8.046911779785155,1.5131354492187499,1.3814543579101561,0,0,0,0
1.4509911710047163,8.032546569824218,1.5490484741210937,1.4149731811523436,0,0,0,0
1.4521900260006078,8.070853796386718,1.5562310791015623,1.3766659545898436,0,0,0,0
1.453363252003328,8.142679846191406,1.5466542724609373,1.3814543579101561,0,0,0,0
1.45452832999581,8.264784130859374,1.5562310791015623,1.3766659545898436,0,0,0,0
1.455818332004128,8.322244970703125,1.5107412475585937,1.3431471313476562,0,0,0,0
1.4570925570005784,8.427589843749999,1.4173673828125,1.3646949462890625,0,0,0,0
1.4582554310036357,8.544905725097657,1.3168109130859373,1.4030021728515625,0,0,0,0
1.4594246199994814,8.616731774902343,1.24498486328125,1.467645617675781,0,0,0,0
1.4607250859990017,8.640673791503906,1.2952630981445312,1.4173673828125,0,0,0,0
1.4619938840041868,8.602366564941406,1.0175357055664063,1.4006079711914061,0,0,0,0
1.4631704619969241,8.633491186523438,0.9552864624023437,1.3527239379882812,0,0,0,0
1.4643599470000481,8.63827958984375,0.8858546142578124,1.446097802734375,0,0,0,0
1.4656919669942,8.678981018066406,0.7757213378906249,1.4437036010742186,0,0,0,0
1.4670723759918474,8.875305554199219,0.699106884765625,1.4413093994140624,0,0,0,0
1.4683136749954429,9.004592443847656,0.8355763793945312,1.446097802734375,0,0,0,0
1.4695043450046796,9.054870678710937,0.9409212524414062,1.5849614990234373,0,0,0,0
1.4708119029965019,9.138667736816405,0.9313444458007812,1.5131354492187499,0,0,0,0
1.4721660340001108,9.270348828125,0.9241618408203125,1.47482822265625,0,0,0,0
1.473505739995744,9.303867651367186,0.9720458740234375,1.3838485595703125,0,0,0,0
1.4748365190025652,9.366116894531249,1.1013327636718748,1.3958195678710936,0,0,0,0
1.4760725959931733,9.473855969238281,1.1324573852539062,1.3646949462890625,0,0,0,0
1.4772465999994893,9.483432775878907,1.218648645019531,1.3048399047851562,0,0,0,0
1.4784941770049045,9.466673364257812,1.209071838378906,1.2497732666015624,0,0,0,0
1.4796172179921996,9.5001921875,1.158793603515625,1.3431471313476562,0,0,0,0
1.480717240992817,9.435548742675781,1.1061211669921875,1.3263877197265623,0,0,0,0
1.481938226002967,9.45470235595703,1.1540052001953125,1.158793603515625,0,0,0,0
1.48320134000096,9.191340173339842,1.1635820068359375,1.0773907470703123,0,0,0,0
1.4844699910026975,9.138667736816405,1.1923124267578125,1.024718310546875,0,0,0,0
1.4856324199936353,9.093177905273437,1.1133037719726562,1.0462661254882812,0,0,0,0
1.486728628995479,9.047688073730468,1.1228805786132812,1.1180921752929687,0,0,0,0
1.4878375779953785,9.03332286376953,1.0989385620117187,1.0606313354492187,0,0,0,0
1.4890569139970466,8.836998327636719,1.0366893188476562,1.0175357055664063,0,0,0,0
1.4903297319979174,8.86094034423828,0.967257470703125,1.0702081420898437,0,0,0,0
1.4915288649935974,8.88009395751953,0.8954314208984374,0.9935936889648437,0,0,0,0
1.49273834899941,8.872911352539061,0.8283937744140625,1.0031704956054688,0,0,0,0
1.4938347989955219,8.90643017578125,0.7637503295898437,1.0821791503906248,0,0,0,0
1.4951007640047465,9.160215551757812,0.6536170532226562,1.1085153686523437,0,0,0,0
1.496392080996884,9.208099584960937,0.6512228515624999,1.197100830078125,0,0,0,0
1.4975388449965976,9.311050256347656,0.699106884765625,1.1444283935546875,0,0,0,0
1.499517874995945,9.545682019042967,0.47884033203125,1.0558429321289062,0,0,0,0
1.50116222500219,9.572018237304688,0.59376201171875,1.0414777221679687,0,0,0,0
1.5023825239914004,9.627084875488281,0.5434837768554687,0.9337386474609375,0,0,0,0
1.5035126769944327,9.670180505371093,0.5363011718749999,0.852335791015625,0,0,0,0
1.5047589949972462,9.753977563476562,0.48123453369140623,0.82360537109375,0,0,0,0
1.5059147760039195,9.923965881347655,0.430956298828125,0.8020575561523438,0,0,0,0
1.5070067070046207,10.206481677246094,0.35673604736328124,0.8044517578125,0,0,0,0
1.5082753949973267,10.24718310546875,0.35194764404296874,0.6943184814453125,0,0,0,0
1.5094716390012763,10.307038146972655,0.2537853759765625,0.6081272216796875,0,0,0,0
1.5107033270032844,10.328585961914062,0.28490999755859375,0.612915625,0,0,0,0
1.5118582760042045,10.335768566894531,0.2442085693359375,0.5985504150390625,0,0,0,0
1.5133058499923209,10.436325036621094,0.21308394775390624,0.5243301635742187,0,0,0,0
1.5146147969935555,10.455478649902343,0.201112939453125,0.2154781494140625,0,0,0,0
1.5157777260028524,10.527304699707031,0.12689268798828124,0.15083470458984374,0,0,0,0
1.5168719719949877,10.419565624999999,0.13168109130859373,0.2657563842773437,0,0,0,0
1.5179417920007836,10.625466967773438,0.16998831787109375,0.143652099609375,0,0,0,0
1.5190147039975272,10.694898815917968,0.15562310791015624,0.16280571289062498,0,0,0,0
1.52027492900379,10.749965454101561,0.24899697265624998,0.1388636962890625,0,0,0,0
1.5214383589918725,10.728417639160156,0.34237083740234375,0.03591302490234375,0,0,0,0
1.5225696779962163,10.69968721923828,0.6584054565429687,0.028730419921875,0,0,0,0
1.5243900070054224,10.517727893066406,0.7278373046875,-0.009576806640625,0,0,0,0
1.5262815570022212,10.419565624999999,0.8930372192382812,0.02154781494140625,0,0,0,0
1.5280942200042773,10.175357055664062,0.8259995727539062,0.13646949462890623,0,0,0,0
1.5300560649920953,10.098742602539062,0.8212111694335937,0.18914193115234373,0,0,0,0
1.5312481430009939,9.981426721191406,0.7757213378906249,0.07422025146484375,0,0,0,0
1.5324039059923962,10.000580334472655,0.7230489013671875,0.15562310791015624,0,0,0,0
1.5335660769924289,9.952696301269532,0.5770026000976562,0.12210428466796874,0,0,0,0
1.5348647460050415,9.72285294189453,0.35194764404296874,0.07900865478515624,0,0,0,0
1.536181821997161,9.739612353515625,0.2154781494140625,0.08858546142578125,0,0,0,0
1.5374282499979017,9.737218151855469,0.12689268798828124,0.14125789794921875,0,0,0,0
1.5386388829938369,9.739612353515625,-0.00718260498046875,0.201112939453125,0,0,0,0
1.5397684799972922,9.708487731933593,-0.023942016601562498,0.3399766357421875,0,0,0,0
1.5410533899994334,9.65342109375,0.1197100830078125,0.3280056274414062,0,0,0,0
1.5422897079988616,9.543287817382812,0.17238251953125,0.3758896606445312,0,0,0,0
1.543368582992116,9.536105212402344,0.25139117431640623,0.2753331909179687,0,0,0,0
1.5444546429935144,9.516951599121093,0.2561795776367187,0.316034619140625,0,0,0,0
1.5455368520051707,9.421183532714844,0.296881005859375,0.22026655273437498,0,0,0,0
1.5467888550047064,9.368511096191405,-0.07422025146484375,0.19632453613281248,0,0,0,0
1.5480222839978524,9.411606726074218,-0.35673604736328124,0.29927520751953124,0,0,0,0
1.5492501020053169,9.557653027343749,-0.6775590698242188,0.3136404174804687,0,0,0,0
1.5503582539968193,9.739612353515625,-1.0342951171875,0.5051765502929687,0,0,0,0
1.5515659429947846,9.90241806640625,-1.24498486328125,0.5674257934570313,0,0,0,0
1.5527728720044252,10.029310754394531,-1.7980454467773437,0.5410895751953124,0,0,0,0
1.5538631730014458,10.39322940673828,-1.93451494140625,0.6105214233398437,0,0,0,0
1.555059695005184,10.527304699707031,-1.9584569580078124,0.6009446166992187,0,0,0,0
1.5562645869940752,10.560823522949217,-2.0278888061523435,0.6967126831054687,0,0,0,0
1.5575002200057497,10.59194814453125,-1.886630908203125,0.6679822631835937,0,0,0,0
1.55869626099593,10.568006127929687,-1.7334020019531249,0.6272808349609375,0,0,0,0
1.5598771160002798,10.407594616699217,-1.6256629272460936,0.6655880615234374,0,0,0,0
1.5610158420022344,10.414777221679687,-1.4796166259765624,0.70868369140625,0,0,0,0
1.5621131810039515,10.402806213378906,-1.4030021728515625,0.7062894897460937,0,0,0,0
1.5631925189954927,10.359710583496094,-1.3646949462890625,0.6416460449218749,0,0,0,0
1.5644089289999101,10.254365710449218,-1.2282254516601563,0.6560112548828124,0,0,0,0
1.5656013959960546,10.141838232421874,-1.1755530151367186,0.5386953735351562,0,0,0,0
1.566805028996896,9.885658654785155,-1.1707646118164061,0.5674257934570313,0,0,0,0
1.5680640319915256,9.686939916992188,-1.1468225952148436,0.63206923828125,0,0,0,0
1.5692522390017984,9.598354455566406,-1.16837041015625,0.7398083129882812,0,0,0,0
1.570451649997267,9.485826977539062,-1.20667763671875,0.7062894897460937,0,0,0,0
1.5716328019916546,9.433154541015625,-1.2306196533203124,0.7254431030273437,0,0,0,0
1.572829915996408,9.062053283691405,-1.2904746948242187,0.7254431030273437,0,0,0,0
1.5739532349980436,8.892064965820312,-1.3192051147460937,0.70868369140625,0,0,0,0
1.5750436469970737,8.702923034667968,-1.3742717529296875,0.6536170532226562,0,0,0,0
1.5761743180046324,8.540117321777343,-1.369483349609375,0.5027823486328125,0,0,0,0
1.5773675999953412,8.489839086914062,-1.3742717529296875,0.5027823486328125,0,0,0,0
1.578603029003716,8.434772448730468,-1.6735469604492186,0.5793968017578125,0,0,0,0
1.5797471620026045,8.394071020507813,-1.8195932617187498,0.6177040283203125,0,0,0,0
1.5808749260031618,8.748412866210938,-1.9584569580078124,0.6823474731445313,0,0,0,0
1.5819613200001186,8.889670764160156,-2.0063409912109376,0.74699091796875,0,0,0,0
1.5830392509960802,8.875305554199219,-2.039859814453125,0.612915625,0,0,0,0
1.5842956239939667,9.026140258789061,-2.123656872558594,0.737414111328125,0,0,0,0
1.585505886003375,9.18655177001953,-2.1164742675781247,0.8212111694335937,0,0,0,0
1.586740907994681,9.41639512939453,-2.1452046874999997,0.8571241943359375,0,0,0,0
1.5879244300012942,9.701305126953125,-2.042254016113281,0.9959878906249999,0,0,0,0
1.5895688540040283,9.835380419921874,-1.8411410766601561,1.0271125122070313,0,0,0,0
1.5910227239946835,9.938331091308592,-1.6711527587890624,1.1372457885742187,0,0,0,0
1.5923253380024107,10.213664282226562,-1.465251416015625,0.6009446166992187,0,0,0,0
1.5935085819946835,10.75714805908203,-2.114080065917969,0.4644751220703125,0,0,0,0
1.5946794000046793,10.472238061523436,-1.6160861206054686,0.9792284790039062,0,0,0,0
1.5958495149970986,10.50815108642578,-1.4245499877929686,0.7302315063476562,0,0,0,0
1.597020834000432,10.613495959472656,-1.4891934326171874,0.5410895751953124,0,0,0,0
1.5982769480033312,10.666168395996094,-1.4963760375976562,0.29448680419921874,0,0,0,0
1.5994838589977007,10.797849487304687,-1.5179238525390624,0.24899697265624998,0,0,0,0
1.600969081002404,10.915165368652342,-1.5825672973632812,0.19153613281249998,0,0,0,0
1.6021668059984222,10.941501586914061,-1.6807295654296874,0.1149216796875,0,0,0,0
1.6033251810004003,10.970232006835937,-1.8291700683593748,0.1580173095703125,0,0,0,0
1.6045077580056386,11.039663854980468,-1.9776105712890624,0.17477672119140625,0,0,0,0
1.6056844839913538,11.183315954589844,-2.061407629394531,0.2609679809570312,0,0,0,0
1.6067857479938539,11.068394274902342,-2.0278888061523435,0.2705447875976562,0,0,0,0
1.6078686050022952,11.080365283203124,-1.9752163696289062,0.1292868896484375,0,0,0,0
1.6089584059955087,11.133037719726563,-2.0183119995117185,0.14125789794921875,0,0,0,0
1.6100456519925501,10.922347973632812,-1.8842367065429686,0.4429273071289062,0,0,0,0
1.6115607249957975,10.939107385253905,-1.8626888916015625,0.45010991210937495,0,0,0,0
1.613497793005081,10.87206973876953,-1.7477672119140624,0.430956298828125,0,0,0,0
1.6146828710043337,10.98699141845703,-1.7094599853515624,0.5770026000976562,0,0,0,0
1.61586120800348,10.87206973876953,-1.7453730102539062,0.4740519287109375,0,0,0,0
1.6175096499937354,10.953472595214842,-1.599326708984375,0.45010991210937495,0,0,0,0
1.6199896930047544,10.888829150390624,-1.4867992309570313,0.32561142578124996,0,0,0,0
1.6217459489998873,11.020510241699219,-1.43652099609375,0.4740519287109375,0,0,0,0
1.623191801001667,11.030087048339842,-1.4820108276367188,0.6272808349609375,0,0,0,0
1.6245931909943465,11.128249316406249,-1.5969325073242187,0.622492431640625,0,0,0,0
1.6257244360022014,11.252747802734374,-1.7477672119140624,0.6943184814453125,0,0,0,0
1.6269991049921373,11.281478222656249,-1.889025109863281,0.7876923461914062,0,0,0,0
1.6282311270042555,11.322179650878905,-2.109291662597656,0.8978256225585937,0,0,0,0
1.6293881680030609,11.571176623535155,-2.1835119140624997,0.7350199096679687,0,0,0,0
1.6304861349926796,11.602301245117188,-1.9967641845703124,0.6727706665039062,0,0,0,0
1.631761323005776,11.396399902343749,-2.0733786376953125,0.7350199096679687,0,0,0,0
1.6329814929922577,11.56159981689453,-2.061407629394531,0.6440402465820312,0,0,0,0
1.6343134570051916,11.686098303222655,-1.8914193115234375,0.7757213378906249,0,0,0,0
1.635509016996366,11.645396875,-1.7669208251953124,0.6153098266601562,0,0,0,0
1.636618984004599,11.353304272460937,-1.6831237670898436,0.46686932373046874,0,0,0,0
1.6378004879952641,11.231199987792968,-1.5945383056640625,0.3854664672851562,0,0,0,0
1.6389165290020173,11.173739147949219,-1.5275006591796874,0.3327940307617187,0,0,0,0
1.6400556070002494,11.161768139648437,-1.5777788940429687,0.5865794067382812,0,0,0,0
1.641294592001941,11.111489904785156,-1.5562310791015623,0.49799394531249996,0,0,0,0
1.6424722249939805,11.058817468261719,-1.5466542724609373,0.36631285400390623,0,0,0,0
1.6436686179949902,10.728417639160156,-1.6112977172851561,0.4740519287109375,0,0,0,0
1.644899416991393,10.524910498046875,-1.5394716674804687,0.6464344482421874,0,0,0,0
1.646043735992862,10.283096130371094,-1.5322890624999999,0.7589619262695312,0,0,0,0
1.647316515998682,9.947907897949218,-1.4867992309570313,0.47165772705078124,0,0,0,0
1.6485283530055312,9.689334118652344,-1.2521674682617188,0.5243301635742187,0,0,0,0
1.6496304689935641,9.220070593261719,-1.2378022583007813,0.5003881469726562,0,0,0,0
1.6507106399949407,8.975862023925782,-1.197100830078125,0.49799394531249996,0,0,0,0
1.6517910340044182,8.781931689453124,-1.218648645019531,0.43574470214843747,0,0,0,0
1.653028054992319,8.552088330078124,-1.3431471313476562,0.40940848388671874,0,0,0,0
1.654312853992451,8.36294639892578,-1.2737152832031249,0.44053310546874996,0,0,0,0
1.6554413769918028,8.219294299316406,-1.5227122558593749,0.5051765502929687,0,0,0,0
1.656566826000926,8.034940771484374,-1.618480322265625,0.6272808349609375,0,0,0,0
1.6578062180051347,7.977479931640625,-1.6472107421875,0.63206923828125,0,0,0,0
1.6589208520017564,7.908048083496094,-1.6998831787109374,0.5746083984375,0,0,0,0
1.6600056899915216,7.898471276855468,-1.714248388671875,0.7637503295898437,0,0,0,0
1.661091009998927,7.915230688476562,-1.7334020019531249,0.7134720947265625,0,0,0,0
1.6621745140000712,7.948749511718749,-1.7118541870117185,0.9600748657226562,0,0,0,0
1.6633957400044892,8.027758166503906,-1.6448165405273436,0.8930372192382812,0,0,0,0
1.6645881320000626,8.240842114257813,-1.6400281372070311,0.8547299926757812,0,0,0,0
1.6657448769983603,8.336610180664062,-1.6256629272460936,0.9313444458007812,0,0,0,0
1.6668966959987301,8.508992700195313,-1.62805712890625,0.9217676391601562,0,0,0,0
1.6680199039983563,8.659827404785156,-1.5538368774414062,0.8259995727539062,0,0,0,0
1.6692878879985074,8.825027319335938,-1.4437036010742186,0.7709329345703124,0,0,0,0
1.6704572070011636,8.93755479736328,-1.5011644409179687,0.8283937744140625,0,0,0,0
1.6716926910012262,9.241618408203124,-1.5227122558593749,0.8092401611328125,0,0,0,0
1.673017840992543,9.435548742675781,-1.4772224243164063,0.6248866333007812,0,0,0,0
1.6742378439957974,9.516951599121093,-1.465251416015625,0.5003881469726562,0,0,0,0
1.6754863099922659,9.516951599121093,-1.467645617675781,0.4644751220703125,0,0,0,0
1.6766327579971403,9.753977563476562,-1.43652099609375,0.3591302490234375,0,0,0,0
1.677840964999632,9.78031378173828,-1.3718775512695311,0.3064578125,0,0,0,0
1.6789657659974182,9.787496386718749,-1.3311761230468748,0.181959326171875,0,0,0,0
1.68007919700176,9.988609326171874,-1.39821376953125,-0.06464344482421874,0,0,0,0
1.6813439950055908,10.137049829101562,-1.4508862060546874,-0.13168109130859373,0,0,0,0
1.6825174620025791,10.381258398437499,-1.2641384765625,-0.2537853759765625,0,0,0,0
1.6837157429981744,9.172186560058593,-0.47884033203125,0.6057330200195312,0,0,0,0
1.6848520070052473,9.907206469726562,-1.2378022583007813,0.11013327636718749,0,0,0,0
1.6859422519919463,9.967061511230469,-1.5873557006835937,-0.45489831542968745,0,0,0,0
1.687254716991447,10.005368737792969,-1.4341267944335936,-0.08140285644531249,0,0,0,0
1.688519442002871,10.0748005859375,-1.3934253662109375,-0.023942016601562498,0,0,0,0
1.6896193169959588,10.08677159423828,-1.3838485595703125,-0.040701428222656245,0,0,0,0
1.690739340003347,10.182539660644531,-1.429338391113281,-0.0047884033203125,0,0,0,0
1.691916529001901,10.232817895507813,-1.4939818359375,-0.009576806640625,0,0,0,0
1.6931769950024318,9.969455712890625,-1.4053963745117186,0.16998831787109375,0,0,0,0
1.6943581469968194,9.80665,-1.47482822265625,0.10773907470703124,0,0,0,0
1.6955528910038993,9.952696301269532,-1.4891934326171874,0.15322890625,0,0,0,0
1.6966947649925714,9.974244116210937,-1.467645617675781,0.16280571289062498,0,0,0,0
1.6977757699933136,9.928754284667969,-1.3407529296874998,0.16759411621093748,0,0,0,0
1.6988594790018396,9.907206469726562,-1.1420341918945311,0.19632453613281248,0,0,0,0
1.7003989969962277,10.0748005859375,-1.13006318359375,0.13168109130859373,0,0,0,0
1.701594981001108,10.031704956054687,-1.1013327636718748,0.16759411621093748,0,0,0,0
1.7027005970012397,10.002974536132811,-1.2138602416992186,0.22744915771484372,0,0,0,0
1.7038829709927086,10.019733947753906,-1.1659762084960936,0.18914193115234373,0,0,0,0
1.7050252350018127,9.945513696289062,-1.2138602416992186,0.05985504150390625,0,0,0,0
1.7065226050035562,9.83777462158203,-1.199495031738281,0.16041151123046873,0,0,0,0
1.7077846259926446,9.79946739501953,-1.197100830078125,0.13168109130859373,0,0,0,0
1.7088787599932402,9.847351428222655,-1.177947216796875,0.14125789794921875,0,0,0,0
1.709958949999418,9.785102185058593,-1.2138602416992186,0.12689268798828124,0,0,0,0
1.711036658991361,9.852139831542969,-1.1516109985351561,0.1580173095703125,0,0,0,0
1.7121168309968198,9.861716638183593,-1.0773907470703123,0.17477672119140625,0,0,0,0
1.713634293002542,9.816226806640625,-1.0606313354492187,0.17238251953125,0,0,0,0
1.71487505499681,9.785102185058593,-0.9840168823242187,0.26815058593749996,0,0,0,0
1.7159691900014877,9.727641345214844,-0.8667010009765624,0.2059013427734375,0,0,0,0
1.7170579170051496,9.794678991699218,-0.7685387329101562,0.181959326171875,0,0,0,0
1.7182470679981634,9.794678991699218,-0.852335791015625,0.17238251953125,0,0,0,0
1.7197274939971976,9.809044201660155,-0.8451531860351562,-0.07900865478515624,0,0,0,0
1.7210395330039319,9.8449572265625,-0.928950244140625,-0.07422025146484375,0,0,0,0
1.722133852992556,9.878476049804688,-0.9241618408203125,0.0,0,0,0,0
1.7232137469982263,9.897629663085937,-0.9600748657226562,0.00239420166015625,0,0,0,0
1.7243160479993094,9.868899243164062,-1.0702081420898437,0.0718260498046875,0,0,0,0
1.7259491010045167,9.847351428222655,-1.120486376953125,0.0430956298828125,0,0,0,0
1.7271216420049313,9.840168823242188,-1.0295067138671874,0.14125789794921875,0,0,0,0
1.7282649609987857,9.832986218261718,-0.9983820922851562,0.17477672119140625,0,0,0,0
1.7293834279989824,9.86411083984375,-0.9361328491210937,0.201112939453125,0,0,0,0
1.7310283520055236,9.847351428222655,-0.9600748657226562,0.09576806640624999,0,0,0,0
1.7321921340044355,9.80665,-0.8954314208984374,0.07422025146484375,0,0,0,0
1.7332864530035295,9.74200655517578,-0.8930372192382812,0.1867477294921875,0,0,0,0
1.7343691059941193,9.758765966796874,-0.8643067993164062,0.16041151123046873,0,0,0,0
1.7359355869994033,9.765948571777344,-0.7565677246093749,0.0909796630859375,0,0,0,0
1.7371046089974698,9.746794958496093,-0.8259995727539062,0.09816226806640624,0,0,0,0
1.738196631995379,9.682151513671874,-0.8259995727539062,0.16280571289062498,0,0,0,0
1.7392791000020225,9.593566052246093,-0.8044517578125,0.1197100830078125,0,0,0,0
1.740843320993008,9.65342109375,-0.7422025146484375,0.2920926025390625,0,0,0,0
1.7420087509963196,9.662997900390625,-0.7685387329101562,0.0718260498046875,0,0,0,0
1.7430961259960895,9.679757312011718,-0.8020575561523438,0.09816226806640624,0,0,0,0
1.744425794997369,9.64623848876953,-0.82360537109375,0.17956512451171874,0,0,0,0
1.746038885001326,9.6917283203125,-0.8355763793945312,0.17477672119140625,0,0,0,0
1.747207148000598,9.744400756835937,-0.8188169677734375,0.2154781494140625,0,0,0,0
1.7483878740022192,9.79946739501953,-0.8044517578125,0.17956512451171874,0,0,0,0
1.7511205990012968,9.890447058105469,-0.7733271362304687,0.35194764404296874,0,0,0,0
1.7525660259998403,10.041281762695311,-0.7685387329101562,0.29448680419921874,0,0,0,0
1.7537977320025675,10.070012182617187,-0.8379705810546875,0.229843359375,0,0,0,0
1.754944977001287,10.05564697265625,-0.8020575561523438,0.4261678955078125,0,0,0,0
1.7560484999994515,10.108319409179687,-0.8092401611328125,0.7230489013671875,0,0,0,0
1.7571425979986088,10.390835205078124,-0.6344634399414062,0.7158662963867187,0,0,0,0
1.7583622859965544,10.139444030761718,-0.8714894042968749,0.13646949462890623,0,0,0,0
1.7595579009939684,10.225635290527343,-0.9864110839843749,-0.28012159423828126,0,0,0,0
1.7606925159925595,10.347739575195313,-1.0414777221679687,-0.2920926025390625,0,0,0,0
1.7617832429968985,10.297461340332031,-1.0749965454101562,0.06464344482421874,0,0,0,0
1.7628716549952514,10.196904870605469,-1.1180921752929687,0.3327940307617187,0,0,0,0
1.7641198799974518,10.05564697265625,-0.9864110839843749,0.35673604736328124,0,0,0,0
1.7656283609976526,9.986215124511718,-0.8643067993164062,0.1771709228515625,0,0,0,0
1.7667494769993937,10.1131078125,-0.8044517578125,0.10295067138671875,0,0,0,0
1.7678646290005418,10.330980163574218,-0.6607996582031249,0.34237083740234375,0,0,0,0
1.7691044099919964,10.505756884765624,-0.5698199951171875,0.3711012573242187,0,0,0,0
1.7702750989992637,10.637437976074217,-0.5410895751953124,0.2825157958984375,0,0,0,0
1.7713667890056968,10.826579907226561,-0.6272808349609375,0.19632453613281248,0,0,0,0
1.772460719992523,10.781090075683593,-0.679953271484375,0.06703764648437499,0,0,0,0
1.7735521129943663,10.678139404296875,-0.7972691528320313,0.12449848632812499,0,0,0,0
1.7748068749933736,10.635043774414061,-0.9217676391601562,0.21787235107421873,0,0,0,0
1.7759262689942261,10.565611926269531,-0.9744400756835937,0.39743747558593745,0,0,0,0
1.777023699003621,10.534487304687499,-0.7972691528320313,0.45968671875,0,0,0,0
1.778113223001128,10.62307276611328,-0.9145850341796874,0.36152445068359373,0,0,0,0
1.7792050790012581,10.69968721923828,-0.93852705078125,0.2825157958984375,0,0,0,0
1.7804260269913357,10.675745202636719,-0.9337386474609375,0.2705447875976562,0,0,0,0
1.7820101550023537,10.666168395996094,-1.0271125122070313,0.3447650390625,0,0,0,0
1.783336471999064,10.493785876464843,-1.1061211669921875,0.3687070556640625,0,0,0,0
1.7845222350006225,10.51533369140625,-1.149216796875,0.45968671875,0,0,0,0
1.7857236819982063,10.398017810058594,-1.1252747802734375,0.4070142822265625,0,0,0,0
1.7868799639982171,10.350133776855468,-1.1252747802734375,0.5219359619140624,0,0,0,0
1.7879810059966985,10.314220751953124,-1.1252747802734375,0.5889736083984375,0,0,0,0
1.7890726219920907,10.273519323730468,-1.1516109985351561,0.622492431640625,0,0,0,0
1.7901627559913322,10.232817895507813,-1.1180921752929687,0.6272808349609375,0,0,0,0
1.7913665740052238,10.180145458984374,-1.0941501586914062,0.6081272216796875,0,0,0,0
1.7928914069925668,10.160991845703125,-1.0582371337890624,0.7517793212890624,0,0,0,0
1.7941175209998619,10.13226142578125,-0.9864110839843749,0.7445967163085937,0,0,0,0
1.7955893729958916,10.034099157714843,-0.97683427734375,0.6703764648437499,0,0,0,0
1.796698081001523,10.043675964355469,-0.9337386474609375,0.7398083129882812,0,0,0,0
1.7978844369936269,9.94072529296875,-0.9169792358398436,0.7206546997070312,0,0,0,0
1.7990394590015057,9.935936889648437,-0.814028564453125,0.6584054565429687,0,0,0,0
1.8009322870057076,9.78031378173828,-0.9026140258789062,0.6464344482421874,0,0,0,0
1.8030822970031295,9.770736975097655,-0.737414111328125,0.5626373901367188,0,0,0,0
1.8043561520025833,9.679757312011718,-0.7829039428710937,0.6057330200195312,0,0,0,0
1.8055266000010306,9.686939916992188,-0.7493851196289062,0.5123591552734374,0,0,0,0
1.8066198830056237,9.555258825683593,-0.7230489013671875,0.44532150878906246,0,0,0,0
1.8077067580015864,9.528922607421874,-0.7829039428710937,0.5386953735351562,0,0,0,0
1.8092770899966126,9.521740002441407,-0.7613561279296874,0.5243301635742187,0,0,0,0
1.810471167002106,9.481038574218749,-0.7445967163085937,0.5243301635742187,0,0,0,0
1.8115623019984923,9.552864624023437,-0.7422025146484375,0.5386953735351562,0,0,0,0
1.812672158004716,9.519345800781249,-0.8092401611328125,0.5410895751953124,0,0,0,0
1.8141744540043874,9.581595043945311,-0.8930372192382812,0.5506663818359374,0,0,0,0
