Time (s),Accel X1,Accel Y1,Accel Z1,Accel X2,Accel Y2,Accel Z2
0.00010490600016055396,0,0,1.235408056640625,0,0,0.9953125
0.0038091409996923176,0,0,1.3575123413085937,0,0,0.9187500000000001
0.007473876999938511,0,0,1.446097802734375,0,0,0.3828125
0.011207370000192896,0,0,1.7956512451171873,0,0,0.6125
0.01492097600021225,0,0,1.3000515014648437,0,0,0.9953125
0.018638692000422452,0,0,1.4867992309570313,0,0,0.9187500000000001
0.022351223000441678,0,0,1.3144167114257812,0,0,0.9953125
0.026142161000279884,0,0,1.350329736328125,0,0,832.8468750000001
0.03010165199975745,0,0,1.2617442749023438,0,0,0.9187500000000001
0.03383640500032925,0,0,1.369483349609375,0,0,1.225
0.03755669499969372,0,0,1.2713210815429687,0,0,0.22968750000000002
0.04126026300036756,0,0,1.4006079711914061,0,0,0.9187500000000001
0.04491562800012616,0,0,1.216254443359375,0,0,0.6125
0.04859452999971836,0,0,1.4772224243164063,0,0,0.765625
0.05250566999984585,0,0,1.4628572143554686,0,0,0.765625
0.05578920600055426,0,0,1.4796166259765624,0,0,1.6843750000000002
0.05902546500055905,0,0,1.4317325927734375,0,0,0.9953125
0.062295704999996815,0,0,1.3120225097656248,0,0,0.9187500000000001
0.06629606600017723,0,0,1.2689268798828124,0,0,-852.8296875000001
0.06996506100040278,0,0,1.3120225097656248,0,0,0.9953125
0.07320202299979428,0,0,1.2928688964843749,0,0,1.0718750000000001
0.07672450100017159,0,0,1.5251064575195312,0,0,1.378125
0.08056629000020621,0,0,1.6639701538085936,0,0,0.9187500000000001
0.08401852800034249,0,0,1.2880804931640624,0,0,0.30625
0.08749222799997369,0,0,1.467645617675781,0,0,1.4546875000000001
0.0909399480005959,0,0,1.5849614990234373,0,0,0.8421875000000001
0.09459631299978355,0,0,1.0941501586914062,0,0,0.3828125
0.09814119800012122,0,0,1.3934253662109375,0,0,0.0765625
0.10164050900039001,0,0,1.465251416015625,0,0,0.765625
0.10510898800021096,0,0,1.1420341918945311,0,0,0.45937500000000003
0.10863770600008138,0,0,1.5059528442382812,0,0,1.1484375
0.11208879600053478,0,0,1.455674609375,0,0,0.6890625
0.11558234800031641,0,0,1.2737152832031249,0,0,1.225
0.11914277000050788,0,0,1.407790576171875,0,0,0.765625
0.12260917399999016,0,0,1.369483349609375,0,0,0.8421875000000001
0.12602222700024868,0,0,1.235408056640625,0,0,1.378125
0.1295717600005446,0,0,1.22583125,0,0,0.765625
0.13308796000001166,0,0,1.1180921752929687,0,0,0.765625
0.1366027900003246,0,0,1.39821376953125,0,0,0.6125
0.141227883999818,0,0,1.4915876342773438,0,0,0.45937500000000003
0.14499335900018195,0,0,1.13006318359375,0,0,0.5359375000000001
0.1486653350002598,0,0,1.5227122558593749,0,0,0.3828125
0.15111238100053015,0,0,1.5179238525390624,0,0,0.9953125
0.15298885999982303,0,0,1.22583125,0,0,0.9953125
0.1546884509998563,0,0,1.2330138549804688,0,0,0.6890625
0.15653102200030844,0,0,1.4101847778320311,0,0,0.5359375000000001
0.1582403170004909,0,0,1.4341267944335936,0,0,0.153125
0.16007220299979963,0,0,1.2330138549804688,0,0,0.9187500000000001
0.16169129599984444,0,0,1.455674609375,0,0,0.8421875000000001
0.1633706100001291,0,0,1.2928688964843749,0,0,0.8421875000000001
0.16498157299974991,0,0,1.218648645019531,0,0,0.6125
0.1665229440004623,0,0,1.3000515014648437,0,0,0.6125
0.16806975899999088,0,0,1.2928688964843749,0,0,832.69375
0.16968372199971782,0,0,1.3120225097656248,0,0,0.6125
0.17130509199978405,0,0,1.5849614990234373,0,0,1.225
0.17330940200008627,0,0,1.2425906616210938,0,0,0.9187500000000001
0.17522006499984855,0,0,1.1252747802734375,0,0,0.6125
0.17694134199973632,0,0,1.4149731811523436,0,0,0.765625
0.1785633230001622,0,0,1.5059528442382812,0,0,0.6125
0.1801217860001998,0,0,1.3742717529296875,0,0,0.6125
0.181712472000072,0,0,1.5849614990234373,0,0,0.6125
0.18345332199987752,0,0,1.3958195678710936,0,0,0.45937500000000003
0.18502254400027596,0,0,1.2521674682617188,0,0,0.6125
0.18670072900022205,0,0,1.3263877197265623,0,0,0.5359375000000001
0.1884144309997282,0,0,1.4437036010742186,0,0,0.6125
0.19032766800046375,0,0,1.4796166259765624,0,0,0.9187500000000001
0.19200207500034594,0,0,1.5801730957031248,0,0,1.1484375
0.19355866800015065,0,0,1.3096283081054687,0,0,0.9187500000000001
0.19519640799990157,0,0,1.2042834350585936,0,0,0.6890625
0.1969801280001775,0,0,1.5227122558593749,0,0,0.5359375000000001
0.19854598100027943,0,0,1.4604630126953124,0,0,0.3828125
0.20041932900039683,0,0,1.5227122558593749,0,0,1.0718750000000001
0.20206953199976851,0,0,1.5777788940429687,0,0,0.9953125
0.20362331100022857,0,0,1.2904746948242187,0,0,0.9187500000000001
0.2053689200001827,0,0,1.3311761230468748,0,0,0.6125
0.20709115899990138,0,0,1.3766659545898436,0,0,0.5359375000000001
0.20865373400010867,0,0,1.4796166259765624,0,0,0.6125
0.21030499300013616,0,0,1.2832920898437499,0,0,0.9953125
0.2119339549999495,0,0,1.656787548828125,0,0,1.0718750000000001
0.21349265899971215,0,0,1.2569558715820313,0,0,1.3015625000000002
0.21522495400040498,0,0,0.9744400756835937,0,0,0.8421875000000001
0.21694954499980668,0,0,1.465251416015625,0,0,0.8421875000000001
0.21854649000033533,0,0,1.5322890624999999,0,0,0.6890625
0.22020424800030014,0,0,1.455674609375,0,0,0.8421875000000001
0.22181071100021654,0,0,1.5945383056640625,0,0,0.9953125
0.22338584099998116,0,0,1.3527239379882812,0,0,0.9187500000000001
0.22503024799971172,0,0,1.0965443603515623,0,0,0.6125
0.22666502599986416,0,0,1.3670891479492187,0,0,0.30625
0.22827767400031007,0,0,1.3000515014648437,0,0,0.0765625
0.23003733800032933,0,0,1.3359645263671873,0,0,0.8421875000000001
0.23185213200031285,0,0,1.6065093139648436,0,0,0.9187500000000001
0.23354118699990067,0,0,1.39821376953125,0,0,0.6890625
0.23522829700050352,0,0,1.0869675537109373,0,0,0.6125
0.23697009199986496,0,0,1.2952630981445312,0,0,0.45937500000000003
0.23862446099974477,0,0,1.4963760375976562,0,0,0.45937500000000003
0.2401899989999947,0,0,1.22583125,0,0,0.8421875000000001
0.24178985100024875,0,0,1.707065783691406,0,0,0.153125
0.24342935000004218,0,0,1.3910311645507811,0,0,0.8421875000000001
0.2450805720000062,0,0,1.0271125122070313,0,0,0.6125
0.2467657560000589,0,0,1.4413093994140624,0,0,0.45937500000000003
0.2484705329998178,0,0,1.5155296508789062,0,0,832.69375
0.25016016100016714,0,0,1.254561669921875,0,0,0.6890625
0.25177501300004224,0,0,1.5729904907226562,0,0,0.5359375000000001
0.25343084599990107,0,0,1.4173673828125,0,0,0.6890625
0.2550435120001566,0,0,1.1013327636718748,0,0,0.6890625
0.2566167900004075,0,0,1.458068811035156,0,0,0.6125
0.2582548640002642,0,0,1.446097802734375,0,0,-9.723437500000001
0.2598593640004765,0,0,1.2928688964843749,0,0,0.3828125
0.26148438200016244,0,0,1.6543933471679686,0,0,0.5359375000000001
0.2631942699999854,0,0,1.3646949462890625,0,0,0.8421875000000001
0.2648663800000577,0,0,1.2114660400390624,0,0,0.6125
0.26652267600002233,0,0,1.3670891479492187,0,0,0.8421875000000001
0.2682602479999332,0,0,1.2521674682617188,0,0,0.5359375000000001
0.26989771100033977,0,0,1.3359645263671873,0,0,0.45937500000000003
0.27153509900017525,0,0,1.6519991455078125,0,0,0.6890625
0.2735188910000943,0,0,1.3215993164062498,0,0,1.0718750000000001
0.2751926490000187,0,0,0.9983820922851562,0,0,0.8421875000000001
0.27674835400011943,0,0,1.4221557861328125,0,0,0.45937500000000003
0.2785926100004872,0,0,1.4221557861328125,0,0,0.6125
0.28033407099974283,0,0,1.2569558715820313,0,0,0.8421875000000001
0.28214912400017056,0,0,1.6519991455078125,0,0,1.0718750000000001
0.28385669700037397,0,0,1.3958195678710936,0,0,0.765625
0.28544408600009774,0,0,1.2521674682617188,0,0,0.6890625
0.28704549400026735,0,0,1.2425906616210938,0,0,0.6125
0.2886969190003583,0,0,1.4891934326171874,0,0,0.0
0.29025827100031165,0,0,1.369483349609375,0,0,0.30625
0.2919498809997094,0,0,1.5945383056640625,0,0,0.9953125
0.29363167700012127,0,0,1.3263877197265623,0,0,0.9187500000000001
0.2951963249997789,0,0,1.0941501586914062,0,0,0.8421875000000001
0.29674958499981585,0,0,1.3575123413085937,0,0,0.6125
0.29844895400037785,0,0,1.4437036010742186,0,0,0.0
0.3000714360005077,0,0,1.2569558715820313,0,0,0.0
0.30162473200016393,0,0,1.7022773803710936,0,0,0.8421875000000001
0.3033966009998039,0,0,1.3862427612304686,0,0,0.8421875000000001
0.3051055619998806,0,0,1.1540052001953125,0,0,0.9187500000000001
0.30671109900049487,0,0,1.4987702392578124,0,0,0.6890625
0.3084054130004006,0,0,1.4604630126953124,0,0,832.69375
0.3100953570001366,0,0,1.3742717529296875,0,0,0.45937500000000003
0.31164865299979283,0,0,1.6328455322265625,0,0,0.6125
0.3133568370003559,0,0,1.3958195678710936,0,0,0.6125
0.3150285769997936,0,0,1.13006318359375,0,0,0.765625
0.3167001319998235,0,0,1.3838485595703125,0,0,0.3828125
0.31835805700029596,0,0,1.3958195678710936,0,0,-852.8296875000001
0.32009553700027027,0,0,1.4987702392578124,0,0,0.3828125
0.32188064599995414,0,0,1.5729904907226562,0,0,0.6125
0.3236582549998275,0,0,1.3575123413085937,0,0,0.45937500000000003
0.3253406800004086,0,0,1.0893617553710937,0,0,0.6125
0.32704030900004,0,0,1.4724340209960938,0,0,1.8375000000000001
0.32931315299993,0,0,1.5203180541992187,0,0,1.53125
0.3312768710002274,0,0,1.2593500732421874,0,0,0.9953125
0.3330883680000625,0,0,1.3407529296874998,0,0,0.5359375000000001
0.33510767799998575,0,0,1.0989385620117187,0,0,0.45937500000000003
0.33680108499993366,0,0,1.3623007446289062,0,0,0.5359375000000001
0.3392713150005875,0,0,1.3934253662109375,0,0,1.53125
0.3409684810003455,0,0,1.3551181396484375,0,0,1.1484375
0.3425345739997283,0,0,1.2593500732421874,0,0,0.8421875000000001
0.34413651800059597,0,0,1.3263877197265623,0,0,0.6125
0.3457674990004307,0,0,1.3192051147460937,0,0,0.5359375000000001
0.34731698100040376,0,0,1.4628572143554686,0,0,0.45937500000000003
0.3491743670001597,0,0,1.4796166259765624,0,0,1.4546875000000001
0.3508869400002368,0,0,1.3455413330078123,0,0,0.6125
0.3525202179998814,0,0,1.3407529296874998,0,0,0.9953125
0.3540799029997288,0,0,1.5155296508789062,0,0,0.6890625
0.3556930699996883,0,0,1.3958195678710936,0,0,0.8421875000000001
0.3586932389998765,0,0,1.4772224243164063,0,0,0.0
0.36257202700016933,0,0,1.3623007446289062,0,0,0.765625
0.364849186000356,0,0,1.2785036865234374,0,0,1.0718750000000001
0.3678333919997385,0,0,1.2713210815429687,0,0,1.3015625000000002
0.3696375569998054,0,0,1.2976572998046874,0,0,1.378125
0.3711975389996951,0,0,1.5107412475585937,0,0,0.765625
0.37316488600026787,0,0,1.2378022583007813,0,0,0.6125
0.374879940000028,0,0,1.180341418457031,0,0,0.8421875000000001
0.37654664300043805,0,0,1.3407529296874998,0,0,0.8421875000000001
0.3781571800000165,0,0,1.5251064575195312,0,0,1.0718750000000001
0.3797524399997201,0,0,1.407790576171875,0,0,0.8421875000000001
0.381437253000513,0,0,1.6304513305664061,0,0,0.765625
0.3831335860004401,0,0,1.3646949462890625,0,0,0.6125
0.3847971780005537,0,0,1.2018892333984375,0,0,2.45
0.3865093610002077,0,0,1.2976572998046874,0,0,0.8421875000000001
0.3881529159998536,0,0,1.3072341064453123,0,0,1.0718750000000001
0.3897955640004511,0,0,1.3575123413085937,0,0,0.765625
0.3917925779996949,0,0,1.618480322265625,0,0,0.6125
0.3935555759999261,0,0,1.3455413330078123,0,0,0.8421875000000001
0.39512390999971103,0,0,1.2617442749023438,0,0,0.765625
0.39679189100024814,0,0,1.3527239379882812,0,0,0.6890625
0.3984972779999225,0,0,1.4532804077148436,0,0,0.0
0.40018977700037794,0,0,1.446097802734375,0,0,0.3828125
0.4018012960004853,0,0,1.668758557128906,0,0,0.765625
0.4036154229997919,0,0,1.37906015625,0,0,0.9187500000000001
0.40538386499974877,0,0,1.0845733520507812,0,0,0.8421875000000001
0.4070229199996902,0,0,1.2785036865234374,0,0,0.765625
0.4085792539999602,0,0,1.4532804077148436,0,0,0.0
0.41012286600016523,0,0,1.429338391113281,0,0,0.22968750000000002
0.4117176070003552,0,0,1.5873557006835937,0,0,0.6890625
0.4140740240000014,0,0,1.3120225097656248,0,0,0.8421875000000001
0.41586607699991873,0,0,1.1444283935546875,0,0,0.5359375000000001
0.4174847439999212,0,0,1.3646949462890625,0,0,0.9187500000000001
0.4193700000005265,0,0,1.4772224243164063,0,0,1.0718750000000001
0.42097362900040025,0,0,1.4413093994140624,0,0,1.0718750000000001
0.42253718499978277,0,0,1.3910311645507811,0,0,1.0718750000000001
0.4242186290002792,0,0,1.3192051147460937,0,0,0.45937500000000003
0.4263706040001125,0,0,1.3072341064453123,0,0,1.225
0.42821641600039584,0,0,1.2761094848632812,0,0,1.225
0.4298798230001921,0,0,1.3335703247070312,0,0,0.765625
0.4314562669997031,0,0,1.659181750488281,0,0,0.765625
0.4330049529999087,0,0,1.4796166259765624,0,0,0.9187500000000001
0.4346140830002696,0,0,1.197100830078125,0,0,0.6890625
0.4362715819997902,0,0,1.1516109985351561,0,0,0.765625
0.4378884340003424,0,0,1.465251416015625,0,0,0.9187500000000001
0.4394453419999991,0,0,1.4628572143554686,0,0,0.9953125
0.4411479890004557,0,0,1.2521674682617188,0,0,2.0671875
0.44277259899990895,0,0,1.37906015625,0,0,1.225
0.4443554139998014,0,0,1.3670891479492187,0,0,0.5359375000000001
0.4462178190005943,0,0,1.1947066284179686,0,0,0.9187500000000001
0.448174778000066,0,0,1.2904746948242187,0,0,1.4546875000000001
0.4498877390005873,0,0,1.39821376953125,0,0,1.0718750000000001
0.4516858480001247,0,0,1.4867992309570313,0,0,0.6125
0.45332714400046825,0,0,1.429338391113281,0,0,1.0718750000000001
0.45494264399985695,0,0,1.2306196533203124,0,0,0.9187500000000001
0.4566641979999986,0,0,1.3766659545898436,0,0,0.8421875000000001
0.45826062400010414,0,0,1.235408056640625,0,0,1.8375000000000001
0.45986701299989363,0,0,1.4939818359375,0,0,0.8421875000000001
0.4615746230001605,0,0,1.5825672973632812,0,0,0.30625
0.46316621500045585,0,0,1.5203180541992187,0,0,0.9187500000000001
0.4647248640003454,0,0,1.2306196533203124,0,0,0.6890625
0.4664034190000166,0,0,1.2330138549804688,0,0,1.0718750000000001
0.4680530480000016,0,0,1.2856862915039062,0,0,1.53125
0.46966619599970727,0,0,1.4006079711914061,0,0,1.4546875000000001
0.4713091949997761,0,0,1.3575123413085937,0,0,0.8421875000000001
0.4729528799998661,0,0,1.4125789794921875,0,0,0.765625
0.47452086199973564,0,0,1.20667763671875,0,0,0.6890625
0.476757077000002,0,0,1.4006079711914061,0,0,1.0718750000000001
0.4785675559996889,0,0,1.407790576171875,0,0,0.8421875000000001
0.480373590000454,0,0,1.4317325927734375,0,0,0.30625
0.48200895999980276,0,0,1.675941162109375,0,0,0.6890625
0.48384382800031744,0,0,1.3431471313476562,0,0,0.765625
0.485682954999902,0,0,1.1755530151367186,0,0,0.765625
0.48729295500015724,0,0,1.3431471313476562,0,0,0.5359375000000001
0.4890992299997379,0,0,1.2952630981445312,0,0,832.8468750000001
0.4908322290002616,0,0,1.3168109130859373,0,0,0.6890625
0.492427580000367,0,0,1.3910311645507811,0,0,0.9953125
0.49411502400016616,0,0,1.3287819213867187,0,0,0.765625
0.49582389300030627,0,0,1.2473790649414063,0,0,0.765625
0.4974764670005243,0,0,1.426944189453125,0,0,0.22968750000000002
0.4992614640004831,0,0,1.3934253662109375,0,0,1.0718750000000001
0.5061094780003259,0,0,1.2210428466796874,0,0,0.5359375000000001
0.508033641000111,0,0,1.5203180541992187,0,0,1.225
0.5096588810001776,0,0,1.4700398193359374,0,0,1.0718750000000001
0.5112189190003846,0,0,1.3072341064453123,0,0,1.1484375
0.512810697000532,0,0,1.5227122558593749,0,0,0.765625
0.5152837050000016,0,0,1.2330138549804688,0,0,0.9953125
0.5169027419997292,0,0,1.37906015625,0,0,0.9187500000000001
0.518869366999752,0,0,1.3958195678710936,0,0,-853.1359375000001
0.5207633449999776,0,0,1.2880804931640624,0,0,0.9187500000000001
0.522567158000129,0,0,1.407790576171875,0,0,0.9953125
0.5249455929997566,0,0,1.3072341064453123,0,0,0.9187500000000001
0.526701869000135,0,0,1.35990654296875,0,0,0.9953125
0.5283585719998882,0,0,1.4317325927734375,0,0,1.6843750000000002
0.5303095310000572,0,0,1.37906015625,0,0,1.225
0.5319659750002756,0,0,1.6352397338867186,0,0,0.5359375000000001
0.533529123000335,0,0,1.3263877197265623,0,0,0.8421875000000001
0.5350754569999481,0,0,1.3455413330078123,0,0,1.0718750000000001
0.5369983059999868,0,0,1.3934253662109375,0,0,0.8421875000000001
0.5387519329997303,0,0,1.4053963745117186,0,0,0.9953125
0.5403298780001933,0,0,1.4245499877929686,0,0,1.0718750000000001
0.5419290999998339,0,0,1.5179238525390624,0,0,0.6125
0.5437054129997705,0,0,1.158793603515625,0,0,0.9187500000000001
0.5453362460002609,0,0,1.2737152832031249,0,0,0.8421875000000001
0.546960950000539,0,0,1.4006079711914061,0,0,1.0718750000000001
0.5487237070001356,0,0,1.4939818359375,0,0,1.1484375
0.5504098359997442,0,0,1.6017209106445311,0,0,1.0718750000000001
0.5520322800002759,0,0,1.6831237670898436,0,0,0.6890625
0.5538400920004278,0,0,1.3263877197265623,0,0,0.765625
0.5554993880004986,0,0,1.13006318359375,0,0,0.6125
0.55721466399973,0,0,1.3144167114257812,0,0,0.6890625
0.5590862170001856,0,0,1.2425906616210938,0,0,832.69375
0.5607405860000654,0,0,1.2282254516601563,0,0,0.0
0.5623082720003367,0,0,1.5753846923828123,0,0,0.6890625
0.5640811590001249,0,0,1.2401964599609374,0,0,0.8421875000000001
0.5657184729998335,0,0,1.177947216796875,0,0,0.9953125
0.5673271400000885,0,0,1.5227122558593749,0,0,0.6125
0.5691002490002575,0,0,1.2378022583007813,0,0,-852.8296875000001
0.5707123040001534,0,0,1.3431471313476562,0,0,0.0765625
0.5723880440000357,0,0,1.6831237670898436,0,0,0.5359375000000001
0.5739676000002873,0,0,1.24498486328125,0,0,0.9953125
0.5755130269999427,0,0,1.2138602416992186,0,0,0.765625
0.5771618589997161,0,0,1.3766659545898436,0,0,0.8421875000000001
0.5789064689997758,0,0,1.4125789794921875,0,0,0.9953125
0.5805196350002007,0,0,1.2401964599609374,0,0,0.765625
0.5821703390001858,0,0,1.426944189453125,0,0,0.6890625
0.5841669450001064,0,0,1.3623007446289062,0,0,0.8421875000000001
0.5858078150004076,0,0,1.1348515869140625,0,0,0.9187500000000001
0.587456203000329,0,0,1.2737152832031249,0,0,0.6125
0.5890318890005801,0,0,1.3527239379882812,0,0,-8.8046875
0.590678833000311,0,0,1.2401964599609374,0,0,0.22968750000000002
0.5923894240004302,0,0,1.5490484741210937,0,0,0.6125
0.5939667390002796,0,0,1.2689268798828124,0,0,0.9187500000000001
0.5955145730004006,0,0,1.1516109985351561,0,0,0.9187500000000001
0.5970665740005643,0,0,1.3144167114257812,0,0,0.9187500000000001
0.5987114990002738,0,0,1.35990654296875,0,0,1.8375000000000001
0.6003717020003023,0,0,1.458068811035156,0,0,1.1484375
0.6020233130002453,0,0,1.5514426757812498,0,0,0.765625
0.6036696270002722,0,0,1.3311761230468748,0,0,0.9187500000000001
0.6053335890001108,0,0,1.3814543579101561,0,0,1.0718750000000001
0.6071946970005229,0,0,1.3120225097656248,0,0,0.765625
0.6088980290005566,0,0,1.3646949462890625,0,0,1.225
0.610694267999861,0,0,1.3359645263671873,0,0,0.22968750000000002
0.6124343589999626,0,0,1.4413093994140624,0,0,0.6125
0.6142054120000466,0,0,1.3479355346679687,0,0,0.6890625
0.6159687250001298,0,0,1.1276689819335937,0,0,0.6890625
0.6182376619999559,0,0,1.3958195678710936,0,0,1.225
0.6201632689999315,0,0,1.4628572143554686,0,0,1.4546875000000001
0.6218852680003693,0,0,1.429338391113281,0,0,0.9953125
0.6235461010001018,0,0,1.2330138549804688,0,0,0.9953125
0.6251188599999296,0,0,1.3024457031249999,0,0,0.9187500000000001
0.6266801570000098,0,0,1.2569558715820313,0,0,0.5359375000000001
0.6284267850005563,0,0,1.3335703247070312,0,0,0.9187500000000001
0.6300565620003908,0,0,1.5179238525390624,0,0,0.9187500000000001
0.6317480240004443,0,0,1.4796166259765624,0,0,0.9187500000000001
0.6335678739997093,0,0,1.2713210815429687,0,0,0.765625
0.6352284100003089,0,0,1.419761584472656,0,0,0.5359375000000001
0.6368516689999524,0,0,1.3263877197265623,0,0,0.6890625
0.638467335000314,0,0,1.3048399047851562,0,0,0.9953125
0.6402444630002719,0,0,1.438915197753906,0,0,1.225
0.6420082570002705,0,0,1.2497732666015624,0,0,0.6125
0.6441093630000978,0,0,1.3646949462890625,0,0,1.0718750000000001
0.6458115280001948,0,0,1.0797849487304687,0,0,0.9187500000000001
0.6474249350003447,0,0,1.3335703247070312,0,0,1.378125
0.6490130100000897,0,0,1.3239935180664062,0,0,1.1484375
0.6506262319999223,0,0,1.3623007446289062,0,0,0.765625
0.6523362859998088,0,0,1.37906015625,0,0,0.5359375000000001
0.6539125460003561,0,0,1.3000515014648437,0,0,0.8421875000000001
0.6557523020001099,0,0,1.120486376953125,0,0,1.1484375
0.6574896889997035,0,0,1.3263877197265623,0,0,0.9187500000000001
0.6591049859998748,0,0,1.2761094848632812,0,0,1.0718750000000001
0.6608498360001249,0,0,1.4173673828125,0,0,0.45937500000000003
0.6625641680002445,0,0,1.7166425903320313,0,0,0.9187500000000001
0.6642083890001231,0,0,1.235408056640625,0,0,0.8421875000000001
0.6658081860005041,0,0,1.1372457885742187,0,0,0.6890625
0.6677104600003076,0,0,1.4245499877929686,0,0,0.6125
0.6693726630001038,0,0,1.3718775512695311,0,0,832.69375
0.670986496000296,0,0,1.3958195678710936,0,0,0.30625
0.6730653610002264,0,0,1.6065093139648436,0,0,0.8421875000000001
0.6747772119997535,0,0,1.3215993164062498,0,0,0.6890625
0.6768940020001537,0,0,1.3958195678710936,0,0,0.765625
0.6787426660002893,0,0,1.3096283081054687,0,0,0.9953125
0.6810180840002431,0,0,1.4101847778320311,0,0,0.0
0.6829052470002352,0,0,1.608903515625,0,0,1.225
0.6850197040002968,0,0,1.3120225097656248,0,0,0.765625
0.6867828690001261,0,0,1.3000515014648437,0,0,0.8421875000000001
0.6884950710000339,0,0,1.3934253662109375,0,0,1.1484375
0.6903589570001714,0,0,1.4604630126953124,0,0,1.53125
0.6920833450003556,0,0,1.5083470458984374,0,0,0.765625
0.6937393630005317,0,0,1.3383587280273437,0,0,1.225
0.6955832860003284,0,0,1.1516109985351561,0,0,0.6890625
0.6974427459999788,0,0,1.2976572998046874,0,0,0.9187500000000001
0.6992452619997493,0,0,1.350329736328125,0,0,-8.957812500000001
0.7011030550002033,0,0,1.2904746948242187,0,0,0.153125
0.7027667399997881,0,0,1.6352397338867186,0,0,0.6125
0.7045189970003776,0,0,1.4724340209960938,0,0,0.765625
0.7063432539998757,0,0,1.1611878051757811,0,0,0.9187500000000001
0.708443729999999,0,0,1.3263877197265623,0,0,1.6078125
0.710765351000191,0,0,1.3766659545898436,0,0,0.6125
0.7126262179999685,0,0,1.6615759521484375,0,0,0.6125
0.7144170120000126,0,0,1.3742717529296875,0,0,0.765625
0.7164555440003824,0,0,1.1228805786132812,0,0,0.8421875000000001
0.718239394000193,0,0,1.429338391113281,0,0,0.765625
0.720052114000282,0,0,1.4413093994140624,0,0,832.8468750000001
0.7217883339999389,0,0,1.3527239379882812,0,0,1.0718750000000001
0.7240570670001034,0,0,1.3407529296874998,0,0,0.9187500000000001
0.7262677830003668,0,0,1.2114660400390624,0,0,0.765625
0.7281951310005752,0,0,1.2282254516601563,0,0,0.22968750000000002
0.7299156660001245,0,0,1.4173673828125,0,0,0.0765625
0.731576055000005,0,0,1.3527239379882812,0,0,0.9187500000000001
0.7331651290005539,0,0,1.5011644409179687,0,0,1.0718750000000001
0.7348519429997395,0,0,1.3479355346679687,0,0,0.9953125
0.7365416270004062,0,0,1.22583125,0,0,0.6890625
0.73817881100058,0,0,1.2569558715820313,0,0,0.5359375000000001
0.7398624220004422,0,0,1.484405029296875,0,0,0.0765625
0.741685938000046,0,0,1.2641384765625,0,0,0.5359375000000001
0.7433553440005198,0,0,1.6232687255859375,0,0,1.225
0.7450338059998103,0,0,1.3383587280273437,0,0,0.8421875000000001
0.7467288790003295,0,0,1.2952630981445312,0,0,0.765625
0.748363268000503,0,0,1.2330138549804688,0,0,0.765625
0.7500498039999002,0,0,1.4604630126953124,0,0,0.0
0.7517559320003784,0,0,1.4030021728515625,0,0,0.9187500000000001
0.7534580609999466,0,0,1.6304513305664061,0,0,1.0718750000000001
0.755089579000014,0,0,1.39821376953125,0,0,0.6890625
0.7567813000005117,0,0,1.3455413330078123,0,0,0.45937500000000003
0.7583821150001313,0,0,1.465251416015625,0,0,0.6890625
0.7599830959998144,0,0,1.4532804077148436,0,0,0.30625
0.7616656689997399,0,0,1.3144167114257812,0,0,0.6125
0.7633470390001094,0,0,1.5969325073242187,0,0,0.6890625
0.7649999639997986,0,0,1.3072341064453123,0,0,0.6125
0.766685556000084,0,0,1.254561669921875,0,0,0.6125
0.768247519000397,0,0,1.2737152832031249,0,0,0.5359375000000001
0.7698037050004132,0,0,1.4604630126953124,0,0,-852.8296875000001
0.7715000369998961,0,0,1.3383587280273437,0,0,0.3828125
0.7732038510002894,0,0,1.7693150268554687,0,0,0.8421875000000001
0.7748655719997259,0,0,1.35990654296875,0,0,0.8421875000000001
0.7766205890002311,0,0,1.3144167114257812,0,0,0.6125
0.7782601260005322,0,0,1.455674609375,0,0,0.6890625
0.7798814770003446,0,0,1.4006079711914061,0,0,832.69375
0.781568512999911,0,0,1.3239935180664062,0,0,0.0
0.7831445689998873,0,0,1.599326708984375,0,0,0.6125
0.7848223640003198,0,0,1.3359645263671873,0,0,0.6890625
0.7865081600002668,0,0,1.2761094848632812,0,0,0.6890625
0.7881177520002893,0,0,1.4006079711914061,0,0,0.45937500000000003
0.789677493000454,0,0,1.37906015625,0,0,-853.1359375000001
0.7913626589997875,0,0,1.455674609375,0,0,0.30625
0.7929727700002331,0,0,1.649604943847656,0,0,0.6125
0.794524623000143,0,0,1.3910311645507811,0,0,0.6890625
0.796159381000507,0,0,1.2617442749023438,0,0,0.6890625
0.7978321580003467,0,0,1.37906015625,0,0,0.6890625
0.7994974909997836,0,0,1.4772224243164063,0,0,0.5359375000000001
0.8012654149997616,0,0,1.465251416015625,0,0,0.22968750000000002
0.8028469709997808,0,0,1.6232687255859375,0,0,0.6125
0.8045150250000006,0,0,1.2521674682617188,0,0,0.6125
0.8062138020004568,0,0,1.1156979736328125,0,0,0.765625
0.8078271539998241,0,0,1.369483349609375,0,0,0.8421875000000001
0.8094189690000348,0,0,1.3096283081054687,0,0,0.45937500000000003
0.8111596340004326,0,0,1.4341267944335936,0,0,0.45937500000000003
0.8128302260001874,0,0,1.618480322265625,0,0,0.5359375000000001
0.814401781000015,0,0,1.3359645263671873,0,0,0.765625
0.816046892000486,0,0,1.2042834350585936,0,0,0.9187500000000001
0.8183235320002495,0,0,1.3096283081054687,0,0,0.5359375000000001
0.8199615319999793,0,0,1.4006079711914061,0,0,-852.8296875000001
0.8215255320001233,0,0,1.3646949462890625,0,0,0.30625
0.8232324569999037,0,0,1.6352397338867186,0,0,1.1484375
0.82523872999991,0,0,1.3168109130859373,0,0,0.6890625
0.8268577859998913,0,0,1.2593500732421874,0,0,0.8421875000000001
0.8287988560005033,0,0,1.3407529296874998,0,0,0.8421875000000001
0.8308149060003416,0,0,1.5298948608398437,0,0,1.1484375
0.8325438310002937,0,0,1.5873557006835937,0,0,-9.340625000000001
0.8350432280003588,0,0,1.3000515014648437,0,0,0.5359375000000001
0.8370956300004764,0,0,1.20667763671875,0,0,0.8421875000000001
0.8388130359999195,0,0,1.3000515014648437,0,0,1.4546875000000001
0.8407978089999233,0,0,1.3814543579101561,0,0,1.4546875000000001
0.8430247100004635,0,0,1.70467158203125,0,0,0.5359375000000001
0.8448457810000036,0,0,1.2880804931640624,0,0,0.765625
0.847117922000507,0,0,1.2880804931640624,0,0,0.45937500000000003
0.8493021550002595,0,0,1.47482822265625,0,0,1.53125
0.8513296139999511,0,0,1.4604630126953124,0,0,0.45937500000000003
0.8530764639999688,0,0,1.5586252807617187,0,0,0.6890625
0.8547392780001246,0,0,1.2808978881835937,0,0,0.8421875000000001
0.8568497900005241,0,0,1.2138602416992186,0,0,0.6125
0.8588064160003341,0,0,1.3742717529296875,0,0,0.8421875000000001
0.8611404069997661,0,0,1.465251416015625,0,0,1.225
0.8628539620003721,0,0,1.599326708984375,0,0,0.8421875000000001
0.864458036000542,0,0,1.6639701538085936,0,0,0.8421875000000001
0.8660622580000563,0,0,1.3024457031249999,0,0,0.9187500000000001
0.8677164790005918,0,0,1.3239935180664062,0,0,0.9953125
0.8692830350000804,0,0,1.2306196533203124,0,0,1.53125
0.8708982019998075,0,0,1.4508862060546874,0,0,1.0718750000000001
0.8726728849997016,0,0,1.6256629272460936,0,0,0.5359375000000001
0.8742920519998734,0,0,1.4867992309570313,0,0,0.9187500000000001
0.8758932000000641,0,0,1.209071838378906,0,0,0.765625
0.8775533099997119,0,0,1.388636962890625,0,0,0.9187500000000001
0.8791269220000686,0,0,1.4125789794921875,0,0,1.4546875000000001
0.8806754960005492,0,0,1.4604630126953124,0,0,1.4546875000000001
0.8823162740000043,0,0,1.2306196533203124,0,0,0.9953125
0.8839264959997308,0,0,1.4939818359375,0,0,1.3015625000000002
0.8858429920001072,0,0,1.467645617675781,0,0,0.9187500000000001
0.8876333050002359,0,0,1.8698714965820311,0,0,1.225
0.8892820259998189,0,0,1.5370774658203123,0,0,1.7609375
0.8908790260002206,0,0,1.254561669921875,0,0,0.9187500000000001
0.8926050250001936,0,0,1.7357962036132812,0,0,0.3828125
0.8946516490004797,0,0,1.6448165405273436,0,0,1.0718750000000001
0.8963962590005394,0,0,1.6304513305664061,0,0,2.296875
0.8981677940000736,0,0,0.9911994873046874,0,0,0.5359375000000001
0.8997772940001596,0,0,1.1037269653320312,0,0,0.22968750000000002
0.9013422570005787,0,0,1.3838485595703125,0,0,0.6125
0.9031949950003764,0,0,2.0781670410156248,0,0,1.3015625000000002
0.905188767999789,0,0,1.2593500732421874,0,0,0.8421875000000001
0.9068951190001826,0,0,0.9744400756835937,0,0,0.45937500000000003
0.9086036179996881,0,0,1.3024457031249999,0,0,0.0765625
0.9101740070000233,0,0,1.5059528442382812,0,0,832.6171875000001
0.9117222109998693,0,0,1.4317325927734375,0,0,0.8421875000000001
0.9133709140005521,0,0,1.6831237670898436,0,0,1.3015625000000002
0.9151711340000475,0,0,1.0175357055664063,0,0,0.6890625
0.9172867389997919,0,0,1.2378022583007813,0,0,0.22968750000000002
0.9189711640001406,0,0,1.6304513305664061,0,0,0.9187500000000001
0.9205338130004748,0,0,1.6400281372070311,0,0,0.6125
0.9224379950001094,0,0,1.5107412475585937,0,0,0.9187500000000001
0.9241562340002929,0,0,1.3646949462890625,0,0,0.8421875000000001
0.9261694329998136,0,0,1.388636962890625,0,0,0.6890625
0.9278814870003771,0,0,1.5346832641601562,0,0,1.1484375
0.9295892079999248,0,0,1.4796166259765624,0,0,1.3015625000000002
0.9311736529998598,0,0,1.4963760375976562,0,0,0.765625
0.9327221530002134,0,0,1.5442600708007812,0,0,0.9953125
0.9343483200000264,0,0,1.426944189453125,0,0,1.0718750000000001
0.936039633999826,0,0,1.4508862060546874,0,0,0.9953125
0.9379479079998418,0,0,1.4604630126953124,0,0,1.53125
0.9396584249998341,0,0,1.4245499877929686,0,0,1.3015625000000002
0.9413463310002044,0,0,1.4245499877929686,0,0,1.0718750000000001
0.9428918319999866,0,0,1.5753846923828123,0,0,0.765625
0.9446304230004898,0,0,1.3072341064453123,0,0,1.1484375
0.9463657920005062,0,0,1.5107412475585937,0,0,0.9953125
0.9479259770005228,0,0,1.4604630126953124,0,0,0.9953125
0.9494773480000731,0,0,1.467645617675781,0,0,1.7609375
0.9511941430000661,0,0,1.5921441040039062,0,0,0.9953125
0.9528099950002797,0,0,1.695094775390625,0,0,0.9953125
0.9548040649997347,0,0,1.3455413330078123,0,0,0.9187500000000001
0.9566749499999787,0,0,1.139639990234375,0,0,1.1484375
0.9582827280000856,0,0,1.0917559570312498,0,0,1.1484375
0.959890858000108,0,0,1.24498486328125,0,0,0.22968750000000002
0.9615811710000344,0,0,1.4101847778320311,0,0,1.0718750000000001
0.9639818289997493,0,0,1.5346832641601562,0,0,0.9953125
0.9660520639999959,0,0,1.4125789794921875,0,0,0.8421875000000001
0.9678085069999725,0,0,1.465251416015625,0,0,1.0718750000000001
0.9694299510001656,0,0,1.426944189453125,0,0,1.6843750000000002
0.9710370430002513,0,0,1.5394716674804687,0,0,1.53125
0.9728382630000851,0,0,1.7477672119140624,0,0,0.9187500000000001
0.9745052440002837,0,0,1.3215993164062498,0,0,1.3015625000000002
0.9761520399997607,0,0,1.4173673828125,0,0,1.225
0.9779633710004418,0,0,1.5083470458984374,0,0,1.225
0.9795523519997005,0,0,1.5035586425781249,0,0,1.9140625000000002
0.9811160190001829,0,0,1.7525556152343749,0,0,1.53125
0.9828513700003896,0,0,1.4772224243164063,0,0,1.0718750000000001
0.9844295550001334,0,0,1.5562310791015623,0,0,0.9187500000000001
0.9861332020000191,0,0,1.4628572143554686,0,0,0.765625
0.9878195720002623,0,0,1.3407529296874998,0,0,0.8421875000000001
0.9894048309997743,0,0,1.3024457031249999,0,0,1.6843750000000002
0.9910023680004088,0,0,1.5298948608398437,0,0,0.9953125
0.9927466999997705,0,0,1.4030021728515625,0,0,0.9187500000000001
0.9943728850003026,0,0,1.608903515625,0,0,1.1484375
0.9959807360000923,0,0,1.388636962890625,0,0,0.6125
0.9977978630004145,0,0,1.3718775512695311,0,0,0.765625
0.999473455000043,0,0,1.4149731811523436,0,0,1.7609375
1.0010696589997679,0,0,1.3934253662109375,0,0,1.8375000000000001
1.0027896950005015,0,0,1.4149731811523436,0,0,0.9187500000000001
1.004746931000227,0,0,1.3311761230468748,0,0,0.9953125
1.0065601699998297,0,0,1.3623007446289062,0,0,1.225
1.0085209620001478,0,0,1.5370774658203123,0,0,0.3828125
1.0103215700000874,0,0,1.4149731811523436,0,0,0.0
1.012016272999972,0,0,1.467645617675781,0,0,0.5359375000000001
1.0137713270005406,0,0,1.66636435546875,0,0,0.6890625
1.015504066000176,0,0,1.4724340209960938,0,0,0.6125
1.0172758420003447,0,0,1.0965443603515623,0,0,0.3828125
1.019106061000457,0,0,1.3383587280273437,0,0,0.0765625
1.0209679290001077,0,0,1.4508862060546874,0,0,0.9953125
1.0225967060005132,0,0,1.4891934326171874,0,0,0.9953125
1.0242521500003932,0,0,1.599326708984375,0,0,1.1484375
1.026060907000101,0,0,1.467645617675781,0,0,0.6890625
1.0277082950005934,0,0,1.3814543579101561,0,0,0.9187500000000001
1.0294752560002962,0,0,1.4101847778320311,0,0,1.8375000000000001
1.0312153840004612,0,0,1.618480322265625,0,0,1.990625
1.0328576430001704,0,0,1.687912170410156,0,0,0.9953125
1.0344754389998343,0,0,1.407790576171875,0,0,0.9953125
1.0362119930005065,0,0,1.6017209106445311,0,0,0.6125
1.037925233000351,0,0,1.4508862060546874,0,0,0.8421875000000001
1.0397539519999555,0,0,1.3455413330078123,0,0,1.1484375
1.041730318000191,0,0,1.39821376953125,0,0,0.0
1.043974254999739,0,0,1.3838485595703125,0,0,1.0718750000000001
1.0459977130003608,0,0,1.2401964599609374,0,0,1.0718750000000001
1.0477602480004862,0,0,1.4101847778320311,0,0,1.0718750000000001
1.0499898520001807,0,0,1.4101847778320311,0,0,0.9187500000000001
1.0518549790003817,0,0,1.4532804077148436,0,0,0.45937500000000003
1.053681012999732,0,0,1.7741034301757812,0,0,0.8421875000000001
1.0554510669999217,0,0,1.5442600708007812,0,0,0.8421875000000001
1.0574025630003234,0,0,1.2713210815429687,0,0,0.45937500000000003
1.059379854999861,0,0,1.4820108276367188,0,0,0.9187500000000001
1.0613026470000477,0,0,1.5227122558593749,0,0,1.4546875000000001
1.0632629020001332,0,0,1.4173673828125,0,0,0.765625
1.065102139999908,0,0,1.1085153686523437,0,0,0.9187500000000001
1.0669772480005122,0,0,0.9409212524414062,0,0,0.765625
1.068909800000256,0,0,1.3024457031249999,0,0,0.30625
1.0707386490003046,0,0,1.5203180541992187,0,0,0.5359375000000001
1.0726842929998384,0,0,1.6112977172851561,0,0,1.225
1.0745155499998873,0,0,1.5394716674804687,0,0,1.225
1.0762100860001738,0,0,1.608903515625,0,0,0.6125
1.0780191390003893,0,0,1.5801730957031248,0,0,0.8421875000000001
1.0796595090005212,0,0,1.5107412475585937,0,0,0.6125
1.0813002860004417,0,0,1.5011644409179687,0,0,0.765625
1.0829953410002418,0,0,1.2330138549804688,0,0,0.765625
1.0846293770000557,0,0,1.0079588989257813,0,0,0.8421875000000001
1.0861806740003885,0,0,1.0366893188476562,0,0,0.9187500000000001
1.0877596749996883,0,0,1.1156979736328125,0,0,0.6125
1.089419581000584,0,0,1.218648645019531,0,0,1.4546875000000001
1.0909862300004534,0,0,1.668758557128906,0,0,1.53125
1.0926088779997372,0,0,1.7597382202148437,0,0,1.53125
1.0943254869998782,0,0,1.8507178833007811,0,0,1.4546875000000001
1.0959953010005847,0,0,1.7453730102539062,0,0,1.1484375
1.0975530240002627,0,0,1.5682020874023437,0,0,0.45937500000000003
1.0992009310002686,0,0,1.4939818359375,0,0,0.153125
1.1009159850000287,0,0,1.3742717529296875,0,0,832.6171875000001
1.1024792260004688,0,0,1.180341418457031,0,0,0.5359375000000001
1.1041715399996974,0,0,1.35990654296875,0,0,1.0718750000000001
1.1058435579998331,0,0,0.9840168823242187,0,0,0.6125
1.1074415390003196,0,0,0.9552864624023437,0,0,1.378125
1.1091389089997392,0,0,1.5801730957031248,0,0,1.3015625000000002
1.1108542219999435,0,0,1.905784521484375,0,0,0.8421875000000001
1.1125915909997275,0,0,1.8339584716796873,0,0,0.9953125
1.1141622209997877,0,0,2.023100402832031,0,0,0.9187500000000001
1.116325918000257,0,0,1.5298948608398437,0,0,0.45937500000000003
1.1181031750002148,0,0,1.3407529296874998,0,0,0.22968750000000002
1.1197722670003714,0,0,1.0941501586914062,0,0,0.6125
1.1220441300001767,0,0,0.928950244140625,0,0,0.0
1.1238712940003097,0,0,1.3455413330078123,0,0,0.45937500000000003
1.1255689589997928,0,0,1.3958195678710936,0,0,1.0718750000000001
1.1272549209998033,0,0,1.4413093994140624,0,0,1.225
1.1289922530004333,0,0,1.7836802368164062,0,0,0.765625
1.1307377330003874,0,0,1.8004396484374998,0,0,832.8468750000001
1.1325579160002235,0,0,1.3407529296874998,0,0,0.6890625
1.1346819840000535,0,0,1.20667763671875,0,0,0.22968750000000002
1.1366260169997986,0,0,1.0893617553710937,0,0,0.6125
1.1382954420005262,0,0,1.2042834350585936,0,0,1.225
1.1403838619999078,0,0,1.2425906616210938,0,0,1.6078125
1.1429914239997743,0,0,1.4149731811523436,0,0,1.0718750000000001
1.1452102880002712,0,0,1.668758557128906,0,0,0.6890625
1.1471015440001793,0,0,1.4700398193359374,0,0,0.6125
1.148869745000411,0,0,1.2665326782226562,0,0,0.6890625
1.1505303559997628,0,0,1.0869675537109373,0,0,-9.5703125
1.1522728910003934,0,0,1.139639990234375,0,0,0.3828125
1.1540847960004612,0,0,1.8243816650390623,0,0,1.3015625000000002
1.1558068129997991,0,0,1.4173673828125,0,0,0.9187500000000001
1.1576324960005877,0,0,1.47482822265625,0,0,0.6125
1.1594548080001914,0,0,1.5514426757812498,0,0,0.22968750000000002
1.1612746199998583,0,0,1.5466542724609373,0,0,1.1484375
1.1630045259998951,0,0,1.455674609375,0,0,0.8421875000000001
1.164788561000023,0,0,1.197100830078125,0,0,0.9187500000000001
1.1665165410004192,0,0,1.1133037719726562,0,0,1.1484375
1.1685817019997558,0,0,1.4437036010742186,0,0,1.1484375
1.1704247369998484,0,0,1.6615759521484375,0,0,0.8421875000000001
1.1722012899999754,0,0,1.6112977172851561,0,0,0.765625
1.1738702889997512,0,0,1.9321207397460936,0,0,0.9187500000000001
1.1765384810005344,0,0,1.3215993164062498,0,0,0.5359375000000001
1.1783180709999215,0,0,1.1947066284179686,0,0,0.22968750000000002
1.1801316609999049,0,0,1.177947216796875,0,0,1.6843750000000002
1.1819728070004203,0,0,1.3623007446289062,0,0,0.5359375000000001
1.1837147679998452,0,0,1.7310078002929687,0,0,0.9187500000000001
1.1854764700001397,0,0,1.3838485595703125,0,0,0.9187500000000001
1.1873008009997648,0,0,1.120486376953125,0,0,1.1484375
1.189062928000567,0,0,1.2856862915039062,0,0,0.9187500000000001
1.1907373539997934,0,0,1.6041151123046875,0,0,0.0
1.1924587600005907,0,0,1.7693150268554687,0,0,0.9187500000000001
1.1942128130003766,0,0,1.8076222534179687,0,0,1.0718750000000001
1.1958669240002564,0,0,1.2952630981445312,0,0,0.5359375000000001
1.197570440999698,0,0,1.4221557861328125,0,0,0.3828125
1.19937945699985,0,0,1.5705962890624998,0,0,0.22968750000000002
1.2012824720004573,0,0,1.3551181396484375,0,0,0.153125
1.2029209530001026,0,0,1.0917559570312498,0,0,1.1484375
1.2046402300002228,0,0,1.1348515869140625,0,0,0.9953125
1.2063481730001513,0,0,1.254561669921875,0,0,0.9953125
1.2079622649998782,0,0,1.4820108276367188,0,0,0.6890625
1.2096021910001582,0,0,1.66636435546875,0,0,0.3828125
1.211331782000343,0,0,1.6232687255859375,0,0,0.45937500000000003
1.2130277070000375,0,0,1.5107412475585937,0,0,1.1484375
1.2147913349999726,0,0,1.4604630126953124,0,0,1.0718750000000001
1.2163790750000771,0,0,1.3718775512695311,0,0,0.8421875000000001
1.2179388350004956,0,0,1.3024457031249999,0,0,0.3828125
1.2197040000000925,0,0,1.2210428466796874,0,0,0.22968750000000002
1.22135901799993,0,0,1.2425906616210938,0,0,0.0
1.2230277210001077,0,0,1.2521674682617188,0,0,0.765625
1.2247761449998507,0,0,1.484405029296875,0,0,1.225
1.226415273999919,0,0,1.3814543579101561,0,0,0.8421875000000001
1.2282655310000337,0,0,1.0917559570312498,0,0,0.5359375000000001
1.2301350269999602,0,0,1.149216796875,0,0,1.3015625000000002
1.231838544999846,0,0,1.5203180541992187,0,0,0.9187500000000001
1.2334987479998745,0,0,1.7429788085937499,0,0,1.1484375
1.2351057480000236,0,0,1.618480322265625,0,0,1.378125
1.2367441550004514,0,0,1.39821376953125,0,0,1.4546875000000001
1.238398210000014,0,0,1.3311761230468748,0,0,0.9953125
1.2400019690003319,0,0,1.2880804931640624,0,0,1.378125
1.2416518760001054,0,0,1.5682020874023437,0,0,1.0718750000000001
1.2432825790001516,0,0,1.5658078857421873,0,0,0.6890625
1.2449502629997369,0,0,1.7645266235351562,0,0,1.0718750000000001
1.2466111889998501,0,0,1.2330138549804688,0,0,1.0718750000000001
1.24817941099991,0,0,1.197100830078125,0,0,0.765625
1.2497300599998198,0,0,1.2282254516601563,0,0,0.6890625
1.2513710780003748,0,0,1.3407529296874998,0,0,0.45937500000000003
1.2529735220005023,0,0,1.3072341064453123,0,0,0.9953125
1.2545228010003484,0,0,1.5538368774414062,0,0,1.0718750000000001
1.256237059000341,0,0,1.4101847778320311,0,0,0.9187500000000001
1.2578828360001353,0,0,1.5562310791015623,0,0,1.225
1.259435521999876,0,0,1.5298948608398437,0,0,0.8421875000000001
1.2610866690001785,0,0,1.3024457031249999,0,0,832.3109375
1.262772502000189,0,0,1.0726023437499999,0,0,0.0
1.264738830999704,0,0,1.43652099609375,0,0,0.45937500000000003
1.26653623600032,0,0,1.5490484741210937,0,0,0.765625
1.2684776390005936,0,0,1.3646949462890625,0,0,1.0718750000000001
1.2702422669999578,0,0,1.0007762939453124,0,0,1.4546875000000001
1.2719156370003475,0,0,1.0606313354492187,0,0,0.6890625
1.2737612999999328,0,0,1.5753846923828123,0,0,0.6125
1.2755195210002057,0,0,1.678335363769531,0,0,1.225
1.277535516000171,0,0,1.5083470458984374,0,0,1.1484375
1.2794130130005215,0,0,1.37906015625,0,0,0.8421875000000001
1.2816476349998993,0,0,1.4820108276367188,0,0,1.225
1.283550113000274,0,0,1.9823989746093749,0,0,0.6890625
1.2853085930000816,0,0,1.7094599853515624,0,0,0.6890625
1.2872686440005054,0,0,1.3168109130859373,0,0,0.8421875000000001
1.289025328000207,0,0,1.3718775512695311,0,0,1.1484375
1.2907289000004312,0,0,1.0726023437499999,0,0,-9.340625000000001
1.2926114900001267,0,0,1.218648645019531,0,0,0.30625
1.294318174000182,0,0,1.6735469604492186,0,0,0.9187500000000001
1.2959449700001642,0,0,1.7693150268554687,0,0,1.4546875000000001
1.2976150989998132,0,0,1.6903063720703124,0,0,1.8375000000000001
1.2991980429997056,0,0,1.5897499023437498,0,0,1.3015625000000002
1.3007452849997208,0,0,1.0941501586914062,0,0,832.6171875000001
1.302831853000498,0,0,1.2330138549804688,0,0,0.153125
1.3045910920000097,0,0,1.8339584716796873,0,0,1.378125
1.3062384249997194,0,0,1.5777788940429687,0,0,1.1484375
1.3079869049997797,0,0,0.7445967163085937,0,0,0.6125
1.3095876819998011,0,0,0.6751648681640625,0,0,832.8468750000001
1.3111959970001408,0,0,0.8164227661132812,0,0,-853.4421875
1.3128961069996876,0,0,1.5777788940429687,0,0,1.1484375
1.3147089750000305,0,0,2.0374656127929685,0,0,1.9140625000000002
1.3165419349998047,0,0,1.5059528442382812,0,0,1.4546875000000001
1.31837630300015,0,0,1.0127473022460938,0,0,0.765625
1.3199462849997872,0,0,1.3934253662109375,0,0,0.765625
1.3214961740004583,0,0,1.927332336425781,0,0,0.5359375000000001
1.3231752470001084,0,0,1.915361328125,0,0,1.0718750000000001
1.3248000620005769,0,0,1.659181750488281,0,0,1.378125
1.3263642100000652,0,0,1.1109095703125,0,0,0.6125
1.3281633189999411,0,0,0.565031591796875,0,0,-9.646875000000001
1.3298441699998875,0,0,1.3048399047851562,0,0,0.0765625
1.3314173560002018,0,0,1.7693150268554687,0,0,0.9953125
1.333104614000149,0,0,2.042254016113281,0,0,1.7609375
1.3347212250000666,0,0,1.4796166259765624,0,0,0.6890625
1.3362719110000398,0,0,0.9720458740234375,0,0,0.45937500000000003
1.3379448910000065,0,0,1.2114660400390624,0,0,0.0765625
1.3397144079999634,0,0,1.956062756347656,0,0,0.6890625
1.3412886300002356,0,0,1.7190367919921874,0,0,0.0765625
1.343117293999967,0,0,1.0606313354492187,0,0,0.9187500000000001
1.3447514979998232,0,0,0.5219359619140624,0,0,0.5359375000000001
1.3464679409999007,0,0,1.0630255371093749,0,0,0.8421875000000001
1.3484022700004061,0,0,1.455674609375,0,0,1.3015625000000002
1.3500841949999085,0,0,2.0254946044921875,0,0,2.0671875
1.3518565270005638,0,0,1.3431471313476562,0,0,1.9140625000000002
1.3535238780004875,0,0,1.3814543579101561,0,0,0.8421875000000001
1.3551854879997336,0,0,1.66636435546875,0,0,0.5359375000000001
1.3569433749999007,0,0,2.2864625854492187,0,0,1.0718750000000001
1.3587459469999885,0,0,1.9033903198242186,0,0,1.3015625000000002
1.360465538000426,0,0,0.7158662963867187,0,0,1.4546875000000001
1.3620581679997485,0,0,0.47165772705078124,0,0,0.6890625
1.3636175020001247,0,0,1.3120225097656248,0,0,0.6125
1.3653683150005236,0,0,1.8243816650390623,0,0,1.53125
1.3672749960005603,0,0,1.9009961181640624,0,0,1.378125
1.3689105889998245,0,0,1.1875240234375,0,0,1.0718750000000001
1.3705906619998132,0,0,1.0414777221679687,0,0,0.9187500000000001
1.3721871799998553,0,0,1.637633935546875,0,0,0.9187500000000001
1.3737419589997444,0,0,2.0087351928710935,0,0,0.9953125
1.3754229759997543,0,0,1.8363526733398436,0,0,0.9953125
1.3771299199997884,0,0,0.7110778930664062,0,0,0.3828125
1.3788011040005586,0,0,0.5961562133789062,0,0,0.3828125
1.3804854179998074,0,0,1.8650830932617186,0,0,1.8375000000000001
1.3821765829998185,0,0,2.0063409912109376,0,0,2.2203125000000004
1.3837303800000882,0,0,1.7405846069335937,0,0,1.6843750000000002
1.385287621000316,0,0,1.4125789794921875,0,0,1.3015625000000002
1.386921250999876,0,0,1.2976572998046874,0,0,0.45937500000000003
1.3886740819998522,0,0,2.032677209472656,0,0,0.6125
1.390287823000108,0,0,2.0087351928710935,0,0,1.6843750000000002
1.3920711170003415,0,0,1.2425906616210938,0,0,1.53125
1.3939618360000168,0,0,0.9600748657226562,0,0,0.6125
1.3958513699999457,0,0,1.4724340209960938,0,0,0.9187500000000001
1.3974683140004345,0,0,1.6065093139648436,0,0,1.3015625000000002
1.3992298120001578,0,0,1.5346832641601562,0,0,1.1484375
1.4009450140001718,0,0,0.9911994873046874,0,0,1.378125
1.402499847999934,0,0,1.4772224243164063,0,0,0.8421875000000001
1.404047367000203,0,0,1.7788918334960937,0,0,0.30625
1.405861680000271,0,0,1.3072341064453123,0,0,0.765625
1.4075994000004357,0,0,0.5626373901367188,0,0,0.6125
1.4092932700004894,0,0,0.7517793212890624,0,0,0.8421875000000001
1.410981009000352,0,0,1.5394716674804687,0,0,0.6125
1.4127323220000108,0,0,1.7405846069335937,0,0,1.0718750000000001
1.4142995450001763,0,0,1.7405846069335937,0,0,0.9953125
1.4160575989999415,0,0,1.3455413330078123,0,0,0.6890625
1.4177193940004145,0,0,1.6927005737304686,0,0,0.9953125
1.4192759130000923,0,0,2.0925322509765625,0,0,0.9187500000000001
1.420888616999946,0,0,1.5442600708007812,0,0,1.53125
1.4225418570003967,0,0,0.9074024291992187,0,0,1.1484375
1.4241025800001808,0,0,0.9911994873046874,0,0,0.9187500000000001
1.4256693019997329,0,0,1.3311761230468748,0,0,0.8421875000000001
1.4273144870003307,0,0,1.5705962890624998,0,0,0.765625
1.428917506000289,0,0,1.3359645263671873,0,0,1.1484375
1.4306127079998987,0,0,1.0917559570312498,0,0,1.3015625000000002
1.432278948000203,0,0,1.467645617675781,0,0,1.378125
1.4339337990004424,0,0,1.5227122558593749,0,0,0.6125
1.4355083549999108,0,0,0.9241618408203125,0,0,0.765625
1.4371639660002984,0,0,0.967257470703125,0,0,0.6125
1.4387572810001075,0,0,1.3359645263671873,0,0,1.225
1.4404363539997576,0,0,1.5466542724609373,0,0,1.1484375
1.442124037999747,0,0,1.5777788940429687,0,0,1.225
1.443898129000445,0,0,1.6160861206054686,0,0,0.8421875000000001
1.4456124979997185,0,0,1.7429788085937499,0,0,1.0718750000000001
1.4479884520005726,0,0,1.5490484741210937,0,0,0.6125
1.4499697070004913,0,0,1.3192051147460937,0,0,0.3828125
1.4517381490004482,0,0,1.3048399047851562,0,0,1.1484375
1.4535402390001764,0,0,1.695094775390625,0,0,1.3015625000000002
1.4553470700002435,0,0,1.8770541015625,0,0,1.4546875000000001
1.4570384400003604,0,0,1.199495031738281,0,0,0.6125
1.4588876400002846,0,0,1.3096283081054687,0,0,0.5359375000000001
1.4606133429997499,0,0,1.438915197753906,0,0,1.4546875000000001
1.4622224169997935,0,0,1.5179238525390624,0,0,1.378125
1.4638679159997992,0,0,0.8259995727539062,0,0,0.8421875000000001
1.4654788600000757,0,0,1.0941501586914062,0,0,0.9953125
1.4671552300005715,0,0,1.2856862915039062,0,0,1.0718750000000001
1.4687709340005313,0,0,1.5729904907226562,0,0,1.378125
1.4704120810001768,0,0,1.5658078857421873,0,0,1.225
1.4721029319998706,0,0,1.7956512451171873,0,0,1.0718750000000001
1.4737224689997674,0,0,1.93451494140625,0,0,1.0718750000000001
1.475273025000206,0,0,1.936909143066406,0,0,1.225
1.4769734310002605,0,0,1.5011644409179687,0,0,0.5359375000000001
1.4790748880004685,0,0,1.2856862915039062,0,0,1.0718750000000001
1.4806634810001924,0,0,1.4437036010742186,0,0,1.6078125
1.4825032380003904,0,0,1.209071838378906,0,0,1.225
1.484328772000481,0,0,1.1947066284179686,0,0,1.1484375
1.4859510870001031,0,0,1.3455413330078123,0,0,0.45937500000000003
1.4875000130004992,0,0,1.0295067138671874,0,0,0.3828125
1.489139086999785,0,0,0.8714894042968749,0,0,0.6890625
1.4907444760001454,0,0,1.1133037719726562,0,0,1.4546875000000001
1.4923297539999112,0,0,1.678335363769531,0,0,1.9140625000000002
1.4943652299998575,0,0,1.659181750488281,0,0,1.53125
1.49610602499979,0,0,1.2880804931640624,0,0,0.9953125
1.4976766919999136,0,0,1.4125789794921875,0,0,1.1484375
1.4995719110002028,0,0,1.8818425048828125,0,0,0.6125
1.5013517420002245,0,0,1.5921441040039062,0,0,0.30625
1.5031566650004606,0,0,1.5035586425781249,0,0,0.153125
1.504804998000509,0,0,1.7022773803710936,0,0,0.45937500000000003
1.5063834430002316,0,0,1.2617442749023438,0,0,0.45937500000000003
1.5081688850004866,0,0,1.2665326782226562,0,0,0.45937500000000003
1.5101445660002355,0,0,1.5945383056640625,0,0,0.5359375000000001
1.5117620290002378,0,0,1.388636962890625,0,0,-0.3828125
1.5134750830002304,0,0,0.7876923461914062,0,0,0.22968750000000002
1.5151477119998162,0,0,1.0438719238281249,0,0,0.5359375000000001
1.5167634340004952,0,0,1.4915876342773438,0,0,1.3015625000000002
1.5183082120001927,0,0,1.419761584472656,0,0,1.225
1.520054192000316,0,0,1.2401964599609374,0,0,0.9953125
1.5217392650001784,0,0,1.2928688964843749,0,0,832.8468750000001
1.5233347470002627,0,0,1.7166425903320313,0,0,0.0
1.5249093950005772,0,0,2.427720483398437,0,0,1.1484375
1.5265630610001608,0,0,1.66636435546875,0,0,1.3015625000000002
1.5281407279999257,0,0,1.1540052001953125,0,0,0.9953125
1.529693340000449,0,0,1.2569558715820313,0,0,0.765625
1.5313291540005594,0,0,1.3575123413085937,0,0,0.0765625
1.5330919859998176,0,0,1.350329736328125,0,0,0.0765625
1.5346711709999,0,0,1.9919757812499999,0,0,0.45937500000000003
1.5363687629997003,0,0,1.484405029296875,0,0,0.3828125
1.537981354999829,0,0,0.6272808349609375,0,0,0.6890625
1.5395285960003093,0,0,0.9337386474609375,0,0,1.3015625000000002
1.5411707069997647,0,0,1.6304513305664061,0,0,1.8375000000000001
1.5427983549998316,0,0,1.7238251953125,0,0,1.8375000000000001
1.5443762069999138,0,0,1.4341267944335936,0,0,0.765625
1.5460932430005414,0,0,1.0821791503906248,0,0,1.1484375
1.5477241870003127,0,0,1.7238251953125,0,0,0.765625
1.549282984000456,0,0,1.7286135986328124,0,0,1.4546875000000001
1.5510519260005822,0,0,1.7286135986328124,0,0,1.6843750000000002
1.5527223330000197,0,0,1.5538368774414062,0,0,2.0671875
1.554308888000378,0,0,1.158793603515625,0,0,1.225
1.5561138120001488,0,0,0.9911994873046874,0,0,832.8468750000001
1.5578979769998114,0,0,1.5155296508789062,0,0,0.6125
1.5595025689999602,0,0,1.4915876342773438,0,0,0.765625
1.5611462910001137,0,0,1.0845733520507812,0,0,1.6078125
1.563023083999724,0,0,0.8714894042968749,0,0,1.1484375
1.564656491000278,0,0,1.889025109863281,0,0,1.0718750000000001
1.5663033789996916,0,0,1.4341267944335936,0,0,1.378125
1.5679496200000358,0,0,1.2689268798828124,0,0,0.3828125
1.5696240630004468,0,0,1.6711527587890624,0,0,1.225
1.5712860250005178,0,0,1.8028338500976562,0,0,1.8375000000000001
1.5730223199998363,0,0,1.7860744384765623,0,0,1.4546875000000001
1.5747384300002523,0,0,2.051830822753906,0,0,1.53125
1.5764135219997115,0,0,1.89620771484375,0,0,0.765625
1.5780921690002288,0,0,0.7996633544921875,0,0,0.22968750000000002
1.5797390570005518,0,0,1.3359645263671873,0,0,0.45937500000000003
1.5814014449997558,0,0,1.7741034301757812,0,0,1.1484375
1.5830230379997374,0,0,1.5969325073242187,0,0,0.9187500000000001
1.5846907220002322,0,0,1.0749965454101562,0,0,0.765625
1.586265463000018,0,0,1.13006318359375,0,0,1.1484375
1.5880446279998068,0,0,1.3239935180664062,0,0,1.4546875000000001
1.5898000520001005,0,0,1.3455413330078123,0,0,1.225
1.591542957999991,0,0,1.8411410766601561,0,0,1.6843750000000002
1.593147847000182,0,0,2.0063409912109376,0,0,1.378125
1.5947888649998276,0,0,1.7860744384765623,0,0,1.3015625000000002
1.5964605489998576,0,0,1.4221557861328125,0,0,0.8421875000000001
1.5980714190000072,0,0,1.8195932617187498,0,0,0.9953125
1.5998426950000066,0,0,1.2425906616210938,0,0,0.765625
1.6015322499997637,0,0,1.235408056640625,0,0,1.0718750000000001
1.6031342309997854,0,0,1.4939818359375,0,0,-9.646875000000001
1.60488345199974,0,0,1.5155296508789062,0,0,0.153125
1.6071776290000344,0,0,0.8475473876953125,0,0,0.9953125
1.6089522190004573,0,0,1.3383587280273437,0,0,1.6843750000000002
1.610671977000493,0,0,1.2401964599609374,0,0,1.3015625000000002
1.6123217539998222,0,0,1.216254443359375,0,0,0.0
1.6139030510003067,0,0,1.687912170410156,0,0,1.225
1.6161714879999636,0,0,2.051830822753906,0,0,1.0718750000000001
1.6179301339998347,0,0,1.9321207397460936,0,0,1.225
1.6195048939998742,0,0,1.5490484741210937,0,0,0.9187500000000001
1.6210989119999795,0,0,1.2210428466796874,0,0,1.3015625000000002
1.622743282000556,0,0,0.9935936889648437,0,0,1.3015625000000002
1.62432752299992,0,0,0.9361328491210937,0,0,0.0
1.625967429999946,0,0,1.2737152832031249,0,0,0.6890625
1.6276032810001198,0,0,1.0031704956054688,0,0,0.9953125
1.6291704300001584,0,0,1.2401964599609374,0,0,1.4546875000000001
1.6307417079997322,0,0,1.4915876342773438,0,0,1.4546875000000001
1.632424336999975,0,0,1.24498486328125,0,0,0.6890625
1.6340288920000603,0,0,1.3646949462890625,0,0,0.9187500000000001
1.635648428999957,0,0,1.9225439331054686,0,0,0.45937500000000003
1.63728707700011,0,0,2.123656872558594,0,0,1.1484375
1.6388654100001077,0,0,2.003946789550781,0,0,1.53125
1.6414026219999869,0,0,1.3407529296874998,0,0,1.8375000000000001
1.6431855270002416,0,0,0.7589619262695312,0,0,0.3828125
1.6448625820003144,0,0,1.429338391113281,0,0,-0.6125
1.6465536360001352,0,0,1.1659762084960936,0,0,0.6125
1.6484315400002743,0,0,0.9217676391601562,0,0,0.8421875000000001
1.6501286869997784,0,0,1.66636435546875,0,0,1.6078125
1.651702299000135,0,0,1.2401964599609374,0,0,2.5265625000000003
1.653245151000192,0,0,1.0821791503906248,0,0,1.225
1.6549103360002846,0,0,2.1116858642578125,0,0,0.9953125
1.6566328159997283,0,0,1.9297265380859374,0,0,1.1484375
1.6582131679997474,0,0,1.9225439331054686,0,0,0.8421875000000001
1.6599462780004615,0,0,2.1452046874999997,0,0,1.225
1.6617909779997717,0,0,1.3335703247070312,0,0,1.8375000000000001
1.6633704050000233,0,0,1.1468225952148436,0,0,0.0
1.665268900999763,0,0,1.3575123413085937,0,0,-0.3828125
1.6670921760005513,0,0,0.8786720092773437,0,0,0.0
1.6690446909997263,0,0,0.7230489013671875,0,0,1.3015625000000002
1.6710149460004686,0,0,1.4532804077148436,0,0,0.9953125
1.6728109810001115,0,0,1.0582371337890624,0,0,1.0718750000000001
1.6749670300005164,0,0,1.5658078857421873,0,0,0.8421875000000001
1.6768927299999632,0,0,1.8411410766601561,0,0,1.3015625000000002
1.678528118000031,0,0,1.9847931762695312,0,0,1.6843750000000002
1.6804086330002974,0,0,2.3032219970703123,0,0,1.4546875000000001
1.682078724999883,0,0,1.465251416015625,0,0,0.22968750000000002
1.6836391520000689,0,0,0.7829039428710937,0,0,0.0765625
1.685285317999842,0,0,1.1109095703125,0,0,-1.0718750000000001
1.6869239659999948,0,0,1.0414777221679687,0,0,0.153125
1.688483040000392,0,0,1.1707646118164061,0,0,1.378125
1.6902837409998028,0,0,1.659181750488281,0,0,1.0718750000000001
1.6919010930005243,0,0,0.8499415893554687,0,0,2.45
1.6934537600000112,0,0,0.6703764648437499,0,0,0.153125
1.695598180000161,0,0,1.93451494140625,0,0,1.0718750000000001
1.6971835690001171,0,0,2.0350714111328125,0,0,0.45937500000000003
1.69872736599973,0,0,2.2768857788085937,0,0,1.7609375
1.700372772999799,0,0,2.446874096679687,0,0,1.9140625000000002
1.7020030869998664,0,0,1.1731588134765625,0,0,1.225
1.7035488470000928,0,0,1.0749965454101562,0,0,-9.4171875
1.7052179580005031,0,0,1.1133037719726562,0,0,0.0765625
1.7068716419998964,0,0,0.9888052856445312,0,0,0.0
1.7084308650000821,0,0,1.467645617675781,0,0,1.3015625000000002
1.7101080860002185,0,0,1.2401964599609374,0,0,1.7609375
1.712029731000257,0,0,0.44053310546874996,0,0,1.378125
1.7135886940004639,0,0,1.3096283081054687,0,0,0.0
1.7152692119998392,0,0,1.5705962890624998,0,0,1.225
1.7169088589998864,0,0,2.0159177978515626,0,0,1.7609375
1.7190325760002452,0,0,2.1499930908203124,0,0,1.8375000000000001
1.7207250560004468,0,0,1.448492004394531,0,0,0.9953125
1.7223810920004325,0,0,1.1611878051757811,0,0,8.498437500000001
1.724020388000099,0,0,0.7972691528320313,0,0,1.0718750000000001
1.7255812410003273,0,0,1.1516109985351561,0,0,-852.8296875000001
1.7272017770001185,0,0,1.5251064575195312,0,0,0.6125
1.7288912020003409,0,0,1.2401964599609374,0,0,1.6843750000000002
1.7305385350000506,0,0,0.55545478515625,0,0,0.6125
1.7320911280003202,0,0,0.8164227661132812,0,0,1.3015625000000002
1.7336372959998698,0,0,1.5586252807617187,0,0,1.7609375
1.735410960000081,0,0,2.1308394775390624,0,0,1.9140625000000002
1.7378066920000492,0,0,2.308010400390625,0,0,1.9140625000000002
1.7395421900000656,0,0,1.2521674682617188,0,0,0.8421875000000001
1.741277003000505,0,0,0.9888052856445312,0,0,832.69375
1.7428751699999339,0,0,1.0630255371093749,0,0,-0.45937500000000003
1.7445404290001534,0,0,1.8267758666992187,0,0,0.8421875000000001
1.7461807990002853,0,0,2.1787235107421874,0,0,0.9953125
1.7479132970001956,0,0,1.13006318359375,0,0,0.6125
1.749592741000015,0,0,0.74699091796875,0,0,0.8421875000000001
1.7511480370003483,0,0,0.7661445312499999,0,0,0.0
1.7527867779999724,0,0,2.0470424194335934,0,0,0.5359375000000001
1.7544910540000274,0,0,2.81558115234375,0,0,2.3734375
1.7560608320000028,0,0,2.6958710693359373,0,0,1.7609375
1.7579729400003998,0,0,1.2928688964843749,0,0,0.6890625
1.7597985110005538,0,0,0.5051765502929687,0,0,9.49375
1.7615283989998716,0,0,0.7829039428710937,0,0,0.153125
1.7631857129999844,0,0,1.7932570434570312,0,0,1.6078125
1.7649022300001889,0,0,1.7693150268554687,0,0,2.45
1.7666070440000112,0,0,0.6967126831054687,0,0,1.378125
1.768533096000283,0,0,0.5339069702148437,0,0,-9.4171875
1.7702498349999587,0,0,1.005564697265625,0,0,0.6890625
1.7721422020003956,0,0,2.327164013671875,0,0,1.7609375
1.7739174039998034,0,0,2.442085693359375,0,0,0.9187500000000001
1.775584847000573,0,0,1.898601916503906,0,0,1.1484375
1.7774053260000073,0,0,0.7589619262695312,0,0,0.22968750000000002
1.7790985100000398,0,0,0.24660277099609373,0,0,832.2343750000001
1.7807034550005483,0,0,1.7525556152343749,0,0,0.153125
1.7826869319997058,0,0,1.9033903198242186,0,0,0.8421875000000001
1.7843681900003503,0,0,1.216254443359375,0,0,0.9187500000000001
1.7859845230004794,0,0,0.9002198242187499,0,0,0.22968750000000002
1.7876244119997864,0,0,1.0342951171875,0,0,0.9187500000000001
1.7891981709999527,0,0,1.6041151123046875,0,0,1.0718750000000001
1.7909255399999893,0,0,2.9759926635742184,0,0,1.6843750000000002
1.7926154100005078,0,0,2.1835119140624997,0,0,0.45937500000000003
1.7943687409997437,0,0,1.3359645263671873,0,0,0.0
1.795978686000126,0,0,0.603338818359375,0,0,-0.3828125
1.7976734069998201,0,0,1.678335363769531,0,0,0.5359375000000001
1.7992323520002174,0,0,2.1212626708984375,0,0,1.6078125
1.8008908689998862,0,0,1.6160861206054686,0,0,0.8421875000000001
1.8026530710003499,0,0,0.8307879760742187,0,0,832.69375
1.8042506820002018,0,0,0.3758896606445312,0,0,0.22968750000000002
1.8058577190004144,0,0,1.695094775390625,0,0,0.3828125
1.807516496000062,0,0,2.674323254394531,0,0,1.6843750000000002
1.8090800340005444,0,0,2.0829554443359375,0,0,1.6843750000000002
1.810790698999881,0,0,1.2401964599609374,0,0,0.30625
1.8124493470004381,0,0,0.4860229370117187,0,0,0.0
1.8140591430001223,0,0,0.3591302490234375,0,0,832.8468750000001
1.8157796969999254,0,0,2.511517541503906,0,0,0.5359375000000001
1.8174286230005237,0,0,2.2361843505859373,0,0,1.6843750000000002
1.8190887890004888,0,0,1.2689268798828124,0,0,1.6078125
1.820760620999863,0,0,0.8164227661132812,0,0,2.0671875
1.822373195000182,0,0,0.9528922607421875,0,0,0.0
1.824053934999938,0,0,2.1547814941406247,0,0,0.765625
1.8257174340005804,0,0,2.4971523315429685,0,0,1.1484375
1.8274261550004667,0,0,1.9297265380859374,0,0,0.9953125
1.829119523999907,0,0,0.1771709228515625,0,0,0.0
1.8308506149996902,0,0,0.3232172241210937,0,0,0.6125
1.8324928930005626,0,0,1.8842367065429686,0,0,0.3828125
1.8341844470005526,0,0,2.1883003173828124,0,0,0.765625
1.8358244649998596,0,0,1.9871873779296874,0,0,1.990625
1.837493502000143,0,0,0.6751648681640625,0,0,0.8421875000000001
1.8392233149997992,0,0,1.0678139404296874,0,0,0.9187500000000001
1.8409780720003255,0,0,2.375048046875,0,0,1.3015625000000002
1.8425549250005133,0,0,2.233790148925781,0,0,0.8421875000000001
1.8440992579999147,0,0,1.5825672973632812,0,0,-852.8296875000001
1.8457874430005177,0,0,0.4955997436523437,0,0,-852.8296875000001
1.847486163999747,0,0,0.8858546142578124,0,0,0.0
1.849286439000025,0,0,1.2282254516601563,0,0,1.3015625000000002
1.8510498450004889,0,0,1.7645266235351562,0,0,0.8421875000000001
1.8527318070000547,0,0,1.2473790649414063,0,0,1.3015625000000002
1.854351435999888,0,0,0.7852981445312499,0,0,0.45937500000000003
1.8559750840004199,0,0,2.3223756103515623,0,0,1.4546875000000001
1.8579213760003768,0,0,2.3056161987304686,0,0,0.765625
1.8597360960002334,0,0,1.956062756347656,0,0,0.30625
1.8614502609998453,0,0,1.2282254516601563,0,0,0.45937500000000003
1.8631150940000225,0,0,0.3806780639648437,0,0,8.728125
1.864702631,0,0,0.8906430175781249,0,0,832.69375
1.8662611870004184,0,0,1.4772224243164063,0,0,0.6125
1.8679037050005718,0,0,1.1611878051757811,0,0,1.3015625000000002
1.8695329459997083,0,0,0.48123453369140623,0,0,-8.881250000000001
1.8711901300002864,0,0,0.9816226806640624,0,0,0.6125
1.8727900750000117,0,0,2.1691467041015624,0,0,0.765625
1.8756749860003765,0,0,2.269703173828125,0,0,0.3828125
1.877305707999767,0,0,1.5083470458984374,0,0,0.6890625
1.8789460590005547,0,0,0.17956512451171874,0,0,9.49375
1.880548244000238,0,0,1.3096283081054687,0,0,0.6890625
1.8824725180002133,0,0,1.6735469604492186,0,0,1.8375000000000001
1.8841046850002385,0,0,1.2689268798828124,0,0,1.9140625000000002
1.8861516980005035,0,0,0.9792284790039062,0,0,0.5359375000000001
1.8877411610001218,0,0,1.5825672973632812,0,0,1.225
1.8893461240004399,0,0,2.0278888061523435,0,0,0.765625
1.8913687300000674,0,0,2.224213342285156,0,0,0.22968750000000002
1.893011433000538,0,0,1.0223241088867188,0,0,-1.0718750000000001
1.8946346920001815,0,0,-0.009576806640625,0,0,9.264062500000001
1.896457745000589,0,0,1.1228805786132812,0,0,0.5359375000000001
1.8981072260003202,0,0,1.7166425903320313,0,0,1.4546875000000001
1.899732892999964,0,0,1.1755530151367186,0,0,1.53125
1.9015519829999903,0,0,0.4644751220703125,0,0,0.0765625
1.9033089439999458,0,0,1.0486603271484374,0,0,0.153125
1.9049044439998397,0,0,2.6575638427734374,0,0,1.0718750000000001
1.906453352000426,0,0,2.674323254394531,0,0,1.378125
1.9080937959997755,0,0,1.649604943847656,0,0,0.0
1.9097965540004225,0,0,-0.11731588134765625,0,0,-0.765625
1.9115434040004402,0,0,0.8930372192382812,0,0,0.0765625
1.913304884000354,0,0,1.3072341064453123,0,0,1.0718750000000001
1.9149347350003154,0,0,1.637633935546875,0,0,0.5359375000000001
1.916493939999782,0,0,1.2952630981445312,0,0,2.0671875
1.9181302719998712,0,0,0.8810662109374999,0,0,1.225
1.9197377910004434,0,0,1.7405846069335937,0,0,0.765625
1.9215573620003852,0,0,2.288856787109375,0,0,0.765625
1.9233142130005945,0,0,2.1068974609374997,0,0,-0.3828125
1.9249479529999007,0,0,1.0271125122070313,0,0,0.0
1.926489360999767,0,0,0.24660277099609373,0,0,-0.8421875000000001
1.9280604169998696,0,0,0.9026140258789062,0,0,0.0
1.9297053420004886,0,0,1.24498486328125,0,0,1.0718750000000001
1.9313990079999712,0,0,1.2306196533203124,0,0,1.378125
1.933205412999996,0,0,0.8068459594726562,0,0,9.49375
1.9349482630004786,0,0,1.426944189453125,0,0,1.53125
1.9367462050004178,0,0,2.8036101440429686,0,0,2.1437500000000003
1.9384640560001571,0,0,2.2266075439453124,0,0,1.225
1.9400773699999263,0,0,1.5442600708007812,0,0,1.3015625000000002
1.941863294000541,0,0,0.5482721801757812,0,0,-0.6125
1.9434642389996952,0,0,0.2920926025390625,0,0,0.0
1.945086683000227,0,0,1.2497732666015624,0,0,2.8328125
1.94705256799989,0,0,1.3144167114257812,0,0,1.378125
1.9487391590000698,0,0,0.6009446166992187,0,0,1.4546875000000001
1.9503416590005145,0,0,0.3950432739257812,0,0,1.1484375
1.9520899910003209,0,0,1.8315642700195311,0,0,2.9093750000000003
1.9538542110003618,0,0,2.5450363647460934,0,0,2.1437500000000003
1.9554072119999546,0,0,2.3247698120117186,0,0,1.3015625000000002
1.9570545630003835,0,0,1.2713210815429687,0,0,0.6125
1.9587375809996956,0,0,0.4860229370117187,0,0,-0.45937500000000003
1.9603143029999046,0,0,1.3192051147460937,0,0,0.22968750000000002
1.9621100040003512,0,0,1.448492004394531,0,0,1.4546875000000001
1.9638362440000492,0,0,0.9337386474609375,0,0,1.225
1.9654472620004526,0,0,0.6057330200195312,0,0,0.9187500000000001
1.9670979840002474,0,0,1.3263877197265623,0,0,1.1484375
1.968700909999825,0,0,2.288856787109375,0,0,1.4546875000000001
1.9702493550003055,0,0,1.867477294921875,0,0,0.9187500000000001
1.9718853730000774,0,0,1.7525556152343749,0,0,0.30625
1.9736414079998212,0,0,0.6416460449218749,0,0,-0.3828125
1.9753057779998926,0,0,0.4165910888671875,0,0,0.22968750000000002
1.9770266470004572,0,0,2.109291662597656,0,0,1.3015625000000002
1.9788356440003554,0,0,1.5298948608398437,0,0,0.9953125
1.980451866000294,0,0,0.9002198242187499,0,0,0.765625
1.981999366999844,0,0,0.7805097412109374,0,0,0.45937500000000003
1.9836218669997834,0,0,1.8914193115234375,0,0,0.6125
1.9854249010004423,0,0,2.437297290039062,0,0,1.1484375
1.9870545680005307,0,0,2.233790148925781,0,0,1.4546875000000001
1.9886167900003784,0,0,1.1252747802734375,0,0,0.22968750000000002
1.9903690660003122,0,0,0.258573779296875,0,0,-0.9187500000000001
1.9921534719996998,0,0,1.005564697265625,0,0,0.9953125
1.993940840000505,0,0,1.695094775390625,0,0,1.7609375
1.9958363370005827,0,0,1.1827356201171875,0,0,1.6843750000000002
1.9977294999998776,0,0,0.7422025146484375,0,0,1.0718750000000001
1.9993482219997532,0,0,1.3766659545898436,0,0,1.3015625000000002
2.0009906840004987,0,0,2.437297290039062,0,0,1.6843750000000002
2.002701293999962,0,0,2.0542250244140625,0,0,1.6078125
2.0043795339997814,0,0,1.9823989746093749,0,0,0.6125
2.0060301820003588,0,0,0.4860229370117187,0,0,-0.765625
2.007742976999907,0,0,1.0414777221679687,0,0,0.0765625
2.009352605999993,0,0,1.4891934326171874,0,0,0.9187500000000001
2.010988643000019,0,0,1.0582371337890624,0,0,0.765625
2.0126204200005304,0,0,0.6416460449218749,0,0,1.6078125
2.0141712360000383,0,0,0.7134720947265625,0,0,1.6078125
2.0158651600004305,0,0,2.4564509033203126,0,0,1.9140625000000002
2.0176463810003042,0,0,2.300827795410156,0,0,1.225
2.019211233000533,0,0,2.3367408203125,0,0,1.0718750000000001
2.0207597150001675,0,0,1.2665326782226562,0,0,0.9187500000000001
2.0224353439998595,0,0,0.6847416748046875,0,0,0.153125
2.024036399000579,0,0,1.2497732666015624,0,0,0.5359375000000001
2.025582492000467,0,0,1.3527239379882812,0,0,1.0718750000000001
2.0275954509997973,0,0,0.699106884765625,0,0,1.0718750000000001
2.0292348020002464,0,0,0.7948749511718749,0,0,0.9187500000000001
2.030833839000479,0,0,0.9911994873046874,0,0,1.1484375
2.0329093150003246,0,0,2.176329309082031,0,0,2.3734375
2.034479334000025,0,0,2.3678654418945313,0,0,1.7609375
2.036029538000548,0,0,2.1356278808593747,0,0,0.6890625
2.0376481310004237,0,0,0.603338818359375,0,0,0.0
2.0394512210004905,0,0,0.21308394775390624,0,0,0.45937500000000003
2.041071036000176,0,0,1.608903515625,0,0,0.765625
2.0426245180005935,0,0,1.2808978881835937,0,0,1.3015625000000002
2.0444868290005616,0,0,0.7613561279296874,0,0,1.225
2.046442695999758,0,0,1.3383587280273437,0,0,0.8421875000000001
2.0482205819998853,0,0,1.7166425903320313,0,0,1.4546875000000001
2.049905081000361,0,0,1.9800047729492187,0,0,1.0718750000000001
2.0517566710004758,0,0,1.8148048583984373,0,0,0.765625
2.053418966999743,0,0,1.2138602416992186,0,0,832.2343750000001
2.0550665959999606,0,0,0.4165910888671875,0,0,9.034375
2.056815316000211,0,0,2.128445275878906,0,0,0.9187500000000001
2.058511037000244,0,0,1.659181750488281,0,0,-8.575000000000001
2.0602004620004664,0,0,1.1109095703125,0,0,1.6843750000000002
2.0618811470003493,0,0,0.6416460449218749,0,0,0.45937500000000003
2.063661996000519,0,0,1.4796166259765624,0,0,832.69375
2.0653561440003614,0,0,1.9943699829101562,0,0,0.30625
2.066965199000151,0,0,2.712630480957031,0,0,1.1484375
2.0685250699998505,0,0,1.2976572998046874,0,0,0.45937500000000003
2.0702672899997197,0,0,0.22505495605468748,0,0,-0.30625
2.0719063269998514,0,0,0.9097966308593749,0,0,-0.153125
2.0735658080002395,0,0,1.4963760375976562,0,0,0.0
2.0753458240005784,0,0,1.66636435546875,0,0,1.4546875000000001
2.0771887660002903,0,0,1.8315642700195311,0,0,1.225
2.0788999129999866,0,0,1.0103531005859374,0,0,1.3015625000000002
2.081252293000034,0,0,1.8914193115234375,0,0,0.8421875000000001
2.0829829209997115,0,0,1.9704279663085937,0,0,1.9140625000000002
2.084778788999756,0,0,1.2473790649414063,0,0,0.5359375000000001
2.0866936370002804,0,0,0.5147533569335937,0,0,832.2343750000001
2.088428414000191,0,0,0.9911994873046874,0,0,0.30625
2.0901956520001477,0,0,1.2713210815429687,0,0,0.8421875000000001
2.091972686999725,0,0,1.1276689819335937,0,0,0.9187500000000001
2.093706333999762,0,0,0.74699091796875,0,0,9.264062500000001
2.0955990339998607,0,0,1.7477672119140624,0,0,1.1484375
2.097259256000143,0,0,2.6527754394531247,0,0,1.7609375
2.0989264400004686,0,0,2.427720483398437,0,0,1.1484375
2.1007160119997934,0,0,1.0223241088867188,0,0,1.225
2.1025057320002816,0,0,-0.17477672119140625,0,0,0.0
2.1043203780000113,0,0,0.9241618408203125,0,0,0.9187500000000001
2.1060345989999405,0,0,1.9895815795898437,0,0,1.4546875000000001
2.107867874000476,0,0,1.3287819213867187,0,0,1.225
2.109666983000352,0,0,0.35673604736328124,0,0,0.5359375000000001
2.1117282000004707,0,0,1.0558429321289062,0,0,1.0718750000000001
2.113531253000474,0,0,2.2385785522460937,0,0,0.0
2.1153973239997867,0,0,2.530671154785156,0,0,0.8421875000000001
2.1173299680003765,0,0,1.7788918334960937,0,0,1.1484375
2.1190772810005,0,0,0.19393033447265623,0,0,0.0
2.120742299000085,0,0,1.5203180541992187,0,0,2.3734375
2.122674203000315,0,0,1.419761584472656,0,0,0.9953125
2.124620810000124,0,0,1.0414777221679687,0,0,1.225
2.126396585999828,0,0,0.8571241943359375,0,0,0.6890625
2.1280983440001364,0,0,1.4532804077148436,0,0,1.8375000000000001
2.130349762000151,0,0,1.6998831787109374,0,0,1.1484375
2.132028834999801,0,0,1.6927005737304686,0,0,0.9187500000000001
2.13382616600029,0,0,0.7422025146484375,0,0,-1.0718750000000001
2.1356546269998944,0,0,1.5801730957031248,0,0,0.3828125
2.137327477999861,0,0,2.5905261962890624,0,0,1.4546875000000001
2.139053106000574,0,0,1.7022773803710936,0,0,0.8421875000000001
2.1408271219997914,0,0,0.63206923828125,0,0,0.6890625
2.142486935999841,0,0,0.32561142578124996,0,0,0.0
2.1441920830002346,0,0,1.2952630981445312,0,0,1.6843750000000002
2.146200449000389,0,0,2.176329309082031,0,0,1.3015625000000002
2.1480560760001026,0,0,1.85790048828125,0,0,1.3015625000000002
2.1504030120004245,0,0,0.44053310546874996,0,0,-852.8296875000001
2.152189546000045,0,0,0.9361328491210937,0,0,0.153125
2.1538656749999063,0,0,2.1643583007812497,0,0,0.0
2.1555237490001673,0,0,1.8339584716796873,0,0,1.7609375
2.1576677980001477,0,0,0.7517793212890624,0,0,0.45937500000000003
2.1593674260002444,0,0,0.6847416748046875,0,0,0.9187500000000001
2.1609227230001125,0,0,1.714248388671875,0,0,0.765625
2.1626469069997256,0,0,2.0566192260742184,0,0,0.5359375000000001
2.164349683999717,0,0,1.7357962036132812,0,0,0.0765625
2.1659549060004792,0,0,0.5363011718749999,0,0,-0.153125
2.1675077580002835,0,0,1.3024457031249999,0,0,0.8421875000000001
2.16925003400047,0,0,1.6041151123046875,0,0,1.225
2.170879201000389,0,0,1.3144167114257812,0,0,0.6890625
2.1724377199998344,0,0,1.24498486328125,0,0,0.9953125
2.1741399590000583,0,0,0.7326257080078125,0,0,9.646875000000001
2.175728625999909,0,0,1.5179238525390624,0,0,0.765625
2.1773207739997815,0,0,2.454056701660156,0,0,1.7609375
2.1789770140003384,0,0,2.4516625,0,0,1.990625
2.1806111619998774,0,0,0.7613561279296874,0,0,0.5359375000000001
2.1821613660004004,0,0,0.2346317626953125,0,0,-0.45937500000000003
2.1837863290002133,0,0,1.1420341918945311,0,0,-9.8
2.185440958000072,0,0,1.9728221679687499,0,0,0.5359375000000001
2.1870099580000897,0,0,2.0446482177734375,0,0,1.0718750000000001
2.188699791000545,0,0,0.948103857421875,0,0,1.3015625000000002
2.1903353090001474,0,0,0.4572925170898437,0,0,0.8421875000000001
2.191951974999938,0,0,1.0366893188476562,0,0,1.225
2.1935659939999823,0,0,2.3774422485351563,0,0,0.765625
2.1951986230005787,0,0,2.6240450195312497,0,0,0.765625
2.1968282710004132,0,0,1.5825672973632812,0,0,1.53125
2.198425233999842,0,0,0.8643067993164062,0,0,-0.30625
2.200057177999952,0,0,1.1156979736328125,0,0,0.9953125
2.2016641219997837,0,0,1.7836802368164062,0,0,1.6078125
2.2032750480002505,0,0,1.5969325073242187,0,0,0.9187500000000001
2.2049117699998533,0,0,1.1061211669921875,0,0,1.8375000000000001
2.206505936999747,0,0,1.0175357055664063,0,0,0.6125
2.208275175000381,0,0,1.4772224243164063,0,0,1.0718750000000001
2.209981341000457,0,0,1.9584569580078124,0,0,0.9187500000000001
2.2116484879998097,0,0,1.4604630126953124,0,0,1.1484375
2.213243877000423,0,0,0.8164227661132812,0,0,1.53125
2.214867210000193,0,0,0.35194764404296874,0,0,1.0718750000000001
2.2164857660000052,0,0,2.480392919921875,0,0,1.4546875000000001
2.218055469999854,0,0,2.0638018310546875,0,0,1.4546875000000001
2.2195990259997416,0,0,1.3910311645507811,0,0,1.378125
2.2212451180002972,0,0,1.0654197387695312,0,0,0.5359375000000001
2.2229735789996994,0,0,0.7230489013671875,0,0,0.0
2.2246737820005364,0,0,2.0781670410156248,0,0,1.7609375
2.2270419770002263,0,0,2.152387292480469,0,0,1.1484375
2.228824623000037,0,0,0.7350199096679687,0,0,0.9953125
2.2305969910003114,0,0,-0.19153613281249998,0,0,-852.8296875000001
2.232544061000226,0,0,1.62805712890625,0,0,0.153125
2.234183098000358,0,0,1.917755529785156,0,0,0.153125
2.2358280790003846,0,0,1.7836802368164062,0,0,1.7609375
2.2375263000003542,0,0,0.8451531860351562,0,0,1.225
2.2392101690002164,0,0,0.5339069702148437,0,0,0.6125
2.240945759999704,0,0,2.032677209472656,0,0,0.9187500000000001
2.242634074000307,0,0,2.446874096679687,0,0,0.6125
2.244207963000008,0,0,1.8818425048828125,0,0,-0.8421875000000001
2.2459619250003016,0,0,0.19632453613281248,0,0,-0.765625
2.247699849000128,0,0,0.7445967163085937,0,0,0.0
2.249434922000546,0,0,1.005564697265625,0,0,1.0718750000000001
2.2511579940000956,0,0,1.659181750488281,0,0,1.225
2.2529107330001352,0,0,1.2665326782226562,0,0,1.1484375
2.254786970999703,0,0,1.1156979736328125,0,0,1.378125
2.2567396330005067,0,0,2.6815058593749996,0,0,1.53125
2.2586316110000553,0,0,2.4253262817382812,0,0,1.53125
2.2604372390005665,0,0,1.8746598999023436,0,0,0.5359375000000001
2.262442066999938,0,0,0.28969840087890625,0,0,-1.1484375
2.264435785000387,0,0,0.7972691528320313,0,0,-0.8421875000000001
2.2663240970005063,0,0,1.4173673828125,0,0,1.4546875000000001
2.2680836870003986,0,0,1.2689268798828124,0,0,1.9140625000000002
2.2697853899999245,0,0,0.4261678955078125,0,0,0.9953125
2.271632072000102,0,0,1.6328455322265625,0,0,1.3015625000000002
2.2734570510001504,0,0,2.1619640991210938,0,0,2.0671875
2.2752010120002524,0,0,2.6240450195312497,0,0,1.6843750000000002
2.2768877710004745,0,0,1.618480322265625,0,0,1.1484375
2.2785997319997477,0,0,0.13407529296874998,0,0,-0.8421875000000001
2.2801574370005255,0,0,0.9313444458007812,0,0,-0.30625
2.2817364550001002,0,0,1.6160861206054686,0,0,0.9187500000000001
2.2833801770002538,0,0,1.5394716674804687,0,0,2.3734375
2.285003343000426,0,0,0.8786720092773437,0,0,1.6078125
2.2866623609997987,0,0,0.6679822631835937,0,0,0.6125
2.2883674900003825,0,0,1.6304513305664061,0,0,1.1484375
2.2900374330001796,0,0,2.389413256835937,0,0,2.75625
2.29158817500047,0,0,2.094926452636719,0,0,1.1484375
2.293231507999735,0,0,1.0941501586914062,0,0,0.765625
2.2948415629998635,0,0,0.06703764648437499,0,0,8.8046875
2.2963957669999218,0,0,0.967257470703125,0,0,0.30625
2.298114266000084,0,0,2.2457611572265623,0,0,1.378125
2.299755414000174,0,0,1.4724340209960938,0,0,1.7609375
2.3013207290005084,0,0,0.8499415893554687,0,0,0.8421875000000001
2.3029116730003807,0,0,0.7972691528320313,0,0,0.0
2.30455646900009,0,0,2.231395947265625,0,0,0.30625
2.306170710000515,0,0,2.2960393920898436,0,0,0.6890625
2.3077246359998753,0,0,1.9105729248046874,0,0,0.9953125
2.309519227000237,0,0,-0.06943184814453125,0,0,0.45937500000000003
2.311230596000314,0,0,-0.51714755859375,0,0,-852.8296875000001
2.3128536880003594,0,0,1.618480322265625,0,0,0.30625
2.314515854000092,0,0,2.2170307373046874,0,0,0.153125
2.3161223170000085,0,0,1.7094599853515624,0,0,1.6843750000000002
2.317707557999711,0,0,0.86191259765625,0,0,0.9187500000000001
2.319353835000584,0,0,0.8212111694335937,0,0,0.6890625
2.3209603350005636,0,0,2.003946789550781,0,0,1.1484375
2.3227385919999506,0,0,2.384624853515625,0,0,0.8421875000000001
2.3245751820004443,0,0,1.0773907470703123,0,0,-853.4421875
2.326274292000562,0,0,0.3447650390625,0,0,-1.1484375
2.327990439000132,0,0,1.0438719238281249,0,0,0.30625
2.329742844000066,0,0,1.4221557861328125,0,0,0.9187500000000001
2.3314561580000372,0,0,1.0893617553710937,0,0,1.4546875000000001
2.3331626750004943,0,0,1.0414777221679687,0,0,0.6125
2.3349935799997183,0,0,1.2737152832031249,0,0,1.53125
2.3370055750001484,0,0,2.4396914916992185,0,0,1.8375000000000001
2.339012534000176,0,0,1.9776105712890624,0,0,1.6078125
2.340817698000137,0,0,0.7350199096679687,0,0,0.6890625
2.342491641000379,0,0,0.22505495605468748,0,0,-0.6890625
2.3442165659998864,0,0,1.20667763671875,0,0,-0.6125
2.34621491300004,0,0,1.7094599853515624,0,0,0.8421875000000001
2.348097725000116,0,0,1.3168109130859373,0,0,1.1484375
2.3500205540003662,0,0,0.47644613037109373,0,0,0.8421875000000001
2.3517636269998548,0,0,1.7788918334960937,0,0,0.9187500000000001
2.353431737000392,0,0,2.5617957763671875,0,0,1.9140625000000002
2.3552132909999273,0,0,2.5857377929687497,0,0,2.3734375
2.357023233000291,0,0,1.1276689819335937,0,0,0.765625
2.3602342140002293,0,0,1.3575123413085937,0,0,0.0765625
2.3625177060002898,0,0,1.9871873779296874,0,0,1.0718750000000001
2.3651656940000976,0,0,0.8379705810546875,0,0,1.6843750000000002
2.367431796999881,0,0,0.7445967163085937,0,0,0.765625
2.370783776999815,0,0,2.2840683837890623,0,0,1.9140625000000002
2.373049861999789,0,0,0.9648632690429687,0,0,0.6890625
2.3748891929999445,0,0,-0.031124621582031248,0,0,-0.5359375000000001
2.3766056539998317,0,0,1.714248388671875,0,0,0.45937500000000003
2.3782493389999217,0,0,2.01112939453125,0,0,0.8421875000000001
2.3798169319998124,0,0,1.458068811035156,0,0,1.8375000000000001
2.3814183579997916,0,0,0.622492431640625,0,0,0.9187500000000001
2.383556370000406,0,0,1.5849614990234373,0,0,1.7609375
2.38552634700045,0,0,2.501940734863281,0,0,1.1484375
2.3874161769999773,0,0,2.5522189697265625,0,0,0.8421875000000001
2.389472339000349,0,0,1.1540052001953125,0,0,0.30625
2.391132597000251,0,0,-0.4477157104492187,0,0,0.0
2.3927829490003205,0,0,1.659181750488281,0,0,0.5359375000000001
2.3947390559997075,0,0,1.8267758666992187,0,0,1.0718750000000001
2.3967375140000513,0,0,1.2042834350585936,0,0,1.6843750000000002
2.3984303460001684,0,0,0.9888052856445312,0,0,0.9187500000000001
2.400082809000196,0,0,1.7621324218749999,0,0,1.6843750000000002
2.4017792519998693,0,0,2.1547814941406247,0,0,0.8421875000000001
2.4033866409999973,0,0,2.1499930908203124,0,0,0.8421875000000001
2.405026176999854,0,0,1.139639990234375,0,0,0.22968750000000002
2.40665845500007,0,0,-0.055066638183593745,0,0,-0.6125
2.408216511000319,0,0,1.180341418457031,0,0,0.30625
2.40980965900053,0,0,1.3766659545898436,0,0,1.4546875000000001
2.4114684360001775,0,0,0.9983820922851562,0,0,1.7609375
2.413144490999912,0,0,0.9864110839843749,0,0,1.4546875000000001
2.4148037490003844,0,0,1.2761094848632812,0,0,0.45937500000000003
2.416557933000149,0,0,2.93050283203125,0,0,2.2203125000000004
2.4181282300005478,0,0,3.1364041748046874,0,0,1.3015625000000002
2.4196776750004574,0,0,2.231395947265625,0,0,0.6890625
2.421320729999934,0,0,0.9864110839843749,0,0,0.45937500000000003
2.4230071550000503,0,0,-0.07900865478515624,0,0,832.9234375000001
2.4246302470000956,0,0,1.2641384765625,0,0,-0.3828125
2.42627298699972,0,0,1.5251064575195312,0,0,0.6890625
2.4279058760002954,0,0,1.2904746948242187,0,0,1.8375000000000001
2.4295958190004967,0,0,0.28969840087890625,0,0,0.5359375000000001
2.4312488739997207,0,0,0.5434837768554687,0,0,1.0718750000000001
2.432967687999735,0,0,2.437297290039062,0,0,1.1484375
2.4347612780002237,0,0,2.858676782226562,0,0,0.9953125
2.4363525190001383,0,0,2.2098481323242187,0,0,0.8421875000000001
2.4381299060005404,0,0,0.7876923461914062,0,0,832.2343750000001
2.439748368000437,0,0,1.1875240234375,0,0,0.0765625
2.4414489410000897,0,0,1.3263877197265623,0,0,1.225
2.4432961980000982,0,0,1.1444283935546875,0,0,0.9953125
2.44495766,0,0,0.7685387329101562,0,0,0.0
2.44659651100028,0,0,0.9840168823242187,0,0,1.4546875000000001
2.448867189000339,0,0,2.480392919921875,0,0,1.53125
2.450615354000547,0,0,2.3582886352539063,0,0,2.1437500000000003
2.452688534000117,0,0,1.158793603515625,0,0,0.8421875000000001
2.454372866000085,0,0,0.316034619140625,0,0,-1.6843750000000002
2.4564178239998,0,0,1.2569558715820313,0,0,0.0
2.4580941189997247,0,0,2.123656872558594,0,0,0.6890625
2.459688138000274,0,0,1.3096283081054687,0,0,1.225
2.4613377480000054,0,0,0.5458779785156249,0,0,0.5359375000000001
2.4630686910004442,0,0,0.258573779296875,0,0,0.3828125
2.4646403209999335,0,0,2.142810485839844,0,0,0.30625
2.466281486999833,0,0,2.592920397949219,0,0,0.8421875000000001
2.4679018019996875,0,0,2.3965958618164063,0,0,0.8421875000000001
2.469469542999832,0,0,1.3407529296874998,0,0,0.6125
2.4711133939999854,0,0,-0.023942016601562498,0,0,0.0765625
2.4727201349996903,0,0,1.5562310791015623,0,0,0.0765625
2.4742661170002975,0,0,1.70467158203125,0,0,1.4546875000000001
2.4759097460000703,0,0,1.637633935546875,0,0,2.296875
2.4776160600004005,0,0,0.86191259765625,0,0,0.765625
2.4792854850002186,0,0,0.6177040283203125,0,0,0.9187500000000001
2.4808974850002414,0,0,2.0566192260742184,0,0,1.4546875000000001
2.4825410960002046,0,0,2.418143676757812,0,0,1.378125
2.484099874000094,0,0,1.8746598999023436,0,0,1.8375000000000001
2.4856596520003222,0,0,0.32082302246093747,0,0,1.0718750000000001
2.48730181800056,0,0,0.11013327636718749,0,0,0.6125
2.4889059850002013,0,0,1.2737152832031249,0,0,0.6890625
2.4904575230002592,0,0,1.5945383056640625,0,0,1.0718750000000001
2.492139558999952,0,0,1.407790576171875,0,0,1.9140625000000002
2.4937299849998453,0,0,0.3687070556640625,0,0,1.0718750000000001
2.495268114999817,0,0,0.8379705810546875,0,0,1.4546875000000001
2.497485701000187,0,0,2.521094348144531,0,0,1.9140625000000002
2.499082367000483,0,0,2.442085693359375,0,0,1.990625
2.500645701000394,0,0,0.8283937744140625,0,0,1.225
2.502362829000049,0,0,0.028730419921875,0,0,-0.8421875000000001
2.5040223470005003,0,0,1.2665326782226562,0,0,0.6125
2.5055865140002425,0,0,1.7262193969726563,0,0,2.1437500000000003
2.5073265870005343,0,0,1.4437036010742186,0,0,2.1437500000000003
2.5088992540004256,0,0,0.5722141967773438,0,0,1.1484375
2.510445050999806,0,0,0.296881005859375,0,0,0.6125
2.5121499380002206,0,0,1.3479355346679687,0,0,1.8375000000000001
2.513814067000567,0,0,2.750937707519531,0,0,2.5265625000000003
2.516557183999794,0,0,2.437297290039062,0,0,0.3828125
2.5182045540004765,0,0,0.8810662109374999,0,0,-0.5359375000000001
2.5200896980004472,0,0,1.2473790649414063,0,0,0.0
2.5217538639999475,0,0,1.7741034301757812,0,0,1.225
2.523413234000145,0,0,1.6735469604492186,0,0,1.225
2.5250490480002554,0,0,0.689530078125,0,0,0.5359375000000001
2.5271060800005216,0,0,0.30885201416015623,0,0,0.9187500000000001
2.5288183200000276,0,0,2.214636535644531,0,0,1.4546875000000001
2.530648001999907,0,0,2.3487118286132813,0,0,2.45
2.5322178360002,0,0,1.8698714965820311,0,0,1.0718750000000001
2.534025371000098,0,0,0.46208092041015625,0,0,-0.30625
2.5357042209998326,0,0,1.6400281372070311,0,0,0.6125
2.537286980999852,0,0,1.944091748046875,0,0,0.9953125
2.538885554999979,0,0,1.8243816650390623,0,0,0.9953125
2.5417288180005926,0,0,0.00239420166015625,0,0,0.0
2.5435219090004466,0,0,0.19153613281249998,0,0,0.30625
2.545185204000518,0,0,2.128445275878906,0,0,0.6890625
2.5468335000005027,0,0,2.269703173828125,0,0,2.1437500000000003
2.5484123340002043,0,0,2.0638018310546875,0,0,1.0718750000000001
2.549961316000008,0,0,0.3495534423828125,0,0,-9.646875000000001
2.5515890010001385,0,0,0.15083470458984374,0,0,0.0765625
2.553534478000074,0,0,1.8555062866210936,0,0,1.9140625000000002
2.555176274000587,0,0,2.0278888061523435,0,0,1.378125
2.556764144999761,0,0,0.8954314208984374,0,0,1.378125
2.558425107000403,0,0,0.6464344482421874,0,0,0.8421875000000001
2.5604010650004057,0,0,1.4030021728515625,0,0,1.4546875000000001
2.562010991000534,0,0,2.3151930053710936,0,0,1.225
2.563656305999757,0,0,1.5514426757812498,0,0,0.45937500000000003
2.565291249999973,0,0,0.9145850341796874,0,0,0.153125
2.567092154999955,0,0,0.011971008300781249,0,0,9.49375
2.5687681350000275,0,0,1.637633935546875,0,0,0.765625
2.570359895000365,0,0,1.8722656982421875,0,0,1.7609375
2.5719616169999426,0,0,1.3479355346679687,0,0,2.2203125000000004
2.5736044870000114,0,0,0.8068459594726562,0,0,0.6890625
2.5752367830000367,0,0,0.8188169677734375,0,0,0.0765625
2.5772186120002516,0,0,2.760514514160156,0,0,1.378125
2.578883870000027,0,0,2.528276953125,0,0,2.1437500000000003
2.5804875180001545,0,0,1.5179238525390624,0,0,0.9953125
2.58204553700034,0,0,-0.42377369384765623,0,0,-0.9187500000000001
2.583674037000492,0,0,1.209071838378906,0,0,0.22968750000000002
2.5853594430000157,0,0,1.68551796875,0,0,1.378125
2.5869267770003717,0,0,1.5658078857421873,0,0,0.6125
2.588490092000029,0,0,1.448492004394531,0,0,1.6078125
2.590172703000462,0,0,0.2657563842773437,0,0,0.9953125
2.591887775000032,0,0,1.9297265380859374,0,0,1.1484375
2.593492553000033,0,0,2.626439221191406,0,0,1.0718750000000001
2.595125941999868,0,0,2.521094348144531,0,0,0.45937500000000003
2.596919716999764,0,0,0.9337386474609375,0,0,0.3828125
2.5985283099998924,0,0,0.32082302246093747,0,0,-1.4546875000000001
2.600188438999794,0,0,1.180341418457031,0,0,1.6078125
2.6018633640005646,0,0,1.7214309936523438,0,0,1.3015625000000002
2.6035480850005115,0,0,1.39821376953125,0,0,1.6843750000000002
2.6051929730001575,0,0,0.5243301635742187,0,0,-0.3828125
2.6068232320003517,0,0,0.6919242797851562,0,0,0.30625
2.608495823999874,0,0,2.262520568847656,0,0,1.6843750000000002
2.6101720450005814,0,0,2.482787121582031,0,0,1.225
2.6118305259997214,0,0,1.5203180541992187,0,0,0.6125
2.613538839999819,0,0,0.7924807495117187,0,0,0.0
2.615303763999691,0,0,-0.1292868896484375,0,0,-0.45937500000000003
2.6168729860000894,0,0,1.924938134765625,0,0,0.30625
2.6184186350001255,0,0,2.482787121582031,0,0,1.378125
2.6202395959999194,0,0,1.3192051147460937,0,0,1.378125
2.6219262980002895,0,0,0.16280571289062498,0,0,0.3828125
2.623582148999958,0,0,0.5482721801757812,0,0,0.3828125
2.625276130000202,0,0,2.4109610717773435,0,0,0.0
2.6269144810003127,0,0,2.27927998046875,0,0,1.4546875000000001
2.6286063690004084,0,0,2.109291662597656,0,0,1.0718750000000001
2.630165796000256,0,0,-0.22744915771484372,0,0,-0.9187500000000001
2.631780239999898,0,0,0.8595183959960937,0,0,0.45937500000000003
2.633469182999761,0,0,1.7094599853515624,0,0,1.6843750000000002
2.63516425600028,0,0,2.1116858642578125,0,0,1.1484375
2.6367730900001334,0,0,1.3000515014648437,0,0,1.4546875000000001
2.6385594020002827,0,0,0.8475473876953125,0,0,0.6890625
2.6402321049999955,0,0,1.5322890624999999,0,0,1.1484375
2.6417864570003076,0,0,2.0733786376953125,0,0,0.6125
2.643331125000259,0,0,2.2553379638671873,0,0,0.8421875000000001
2.6450251980004396,0,0,0.8068459594726562,0,0,0.0
2.64675017799982,0,0,-0.16998831787109375,0,0,8.6515625
2.6486468780003634,0,0,1.3910311645507811,0,0,0.0765625
2.6503754320001462,0,0,1.7429788085937499,0,0,1.53125
2.652248559000327,0,0,1.5275006591796874,0,0,2.1437500000000003
2.654009964000579,0,0,0.36152445068359373,0,0,1.0718750000000001
2.6556595190004373,0,0,2.1452046874999997,0,0,1.225
2.6574554609996994,0,0,2.463633508300781,0,0,1.378125
2.6591861269998844,0,0,2.760514514160156,0,0,1.378125
2.660831459000292,0,0,0.9169792358398436,0,0,0.6890625
2.6626074020005035,0,0,-0.20829554443359374,0,0,-0.765625
2.6644032330004848,0,0,0.6368576416015624,0,0,0.6890625
2.6663013779998437,0,0,1.7334020019531249,0,0,0.8421875000000001
2.668082709000373,0,0,1.6735469604492186,0,0,1.6843750000000002
2.6699965019997762,0,0,0.4285620971679687,0,0,0.765625
2.6718135359997177,0,0,1.6903063720703124,0,0,1.7609375
2.673667717999706,0,0,2.5737667846679684,0,0,0.765625
2.675751491000483,0,0,2.3223756103515623,0,0,0.9953125
2.6776897460003966,0,0,0.6967126831054687,0,0,0.0
2.6793725779998567,0,0,0.16280571289062498,0,0,0.6890625
2.6823829510003634,0,0,1.2904746948242187,0,0,1.1484375
2.684074634999888,0,0,1.0869675537109373,0,0,1.4546875000000001
2.6857431710004676,0,0,0.43574470214843747,0,0,0.9953125
2.687942589999693,0,0,2.3343466186523436,0,0,1.1484375
2.6900517880003463,0,0,2.4205378784179685,0,0,0.9953125
2.6918486189997566,0,0,1.7477672119140624,0,0,0.9953125
2.694016909000311,0,0,-0.06464344482421874,0,0,-0.9953125
2.6957953139999518,0,0,1.199495031738281,0,0,0.45937500000000003
2.6978833640005178,0,0,2.0446482177734375,0,0,1.8375000000000001
2.700060524000037,0,0,1.1827356201171875,0,0,1.6843750000000002
2.701835337000375,0,0,0.4525041137695312,0,0,0.6125
2.7034978550000233,0,0,1.0726023437499999,0,0,1.1484375
2.70539822200044,0,0,2.1499930908203124,0,0,0.30625
2.7073316070000146,0,0,2.147598889160156,0,0,1.0718750000000001
2.7093961939999645,0,0,1.218648645019531,0,0,0.6890625
2.7113101530003405,0,0,-0.1149216796875,0,0,0.6890625
2.712974523000412,0,0,1.2569558715820313,0,0,2.75625
2.7145391160001964,0,0,1.484405029296875,0,0,1.4546875000000001
2.7161079500001506,0,0,1.4987702392578124,0,0,2.6796875
2.717851225999766,0,0,1.0941501586914062,0,0,1.378125
2.719584909000332,0,0,1.5346832641601562,0,0,1.4546875000000001
2.721162687999822,0,0,2.4875755249023435,0,0,1.6843750000000002
2.722887296999943,0,0,2.0781670410156248,0,0,1.3015625000000002
2.724593480999829,0,0,1.6639701538085936,0,0,1.1484375
2.7262295360005737,0,0,0.19153613281249998,0,0,-0.6125
2.727920295000331,0,0,1.2569558715820313,0,0,0.45937500000000003
2.7296787559998847,0,0,1.5825672973632812,0,0,1.4546875000000001
2.731393625000237,0,0,1.350329736328125,0,0,2.1437500000000003
2.733485304000169,0,0,0.49320554199218747,0,0,0.9953125
2.735272506000001,0,0,1.3144167114257812,0,0,-0.765625
2.736977764000585,0,0,2.89219560546875,0,0,1.6078125
2.7385388200000307,0,0,2.8562825805664063,0,0,1.53125
2.7401525969999057,0,0,2.0446482177734375,0,0,0.45937500000000003
2.741908818000411,0,0,-0.2537853759765625,0,0,-1.0718750000000001
2.743553002999761,0,0,-0.19153613281249998,0,0,0.0
2.7451712250003766,0,0,1.2856862915039062,0,0,0.22968750000000002
2.746859687000324,0,0,1.3048399047851562,0,0,1.1484375
2.7484348719999616,0,0,1.2282254516601563,0,0,1.53125
2.7500276500004475,0,0,0.0718260498046875,0,0,0.8421875000000001
2.7517198530003952,0,0,1.7693150268554687,0,0,1.3015625000000002
2.7534127220005757,0,0,2.480392919921875,0,0,0.9187500000000001
2.755045943999903,0,0,2.8658593872070313,0,0,1.6843750000000002
2.756846977999885,0,0,1.0893617553710937,0,0,0.6125
2.7584368859997994,0,0,0.239420166015625,0,0,-1.53125
2.7600461270003507,0,0,1.1875240234375,0,0,0.0
2.761698496000463,0,0,1.5131354492187499,0,0,0.8421875000000001
2.7633327370003826,0,0,1.2832920898437499,0,0,1.3015625000000002
2.7650110510003287,0,0,0.33039982910156246,0,0,1.6078125
2.766660346000208,0,0,0.40940848388671874,0,0,1.1484375
2.768276845999935,0,0,2.2673089721679687,0,0,1.9140625000000002
2.770188213000438,0,0,2.4779987182617185,0,0,1.378125
2.772034729000552,0,0,1.8124106567382812,0,0,0.3828125
2.773695654000221,0,0,0.086191259765625,0,0,-0.6890625
2.7753089500001806,0,0,0.21787235107421873,0,0,-0.5359375000000001
2.7770145040003626,0,0,1.8052280517578123,0,0,0.45937500000000003
2.7786430229998587,0,0,1.9632453613281249,0,0,1.3015625000000002
2.7801989859999594,0,0,0.7757213378906249,0,0,2.1437500000000003
2.7818505229997754,0,0,0.06943184814453125,0,0,1.0718750000000001
2.783628539000347,0,0,0.622492431640625,0,0,0.9187500000000001
2.785467814000185,0,0,2.327164013671875,0,0,0.5359375000000001
2.7871770540004945,0,0,2.7054478759765623,0,0,0.6890625
2.7888471450005454,0,0,1.419761584472656,0,0,1.0718750000000001
2.7904761640002107,0,0,0.14604630126953125,0,0,-0.9187500000000001
2.7920254790005856,0,0,0.9959878906249999,0,0,0.0765625
2.793695311999727,0,0,1.6998831787109374,0,0,0.9953125
2.7955865120002272,0,0,1.22583125,0,0,0.5359375000000001
2.797165531000246,0,0,0.7038952880859375,0,0,0.45937500000000003
2.7987122720005573,0,0,1.2761094848632812,0,0,0.5359375000000001
2.800449456000024,0,0,2.0254946044921875,0,0,1.9140625000000002
2.8020639180003855,0,0,2.454056701660156,0,0,1.225
2.8036236970001482,0,0,2.4444798950195312,0,0,0.3828125
2.8053461770005015,0,0,0.8092401611328125,0,0,0.153125
2.8070286760003,0,0,0.28969840087890625,0,0,-0.6890625
2.80859301000055,0,0,1.438915197753906,0,0,0.0765625
2.810135120999803,0,0,1.8555062866210936,0,0,1.6078125
2.811727436000183,0,0,0.7733271362304687,0,0,1.990625
2.81337010200059,0,0,0.19393033447265623,0,0,1.1484375
2.8150244170001315,0,0,0.833182177734375,0,0,1.225
2.816660600999967,0,0,2.224213342285156,0,0,2.1437500000000003
2.8183637299998736,0,0,2.81558115234375,0,0,1.8375000000000001
2.819984247999855,0,0,1.9776105712890624,0,0,0.5359375000000001
2.8216019700003017,0,0,0.9816226806640624,0,0,0.0
2.8233236360001683,0,0,0.033518823242187495,0,0,0.0
2.824924653999915,0,0,1.3048399047851562,0,0,0.8421875000000001
2.8264867660000164,0,0,1.5179238525390624,0,0,1.0718750000000001
2.828203578999819,0,0,1.0869675537109373,0,0,2.3734375
2.8298395230003734,0,0,0.17477672119140625,0,0,0.6890625
2.8313930049998817,0,0,1.2832920898437499,0,0,1.3015625000000002
2.83304376399974,0,0,2.849099975585937,0,0,1.7609375
2.8347757620003904,0,0,2.379836450195312,0,0,2.1437500000000003
2.836587927000437,0,0,1.9752163696289062,0,0,0.5359375000000001
2.8382352589997026,0,0,-0.36631285400390623,0,0,-2.2203125000000004
2.8399529620000976,0,0,1.8124106567382812,0,0,0.30625
2.8416288130001703,0,0,2.01112939453125,0,0,0.9187500000000001
2.8433331450005426,0,0,1.1707646118164061,0,0,1.8375000000000001
2.844918960000541,0,0,0.05027823486328125,0,0,1.53125
2.8467584569998508,0,0,1.0031704956054688,0,0,1.4546875000000001
2.8487535450003634,0,0,3.3159692993164063,0,0,1.6843750000000002
2.8503241200005505,0,0,3.3351229125976563,0,0,1.8375000000000001
2.8519248600005085,0,0,1.8770541015625,0,0,0.3828125
2.8539919840004586,0,0,-0.24899697265624998,0,0,-1.53125
2.8556720209999185,0,0,-0.24660277099609373,0,0,-0.6125
2.8573357240002224,0,0,1.637633935546875,0,0,0.22968750000000002
2.8592986080002447,0,0,1.599326708984375,0,0,1.4546875000000001
2.8608697010004107,0,0,0.055066638183593745,0,0,0.8421875000000001
2.8624150169998757,0,0,-0.22505495605468748,0,0,0.3828125
2.8640566270005365,0,0,1.62805712890625,0,0,0.9953125
2.8656671460003054,0,0,2.3918074584960936,0,0,0.6125
2.867211609000151,0,0,2.925714428710937,0,0,1.1484375
2.8690959209998255,0,0,1.2761094848632812,0,0,0.9187500000000001
2.870681625000543,0,0,0.0430956298828125,0,0,8.498437500000001
2.872229088000495,0,0,1.1372457885742187,0,0,-0.30625
2.873777644999791,0,0,1.7525556152343749,0,0,1.1484375
2.8754159400004937,0,0,1.0869675537109373,0,0,1.8375000000000001
2.8771573459998763,0,0,0.6631938598632812,0,0,0.30625
2.8787520129999393,0,0,0.8068459594726562,0,0,0.5359375000000001
2.880418142000053,0,0,1.4173673828125,0,0,1.225
2.8821123810002973,0,0,2.3822306518554686,0,0,1.0718750000000001
2.883664103999763,0,0,2.5378537597656248,0,0,1.225
2.885301733000233,0,0,1.1013327636718748,0,0,1.6843750000000002
2.886919714999749,0,0,-0.16041151123046873,0,0,-0.8421875000000001
2.8885048450001705,0,0,0.9648632690429687,0,0,0.5359375000000001
2.8901564550005787,0,0,1.9800047729492187,0,0,1.6843750000000002
2.891972266999801,0,0,0.7230489013671875,0,0,1.225
2.893693044000429,0,0,0.6823474731445313,0,0,0.30625
2.895504801000243,0,0,0.3136404174804687,0,0,0.22968750000000002
2.897086300999945,0,0,2.5139117431640625,0,0,2.0671875
2.898749930000122,0,0,2.6815058593749996,0,0,1.6078125
2.9004816500000743,0,0,1.898601916503906,0,0,0.765625
2.902115280000544,0,0,0.16280571289062498,0,0,0.22968750000000002
2.903891554999973,0,0,0.2753331909179687,0,0,9.1109375
2.905627553999693,0,0,1.707065783691406,0,0,0.0765625
2.907255109000289,0,0,2.3056161987304686,0,0,0.6125
2.9091009399999166,0,0,1.1180921752929687,0,0,1.6078125
2.9110379539997666,0,0,0.12689268798828124,0,0,0.5359375000000001
2.9127180639998187,0,0,0.6727706665039062,0,0,1.0718750000000001
2.9149120950005454,0,0,2.8993782104492185,0,0,0.9187500000000001
2.9169745520002834,0,0,2.051830822753906,0,0,1.6078125
2.9186734590002743,0,0,0.9816226806640624,0,0,0.9187500000000001
2.920649047000552,0,0,-0.02154781494140625,0,0,9.5703125
2.924150857999848,0,0,1.6927005737304686,0,0,0.765625
2.9261087989998487,0,0,0.5123591552734374,0,0,0.6125
2.9280700540002726,0,0,0.4165910888671875,0,0,1.1484375
2.929715701000532,0,0,1.4532804077148436,0,0,1.3015625000000002
2.931695086000218,0,0,2.7916391357421872,0,0,2.2203125000000004
2.933448010000575,0,0,2.068590234375,0,0,2.1437500000000003
2.9351839709997876,0,0,0.9409212524414062,0,0,0.9187500000000001
2.9367554529999325,0,0,0.10295067138671875,0,0,-1.4546875000000001
2.938783837000301,0,0,2.4851813232421875,0,0,0.45937500000000003
2.940654001000439,0,0,2.2673089721679687,0,0,1.990625
2.942432925000503,0,0,0.6823474731445313,0,0,0.5359375000000001
2.944082109000192,0,0,-0.047884033203124995,0,0,0.0
2.945772052999928,0,0,0.7278373046875,0,0,0.6890625
2.9473090350002167,0,0,1.9871873779296874,0,0,1.3015625000000002
2.948938831000305,0,0,3.19865341796875,0,0,1.53125
2.9506344960000206,0,0,2.4660277099609376,0,0,2.3734375
2.952329292000286,0,0,0.7661445312499999,0,0,-0.30625
2.95399566100059,0,0,-0.07422025146484375,0,0,-1.1484375
2.955683678999776,0,0,0.19632453613281248,0,0,0.0
2.957353400000102,0,0,2.693476867675781,0,0,0.9953125
2.9589510850000806,0,0,1.8171990600585937,0,0,1.4546875000000001
2.960626381000111,0,0,0.5865794067382812,0,0,1.8375000000000001
2.962330843000018,0,0,-0.07900865478515624,0,0,0.0
2.9641046920005465,0,0,1.369483349609375,0,0,-0.30625
2.965784062000239,0,0,3.411737365722656,0,0,2.45
2.967343506999896,0,0,2.6575638427734374,0,0,2.0671875
2.9689287110004443,0,0,1.4221557861328125,0,0,1.6078125
2.970625506000033,0,0,0.6296750366210937,0,0,0.0
2.9722284130002663,0,0,0.4908113403320312,0,0,-1.225
2.9739919109997572,0,0,1.9009961181640624,0,0,0.9187500000000001
2.9756919660003405,0,0,2.1643583007812497,0,0,1.9140625000000002
2.977521333000368,0,0,0.6823474731445313,0,0,0.9953125
2.979133888999968,0,0,-0.09576806640624999,0,0,0.9953125
2.980690074999984,0,0,1.0893617553710937,0,0,0.0
2.982360091999908,0,0,2.0159177978515626,0,0,1.9140625000000002
2.9840568130002794,0,0,3.2130186279296873,0,0,3.0625
2.985599796000315,0,0,2.205059729003906,0,0,2.45
2.9874829589998626,0,0,0.7326257080078125,0,0,0.5359375000000001
2.989119144000142,0,0,0.5889736083984375,0,0,-0.765625
2.9906725150003695,0,0,0.8690952026367187,0,0,9.264062500000001
2.9924216800000067,0,0,1.8363526733398436,0,0,0.8421875000000001
2.9941360120001264,0,0,1.5131354492187499,0,0,2.45
2.9958651209999516,0,0,0.08379705810546874,0,0,1.1484375
2.9975038430002314,0,0,0.39743747558593745,0,0,-9.1875
2.999358525000389,0,0,1.6472107421875,0,0,1.6843750000000002
3.0010527089998504,0,0,2.176329309082031,0,0,1.0718750000000001
3.002693356999771,0,0,2.9975404785156248,0,0,1.0718750000000001
3.0042747090001285,0,0,1.7286135986328124,0,0,1.1484375
3.006005836999975,0,0,0.6272808349609375,0,0,-8.498437500000001
3.0076960400001553,0,0,0.9935936889648437,0,0,-1.225
3.0092665399997713,0,0,1.2210428466796874,0,0,-1.0718750000000001
3.0109558359999937,0,0,1.5969325073242187,0,0,1.53125
3.01267401899986,0,0,1.5538368774414062,0,0,1.6078125
3.014430109999921,0,0,0.3016694091796875,0,0,0.0
3.016140276000442,0,0,0.9600748657226562,0,0,0.0
3.017816718999711,0,0,1.675941162109375,0,0,1.53125
3.0195658660004483,0,0,2.308010400390625,0,0,1.225
3.0212093469999672,0,0,2.664746447753906,0,0,2.0671875
3.022776699000133,0,0,1.0199299072265624,0,0,1.990625
3.0243431440003405,0,0,0.8834604125976562,0,0,1.4546875000000001
3.026031735000288,0,0,1.0079588989257813,0,0,-0.30625
3.027646012999867,0,0,0.9313444458007812,0,0,0.30625
3.0292882720004854,0,0,1.1444283935546875,0,0,0.6890625
3.030954660000134,0,0,1.6807295654296874,0,0,1.3015625000000002
3.032569345000411,0,0,1.5155296508789062,0,0,2.0671875
3.0342113810002047,0,0,0.49320554199218747,0,0,1.225
3.0359398800001145,0,0,1.1659762084960936,0,0,0.22968750000000002
3.0375142319999213,0,0,1.3838485595703125,0,0,0.8421875000000001
3.039080751000256,0,0,2.099714855957031,0,0,1.0718750000000001
3.0409157849999247,0,0,2.1595698974609374,0,0,1.378125
3.0427320979997603,0,0,1.6112977172851561,0,0,0.0
3.0443319500000143,0,0,0.4477157104492187,0,0,0.0
3.0461100769998666,0,0,0.6655880615234374,0,0,-9.8
3.047760002999894,0,0,0.8164227661132812,0,0,-0.30625
3.0493240400001014,0,0,1.5705962890624998,0,0,1.6078125
3.050918040000397,0,0,1.6232687255859375,0,0,1.6078125
3.0525573360000635,0,0,1.3024457031249999,0,0,1.990625
3.0541212620000806,0,0,0.9121908325195311,0,0,1.53125
3.0556633189999047,0,0,1.3120225097656248,0,0,0.9187500000000001
3.0576714799999536,0,0,2.0446482177734375,0,0,0.3828125
3.0594588300000396,0,0,2.530671154785156,0,0,1.8375000000000001
3.0610726820004857,0,0,1.6472107421875,0,0,1.378125
3.0627249039998787,0,0,1.0558429321289062,0,0,-0.45937500000000003
3.06443531000059,0,0,0.49799394531249996,0,0,-0.3828125
3.0660399580001467,0,0,0.8738836059570312,0,0,0.0765625
3.0676682909997908,0,0,1.1516109985351561,0,0,0.0
3.0694178260000626,0,0,1.6639701538085936,0,0,1.53125
3.071429913999964,0,0,1.2665326782226562,0,0,2.2203125000000004
3.0731774679998125,0,0,0.6871358764648438,0,0,0.5359375000000001
3.074749301000338,0,0,0.967257470703125,0,0,0.6125
3.0763106169997627,0,0,1.6998831787109374,0,0,0.0
3.078206279999904,0,0,1.9943699829101562,0,0,9.4171875
3.079787614000452,0,0,2.384624853515625,0,0,1.225
3.08145340900046,0,0,1.5203180541992187,0,0,0.9187500000000001
3.083409405000566,0,0,0.17238251953125,0,0,0.22968750000000002
3.0850362199998926,0,0,0.6081272216796875,0,0,-0.765625
3.0866163860000597,0,0,0.7326257080078125,0,0,-0.6125
3.0885965670004225,0,0,0.9792284790039062,0,0,0.765625
3.090399917000468,0,0,1.5634136840820312,0,0,1.1484375
3.092041750000135,0,0,1.5370774658203123,0,0,1.990625
3.0938167109998176,0,0,0.9816226806640624,0,0,1.3015625000000002
3.0956490779999513,0,0,1.2641384765625,0,0,1.3015625000000002
3.0974373170001854,0,0,1.7932570434570312,0,0,1.6843750000000002
3.0991272050005136,0,0,2.142810485839844,0,0,0.6125
3.1006880760005515,0,0,2.3391350219726563,0,0,1.53125
3.1024402029997873,0,0,1.5298948608398437,0,0,0.9187500000000001
3.1043656439996994,0,0,0.4836287353515625,0,0,0.153125
3.106025402999876,0,0,0.8906430175781249,0,0,-9.264062500000001
3.1076471249998576,0,0,1.0295067138671874,0,0,0.45937500000000003
3.10944449300041,0,0,0.8714894042968749,0,0,0.22968750000000002
3.1111561950001487,0,0,1.1420341918945311,0,0,1.378125
3.1127179730001444,0,0,1.7741034301757812,0,0,1.6078125
3.114494045000356,0,0,1.455674609375,0,0,1.1484375
3.1164360049997413,0,0,1.4030021728515625,0,0,0.6890625
3.1182998530002806,0,0,1.5801730957031248,0,0,0.30625
3.1199903340002493,0,0,1.936909143066406,0,0,0.0765625
3.1215713150004376,0,0,1.8171990600585937,0,0,0.6890625
3.1233438139997816,0,0,1.467645617675781,0,0,0.8421875000000001
3.1250912189998417,0,0,0.5315127685546874,0,0,0.0
3.1267187190005643,0,0,0.5267243652343749,0,0,-9.8
3.128484421000394,0,0,1.0702081420898437,0,0,0.0
3.130199160000302,0,0,1.2114660400390624,0,0,0.5359375000000001
3.1318426779998845,0,0,1.0989385620117187,0,0,0.6890625
3.1334020120002606,0,0,1.1444283935546875,0,0,706.9781250000001
3.135079733000566,0,0,1.4317325927734375,0,0,0.0
3.136697769999955,0,0,1.218648645019531,0,0,0.3828125
3.138267158999952,0,0,1.6615759521484375,0,0,0.6125
3.140169526000136,0,0,2.231395947265625,0,0,0.45937500000000003
3.141912543000217,0,0,1.5322890624999999,0,0,0.45937500000000003
3.1434779700002764,0,0,1.4006079711914061,0,0,0.6890625
3.1453597629997603,0,0,1.209071838378906,0,0,0.6890625
3.147111242000392,0,0,0.373495458984375,0,0,0.30625
3.149543954999899,0,0,0.7924807495117187,0,0,0.153125
3.151224084000205,0,0,1.2785036865234374,0,0,0.3828125
3.1529300450001756,0,0,1.0462661254882812,0,0,1.1484375
3.1546006369999304,0,0,1.2042834350585936,0,0,1.3015625000000002
3.1562781180000457,0,0,1.5562310791015623,0,0,1.53125
3.1580702820001534,0,0,1.3144167114257812,0,0,1.7609375
3.159717929999715,0,0,1.20667763671875,0,0,0.5359375000000001
3.161402484000064,0,0,1.7956512451171873,0,0,0.30625
3.162972076999722,0,0,1.6472107421875,0,0,0.9953125
3.164653799000007,0,0,1.3072341064453123,0,0,0.5359375000000001
3.1662705580001784,0,0,1.20667763671875,0,0,1.53125
3.1679206130002058,0,0,1.2473790649414063,0,0,0.9187500000000001
3.1696099640003013,0,0,0.9050082275390624,0,0,0.6890625
3.1713438880005924,0,0,0.7254431030273437,0,0,0.30625
3.1730339610003284,0,0,1.2330138549804688,0,0,0.0
3.1746505159999288,0,0,1.4604630126953124,0,0,0.6125
3.176203980000537,0,0,1.180341418457031,0,0,1.0718750000000001
3.1777479250004035,0,0,1.0893617553710937,0,0,1.53125
3.1793856470003448,0,0,1.6711527587890624,0,0,1.4546875000000001
3.1810082580004746,0,0,1.197100830078125,0,0,1.4546875000000001
3.182653572000163,0,0,1.0342951171875,0,0,0.22968750000000002
3.1844556440000815,0,0,1.455674609375,0,0,0.45937500000000003
3.1862230859997,0,0,1.7597382202148437,0,0,0.9953125
3.1877965120002045,0,0,1.8339584716796873,0,0,1.53125
3.1893450320003467,0,0,1.4867992309570313,0,0,1.53125
3.1909921050000776,0,0,1.0199299072265624,0,0,0.5359375000000001
3.192782750999868,0,0,0.8451531860351562,0,0,0.5359375000000001
3.1945497490005437,0,0,0.7972691528320313,0,0,0.153125
3.196213989000171,0,0,1.5873557006835937,0,0,0.9953125
3.1978548960005355,0,0,1.5586252807617187,0,0,1.3015625000000002
3.1995727100002114,0,0,0.7900865478515624,0,0,0.9953125
3.20121995000045,0,0,0.48123453369140623,0,0,0.5359375000000001
3.2028930420001416,0,0,1.5658078857421873,0,0,0.8421875000000001
3.204517467000187,0,0,1.7980454467773437,0,0,1.6843750000000002
3.206339983000362,0,0,1.1324573852539062,0,0,1.0718750000000001
3.2079982420000306,0,0,1.448492004394531,0,0,1.0718750000000001
3.209727870000279,0,0,1.6711527587890624,0,0,1.0718750000000001
3.211528238000028,0,0,1.9608511596679685,0,0,1.0718750000000001
3.213216199999806,0,0,1.1827356201171875,0,0,0.6125
3.2149727719997827,0,0,1.1324573852539062,0,0,0.30625
3.2167002520000096,0,0,1.0773907470703123,0,0,0.8421875000000001
3.2183687329998065,0,0,1.0821791503906248,0,0,0.153125
3.2200815090000106,0,0,1.8411410766601561,0,0,0.45937500000000003
3.2216469169998163,0,0,1.388636962890625,0,0,0.153125
3.2233103050002683,0,0,1.0007762939453124,0,0,0.153125
3.2250178410004082,0,0,0.8212111694335937,0,0,0.22968750000000002
3.2272554450000825,0,0,1.6041151123046875,0,0,0.6125
3.228854371000125,0,0,1.4604630126953124,0,0,0.9187500000000001
3.230463333999978,0,0,1.5179238525390624,0,0,0.765625
3.2321186480003234,0,0,1.180341418457031,0,0,0.45937500000000003
3.233939886000371,0,0,1.7094599853515624,0,0,0.6890625
3.235691144000157,0,0,1.9776105712890624,0,0,0.9187500000000001
3.237380143000337,0,0,1.2689268798828124,0,0,-9.8
3.2389508840005874,0,0,1.1061211669921875,0,0,0.22968750000000002
3.2405721980003364,0,0,1.5442600708007812,0,0,0.3828125
3.242112865999843,0,0,1.4173673828125,0,0,0.9953125
3.243730754000353,0,0,1.3144167114257812,0,0,0.3828125
3.245490438000161,0,0,1.47482822265625,0,0,0.3828125
3.247231121000368,0,0,1.4796166259765624,0,0,0.0765625
3.2488411399999677,0,0,0.86191259765625,0,0,0.0
3.2506137299997135,0,0,0.8451531860351562,0,0,0.0
3.252280026000335,0,0,0.9744400756835937,0,0,0.6890625
3.253982580000411,0,0,1.5322890624999999,0,0,0.9187500000000001
3.2556557460002296,0,0,1.6232687255859375,0,0,0.6890625
3.2574134289998256,0,0,1.1540052001953125,0,0,0.0
3.2590865769998345,0,0,1.35990654296875,0,0,0.9187500000000001
3.2608329270005925,0,0,1.8626888916015625,0,0,0.8421875000000001
3.262565832999826,0,0,1.4437036010742186,0,0,0.8421875000000001
3.2641289809998852,0,0,0.8834604125976562,0,0,0.6890625
3.265832832000342,0,0,1.2808978881835937,0,0,0.6890625
3.267521701000078,0,0,1.5538368774414062,0,0,0.30625
3.2693002550004167,0,0,1.2761094848632812,0,0,0.6125
3.2709874210004273,0,0,1.1540052001953125,0,0,-9.5703125
3.2727127899997868,0,0,1.2378022583007813,0,0,0.8421875000000001
3.2742974190005043,0,0,1.43652099609375,0,0,0.5359375000000001
3.2759111780005696,0,0,0.9097966308593749,0,0,0.153125
3.277574659000493,0,0,0.6272808349609375,0,0,9.49375
3.279128604000107,0,0,1.0462661254882812,0,0,0.0
3.280824473999928,0,0,1.8770541015625,0,0,1.225
3.2827997840004173,0,0,1.426944189453125,0,0,1.1484375
3.2846124110001256,0,0,0.6416460449218749,0,0,0.6125
3.2861566530000346,0,0,1.1348515869140625,0,0,0.22968750000000002
3.287696542000049,0,0,1.8459294799804686,0,0,0.30625
3.2894970950001152,0,0,1.8507178833007811,0,0,0.9187500000000001
3.2911191140001392,0,0,1.0103531005859374,0,0,1.1484375
3.2932438850002654,0,0,0.814028564453125,0,0,-9.4171875
3.2951494369999637,0,0,1.7956512451171873,0,0,0.5359375000000001
3.2969060840005113,0,0,1.5227122558593749,0,0,1.8375000000000001
3.2985711390001597,0,0,1.3287819213867187,0,0,0.6125
3.3003946360004193,0,0,1.6304513305664061,0,0,0.8421875000000001
3.302144152999972,0,0,1.254561669921875,0,0,0.5359375000000001
3.3040410940002403,0,0,0.7302315063476562,0,0,0.22968750000000002
3.3058223329999237,0,0,0.612915625,0,0,0.0
3.307583794000493,0,0,1.2665326782226562,0,0,0.6125
3.3095271419997516,0,0,1.7262193969726563,0,0,1.378125
3.3116074509998725,0,0,1.4915876342773438,0,0,1.0718750000000001
3.313361301000441,0,0,0.9097966308593749,0,0,0.6125
3.315173576000234,0,0,1.7381904052734374,0,0,0.9953125
3.3171666830003232,0,0,1.9823989746093749,0,0,1.225
3.3192331770005694,0,0,0.8762778076171874,0,0,0.3828125
3.321239302000322,0,0,0.7996633544921875,0,0,0.0
3.323101744000269,0,0,1.7573440185546874,0,0,0.9953125
3.325161720000324,0,0,1.7477672119140624,0,0,0.45937500000000003
3.3268468300002496,0,0,1.2234370483398436,0,0,1.225
3.328685587000109,0,0,1.0534487304687499,0,0,0.3828125
3.3305658059998677,0,0,1.5777788940429687,0,0,0.45937500000000003
3.3328260939997563,0,0,1.1061211669921875,0,0,0.30625
3.335202047999701,0,0,0.6464344482421874,0,0,0.30625
3.3372294139999212,0,0,1.2521674682617188,0,0,1.1484375
3.339118335999956,0,0,1.7693150268554687,0,0,2.1437500000000003
3.341276719000234,0,0,1.39821376953125,0,0,1.378125
3.3433027319997564,0,0,1.139639990234375,0,0,0.5359375000000001
3.3449228429999494,0,0,1.8722656982421875,0,0,2.45
3.3464667509997525,0,0,2.269703173828125,0,0,1.0718750000000001
3.3482635820000723,0,0,1.5825672973632812,0,0,1.4546875000000001
3.34987776700018,0,0,0.8595183959960937,0,0,0.30625
3.351735987000211,0,0,0.9169792358398436,0,0,0.6125
3.3534397260000333,0,0,1.7166425903320313,0,0,1.1484375
3.3550485040004787,0,0,1.7812860351562498,0,0,1.225
3.3566301520004345,0,0,1.3910311645507811,0,0,0.8421875000000001
3.3582446340005845,0,0,0.8451531860351562,0,0,0.30625
3.3598925410005904,0,0,1.3623007446289062,0,0,0.5359375000000001
3.3615069480001694,0,0,1.8746598999023436,0,0,0.765625
3.363392185000521,0,0,1.4006079711914061,0,0,0.45937500000000003
3.3650713510005517,0,0,0.5195417602539062,0,0,0.153125
3.3667324799998823,0,0,0.4333505004882812,0,0,0.6890625
3.3683479060000536,0,0,1.4700398193359374,0,0,1.1484375
3.370356215999891,0,0,2.1308394775390624,0,0,1.7609375
3.3719951600005516,0,0,1.0175357055664063,0,0,1.4546875000000001
3.37361321499975,0,0,0.86191259765625,0,0,0.6890625
3.375155845000336,0,0,1.1635820068359375,0,0,0.30625
3.377073083000141,0,0,2.1021090576171875,0,0,1.3015625000000002
3.3787516370002777,0,0,2.422932080078125,0,0,1.8375000000000001
3.3803460260005522,0,0,1.2952630981445312,0,0,0.9187500000000001
3.38259107399972,0,0,0.39983167724609375,0,0,0.22968750000000002
3.38440412700038,0,0,1.0702081420898437,0,0,0.0765625
3.38603968300049,0,0,1.9728221679687499,0,0,0.8421875000000001
3.38759107199985,0,0,1.927332336425781,0,0,-0.153125
3.3892373489998135,0,0,1.1444283935546875,0,0,0.153125
3.390884682000433,0,0,1.2018892333984375,0,0,0.5359375000000001
3.3924464050005554,0,0,1.1348515869140625,0,0,0.3828125
3.394192218000171,0,0,1.3551181396484375,0,0,0.45937500000000003
3.395858273000158,0,0,1.448492004394531,0,0,0.5359375000000001
3.3974446800002625,0,0,1.0175357055664063,0,0,-0.45937500000000003
3.399939318000179,0,0,1.0342951171875,0,0,0.6125
3.401709650000157,0,0,1.6304513305664061,0,0,1.0718750000000001
3.403402797000126,0,0,1.5969325073242187,0,0,1.6078125
3.405434772999797,0,0,1.13006318359375,0,0,0.9187500000000001
3.4072966029998497,0,0,0.9433154541015625,0,0,0.9953125
3.4090070100000958,0,0,1.6400281372070311,0,0,0.5359375000000001
3.4106893050002327,0,0,1.8555062866210936,0,0,1.0718750000000001
3.412477451000086,0,0,1.9847931762695312,0,0,1.4546875000000001
3.414131301999987,0,0,0.8690952026367187,0,0,0.5359375000000001
3.4160250770000857,0,0,0.5913678100585937,0,0,-9.8
3.4179755909999585,0,0,1.2018892333984375,0,0,-9.8
3.41952607300027,0,0,1.6232687255859375,0,0,0.6890625
3.421129184000165,0,0,2.2074539306640624,0,0,1.378125
3.422762313000021,0,0,1.407790576171875,0,0,1.3015625000000002
3.424348350999935,0,0,0.7254431030273437,0,0,0.30625
3.425970258000234,0,0,1.1037269653320312,0,0,0.6125
3.427745773999959,0,0,1.2617442749023438,0,0,0.22968750000000002
3.4294573659999514,0,0,1.9632453613281249,0,0,0.3828125
3.4310500319998027,0,0,1.7334020019531249,0,0,0.6890625
3.43267208799989,0,0,0.9504980590820312,0,0,0.45937500000000003
3.434453919000589,0,0,0.3136404174804687,0,0,0.3828125
3.436390730000312,0,0,0.8810662109374999,0,0,0.153125
3.438036989000466,0,0,1.7238251953125,0,0,0.3828125
3.4396603029999824,0,0,1.9225439331054686,0,0,1.225
3.44146396799988,0,0,1.5945383056640625,0,0,1.378125
3.4431199850005214,0,0,0.9792284790039062,0,0,0.5359375000000001
3.4447802439999577,0,0,1.0007762939453124,0,0,0.5359375000000001
3.4465271130002293,0,0,1.4125789794921875,0,0,0.3828125
3.448784457000329,0,0,1.9656395629882812,0,0,1.3015625000000002
3.450633936000486,0,0,1.4173673828125,0,0,0.8421875000000001
3.45248119200005,0,0,0.7589619262695312,0,0,0.3828125
3.4543610040000203,0,0,0.7541735229492187,0,0,0.30625
3.456140760999915,0,0,1.6304513305664061,0,0,0.8421875000000001
3.457846074000372,0,0,1.9632453613281249,0,0,0.6890625
3.459517037000296,0,0,1.8650830932617186,0,0,0.6890625
3.4611735540001973,0,0,1.3239935180664062,0,0,0.6890625
3.4627687769998374,0,0,0.8882488159179687,0,0,0.30625
3.464337796000109,0,0,0.9935936889648437,0,0,0.0
3.4659540359998573,0,0,1.7525556152343749,0,0,0.6890625
3.467543759000364,0,0,1.6998831787109374,0,0,1.0718750000000001
3.4690960739999355,0,0,1.3646949462890625,0,0,1.1484375
3.4709147570001733,0,0,0.9576806640625,0,0,0.5359375000000001
3.4727309760000935,0,0,0.7230489013671875,0,0,0.30625
3.474299680000513,0,0,0.8882488159179687,0,0,0.45937500000000003
3.4758972540003015,0,0,1.149216796875,0,0,0.8421875000000001
3.4786904259999574,0,0,1.8650830932617186,0,0,1.0718750000000001
3.480421017000481,0,0,1.3575123413085937,0,0,0.9187500000000001
3.48228534700047,0,0,0.9097966308593749,0,0,0.5359375000000001
3.4839326620003703,0,0,1.3575123413085937,0,0,0.22968750000000002
3.4855323470001167,0,0,1.5945383056640625,0,0,0.3828125
3.487268992999816,0,0,1.5346832641601562,0,0,1.1484375
3.4889702139998917,0,0,1.3431471313476562,0,0,1.0718750000000001
3.4905548260003343,0,0,1.1037269653320312,0,0,0.9187500000000001
3.492410619000111,0,0,0.8858546142578124,0,0,0.45937500000000003
3.494119062000209,0,0,1.0342951171875,0,0,0.30625
3.495708544000081,0,0,1.2785036865234374,0,0,0.6890625
3.4973621170001934,0,0,1.6448165405273436,0,0,1.6078125
3.498951377000594,0,0,1.5753846923828123,0,0,1.8375000000000001
3.50053485799981,0,0,1.2761094848632812,0,0,1.3015625000000002
3.5024761510003373,0,0,1.2880804931640624,0,0,0.765625
3.504090002999874,0,0,1.1252747802734375,0,0,0.6125
3.505643725000482,0,0,1.0749965454101562,0,0,0.30625
3.507306336000511,0,0,1.20667763671875,0,0,0.22968750000000002
3.5088763359999575,0,0,1.3527239379882812,0,0,0.3828125
3.5104197999999087,0,0,1.197100830078125,0,0,1.0718750000000001
3.512061743999766,0,0,1.2808978881835937,0,0,1.0718750000000001
3.513684688000467,0,0,1.0941501586914062,0,0,0.765625
3.515226280999741,0,0,1.0079588989257813,0,0,0.153125
3.5171359260002646,0,0,1.2880804931640624,0,0,0.153125
3.518711333000283,0,0,1.3144167114257812,0,0,0.0
3.520252889999938,0,0,1.467645617675781,0,0,0.5359375000000001
3.522283922000497,0,0,1.7190367919921874,0,0,1.0718750000000001
3.5239517910003997,0,0,1.1611878051757811,0,0,1.3015625000000002
3.5255152730005648,0,0,0.8212111694335937,0,0,0.5359375000000001
3.5270841440005825,0,0,1.2521674682617188,0,0,0.22968750000000002
3.528842345999692,0,0,1.4532804077148436,0,0,0.5359375000000001
3.5306949910000185,0,0,1.5370774658203123,0,0,0.45937500000000003
3.5324645820001024,0,0,1.388636962890625,0,0,0.765625
3.5341540990002613,0,0,0.9265560424804687,0,0,0.9187500000000001
3.536124113999904,0,0,1.2042834350585936,0,0,0.8421875000000001
3.5378781669996897,0,0,1.2473790649414063,0,0,1.7609375
3.540702393999709,0,0,1.4053963745117186,0,0,0.8421875000000001
3.5424918360004085,0,0,1.5083470458984374,0,0,0.765625
3.5442364830005317,0,0,1.2880804931640624,0,0,0.9953125
3.5462241450004512,0,0,1.1947066284179686,0,0,0.9953125
3.5479105140002503,0,0,1.0989385620117187,0,0,1.53125
3.5497169010004654,0,0,1.4772224243164063,0,0,0.22968750000000002
3.5518451910002113,0,0,1.7669208251953124,0,0,0.6890625
3.5537894280005276,0,0,1.2808978881835937,0,0,0.6125
3.555353780000587,0,0,1.1037269653320312,0,0,0.22968750000000002
