Time (s),Accel X1,Accel Y1,Accel Z1,Accel X2,Accel Y2,Accel Z2
9.766600032889983e-05,0,0,1.438915197753906,0,0,0.9953125
0.003696052000123018,0,0,1.3096283081054687,0,0,0.765625
0.007307937999939895,0,0,1.2713210815429687,0,0,0.6125
0.010898731000452244,0,0,1.4317325927734375,0,0,0.8421875000000001
0.01449484000022494,0,0,1.3646949462890625,0,0,0.8421875000000001
0.01812094800061459,0,0,1.2952630981445312,0,0,0.765625
0.02217349600050511,0,0,1.2330138549804688,0,0,0.8421875000000001
0.025719697000567976,0,0,1.2521674682617188,0,0,0.9187500000000001
0.02967611600070086,0,0,1.2952630981445312,0,0,0.6125
0.0333789460000844,0,0,1.5011644409179687,0,0,0.6125
0.03734351300045091,0,0,1.2521674682617188,0,0,0.6890625
0.0411004719999255,0,0,1.369483349609375,0,0,0.765625
0.04507133500010241,0,0,1.4963760375976562,0,0,0.6125
0.049014625000381784,0,0,1.2689268798828124,0,0,0.45937500000000003
0.05316483800015703,0,0,1.4867992309570313,0,0,0.9953125
0.0572223680001116,0,0,1.5203180541992187,0,0,0.6890625
0.062070554999991145,0,0,1.3096283081054687,0,0,0.9187500000000001
0.06657546800033742,0,0,1.5011644409179687,0,0,-2.0
0.07049107300008473,0,0,1.2976572998046874,0,0,0.6125
0.0744563250000283,0,0,1.3766659545898436,0,0,0.5359375000000001
0.07805802600069,0,0,1.235408056640625,0,0,0.8421875000000001
0.08175541100081318,0,0,1.5155296508789062,0,0,0.9187500000000001
0.08553385100003652,0,0,1.3239935180664062,0,0,0.3828125
0.08919116200013377,0,0,1.4317325927734375,0,0,0.22968750000000002
0.09282519600037631,0,0,1.3934253662109375,0,0,1.0718750000000001
0.09659163600008469,0,0,1.2521674682617188,0,0,0.9187500000000001
0.10011198600022908,0,0,1.2473790649414063,0,0,0.6890625
0.10340635700049461,0,0,1.2713210815429687,0,0,0.8421875000000001
0.10618727100063552,0,0,1.3120225097656248,0,0,0.30625
0.10886481500074296,0,0,1.43652099609375,0,0,0.5359375000000001
0.1115803410002627,0,0,1.4173673828125,0,0,0.6125
0.11455630800082872,0,0,1.35990654296875,0,0,0.9187500000000001
0.11747385000035138,0,0,1.3551181396484375,0,0,0.8421875000000001
0.12018446799993399,0,0,1.429338391113281,0,0,0.6890625
0.12278681000043434,0,0,1.455674609375,0,0,0.6890625
0.12566574100037542,0,0,1.3934253662109375,0,0,0.6890625
0.12834893300077965,0,0,1.3335703247070312,0,0,0.6125
0.13112103200001002,0,0,1.4053963745117186,0,0,0.45937500000000003
0.13372333700044692,0,0,1.3718775512695311,0,0,0.6125
0.13652495400037878,0,0,1.3575123413085937,0,0,0.6125
0.14036065300024347,0,0,1.3311761230468748,0,0,0.8421875000000001
0.14313502900040476,0,0,1.4173673828125,0,0,0.6890625
0.1458382030004941,0,0,1.4508862060546874,0,0,0.765625
0.1484501190006995,0,0,1.2401964599609374,0,0,0.9953125
0.15134892000060063,0,0,1.3646949462890625,0,0,0.9953125
0.15415437100000418,0,0,1.3359645263671873,0,0,0.8421875000000001
0.15686100700077077,0,0,1.3670891479492187,0,0,0.765625
0.15957005100062815,0,0,1.369483349609375,0,0,0.9187500000000001
0.16239661300005537,0,0,1.3527239379882812,0,0,0.6125
0.16526997000073607,0,0,1.4820108276367188,0,0,1.1484375
0.16791575500064937,0,0,1.3646949462890625,0,0,0.45937500000000003
0.17055031900054018,0,0,1.3359645263671873,0,0,0.765625
0.1734557500003575,0,0,1.2904746948242187,0,0,0.6125
0.17762600000060047,0,0,1.5251064575195312,0,0,0.6890625
0.18259496400060016,0,0,1.235408056640625,0,0,0.8421875000000001
0.18570694800018828,0,0,1.3048399047851562,0,0,1.1484375
0.1894270550001238,0,0,1.2928688964843749,0,0,0.6125
0.19296271900020656,0,0,1.3407529296874998,0,0,1.1484375
0.19661866100068437,0,0,1.3527239379882812,0,0,0.9187500000000001
0.19977625499996066,0,0,1.3766659545898436,0,0,0.8421875000000001
0.20388124700002663,0,0,1.3455413330078123,0,0,1.1484375
0.20694806500068808,0,0,1.3096283081054687,0,0,0.6125
0.20996312400075112,0,0,1.467645617675781,0,0,1.225
0.2128889990008247,0,0,1.4963760375976562,0,0,1.0718750000000001
0.21588268800041988,0,0,1.2282254516601563,0,0,0.8421875000000001
0.21894011800031876,0,0,1.3359645263671873,0,0,0.9187500000000001
0.22190117700029077,0,0,1.4867992309570313,0,0,1.0718750000000001
0.22499851400061743,0,0,1.2425906616210938,0,0,0.8421875000000001
0.2295034080007099,0,0,1.4891934326171874,0,0,0.765625
0.2324776160003239,0,0,1.4987702392578124,0,0,0.9187500000000001
0.23541523200037773,0,0,1.4317325927734375,0,0,0.9953125
0.23829638500046713,0,0,1.3120225097656248,0,0,1.1484375
0.24120574200060219,0,0,1.0845733520507812,0,0,0.9187500000000001
0.244192226999985,0,0,1.4796166259765624,0,0,0.9187500000000001
0.24705808500038984,0,0,1.426944189453125,0,0,0.6125
0.24998546000006172,0,0,1.3383587280273437,0,0,0.8421875000000001
0.25288548300068214,0,0,1.2617442749023438,0,0,0.9953125
0.25586119100080396,0,0,1.4867992309570313,0,0,0.765625
0.2588692870003797,0,0,1.3072341064453123,0,0,0.9187500000000001
0.2618024030007291,0,0,1.3000515014648437,0,0,0.8421875000000001
0.26488138800050365,0,0,1.419761584472656,0,0,0.6125
0.2678387620007925,0,0,1.4700398193359374,0,0,0.6890625
0.27082719200006977,0,0,1.3383587280273437,0,0,1.990625
0.2738492700000279,0,0,1.2641384765625,0,0,1.0718750000000001
0.2769807350005067,0,0,1.3838485595703125,0,0,0.6125
0.2799354440003299,0,0,1.2737152832031249,0,0,1.0718750000000001
0.28284635599993635,0,0,1.369483349609375,0,0,1.1484375
0.28630896600043343,0,0,1.2593500732421874,0,0,1.0718750000000001
0.28931282100074895,0,0,1.4149731811523436,0,0,0.6890625
0.2922914920000039,0,0,1.3431471313476562,0,0,1.6843750000000002
0.29523599700041814,0,0,1.3168109130859373,0,0,0.8421875000000001
0.2982194080004774,0,0,1.4341267944335936,0,0,0.9187500000000001
0.3014778540000407,0,0,1.2808978881835937,0,0,0.765625
0.3044875800005684,0,0,1.2737152832031249,0,0,0.8421875000000001
0.3074460840007305,0,0,1.3072341064453123,0,0,0.6125
0.31032325600062904,0,0,1.4245499877929686,0,0,0.6890625
0.31312879899996915,0,0,1.5155296508789062,0,0,0.45937500000000003
0.315910953000639,0,0,1.3024457031249999,0,0,0.9953125
0.3185222390002309,0,0,1.3766659545898436,0,0,0.6125
0.3213614120004422,0,0,1.4508862060546874,0,0,0.9953125
0.32421365800018975,0,0,1.5179238525390624,0,0,0.8421875000000001
0.3270158680006716,0,0,1.3838485595703125,0,0,0.8421875000000001
0.32979815199996665,0,0,1.3527239379882812,0,0,0.8421875000000001
0.3324854000002233,0,0,1.4963760375976562,0,0,0.8421875000000001
0.3359761580004488,0,0,1.458068811035156,0,0,1.0718750000000001
0.3388267190002807,0,0,1.3359645263671873,0,0,0.6890625
0.3414584490001289,0,0,1.2497732666015624,0,0,1.1484375
0.34414119700068113,0,0,1.4700398193359374,0,0,0.6125
0.3470284980003271,0,0,1.4915876342773438,0,0,0.9953125
0.34984326400081045,0,0,1.3623007446289062,0,0,0.8421875000000001
0.3524642530001074,0,0,1.2904746948242187,0,0,0.765625
0.35529283300002135,0,0,1.4987702392578124,0,0,0.6125
0.3591551050003545,0,0,1.3311761230468748,0,0,0.8421875000000001
0.36232794000079593,0,0,1.3096283081054687,0,0,0.6890625
0.36527301900059683,0,0,1.4604630126953124,0,0,0.3828125
0.36828539300040575,0,0,1.2330138549804688,0,0,0.6125
0.3709809560004942,0,0,1.3407529296874998,0,0,0.6890625
0.37400738500036823,0,0,1.3120225097656248,0,0,0.8421875000000001
0.37672576300064975,0,0,1.3431471313476562,0,0,0.5359375000000001
0.3794319369999357,0,0,1.2593500732421874,0,0,1.0718750000000001
0.382020482000371,0,0,1.2952630981445312,0,0,0.9953125
0.3849807270007659,0,0,1.3551181396484375,0,0,0.5359375000000001
0.38773941900035425,0,0,1.438915197753906,0,0,0.3828125
0.3904996110004504,0,0,1.4963760375976562,0,0,0.8421875000000001
0.3931581550004921,0,0,1.3263877197265623,0,0,0.5359375000000001
0.39574520099995425,0,0,1.3575123413085937,0,0,0.765625
0.3985023560007903,0,0,1.3000515014648437,0,0,0.3828125
0.40155128500009596,0,0,1.4604630126953124,0,0,0.45937500000000003
0.40427299500061054,0,0,1.3048399047851562,0,0,0.6890625
0.4070241500003249,0,0,1.3263877197265623,0,0,0.9187500000000001
0.4096587140002157,0,0,1.2880804931640624,0,0,0.8421875000000001
0.4124162570005865,0,0,1.4604630126953124,0,0,0.9953125
0.415355169000577,0,0,1.3048399047851562,0,0,0.765625
0.4182853960001012,0,0,1.22583125,0,0,0.6890625
0.42088071900070645,0,0,1.47482822265625,0,0,0.45937500000000003
0.42376396500003466,0,0,1.3742717529296875,0,0,0.765625
0.4264726020001035,0,0,1.4891934326171874,0,0,1.1484375
0.42925197900058265,0,0,1.3239935180664062,0,0,0.6125
0.43183008000050904,0,0,1.35990654296875,0,0,-2.0
0.4352019130001281,0,0,1.3431471313476562,0,0,0.9953125
0.43809286300074746,0,0,1.3144167114257812,0,0,0.8421875000000001
0.4412687530002586,0,0,1.3096283081054687,0,0,0.8421875000000001
0.44471758600047906,0,0,1.5155296508789062,0,0,0.765625
0.44814317700001993,0,0,1.2665326782226562,0,0,0.9187500000000001
0.45133390099999815,0,0,1.4604630126953124,0,0,0.8421875000000001
0.4544407190005586,0,0,1.3192051147460937,0,0,0.765625
0.4574001490000228,0,0,1.3646949462890625,0,0,0.8421875000000001
0.4602850800001761,0,0,1.3000515014648437,0,0,0.6125
0.46377783800016914,0,0,1.3048399047851562,0,0,0.9187500000000001
0.4666339550003613,0,0,1.4508862060546874,0,0,0.9953125
0.4694112760007556,0,0,1.4053963745117186,0,0,0.765625
0.4721289680001064,0,0,1.35990654296875,0,0,0.8421875000000001
0.4750562320004974,0,0,1.3168109130859373,0,0,0.9187500000000001
0.47892452199994295,0,0,1.3934253662109375,0,0,0.9953125
0.4816016410004522,0,0,1.484405029296875,0,0,0.6890625
0.4843564620005054,0,0,1.2928688964843749,0,0,0.8421875000000001
0.4869612110005619,0,0,1.3623007446289062,0,0,0.9953125
0.4897479210003439,0,0,1.4173673828125,0,0,1.0718750000000001
0.4923612070006129,0,0,1.5107412475585937,0,0,1.0718750000000001
0.49504551100017125,0,0,1.3192051147460937,0,0,0.765625
0.49785614700067526,0,0,1.2761094848632812,0,0,1.1484375
0.507047101000353,0,0,1.3575123413085937,0,0,0.6125
0.5097545340004217,0,0,1.4341267944335936,0,0,0.9953125
0.5121873960006269,0,0,1.5083470458984374,0,0,0.9953125
0.5147134790004202,0,0,1.5035586425781249,0,0,0.8421875000000001
0.517417134000425,0,0,1.1468225952148436,0,0,0.8421875000000001
0.5197998490002647,0,0,1.2521674682617188,0,0,0.765625
0.5225708180005313,0,0,1.4939818359375,0,0,1.225
0.5252583990004496,0,0,1.4867992309570313,0,0,0.6125
0.5277630380005576,0,0,1.3263877197265623,0,0,0.8421875000000001
0.5301482530003341,0,0,1.3263877197265623,0,0,0.6125
0.5327538720002849,0,0,1.455674609375,0,0,0.6125
0.5355319340005735,0,0,1.465251416015625,0,0,0.765625
0.5384545310007525,0,0,1.3646949462890625,0,0,0.5359375000000001
0.5410302620002767,0,0,1.3311761230468748,0,0,0.6890625
0.5435289200004263,0,0,1.3120225097656248,0,0,0.765625
0.5461766870002975,0,0,1.3910311645507811,0,0,0.9187500000000001
0.5487817690000156,0,0,1.3431471313476562,0,0,0.9187500000000001
0.5516281260006508,0,0,1.3766659545898436,0,0,0.765625
0.5543486890001077,0,0,1.2497732666015624,0,0,1.1484375
0.5569302900003095,0,0,1.419761584472656,0,0,1.1484375
0.5598207950006326,0,0,1.3670891479492187,0,0,0.8421875000000001
0.5623155450002741,0,0,1.4173673828125,0,0,1.225
0.5650458300005994,0,0,1.419761584472656,0,0,0.9187500000000001
0.5675579870003276,0,0,1.4125789794921875,0,0,0.765625
0.5699880900001517,0,0,1.4245499877929686,0,0,0.5359375000000001
0.572539821000646,0,0,1.2904746948242187,0,0,1.8375000000000001
0.5750469600006909,0,0,1.2737152832031249,0,0,0.9953125
0.5776478760008104,0,0,1.5298948608398437,0,0,0.6890625
0.5802619950000008,0,0,1.2641384765625,0,0,0.6125
0.5836230690001685,0,0,1.2737152832031249,0,0,0.9953125
0.5867547010002454,0,0,1.35990654296875,0,0,0.765625
0.5898000560000582,0,0,1.4532804077148436,0,0,0.8421875000000001
0.5922030110004926,0,0,1.4628572143554686,0,0,0.8421875000000001
0.5952429590006432,0,0,1.2761094848632812,0,0,1.1484375
0.5978657820005537,0,0,1.2617442749023438,0,0,0.8421875000000001
0.6004206060006254,0,0,1.5083470458984374,0,0,0.8421875000000001
0.6031492790007178,0,0,1.4317325927734375,0,0,0.8421875000000001
0.6059749330006525,0,0,1.448492004394531,0,0,0.6125
0.6087479400002849,0,0,1.2641384765625,0,0,0.6125
0.6116122230005203,0,0,1.5298948608398437,0,0,0.6890625
0.6144356550003067,0,0,1.3000515014648437,0,0,0.8421875000000001
0.6173714740007199,0,0,1.2425906616210938,0,0,0.9187500000000001
0.6201531660008186,0,0,1.3024457031249999,0,0,0.8421875000000001
0.6227626180007064,0,0,1.4053963745117186,0,0,0.8421875000000001
0.6254646810002669,0,0,1.3862427612304686,0,0,0.9187500000000001
0.6281108740004129,0,0,1.254561669921875,0,0,0.9953125
0.6310835080003017,0,0,1.2737152832031249,0,0,0.6125
0.6338839030004237,0,0,1.3958195678710936,0,0,1.0718750000000001
0.6366070210006001,0,0,1.2665326782226562,0,0,0.8421875000000001
0.6394254900005762,0,0,1.2856862915039062,0,0,0.9187500000000001
0.6422134770000412,0,0,1.3192051147460937,0,0,0.3828125
0.6449428360001548,0,0,1.4245499877929686,0,0,0.6890625
0.6477530460006165,0,0,1.4221557861328125,0,0,0.6125
0.6506407169999875,0,0,1.3335703247070312,0,0,0.6890625
0.6536793880004552,0,0,1.139639990234375,0,0,1.0718750000000001
0.656789353000022,0,0,1.3383587280273437,0,0,0.8421875000000001
0.6594813420006176,0,0,1.3838485595703125,0,0,1.0718750000000001
0.6621598490000906,0,0,1.2306196533203124,0,0,0.6890625
0.6648836340000344,0,0,1.3096283081054687,0,0,0.6890625
0.6676952510006231,0,0,1.4149731811523436,0,0,0.765625
0.670420369000567,0,0,1.5131354492187499,0,0,0.765625
0.6731073580003795,0,0,1.3096283081054687,0,0,0.8421875000000001
0.6759339010004624,0,0,1.2832920898437499,0,0,0.9187500000000001
0.678745500000332,0,0,1.4724340209960938,0,0,0.765625
0.6814911910005321,0,0,1.43652099609375,0,0,0.5359375000000001
0.68427823500042,0,0,1.2928688964843749,0,0,0.9953125
0.6869756310006778,0,0,1.3958195678710936,0,0,0.765625
0.6897407480000766,0,0,1.4724340209960938,0,0,0.5359375000000001
0.6924720520000847,0,0,1.446097802734375,0,0,0.765625
0.6953057979999357,0,0,1.3120225097656248,0,0,0.765625
0.6978946770004768,0,0,1.3120225097656248,0,0,0.8421875000000001
0.7005800360002468,0,0,1.4221557861328125,0,0,0.765625
0.7034644120003577,0,0,1.458068811035156,0,0,0.8421875000000001
0.7069896870007142,0,0,1.2952630981445312,0,0,0.6890625
0.7095315110000229,0,0,1.4867992309570313,0,0,0.6890625
0.7121460560001651,0,0,1.2378022583007813,0,0,0.9187500000000001
0.7148644710005101,0,0,1.4125789794921875,0,0,0.8421875000000001
0.7174411650003094,0,0,1.3575123413085937,0,0,0.6890625
0.7198627670004498,0,0,1.3000515014648437,0,0,0.6890625
0.7224373130002277,0,0,1.3335703247070312,0,0,0.45937500000000003
0.72485789700022,0,0,1.3814543579101561,0,0,0.8421875000000001
0.7283999320006842,0,0,1.3144167114257812,0,0,0.765625
0.7312754930007941,0,0,1.3287819213867187,0,0,0.5359375000000001
0.7348133240002426,0,0,1.426944189453125,0,0,0.9953125
0.737591849000637,0,0,1.4341267944335936,0,0,0.9187500000000001
0.7405997790001493,0,0,1.1827356201171875,0,0,0.6890625
0.7433227860001352,0,0,1.3048399047851562,0,0,0.5359375000000001
0.74576124000032,0,0,1.5107412475585937,0,0,0.6890625
0.7481379730006665,0,0,1.4341267944335936,0,0,0.765625
0.750660704999973,0,0,1.235408056640625,0,0,0.9953125
0.7530464750007013,0,0,1.235408056640625,0,0,0.6125
0.7561643850003748,0,0,1.2976572998046874,0,0,0.6125
0.758723764000024,0,0,1.4173673828125,0,0,0.6890625
0.761231792000217,0,0,1.3120225097656248,0,0,1.3015625000000002
0.7636390240004403,0,0,1.2593500732421874,0,0,0.8421875000000001
0.7661741629999597,0,0,1.3263877197265623,0,0,-9.1875
0.7688217080003596,0,0,1.3958195678710936,0,0,0.6125
0.7714012720007304,0,0,1.37906015625,0,0,1.0718750000000001
0.7738094860005731,0,0,1.3168109130859373,0,0,0.8421875000000001
0.7763558280003053,0,0,1.369483349609375,0,0,0.45937500000000003
0.7789148740002929,0,0,1.426944189453125,0,0,0.6125
0.7813451250003709,0,0,1.429338391113281,0,0,0.6890625
0.7843750360007107,0,0,1.3144167114257812,0,0,0.765625
0.7867826390001937,0,0,1.484405029296875,0,0,0.6125
0.790343822000068,0,0,1.426944189453125,0,0,1.1484375
0.7929436820004412,0,0,1.3742717529296875,0,0,0.765625
0.7961679610007195,0,0,1.3311761230468748,0,0,0.9187500000000001
0.7992052050003622,0,0,1.3359645263671873,0,0,0.9187500000000001
0.8018301210004211,0,0,1.5035586425781249,0,0,0.765625
0.8042347420005171,0,0,1.4508862060546874,0,0,0.765625
0.8066954559999431,0,0,1.350329736328125,0,0,0.765625
0.809225410000181,0,0,1.2713210815429687,0,0,0.45937500000000003
0.8122321360006026,0,0,1.455674609375,0,0,0.45937500000000003
0.8148132180003813,0,0,1.388636962890625,0,0,0.9953125
0.817206432000603,0,0,1.2330138549804688,0,0,0.8421875000000001
0.8195706290007365,0,0,1.5298948608398437,0,0,0.9187500000000001
0.8221527670002615,0,0,1.4101847778320311,0,0,1.225
0.8253818050006885,0,0,1.4030021728515625,0,0,0.8421875000000001
0.8278857770001196,0,0,1.35990654296875,0,0,1.0718750000000001
0.8309388180005044,0,0,1.3455413330078123,0,0,0.30625
0.8336387510007626,0,0,1.3239935180664062,0,0,-9.1109375
0.8375258190008026,0,0,1.2330138549804688,0,0,0.6890625
0.8402669180004523,0,0,1.1420341918945311,0,0,0.6890625
0.8426756700000624,0,0,1.2473790649414063,0,0,0.6125
0.8452702889999273,0,0,1.5203180541992187,0,0,832.8468750000001
0.8478867230005562,0,0,1.3766659545898436,0,0,0.6125
0.8505659340007696,0,0,1.3407529296874998,0,0,0.765625
0.8529733889999989,0,0,1.3000515014648437,0,0,0.765625
0.8553441590001967,0,0,1.2306196533203124,0,0,0.6890625
0.8579245010005252,0,0,1.35990654296875,0,0,0.8421875000000001
0.8603282710000713,0,0,1.3862427612304686,0,0,0.9953125
0.8630537590006497,0,0,1.3335703247070312,0,0,0.9187500000000001
0.8654454920006174,0,0,1.2952630981445312,0,0,0.6890625
0.8680747779999365,0,0,1.455674609375,0,0,0.3828125
0.8706372310007282,0,0,1.4532804077148436,0,0,0.765625
0.8732416650000232,0,0,1.3263877197265623,0,0,0.8421875000000001
0.875730286000362,0,0,1.2641384765625,0,0,0.9187500000000001
0.878121500000816,0,0,1.3551181396484375,0,0,0.9187500000000001
0.8806010470007095,0,0,1.6065093139648436,0,0,0.9953125
0.8831159450000996,0,0,1.3934253662109375,0,0,1.1484375
0.8856236950005041,0,0,1.2856862915039062,0,0,1.3015625000000002
0.8880073350001112,0,0,1.6903063720703124,0,0,0.8421875000000001
0.8905190479999874,0,0,1.659181750488281,0,0,0.5359375000000001
0.8929751140003646,0,0,1.2713210815429687,0,0,0.5359375000000001
0.8956968430002235,0,0,1.4963760375976562,0,0,-8.6515625
0.8983098140006405,0,0,1.254561669921875,0,0,0.6890625
0.9010061920007502,0,0,1.0749965454101562,0,0,0.3828125
0.9035741080006119,0,0,1.8411410766601561,0,0,1.1484375
0.9066003890002321,0,0,1.5179238525390624,0,0,1.9140625000000002
0.9094908390006822,0,0,1.2234370483398436,0,0,0.6125
0.9123458809999647,0,0,1.6208745239257811,0,0,0.765625
0.9152480340007969,0,0,1.0773907470703123,0,0,0.8421875000000001
0.9181171140007791,0,0,1.369483349609375,0,0,0.5359375000000001
0.9210662109999248,0,0,1.47482822265625,0,0,0.5359375000000001
0.9239496790005433,0,0,1.467645617675781,0,0,0.6890625
0.9268981650002388,0,0,1.5969325073242187,0,0,0.5359375000000001
0.9297555960001773,0,0,1.3838485595703125,0,0,0.8421875000000001
0.9325745650003228,0,0,1.2832920898437499,0,0,0.6125
0.935432533000494,0,0,1.4867992309570313,0,0,0.8421875000000001
0.938259243000175,0,0,1.5083470458984374,0,0,0.8421875000000001
0.9418201110001974,0,0,1.4006079711914061,0,0,1.225
0.9447685970008024,0,0,1.4628572143554686,0,0,0.9187500000000001
0.947748952999973,0,0,1.3623007446289062,0,0,0.9187500000000001
0.9506003100004818,0,0,1.5753846923828123,0,0,0.8421875000000001
0.9549014660005923,0,0,1.5059528442382812,0,0,0.8421875000000001
0.9587627569999313,0,0,1.4867992309570313,0,0,0.6890625
0.9628746930002308,0,0,1.3838485595703125,0,0,0.9187500000000001
0.965818161000243,0,0,1.4532804077148436,0,0,0.6890625
0.9691116240001065,0,0,1.659181750488281,0,0,0.8421875000000001
0.9720333140003277,0,0,1.6352397338867186,0,0,0.9187500000000001
0.9748648750000939,0,0,1.3287819213867187,0,0,0.9187500000000001
0.978318023000611,0,0,1.2856862915039062,0,0,1.1484375
0.9815807830000267,0,0,1.4532804077148436,0,0,1.1484375
0.9842446610000479,0,0,1.37906015625,0,0,0.6125
0.9869285940003465,0,0,1.4221557861328125,0,0,0.9187500000000001
0.9895367130002342,0,0,1.2904746948242187,0,0,0.9953125
0.9923442930003148,0,0,1.5298948608398437,0,0,0.8421875000000001
0.9950186900005065,0,0,1.465251416015625,0,0,0.8421875000000001
0.997725993000131,0,0,1.37906015625,0,0,0.765625
1.000315502000376,0,0,1.2713210815429687,0,0,0.9187500000000001
1.0040271090001625,0,0,1.4173673828125,0,0,0.9953125
1.0071092040006988,0,0,1.2856862915039062,0,0,0.9187500000000001
1.0100760970008196,0,0,1.4987702392578124,0,0,0.9953125
1.012918548000016,0,0,1.4939818359375,0,0,0.6125
1.0157582570000159,0,0,1.4245499877929686,0,0,0.9187500000000001
1.0185554110003068,0,0,1.3646949462890625,0,0,1.6078125
1.0213066960004653,0,0,1.3000515014648437,0,0,0.6890625
1.0239963140002146,0,0,1.3479355346679687,0,0,0.8421875000000001
1.0274870900002497,0,0,1.5035586425781249,0,0,0.765625
1.0304999830004817,0,0,1.3287819213867187,0,0,0.9953125
1.0338585010003953,0,0,1.43652099609375,0,0,1.1484375
1.0371230390001074,0,0,1.5682020874023437,0,0,0.765625
1.0400819880005656,0,0,1.4317325927734375,0,0,0.765625
1.0427922170001693,0,0,1.2569558715820313,0,0,0.6125
1.0470462260000204,0,0,1.429338391113281,0,0,1.0718750000000001
1.0497832330001984,0,0,1.2665326782226562,0,0,0.8421875000000001
1.0526357200005805,0,0,1.2928688964843749,0,0,0.6125
1.0555643730003794,0,0,1.467645617675781,0,0,0.6890625
1.0588883730006273,0,0,1.5394716674804687,0,0,0.765625
1.0617355270005646,0,0,1.2282254516601563,0,0,0.765625
1.064514089000113,0,0,1.24498486328125,0,0,0.765625
1.0673297240000466,0,0,1.2425906616210938,0,0,0.9187500000000001
1.0705484480004088,0,0,1.5035586425781249,0,0,1.4546875000000001
1.0735294330006582,0,0,1.6256629272460936,0,0,1.0718750000000001
1.0763988280004924,0,0,1.7381904052734374,0,0,0.9953125
1.0791521490000378,0,0,1.659181750488281,0,0,0.8421875000000001
1.082101246000093,0,0,1.4628572143554686,0,0,0.765625
1.0849542330006443,0,0,1.1085153686523437,0,0,0.6890625
1.0879622920001566,0,0,1.149216796875,0,0,0.6125
1.090831316000731,0,0,1.1516109985351561,0,0,1.4546875000000001
1.0937028220005232,0,0,1.5370774658203123,0,0,1.3015625000000002
1.0965756600007808,0,0,1.6735469604492186,0,0,0.9187500000000001
1.099452091000785,0,0,1.6160861206054686,0,0,0.45937500000000003
1.1025351309999678,0,0,1.2401964599609374,0,0,0.22968750000000002
1.1058879280008114,0,0,1.0342951171875,0,0,0.6890625
1.108189680000578,0,0,1.0271125122070313,0,0,0.9953125
1.1099498270004915,0,0,1.484405029296875,0,0,1.3015625000000002
1.111636605000058,0,0,1.714248388671875,0,0,1.1484375
1.1133288450000691,0,0,1.9656395629882812,0,0,1.378125
1.1151111030003449,0,0,1.838746875,0,0,1.0718750000000001
1.1166406420006751,0,0,1.8219874633789062,0,0,0.765625
1.1182263280006737,0,0,1.4987702392578124,0,0,0.22968750000000002
1.1200919370003248,0,0,1.2378022583007813,0,0,0.153125
1.121757197000079,0,0,1.0749965454101562,0,0,0.5359375000000001
1.1234360670005117,0,0,0.8786720092773437,0,0,0.5359375000000001
1.1252545280003687,0,0,1.1348515869140625,0,0,1.0718750000000001
1.1268259930002387,0,0,1.3479355346679687,0,0,0.9187500000000001
1.128416604999984,0,0,1.5442600708007812,0,0,1.0718750000000001
1.1302002520005772,0,0,1.6112977172851561,0,0,1.1484375
1.1317877159999625,0,0,1.5753846923828123,0,0,0.6890625
1.133506419000696,0,0,1.6041151123046875,0,0,0.765625
1.1351821779999227,0,0,1.407790576171875,0,0,0.5359375000000001
1.136933936000787,0,0,1.2617442749023438,0,0,0.6125
1.1384693820000393,0,0,1.3335703247070312,0,0,0.8421875000000001
1.1400526060006086,0,0,1.35990654296875,0,0,1.0718750000000001
1.1420455280003807,0,0,1.369483349609375,0,0,1.3015625000000002
1.143604196000524,0,0,1.6256629272460936,0,0,1.1484375
1.1451456049999251,0,0,1.5251064575195312,0,0,0.0765625
1.1470129730005283,0,0,1.7022773803710936,0,0,1.1484375
1.1486332700005732,0,0,1.695094775390625,0,0,0.8421875000000001
1.1501842160005253,0,0,1.5155296508789062,0,0,0.9187500000000001
1.1519911400000638,0,0,1.0702081420898437,0,0,0.8421875000000001
1.1538961750002272,0,0,1.0797849487304687,0,0,0.6125
1.155547101000593,0,0,1.216254443359375,0,0,0.9187500000000001
1.157253027000479,0,0,1.4221557861328125,0,0,1.225
1.158902971000316,0,0,1.6041151123046875,0,0,1.225
1.1605807120004101,0,0,1.465251416015625,0,0,0.8421875000000001
1.1622034720003285,0,0,1.6136919189453125,0,0,0.765625
1.1637379370004055,0,0,1.3958195678710936,0,0,0.9187500000000001
1.1654218440007753,0,0,1.3958195678710936,0,0,0.8421875000000001
1.1673069340004076,0,0,1.209071838378906,0,0,1.0718750000000001
1.1689751190006064,0,0,1.3910311645507811,0,0,1.3015625000000002
1.170603879000737,0,0,1.419761584472656,0,0,0.8421875000000001
1.1722794530005558,0,0,1.5634136840820312,0,0,0.8421875000000001
1.1738162700003159,0,0,1.5346832641601562,0,0,0.765625
1.1754304930000217,0,0,1.4101847778320311,0,0,0.9187500000000001
1.1771039740006017,0,0,1.5059528442382812,0,0,0.6125
1.1786277910005083,0,0,1.3742717529296875,0,0,0.6125
1.1802375880006366,0,0,1.1659762084960936,0,0,1.0718750000000001
1.1819637170001442,0,0,1.3072341064453123,0,0,0.6125
1.1835528470001009,0,0,1.3024457031249999,0,0,0.8421875000000001
1.1850994970000102,0,0,1.5275006591796874,0,0,0.6890625
1.186972235000212,0,0,1.5298948608398437,0,0,0.765625
1.188719957000103,0,0,1.3551181396484375,0,0,0.6890625
1.1903746790003424,0,0,1.1923124267578125,0,0,0.6890625
1.192006902000685,0,0,1.5370774658203123,0,0,1.225
1.193610384000749,0,0,1.8004396484374998,0,0,1.3015625000000002
1.1952083109999876,0,0,1.5969325073242187,0,0,1.3015625000000002
1.1968705890003548,0,0,1.5107412475585937,0,0,0.765625
1.1985609960001966,0,0,1.3646949462890625,0,0,0.45937500000000003
1.200143553000089,0,0,1.5298948608398437,0,0,0.3828125
1.2017948310003703,0,0,1.5921441040039062,0,0,0.9953125
1.2035368670003663,0,0,1.2306196533203124,0,0,1.1484375
1.2051390530004937,0,0,1.1061211669921875,0,0,1.0718750000000001
1.2068397010007175,0,0,1.0319009155273438,0,0,0.9953125
1.2084678310002346,0,0,1.4987702392578124,0,0,0.9187500000000001
1.2100120360000801,0,0,1.7549498168945312,0,0,0.9953125
1.21154159300022,0,0,1.675941162109375,0,0,1.0718750000000001
1.2131455940007072,0,0,1.5179238525390624,0,0,0.8421875000000001
1.2147973170003752,0,0,1.37906015625,0,0,0.8421875000000001
1.2166054080007598,0,0,1.659181750488281,0,0,0.8421875000000001
1.21820426100021,0,0,1.5322890624999999,0,0,1.1484375
1.2201132580003105,0,0,1.2234370483398436,0,0,0.765625
1.2219220900005894,0,0,1.199495031738281,0,0,0.5359375000000001
1.2235285350006961,0,0,1.2928688964843749,0,0,0.45937500000000003
1.225505995000276,0,0,1.5251064575195312,0,0,0.8421875000000001
1.227254809000442,0,0,1.4700398193359374,0,0,0.765625
1.2289518830002635,0,0,1.3838485595703125,0,0,0.8421875000000001
1.2318665360007799,0,0,0.93852705078125,0,0,0.45937500000000003
1.2334954620000644,0,0,1.3646949462890625,0,0,0.5359375000000001
1.2354111450003984,0,0,1.5610194824218748,0,0,0.765625
1.2369978310007355,0,0,1.4820108276367188,0,0,1.378125
1.2386234049999985,0,0,1.4221557861328125,0,0,1.1484375
1.2404658660007044,0,0,1.6160861206054686,0,0,1.225
1.24211401499997,0,0,1.235408056640625,0,0,0.6125
1.24380155200015,0,0,1.35990654296875,0,0,0.3828125
1.2456874940007765,0,0,1.659181750488281,0,0,0.9953125
1.2472974950005664,0,0,1.5418658691406248,0,0,0.9187500000000001
1.2488624770003298,0,0,1.4628572143554686,0,0,0.8421875000000001
1.2506744570000592,0,0,1.0965443603515623,0,0,1.1484375
1.2522582179999517,0,0,1.2042834350585936,0,0,0.6890625
1.253950014000111,0,0,1.2641384765625,0,0,0.6890625
1.255683680000402,0,0,1.455674609375,0,0,0.9953125
1.2573351240007469,0,0,1.5179238525390624,0,0,0.9953125
1.2593887130005896,0,0,1.7022773803710936,0,0,1.4546875000000001
1.2611570450008003,0,0,1.5035586425781249,0,0,1.1484375
1.2628237120006816,0,0,1.3215993164062498,0,0,0.8421875000000001
1.2645739700001286,0,0,1.149216796875,0,0,0.3828125
1.2662356000000727,0,0,1.350329736328125,0,0,0.0765625
1.2679913400006626,0,0,1.5251064575195312,0,0,0.8421875000000001
1.2697905049999463,0,0,1.5011644409179687,0,0,0.9953125
1.271691577000638,0,0,1.0941501586914062,0,0,0.6890625
1.2733530400000745,0,0,0.97683427734375,0,0,0.5359375000000001
1.2751725759999317,0,0,1.4221557861328125,0,0,0.6125
1.2768293350000022,0,0,1.3862427612304686,0,0,0.765625
1.2784709090001343,0,0,1.7693150268554687,0,0,1.4546875000000001
1.2800151330002336,0,0,1.8028338500976562,0,0,0.8421875000000001
1.281553301000713,0,0,1.6807295654296874,0,0,1.53125
1.28315913500046,0,0,1.3239935180664062,0,0,0.5359375000000001
1.2850085039999612,0,0,1.6065093139648436,0,0,0.22968750000000002
1.2866290970005139,0,0,1.6017209106445311,0,0,0.6125
1.2882290980005564,0,0,1.4628572143554686,0,0,0.8421875000000001
1.2899390230004428,0,0,1.1276689819335937,0,0,1.3015625000000002
1.291520395000589,0,0,1.0462661254882812,0,0,0.765625
1.2930670630003078,0,0,1.1851298217773436,0,0,0.45937500000000003
1.2947050820002914,0,0,1.4867992309570313,0,0,1.1484375
1.296515525000359,0,0,1.917755529785156,0,0,0.9953125
1.2981117480003377,0,0,1.9033903198242186,0,0,2.75625
1.2997244890002548,0,0,1.879448303222656,0,0,1.53125
1.3013265460003822,0,0,1.2952630981445312,0,0,0.6125
1.3029340840002988,0,0,1.0869675537109373,0,0,0.0
1.3047571000006428,0,0,1.35990654296875,0,0,0.153125
1.3065625060007733,0,0,1.5705962890624998,0,0,0.9187500000000001
1.3084394670004258,0,0,1.4006079711914061,0,0,1.225
1.3105917950006187,0,0,0.7326257080078125,0,0,0.6890625
1.312309073000506,0,0,0.9169792358398436,0,0,0.45937500000000003
1.3139587400000892,0,0,1.5418658691406248,0,0,0.765625
1.3157631640006002,0,0,1.9704279663085937,0,0,1.378125
1.3176131620002707,0,0,1.7693150268554687,0,0,1.9140625000000002
1.3192772730008073,0,0,1.3862427612304686,0,0,1.0718750000000001
1.3209379400004764,0,0,1.3862427612304686,0,0,0.45937500000000003
1.3228923260003285,0,0,1.6160861206054686,0,0,0.3828125
1.3246028630001092,0,0,1.8076222534179687,0,0,0.9953125
1.3262384190002194,0,0,1.7501614135742187,0,0,1.225
1.3280941200000598,0,0,0.8858546142578124,0,0,0.8421875000000001
1.3298702490001233,0,0,0.9074024291992187,0,0,0.3828125
1.3320226880005066,0,0,1.714248388671875,0,0,1.1484375
1.3352561340007014,0,0,1.675941162109375,0,0,1.3015625000000002
1.3370535210005983,0,0,1.2018892333984375,0,0,0.9953125
1.3387695020001047,0,0,1.20667763671875,0,0,0.5359375000000001
1.340462447000391,0,0,1.649604943847656,0,0,0.0765625
1.3425771450001776,0,0,1.7980454467773437,0,0,0.9187500000000001
1.3446322710005916,0,0,1.01514150390625,0,0,0.6125
1.346280530000513,0,0,0.47165772705078124,0,0,0.0
1.3480766590000712,0,0,1.0749965454101562,0,0,0.45937500000000003
1.3497088260000965,0,0,1.6065093139648436,0,0,0.9953125
1.351531027999954,0,0,2.2026655273437497,0,0,2.1437500000000003
1.3532622500006255,0,0,1.4437036010742186,0,0,1.53125
1.3551428210002996,0,0,1.2282254516601563,0,0,0.3828125
1.3572436690001268,0,0,1.8914193115234375,0,0,0.22968750000000002
1.3593112750004366,0,0,2.2673089721679687,0,0,1.0718750000000001
1.3609590720006963,0,0,1.2880804931640624,0,0,0.8421875000000001
1.3627062010000373,0,0,0.6631938598632812,0,0,-8.728125
1.3643680900004256,0,0,0.7422025146484375,0,0,0.3828125
1.3659913500005132,0,0,1.7334020019531249,0,0,0.6890625
1.3676429980005196,0,0,2.023100402832031,0,0,1.8375000000000001
1.369237294999948,0,0,1.6136919189453125,0,0,1.225
1.3707623530008277,0,0,1.3168109130859373,0,0,0.9187500000000001
1.372455149000416,0,0,1.1635820068359375,0,0,0.0765625
1.374162871000408,0,0,1.9823989746093749,0,0,0.6890625
1.3759908320007526,0,0,1.687912170410156,0,0,1.1484375
1.3778109040003983,0,0,1.2976572998046874,0,0,0.45937500000000003
1.3794560340002135,0,0,0.3184288208007812,0,0,0.5359375000000001
1.381504734000373,0,0,1.1133037719726562,0,0,0.8421875000000001
1.3833690650008066,0,0,1.946485949707031,0,0,1.225
1.3851229530000637,0,0,1.5586252807617187,0,0,1.4546875000000001
1.3868371560001833,0,0,1.4413093994140624,0,0,1.3015625000000002
1.3887554319999253,0,0,1.0773907470703123,0,0,0.765625
1.390457265000805,0,0,2.04943662109375,0,0,0.765625
1.3922471519999817,0,0,1.70467158203125,0,0,0.9953125
1.3941132610007116,0,0,0.9217676391601562,0,0,0.6890625
1.395772947000296,0,0,0.8714894042968749,0,0,0.5359375000000001
1.3977487400006794,0,0,1.5179238525390624,0,0,0.9187500000000001
1.3994114800007083,0,0,1.6927005737304686,0,0,1.6078125
1.400985574000515,0,0,1.0510545288085937,0,0,0.9953125
1.4027099250006358,0,0,0.8068459594726562,0,0,0.153125
1.404418388000522,0,0,1.5011644409179687,0,0,1.1484375
1.4061335360001976,0,0,1.7669208251953124,0,0,0.9187500000000001
1.4076677410002958,0,0,1.5945383056640625,0,0,1.0718750000000001
1.409195687000647,0,0,0.74699091796875,0,0,0.6890625
1.411036000000422,0,0,0.8810662109374999,0,0,0.30625
1.412691556000027,0,0,1.4437036010742186,0,0,1.6843750000000002
1.4143183340001997,0,0,1.89620771484375,0,0,1.6078125
1.41617014700023,0,0,1.5466542724609373,0,0,1.225
1.4179122020004797,0,0,1.3096283081054687,0,0,0.6125
1.4195203140006925,0,0,1.6998831787109374,0,0,0.765625
1.421059704000072,0,0,1.93451494140625,0,0,0.9187500000000001
1.4228179810006623,0,0,1.6304513305664061,0,0,1.0718750000000001
1.4245230550004635,0,0,0.86191259765625,0,0,0.8421875000000001
1.426155722000658,0,0,1.158793603515625,0,0,0.5359375000000001
1.427812055000686,0,0,1.5969325073242187,0,0,0.6890625
1.4294907590001458,0,0,1.687912170410156,0,0,0.765625
1.4311610740005563,0,0,1.2665326782226562,0,0,0.8421875000000001
1.4327264640005524,0,0,1.216254443359375,0,0,1.225
1.4345370549999643,0,0,1.4796166259765624,0,0,0.6890625
1.436205814999994,0,0,1.158793603515625,0,0,0.6125
1.4377984640004797,0,0,1.0702081420898437,0,0,0.6890625
1.4394098720003967,0,0,1.0869675537109373,0,0,1.0718750000000001
1.4412219630003165,0,0,1.678335363769531,0,0,1.225
1.4428044270007376,0,0,1.8291700683593748,0,0,1.6078125
1.4445342600001823,0,0,1.5251064575195312,0,0,1.3015625000000002
1.4462845180005388,0,0,1.4891934326171874,0,0,0.765625
1.4478810930004329,0,0,1.8004396484374998,0,0,1.1484375
1.4494634270004099,0,0,1.9033903198242186,0,0,0.9953125
1.4512207230000058,0,0,1.4221557861328125,0,0,1.225
1.4529242220005472,0,0,1.1085153686523437,0,0,0.8421875000000001
1.4545248340000398,0,0,1.3934253662109375,0,0,1.3015625000000002
1.4562797590006085,0,0,1.7334020019531249,0,0,1.0718750000000001
1.4589052300007097,0,0,1.0606313354492187,0,0,0.6890625
1.4613323330004278,0,0,1.6400281372070311,0,0,0.6125
1.463459662000787,0,0,1.47482822265625,0,0,1.1484375
1.4651939940004013,0,0,0.8092401611328125,0,0,0.765625
1.4668246240007647,0,0,0.718260498046875,0,0,0.6890625
1.4692234870008178,0,0,1.5227122558593749,0,0,1.225
1.470890672000678,0,0,1.5873557006835937,0,0,1.7609375
1.4724976360002984,0,0,1.6041151123046875,0,0,1.0718750000000001
1.4749726830004875,0,0,1.9033903198242186,0,0,1.1484375
1.4767437930004235,0,0,1.7238251953125,0,0,0.9187500000000001
1.478371719000279,0,0,1.4820108276367188,0,0,0.9187500000000001
1.4801056440001048,0,0,1.2808978881835937,0,0,0.9187500000000001
1.4818723100006537,0,0,1.429338391113281,0,0,1.0718750000000001
1.483484385000338,0,0,1.3263877197265623,0,0,0.6890625
1.4850373310000577,0,0,1.2234370483398436,0,0,0.45937500000000003
1.4866762010005914,0,0,1.6424223388671875,0,0,0.9187500000000001
1.4883480349999445,0,0,1.3623007446289062,0,0,0.6890625
1.4899432020001768,0,0,1.0342951171875,0,0,0.45937500000000003
1.4914752590002536,0,0,0.8595183959960937,0,0,0.5359375000000001
1.4930752230002327,0,0,1.3144167114257812,0,0,1.1484375
1.494723353000154,0,0,1.5514426757812498,0,0,1.0718750000000001
1.496258540000781,0,0,1.5729904907226562,0,0,1.53125
1.497789781999927,0,0,1.4867992309570313,0,0,1.225
1.499468579000677,0,0,1.388636962890625,0,0,0.9187500000000001
1.50109039400013,0,0,1.8650830932617186,0,0,1.0718750000000001
1.5026271360002283,0,0,1.7094599853515624,0,0,1.225
1.5043453759999466,0,0,1.4915876342773438,0,0,1.0718750000000001
1.5060088030004408,0,0,1.6041151123046875,0,0,0.8421875000000001
1.5075843040003747,0,0,1.4173673828125,0,0,0.765625
1.5091191390001768,0,0,1.5682020874023437,0,0,0.9953125
1.5108232120001048,0,0,1.5083470458984374,0,0,0.6125
1.5124746390001746,0,0,1.5658078857421873,0,0,0.8421875000000001
1.5140643990007447,0,0,1.0606313354492187,0,0,0.6890625
1.5156010670007163,0,0,0.6919242797851562,0,0,0.6125
1.5173751770007584,0,0,1.0223241088867188,0,0,0.765625
1.5190102330006994,0,0,1.6831237670898436,0,0,1.6843750000000002
1.5205455680006708,0,0,1.678335363769531,0,0,1.3015625000000002
1.5220984950001366,0,0,1.1875240234375,0,0,1.0718750000000001
1.523923401000502,0,0,1.209071838378906,0,0,1.225
1.5256703080003717,0,0,1.8171990600585937,0,0,0.6125
1.5272972520006078,0,0,2.1116858642578125,0,0,1.1484375
1.5289285490007387,0,0,1.707065783691406,0,0,1.0718750000000001
1.5307252520005932,0,0,1.419761584472656,0,0,1.225
1.5324631400008002,0,0,1.3048399047851562,0,0,0.6890625
1.534382082000775,0,0,1.149216796875,0,0,0.5359375000000001
1.5361302470000737,0,0,1.637633935546875,0,0,0.6890625
1.5378592280003431,0,0,1.419761584472656,0,0,0.3828125
1.5395669320005254,0,0,1.0654197387695312,0,0,0.30625
1.5417246860006344,0,0,0.842758984375,0,0,1.378125
1.5434731290006312,0,0,1.6807295654296874,0,0,1.378125
1.54514870300045,0,0,1.5538368774414062,0,0,1.8375000000000001
1.5468618330005484,0,0,1.0773907470703123,0,0,0.6890625
1.5486571090004873,0,0,1.4604630126953124,0,0,0.8421875000000001
1.5504664780000894,0,0,2.059013427734375,0,0,1.0718750000000001
1.5521564040000158,0,0,1.7166425903320313,0,0,1.378125
1.55387388500003,0,0,1.4796166259765624,0,0,1.225
1.5555858289999378,0,0,1.2306196533203124,0,0,0.6125
1.5572748470003717,0,0,1.0175357055664063,0,0,0.6890625
1.5589964950004287,0,0,1.5203180541992187,0,0,0.6890625
1.560659088000648,0,0,1.5442600708007812,0,0,0.22968750000000002
1.5623748090001754,0,0,1.2306196533203124,0,0,0.765625
1.5640804200002094,0,0,0.7565677246093749,0,0,0.765625
1.5657529200007048,0,0,1.35990654296875,0,0,1.4546875000000001
1.5677316210003482,0,0,1.5227122558593749,0,0,1.0718750000000001
1.569430917000318,0,0,1.1707646118164061,0,0,0.765625
1.5710453620004046,0,0,1.5897499023437498,0,0,1.0718750000000001
1.572848860000704,0,0,1.9321207397460936,0,0,1.3015625000000002
1.5744795640002849,0,0,1.848323681640625,0,0,1.53125
1.5761974530005318,0,0,1.7286135986328124,0,0,1.53125
1.5779701930005103,0,0,1.3742717529296875,0,0,0.9187500000000001
1.5796054709999225,0,0,1.3551181396484375,0,0,0.45937500000000003
1.5813102300007813,0,0,1.2785036865234374,0,0,0.0765625
1.5831136540000443,0,0,1.6112977172851561,0,0,0.765625
1.584845043000314,0,0,1.4891934326171874,0,0,0.6890625
1.5866953370004921,0,0,0.8954314208984374,0,0,0.9187500000000001
1.5885565390008196,0,0,1.2401964599609374,0,0,1.3015625000000002
1.5902011690004656,0,0,1.3072341064453123,0,0,1.6078125
1.5920397220006635,0,0,1.22583125,0,0,0.9953125
1.5944548620000205,0,0,1.9584569580078124,0,0,1.0718750000000001
1.5962492870003189,0,0,1.8243816650390623,0,0,1.0718750000000001
1.598107637000794,0,0,1.5945383056640625,0,0,0.765625
1.6004072780006027,0,0,1.5251064575195312,0,0,1.1484375
1.60257719800029,0,0,1.209071838378906,0,0,0.6125
1.6042428470000232,0,0,1.2785036865234374,0,0,0.153125
1.6068271890007964,0,0,1.2282254516601563,0,0,0.0
1.6087736480003514,0,0,0.9265560424804687,0,0,1.3015625000000002
1.610380353000437,0,0,1.608903515625,0,0,1.378125
1.6119112989999849,0,0,1.4724340209960938,0,0,1.6843750000000002
1.6135524480005188,0,0,0.9744400756835937,0,0,0.9187500000000001
1.6151373740003692,0,0,1.5610194824218748,0,0,0.6125
1.6167083390000698,0,0,1.7286135986328124,0,0,1.225
1.618710798000393,0,0,2.243366955566406,0,0,1.1484375
1.6203391320004812,0,0,1.9847931762695312,0,0,1.1484375
1.6220081130004473,0,0,0.9840168823242187,0,0,0.9953125
1.6238058900007672,0,0,0.9050082275390624,0,0,0.0
1.6255088340003567,0,0,1.1276689819335937,0,0,-9.8
1.6270857050003542,0,0,1.2234370483398436,0,0,0.6890625
1.628846982000141,0,0,0.9888052856445312,0,0,0.3828125
1.630488131000675,0,0,1.1851298217773436,0,0,1.3015625000000002
1.6320266689999698,0,0,1.5466542724609373,0,0,1.6843750000000002
1.6337242060008066,0,0,1.458068811035156,0,0,1.3015625000000002
1.6353525029999219,0,0,1.350329736328125,0,0,0.9953125
1.6368940970005497,0,0,1.886630908203125,0,0,0.9953125
1.6385200980002992,0,0,1.848323681640625,0,0,1.3015625000000002
1.6402035790006266,0,0,2.3032219970703123,0,0,1.6843750000000002
1.641837079000652,0,0,2.2744915771484373,0,0,1.3015625000000002
1.6434744500002125,0,0,1.0917559570312498,0,0,0.22968750000000002
1.6451897090000784,0,0,0.948103857421875,0,0,0.0
1.64688569000009,0,0,1.1061211669921875,0,0,-0.30625
1.648572153000714,0,0,1.1156979736328125,0,0,0.5359375000000001
1.6507897950004917,0,0,0.8020575561523438,0,0,2.0671875
1.6523459630006982,0,0,1.438915197753906,0,0,1.1484375
1.6540670550002687,0,0,1.3742717529296875,0,0,1.4546875000000001
1.6559700160005377,0,0,1.6927005737304686,0,0,1.6078125
1.6578115510001226,0,0,2.0278888061523435,0,0,0.9953125
1.6594972920001965,0,0,2.0757728393554684,0,0,0.8421875000000001
1.6612382910007,0,0,2.070984436035156,0,0,1.3015625000000002
1.6628020329999345,0,0,1.9201497314453124,0,0,1.1484375
1.6645144030007941,0,0,1.0199299072265624,0,0,0.3828125
1.6662040320006781,0,0,0.9744400756835937,0,0,0.0
1.6678083850001713,0,0,0.6512228515624999,0,0,-0.153125
1.6694582740001351,0,0,0.6368576416015624,0,0,9.264062500000001
1.6710807930003284,0,0,1.668758557128906,0,0,1.4546875000000001
1.6726206650000677,0,0,1.5825672973632812,0,0,2.296875
1.674548662000234,0,0,1.0630255371093749,0,0,0.6890625
1.6768487480003387,0,0,1.2425906616210938,0,0,0.3828125
1.6784507300008045,0,0,1.7477672119140624,0,0,1.53125
1.680190804000631,0,0,2.2649147705078123,0,0,1.378125
1.6818247670007622,0,0,2.3032219970703123,0,0,1.6078125
1.6833641020002688,0,0,1.7022773803710936,0,0,1.6843750000000002
1.6849665660001847,0,0,1.1563994018554686,0,0,0.6890625
1.6870796720004364,0,0,0.8858546142578124,0,0,-0.45937500000000003
1.688709117000144,0,0,1.1875240234375,0,0,-0.45937500000000003
1.6903038400005244,0,0,1.3431471313476562,0,0,1.53125
1.692062117000205,0,0,1.3072341064453123,0,0,1.53125
1.6936027300007481,0,0,0.82360537109375,0,0,1.225
1.6951863230005983,0,0,0.9911994873046874,0,0,1.378125
1.6968125090006652,0,0,1.2330138549804688,0,0,1.225
1.698368307000237,0,0,2.0087351928710935,0,0,1.53125
1.7000080660000094,0,0,2.4564509033203126,0,0,2.1437500000000003
1.7019382300004509,0,0,2.4660277099609376,0,0,2.2203125000000004
1.7037545250004769,0,0,1.43652099609375,0,0,0.6890625
1.7055612829999518,0,0,0.8259995727539062,0,0,-0.3828125
1.7073454670007777,0,0,1.0869675537109373,0,0,-0.6125
1.709116169000481,0,0,1.369483349609375,0,0,0.6890625
1.710887909000121,0,0,1.8842367065429686,0,0,1.225
1.713171809999949,0,0,0.4213794921875,0,0,0.9187500000000001
1.71494630899997,0,0,0.5219359619140624,0,0,0.9187500000000001
1.7168249550004475,0,0,1.3646949462890625,0,0,3.4453125000000004
1.7185628980005276,0,0,2.2673089721679687,0,0,1.1484375
1.7203301940007805,0,0,2.6288334228515624,0,0,2.45
1.7223168939999596,0,0,1.66636435546875,0,0,0.9187500000000001
1.7242523909999363,0,0,1.0917559570312498,0,0,0.0
1.7260310750007193,0,0,0.8020575561523438,0,0,-0.30625
1.7279729420006333,0,0,0.8068459594726562,0,0,1.1484375
1.7307360970007721,0,0,1.3910311645507811,0,0,1.7609375
1.732430523000403,0,0,0.4836287353515625,0,0,0.9953125
1.7347019050002928,0,0,0.8786720092773437,0,0,0.9187500000000001
1.736450497000078,0,0,1.7549498168945312,0,0,1.3015625000000002
1.7380859419999979,0,0,2.70065947265625,0,0,1.9140625000000002
1.7397227010005736,0,0,2.310404602050781,0,0,2.2203125000000004
1.742013861000487,0,0,1.1180921752929687,0,0,0.22968750000000002
1.7439802290000443,0,0,0.8978256225585937,0,0,0.0765625
1.7457112460006101,0,0,0.9911994873046874,0,0,0.45937500000000003
1.7476018920006027,0,0,1.8722656982421875,0,0,1.3015625000000002
1.7493112070005736,0,0,1.218648645019531,0,0,1.1484375
1.7510544650003794,0,0,0.6655880615234374,0,0,1.3015625000000002
1.7529636110002684,0,0,1.0654197387695312,0,0,1.225
1.7548471449999852,0,0,1.8195932617187498,0,0,0.9187500000000001
1.756606384999941,0,0,2.6791116577148437,0,0,2.296875
1.7587399910007662,0,0,1.7357962036132812,0,0,1.7609375
1.760441806000017,0,0,0.9864110839843749,0,0,-0.153125
1.7623247670007913,0,0,0.8212111694335937,0,0,0.0
1.7640065810001033,0,0,1.7022773803710936,0,0,0.8421875000000001
1.7659815970000636,0,0,2.0350714111328125,0,0,1.9140625000000002
1.7678575940008159,0,0,1.3862427612304686,0,0,1.0718750000000001
1.7696830370005046,0,0,0.6775590698242188,0,0,0.765625
1.7713694630001555,0,0,0.9241618408203125,0,0,0.8421875000000001
1.773110462000659,0,0,2.291250988769531,0,0,0.9187500000000001
1.774756685000284,0,0,3.0526071166992184,0,0,1.6843750000000002
1.776460944000064,0,0,1.9847931762695312,0,0,1.990625
1.7781340550000095,0,0,0.9552864624023437,0,0,0.0
1.779749093000646,0,0,0.3806780639648437,0,0,-0.3828125
1.7814450370005943,0,0,0.6248866333007812,0,0,0.0
1.7831495360005647,0,0,1.9943699829101562,0,0,0.45937500000000003
1.7848252960002355,0,0,1.8411410766601561,0,0,1.8375000000000001
1.7864239820000876,0,0,0.7038952880859375,0,0,1.9140625000000002
1.7879598350000379,0,0,0.6655880615234374,0,0,0.8421875000000001
1.7895837620008024,0,0,0.9193734375,0,0,0.6890625
1.7911685960007162,0,0,2.6527754394531247,0,0,1.9140625000000002
1.793000872000448,0,0,2.360682836914062,0,0,1.7609375
1.7947827780008083,0,0,2.023100402832031,0,0,1.0718750000000001
1.7964515010007744,0,0,0.4333505004882812,0,0,0.9953125
1.7980416310001601,0,0,0.5315127685546874,0,0,-0.22968750000000002
1.799821649000478,0,0,1.8100164550781248,0,0,0.5359375000000001
1.8014294270005848,0,0,2.0063409912109376,0,0,2.0671875
1.8030812240003797,0,0,0.9528922607421875,0,0,1.3015625000000002
1.8049498140007927,0,0,0.6751648681640625,0,0,0.5359375000000001
1.8065342970003258,0,0,0.5195417602539062,0,0,0.3828125
1.8083403880000333,0,0,2.3822306518554686,0,0,1.1484375
1.8099582220002048,0,0,2.8227637573242186,0,0,1.378125
1.8116444440001942,0,0,2.039859814453125,0,0,1.3015625000000002
1.8132536110006185,0,0,0.4644751220703125,0,0,0.5359375000000001
1.8148741120003251,0,0,0.4285620971679687,0,0,-0.3828125
1.8164282980005737,0,0,1.3623007446289062,0,0,0.30625
1.8182170010004484,0,0,2.1499930908203124,0,0,1.6843750000000002
1.8198615380006231,0,0,2.0566192260742184,0,0,1.225
1.8214502610007912,0,0,1.0510545288085937,0,0,0.765625
1.823244390000582,0,0,0.9528922607421875,0,0,0.9187500000000001
1.8249032970006738,0,0,1.3335703247070312,0,0,0.8421875000000001
1.8267075920002753,0,0,2.3965958618164063,0,0,0.765625
1.8282825750002303,0,0,1.8650830932617186,0,0,0.9953125
1.8299286860001303,0,0,1.1372457885742187,0,0,2.1437500000000003
1.8315184279999812,0,0,0.20350714111328125,0,0,-0.6125
1.8332502240000395,0,0,1.3048399047851562,0,0,0.6890625
1.8349205750000692,0,0,1.7645266235351562,0,0,1.990625
1.8367998140001873,0,0,1.9297265380859374,0,0,1.7609375
1.8383879630000592,0,0,1.1061211669921875,0,0,1.378125
1.8400211120006134,0,0,1.1276689819335937,0,0,0.6890625
1.841610872000274,0,0,2.1404162841796874,0,0,1.378125
1.843237243000658,0,0,2.288856787109375,0,0,0.6890625
1.8449006690007081,0,0,2.205059729003906,0,0,0.9187500000000001
1.8465475210005025,0,0,0.6344634399414062,0,0,0.6890625
1.8480796890007696,0,0,0.1292868896484375,0,0,-0.30625
1.8502172950002205,0,0,1.458068811035156,0,0,0.6125
1.8521749770006863,0,0,1.8938135131835936,0,0,0.9187500000000001
1.8542893990006633,0,0,1.2569558715820313,0,0,1.0718750000000001
1.8565747250004279,0,0,1.1516109985351561,0,0,0.9953125
1.8581730590003644,0,0,2.473210314941406,0,0,1.6843750000000002
1.859762208000575,0,0,2.4684219116210935,0,0,1.378125
1.8615379670000038,0,0,2.0566192260742184,0,0,0.765625
1.863325521000661,0,0,0.9433154541015625,0,0,0.153125
1.864903226000024,0,0,0.3447650390625,0,0,0.6125
1.8670129430001907,0,0,1.2521674682617188,0,0,1.0718750000000001
1.869065939000393,0,0,1.177947216796875,0,0,1.4546875000000001
1.8706937910001216,0,0,1.1228805786132812,0,0,1.0718750000000001
1.8722626440003296,0,0,0.9361328491210937,0,0,0.6890625
1.8741302900007213,0,0,2.0661960327148434,0,0,1.7609375
1.8758978450005088,0,0,2.250549560546875,0,0,0.9953125
1.8775059380004677,0,0,2.0661960327148434,0,0,0.8421875000000001
1.8791508829999657,0,0,0.9624690673828125,0,0,0.6890625
1.8807693840008142,0,0,0.17477672119140625,0,0,0.6890625
1.8824537170003168,0,0,1.2306196533203124,0,0,1.3015625000000002
1.8841150690004724,0,0,1.4413093994140624,0,0,0.6890625
1.8857349580002847,0,0,1.1659762084960936,0,0,1.6078125
1.887317663000431,0,0,0.9050082275390624,0,0,0.6890625
1.8889425710003707,0,0,1.0486603271484374,0,0,0.9953125
1.8907522180006708,0,0,2.3918074584960936,0,0,1.378125
1.89238199600004,0,0,2.059013427734375,0,0,1.1484375
1.894075163000707,0,0,0.9864110839843749,0,0,0.30625
1.895708626000669,0,0,0.3591302490234375,0,0,-0.6125
1.897348071000124,0,0,0.8283937744140625,0,0,0.45937500000000003
1.8991082740003549,0,0,1.7525556152343749,0,0,1.7609375
1.9007678110001507,0,0,1.8435352783203125,0,0,1.4546875000000001
1.9023660890006795,0,0,0.8906430175781249,0,0,1.53125
1.9040447930001392,0,0,0.8403647827148437,0,0,0.6125
1.9057234040001276,0,0,1.93451494140625,0,0,1.53125
1.907764271000815,0,0,2.6791116577148437,0,0,1.378125
1.9094117710001228,0,0,1.7022773803710936,0,0,0.0
1.911268120999921,0,0,0.28969840087890625,0,0,-0.30625
1.913013564000721,0,0,0.143652099609375,0,0,0.30625
1.9149861350006177,0,0,1.5083470458984374,0,0,1.6843750000000002
1.916773578000175,0,0,1.5586252807617187,0,0,1.7609375
1.9184329490008167,0,0,0.9888052856445312,0,0,1.1484375
1.9202572250005687,0,0,1.254561669921875,0,0,0.153125
1.9219878540006903,0,0,2.0374656127929685,0,0,1.53125
1.9236357250001674,0,0,2.6144682128906247,0,0,1.0718750000000001
1.9253548540000338,0,0,1.7717092285156248,0,0,0.5359375000000001
1.9271333710003091,0,0,0.2753331909179687,0,0,0.0
1.9289038150000124,0,0,-0.06464344482421874,0,0,0.0
1.9306089260007866,0,0,1.4915876342773438,0,0,0.9187500000000001
1.9323032590000366,0,0,1.649604943847656,0,0,0.6890625
1.9339259440002934,0,0,1.3383587280273437,0,0,1.7609375
1.935548519000804,0,0,0.7350199096679687,0,0,1.378125
1.9375488300001962,0,0,1.7405846069335937,0,0,1.378125
1.939370644000519,0,0,2.398990063476562,0,0,0.45937500000000003
1.9411322170008134,0,0,2.0781670410156248,0,0,0.9953125
1.943198083000425,0,0,0.8738836059570312,0,0,-0.30625
1.9451655980001306,0,0,1.1013327636718748,0,0,0.22968750000000002
1.9468057280000721,0,0,1.5107412475585937,0,0,-9.034375
1.948429543000202,0,0,1.1875240234375,0,0,0.8421875000000001
1.9500468030000775,0,0,0.5913678100585937,0,0,1.3015625000000002
1.9517109520002123,0,0,0.38307226562499996,0,0,0.6890625
1.9533371930001522,0,0,1.838746875,0,0,1.53125
1.955086711000149,0,0,2.3965958618164063,0,0,1.4546875000000001
1.957093411000642,0,0,2.2361843505859373,0,0,1.3015625000000002
1.9587226700004976,0,0,1.2641384765625,0,0,0.9187500000000001
1.9603359669999918,0,0,0.45010991210937495,0,0,-0.6890625
1.961904282999967,0,0,1.1563994018554686,0,0,0.45937500000000003
1.963555839000037,0,0,1.7836802368164062,0,0,1.1484375
1.9651935430001686,0,0,0.8259995727539062,0,0,0.6890625
1.966815710999981,0,0,0.689530078125,0,0,0.3828125
1.9684139520004464,0,0,1.1947066284179686,0,0,0.5359375000000001
1.9700303970003006,0,0,1.8052280517578123,0,0,1.7609375
1.9718858770002043,0,0,2.1452046874999997,0,0,1.3015625000000002
1.973662375999993,0,0,1.7908628417968748,0,0,0.45937500000000003
1.9752450060004776,0,0,0.51714755859375,0,0,0.22968750000000002
1.9769478580001305,0,0,0.2825157958984375,0,0,0.9187500000000001
1.978659709000567,0,0,2.001552587890625,0,0,1.6843750000000002
1.980289210000592,0,0,1.39821376953125,0,0,1.6078125
1.983209343999988,0,0,0.6775590698242188,0,0,0.9187500000000001
1.985129249000238,0,0,1.9393033447265624,0,0,1.225
1.9868223410003338,0,0,2.511517541503906,0,0,1.7609375
1.9885375450003266,0,0,2.1547814941406247,0,0,1.53125
1.990070917000594,0,0,1.1109095703125,0,0,0.45937500000000003
1.991864249000173,0,0,0.42377369384765623,0,0,-0.5359375000000001
1.9935652849999315,0,0,0.9026140258789062,0,0,0.9187500000000001
1.995280637000178,0,0,1.5682020874023437,0,0,0.9953125
1.9972215230000074,0,0,1.1372457885742187,0,0,1.6843750000000002
1.9988082090003445,0,0,0.9361328491210937,0,0,0.6890625
2.00044848700054,0,0,1.0989385620117187,0,0,0.9187500000000001
2.002152487000785,0,0,2.6288334228515624,0,0,1.990625
2.003914041000826,0,0,2.2744915771484373,0,0,0.9953125
2.005597633999969,0,0,1.6256629272460936,0,0,0.0
2.0073089480001727,0,0,0.4381389038085937,0,0,-0.22968750000000002
2.0088961530000233,0,0,0.0430956298828125,0,0,0.0
2.0105204870005764,0,0,1.7238251953125,0,0,0.8421875000000001
2.012300671000048,0,0,1.4221557861328125,0,0,0.9187500000000001
2.014283205000538,0,0,0.411802685546875,0,0,1.3015625000000002
2.0158534100000907,0,0,0.22744915771484372,0,0,1.1484375
2.0179461830002765,0,0,1.9991583862304687,0,0,1.990625
2.019858180000483,0,0,2.5163059448242184,0,0,1.53125
2.021566346000327,0,0,2.3032219970703123,0,0,0.45937500000000003
2.0232688460000645,0,0,0.7326257080078125,0,0,0.0
2.025054882000404,0,0,0.9648632690429687,0,0,0.45937500000000003
2.026726308000434,0,0,1.3814543579101561,0,0,0.9187500000000001
2.028403141000126,0,0,1.0319009155273438,0,0,0.45937500000000003
2.0301318070005436,0,0,0.7733271362304687,0,0,1.225
2.03184523300024,0,0,0.7398083129882812,0,0,0.6890625
2.033745323000403,0,0,1.9129671264648436,0,0,1.9140625000000002
2.035414323000623,0,0,2.4756045166015626,0,0,1.378125
2.0370282500007306,0,0,2.360682836914062,0,0,0.6890625
2.0386375650004993,0,0,1.2665326782226562,0,0,1.0718750000000001
2.0403526019999845,0,0,0.22505495605468748,0,0,-0.6125
2.042143971000769,0,0,1.5418658691406248,0,0,0.5359375000000001
2.043879026000468,0,0,1.5179238525390624,0,0,0.30625
2.0455371930002,0,0,1.0630255371093749,0,0,1.3015625000000002
2.0474546900004498,0,0,0.469263525390625,0,0,0.9187500000000001
2.0489974510001048,0,0,0.6177040283203125,0,0,1.1484375
2.0505792300000394,0,0,1.9608511596679685,0,0,1.9140625000000002
2.0524103760008074,0,0,2.080561242675781,0,0,1.8375000000000001
2.054329040000084,0,0,1.4963760375976562,0,0,1.1484375
2.0559343740005716,0,0,0.8044517578125,0,0,9.4171875
2.057738650000829,0,0,1.35990654296875,0,0,0.8421875000000001
2.059448835000694,0,0,1.8267758666992187,0,0,1.3015625000000002
2.061046706000525,0,0,1.6208745239257811,0,0,1.378125
2.0626543000007587,0,0,0.967257470703125,0,0,0.765625
2.0642641710001044,0,0,0.9361328491210937,0,0,1.3015625000000002
2.0661811680001847,0,0,1.7956512451171873,0,0,1.378125
2.0679553710006076,0,0,2.04943662109375,0,0,1.53125
2.0698242580001533,0,0,2.1308394775390624,0,0,0.9187500000000001
2.0717499770007635,0,0,0.316034619140625,0,0,0.0
2.0736342710006284,0,0,0.86191259765625,0,0,0.30625
2.0752732340006332,0,0,1.6160861206054686,0,0,1.1484375
2.076981401000012,0,0,1.5059528442382812,0,0,1.225
2.0788300100002743,0,0,1.4700398193359374,0,0,1.1484375
2.080891913000414,0,0,1.2569558715820313,0,0,1.3015625000000002
2.0826103389999844,0,0,1.944091748046875,0,0,1.4546875000000001
2.0844237810006234,0,0,1.9105729248046874,0,0,1.4546875000000001
2.0863245939999615,0,0,1.2018892333984375,0,0,0.6890625
2.0879328910004915,0,0,0.6464344482421874,0,0,-1.1484375
2.08957066900075,0,0,1.0390835205078124,0,0,0.9187500000000001
2.0911755770002856,0,0,1.6328455322265625,0,0,1.1484375
2.092732375000196,0,0,1.3335703247070312,0,0,1.6078125
2.0947330010003498,0,0,0.9888052856445312,0,0,0.8421875000000001
2.0963533720005216,0,0,0.8906430175781249,0,0,1.1484375
2.0982405550003023,0,0,2.3439234252929686,0,0,1.7609375
2.0999862210001083,0,0,2.4875755249023435,0,0,1.3015625000000002
2.1016487580000103,0,0,2.1452046874999997,0,0,0.765625
2.103181778000362,0,0,0.49799394531249996,0,0,0.0
2.1051465150003423,0,0,0.8930372192382812,0,0,0.0765625
2.1068464780000795,0,0,1.4030021728515625,0,0,0.8421875000000001
2.108489922999979,0,0,1.6615759521484375,0,0,0.765625
2.1100765910005066,0,0,1.2425906616210938,0,0,0.9187500000000001
2.1119597360002444,0,0,0.3232172241210937,0,0,1.0718750000000001
2.113769902000058,0,0,1.2880804931640624,0,0,1.378125
2.115698825000436,0,0,2.379836450195312,0,0,1.6843750000000002
2.117792598000051,0,0,2.1715409057617188,0,0,1.0718750000000001
2.119507820000763,0,0,0.5985504150390625,0,0,0.153125
2.1212948370002778,0,0,1.2521674682617188,0,0,0.0
2.1230114480003976,0,0,1.8363526733398436,0,0,1.1484375
2.1252104970008077,0,0,1.2904746948242187,0,0,0.8421875000000001
2.127098217000821,0,0,0.4740519287109375,0,0,0.765625
2.1290158810006687,0,0,0.49799394531249996,0,0,0.8421875000000001
2.1309070639999845,0,0,1.695094775390625,0,0,0.8421875000000001
2.132730100000117,0,0,2.068590234375,0,0,1.7609375
2.1344208030004665,0,0,1.2401964599609374,0,0,1.378125
2.1364005770001313,0,0,0.9528922607421875,0,0,1.4546875000000001
2.1379883380004685,0,0,1.6160861206054686,0,0,1.7609375
2.139604505000534,0,0,2.205059729003906,0,0,1.9140625000000002
2.1415048170001683,0,0,1.2665326782226562,0,0,1.225
2.143185077000453,0,0,0.40222587890625,0,0,0.6125
2.1450392410006316,0,0,0.4740519287109375,0,0,0.45937500000000003
2.146927461000814,0,0,2.0661960327148434,0,0,0.9187500000000001
2.1485144810003476,0,0,2.2649147705078123,0,0,1.3015625000000002
2.1500712970000677,0,0,1.7717092285156248,0,0,1.225
2.152099367000119,0,0,-0.2346317626953125,0,0,-0.22968750000000002
2.1536901640001815,0,0,0.9002198242187499,0,0,0.765625
2.1553162200007137,0,0,2.2026655273437497,0,0,1.3015625000000002
2.156924388000334,0,0,2.365471240234375,0,0,0.9953125
2.15853933300059,0,0,1.3910311645507811,0,0,1.225
2.1601165930005664,0,0,0.6871358764648438,0,0,1.225
2.1616515949999666,0,0,1.1468225952148436,0,0,1.4546875000000001
2.163878588999978,0,0,2.061407629394531,0,0,1.225
2.1656531250000626,0,0,1.6807295654296874,0,0,0.30625
2.167190959000436,0,0,0.6009446166992187,0,0,0.5359375000000001
2.168740516000071,0,0,0.33039982910156246,0,0,0.22968750000000002
2.1703424249999443,0,0,1.6017209106445311,0,0,0.6125
2.171938407000198,0,0,1.6424223388671875,0,0,1.1484375
2.1735152230003223,0,0,1.2401964599609374,0,0,1.4546875000000001
2.175059169000633,0,0,0.9265560424804687,0,0,0.5359375000000001
2.1770614990000468,0,0,1.0534487304687499,0,0,1.225
2.17870631400001,0,0,2.1619640991210938,0,0,1.53125
2.1804289800002152,0,0,2.501940734863281,0,0,1.9140625000000002
2.182321774000229,0,0,1.0390835205078124,0,0,1.225
2.183931293000569,0,0,0.584185205078125,0,0,-0.6125
2.1857487540000875,0,0,0.9026140258789062,0,0,0.3828125
2.187656400000378,0,0,1.886630908203125,0,0,0.9953125
2.1896293600002537,0,0,1.6017209106445311,0,0,1.53125
2.191458562000662,0,0,0.5913678100585937,0,0,0.8421875000000001
2.1931099880002876,0,0,1.1827356201171875,0,0,0.9953125
2.1948769680002442,0,0,1.7357962036132812,0,0,1.1484375
2.196423635999963,0,0,2.1164742675781247,0,0,1.1484375
2.1982101540006624,0,0,1.3646949462890625,0,0,1.225
2.2001264290001927,0,0,0.6105214233398437,0,0,9.264062500000001
2.2017328740002995,0,0,1.419761584472656,0,0,0.9953125
2.2032649680004397,0,0,2.0063409912109376,0,0,1.6843750000000002
2.2049819680005385,0,0,1.668758557128906,0,0,1.378125
2.207038704000297,0,0,0.9720458740234375,0,0,0.45937500000000003
2.2088520360002803,0,0,0.7613561279296874,0,0,0.22968750000000002
2.2104548699999214,0,0,2.0638018310546875,0,0,1.225
2.212425034000262,0,0,2.032677209472656,0,0,1.378125
2.214290587000505,0,0,0.8690952026367187,0,0,0.8421875000000001
2.215939532000448,0,0,0.24181436767578124,0,0,0.0
2.2175494960001743,0,0,1.2976572998046874,0,0,1.4546875000000001
2.2194735480006784,0,0,1.7525556152343749,0,0,1.4546875000000001
2.221109271000387,0,0,1.5682020874023437,0,0,1.6078125
2.2227511230003074,0,0,1.4891934326171874,0,0,0.9953125
2.224423475000549,0,0,1.0390835205078124,0,0,-8.8046875
2.226145641000585,0,0,2.020706201171875,0,0,0.765625
2.2278253080003196,0,0,2.080561242675781,0,0,0.153125
2.229483679000623,0,0,1.6112977172851561,0,0,0.9187500000000001
2.2323791280005025,0,0,0.02633621826171875,0,0,0.6125
2.234649010000794,0,0,1.675941162109375,0,0,1.225
2.236547989000428,0,0,1.9201497314453124,0,0,1.3015625000000002
2.2382544150004833,0,0,1.5753846923828123,0,0,1.53125
2.240149468000709,0,0,0.8930372192382812,0,0,1.0718750000000001
2.2417077840000275,0,0,1.4006079711914061,0,0,1.3015625000000002
2.244226905000687,0,0,2.24097275390625,0,0,1.0718750000000001
2.2465293049999673,0,0,1.2234370483398436,0,0,0.6890625
2.2481704170004377,0,0,0.2920926025390625,0,0,-0.3828125
2.24973458400018,0,0,0.6536170532226562,0,0,-0.30625
2.251354492000246,0,0,1.4245499877929686,0,0,1.225
2.252967567000269,0,0,1.4915876342773438,0,0,1.3015625000000002
2.2544985320000706,0,0,1.2473790649414063,0,0,1.225
2.256093476999922,0,0,1.4508862060546874,0,0,0.9187500000000001
2.2580381590005345,0,0,2.094926452636719,0,0,1.8375000000000001
2.2599613050006155,0,0,2.3319524169921872,0,0,0.8421875000000001
2.2616095830007907,0,0,1.7525556152343749,0,0,0.0765625
2.2632215840003482,0,0,0.4261678955078125,0,0,0.0765625
2.265034323000691,0,0,0.229843359375,0,0,0.0
2.26697752400014,0,0,1.180341418457031,0,0,1.3015625000000002
2.2688672250005766,0,0,1.4628572143554686,0,0,1.6843750000000002
2.270908499000143,0,0,1.0127473022460938,0,0,1.225
2.272731756000212,0,0,0.833182177734375,0,0,1.1484375
2.274370441999963,0,0,2.138022082519531,0,0,1.8375000000000001
2.2759271470004023,0,0,2.123656872558594,0,0,1.3015625000000002
2.2775409070000023,0,0,2.2577321655273437,0,0,0.30625
2.2791290560007837,0,0,0.8283937744140625,0,0,-8.957812500000001
2.28092985100011,0,0,0.2705447875976562,0,0,0.30625
2.2827954040003533,0,0,1.4053963745117186,0,0,0.9187500000000001
2.284416645999954,0,0,1.7453730102539062,0,0,1.4546875000000001
2.286471716000051,0,0,0.9217676391601562,0,0,0.8421875000000001
2.288240159000452,0,0,0.603338818359375,0,0,0.45937500000000003
2.289997195000069,0,0,1.3958195678710936,0,0,1.225
2.2920307650001632,0,0,2.3774422485351563,0,0,1.225
2.2940006320004613,0,0,2.2290017456054687,0,0,1.0718750000000001
2.2957862240000395,0,0,0.48123453369140623,0,0,-0.45937500000000003
2.2975496120006937,0,0,0.9457096557617187,0,0,0.45937500000000003
2.299164964000738,0,0,1.89620771484375,0,0,2.0671875
2.3009640370000852,0,0,1.9536685546875,0,0,1.225
2.3028795160007576,0,0,1.1085153686523437,0,0,0.8421875000000001
2.3047791980006878,0,0,0.7805097412109374,0,0,0.5359375000000001
2.3065883270000995,0,0,2.068590234375,0,0,1.4546875000000001
2.3083249930004968,0,0,2.1835119140624997,0,0,1.6843750000000002
2.3099872890006736,0,0,1.7405846069335937,0,0,0.22968750000000002
2.3117292700007965,0,0,0.06943184814453125,0,0,-0.9953125
2.313542953000251,0,0,0.833182177734375,0,0,2.296875
2.315248953000264,0,0,2.1116858642578125,0,0,1.6078125
2.3175471310005378,0,0,1.917755529785156,0,0,2.2203125000000004
2.319261335000192,0,0,0.6344634399414062,0,0,1.1484375
2.321188812999935,0,0,1.4772224243164063,0,0,0.6890625
2.3230672740000955,0,0,2.1787235107421874,0,0,0.6890625
2.3247969960002592,0,0,2.50912333984375,0,0,1.1484375
2.3264385700003913,0,0,1.2617442749023438,0,0,0.6890625
2.327970183000616,0,0,0.3112462158203125,0,0,-0.6125
2.329501777000587,0,0,0.7517793212890624,0,0,0.45937500000000003
2.331148000000212,0,0,1.1037269653320312,0,0,0.9187500000000001
2.3328310370006875,0,0,1.3120225097656248,0,0,1.3015625000000002
2.334482148000461,0,0,1.1755530151367186,0,0,0.9953125
2.336205851000159,0,0,1.4820108276367188,0,0,1.53125
2.337977701999989,0,0,2.0733786376953125,0,0,1.7609375
2.339535259000513,0,0,2.1308394775390624,0,0,0.765625
2.3412217960003545,0,0,1.697488977050781,0,0,0.5359375000000001
2.343423086000257,0,0,0.3399766357421875,0,0,-0.6125
2.3451387150007577,0,0,1.0797849487304687,0,0,0.153125
2.3469203620006738,0,0,1.608903515625,0,0,1.4546875000000001
2.349355058000583,0,0,1.1085153686523437,0,0,1.990625
2.351272333000452,0,0,0.4165910888671875,0,0,0.9187500000000001
2.3529713330008235,0,0,0.9193734375,0,0,0.9953125
2.354591574000551,0,0,2.4133552734375,0,0,1.3015625000000002
2.3563379249999343,0,0,2.6575638427734374,0,0,1.7609375
2.358038017000581,0,0,2.2673089721679687,0,0,0.9187500000000001
2.3597172580002734,0,0,0.5315127685546874,0,0,-1.225
2.3616480140008207,0,0,0.9121908325195311,0,0,0.22968750000000002
2.363360384000771,0,0,1.6424223388671875,0,0,1.3015625000000002
2.365134031000707,0,0,0.9050082275390624,0,0,1.225
2.3667039960000693,0,0,0.6105214233398437,0,0,0.9187500000000001
2.3683793660002266,0,0,0.8643067993164062,0,0,0.6890625
2.3701287170006253,0,0,2.47081611328125,0,0,1.9140625000000002
2.371759199000735,0,0,2.602497204589844,0,0,1.3015625000000002
2.3734396429999833,0,0,1.9416975463867185,0,0,0.9187500000000001
2.3752821420002874,0,0,0.411802685546875,0,0,0.30625
2.377063585000542,0,0,0.00718260498046875,0,0,0.3828125
2.378734622000593,0,0,1.5562310791015623,0,0,1.225
2.380546805999984,0,0,1.8315642700195311,0,0,1.225
2.3821744169999874,0,0,1.0726023437499999,0,0,1.1484375
2.383708604000276,0,0,0.3806780639648437,0,0,0.765625
2.3855086580006173,0,0,1.455674609375,0,0,1.0718750000000001
2.387199010000586,0,0,2.4061726684570313,0,0,1.4546875000000001
2.388905880000493,0,0,2.437297290039062,0,0,1.8375000000000001
2.3905937690005885,0,0,1.2018892333984375,0,0,0.6125
2.3922051770005055,0,0,-0.028730419921875,0,0,9.1109375
2.3937655850004376,0,0,1.180341418457031,0,0,0.45937500000000003
2.39536353099993,0,0,2.0733786376953125,0,0,1.9140625000000002
2.3970415680005317,0,0,1.7094599853515624,0,0,1.4546875000000001
2.3986934380000093,0,0,1.0654197387695312,0,0,1.3015625000000002
2.4003727900008016,0,0,0.6248866333007812,0,0,0.9187500000000001
2.402051568000388,0,0,1.4149731811523436,0,0,1.4546875000000001
2.4036203470004693,0,0,2.4013842651367185,0,0,0.8421875000000001
2.405247051000515,0,0,2.1787235107421874,0,0,1.0718750000000001
2.4068762550004976,0,0,1.1133037719726562,0,0,0.0765625
2.4084727190002013,0,0,-0.2657563842773437,0,0,9.4171875
2.4100137760005964,0,0,0.7613561279296874,0,0,9.646875000000001
2.4116762390003714,0,0,1.5083470458984374,0,0,0.9953125
2.4133829060001517,0,0,1.235408056640625,0,0,2.0671875
2.41501633200005,0,0,1.2042834350585936,0,0,1.4546875000000001
2.416697036000187,0,0,1.2114660400390624,0,0,1.4546875000000001
2.4183702950003862,0,0,2.6982652709960937,0,0,2.296875
2.4201324980003847,0,0,2.770091320800781,0,0,1.6843750000000002
2.4217754800001785,0,0,2.1739351074218747,0,0,0.153125
2.4233341110002584,0,0,0.4836287353515625,0,0,-1.4546875000000001
2.425321515000178,0,0,0.7829039428710937,0,0,0.0
2.4269702000001416,0,0,1.5179238525390624,0,0,1.1484375
2.429142454000612,0,0,0.814028564453125,0,0,1.3015625000000002
2.4307646770002975,0,0,0.5099649536132812,0,0,0.9953125
2.432383474000744,0,0,0.6655880615234374,0,0,0.3828125
2.433967660000235,0,0,1.4987702392578124,0,0,1.9140625000000002
2.435773418000281,0,0,2.8802245971679685,0,0,1.7609375
2.4374147880007513,0,0,2.3032219970703123,0,0,1.1484375
2.439014808000138,0,0,1.5921441040039062,0,0,0.0
2.440934582999944,0,0,0.0718260498046875,0,0,0.3828125
2.442574861000139,0,0,1.235408056640625,0,0,0.6125
2.444199473000481,0,0,1.2425906616210938,0,0,0.6890625
2.445742806999988,0,0,1.1468225952148436,0,0,1.225
2.4472848640007214,0,0,0.49799394531249996,0,0,0.5359375000000001
2.4492127140001685,0,0,1.7118541870117185,0,0,0.6890625
2.4512379130001136,0,0,2.636016027832031,0,0,1.6078125
2.4527816370000437,0,0,2.626439221191406,0,0,2.3734375
2.4543649340002958,0,0,1.3024457031249999,0,0,1.3015625000000002
2.4565437990004284,0,0,0.3447650390625,0,0,0.0
2.458181744000285,0,0,1.5035586425781249,0,0,-0.45937500000000003
2.459723875000236,0,0,1.7549498168945312,0,0,-9.49375
2.461610614000165,0,0,1.4772224243164063,0,0,1.53125
2.463228411000273,0,0,0.34715924072265625,0,0,0.765625
2.464759005000815,0,0,0.1388636962890625,0,0,0.9953125
2.466559170000437,0,0,1.4317325927734375,0,0,1.3015625000000002
2.4681898930002717,0,0,2.6048914062499997,0,0,2.1437500000000003
2.46976189399993,0,0,2.3032219970703123,0,0,0.8421875000000001
2.4718701850006255,0,0,0.9576806640625,0,0,-0.22968750000000002
2.4735407600001054,0,0,1.2401964599609374,0,0,0.6890625
2.4751446860000215,0,0,1.6256629272460936,0,0,1.378125
2.4771465900003022,0,0,1.369483349609375,0,0,1.0718750000000001
2.479024458000822,0,0,1.1635820068359375,0,0,0.8421875000000001
2.480873401000281,0,0,0.7422025146484375,0,0,0.9953125
2.4829753220001294,0,0,2.2170307373046874,0,0,0.8421875000000001
2.4850078740000754,0,0,2.3151930053710936,0,0,1.1484375
2.4870097030006946,0,0,1.254561669921875,0,0,0.9187500000000001
2.4886119450002298,0,0,-0.12689268798828124,0,0,9.49375
2.4906434410004294,0,0,1.4987702392578124,0,0,0.6125
2.4923819400000866,0,0,1.6735469604492186,0,0,1.4546875000000001
2.4944432320007763,0,0,1.2593500732421874,0,0,0.9953125
2.4961026030005087,0,0,0.35673604736328124,0,0,0.5359375000000001
2.4980413960001897,0,0,1.448492004394531,0,0,2.1437500000000003
2.4999770230006106,0,0,2.446874096679687,0,0,1.378125
2.5016476529999636,0,0,1.9225439331054686,0,0,1.0718750000000001
2.5035816310000882,0,0,0.39743747558593745,0,0,-0.765625
2.505294538000271,0,0,1.3742717529296875,0,0,0.0
2.5073615530000097,0,0,1.659181750488281,0,0,1.0718750000000001
2.509113366000747,0,0,0.9050082275390624,0,0,1.990625
2.510748237000371,0,0,0.46686932373046874,0,0,0.6890625
2.5127677150003365,0,0,0.51714755859375,0,0,0.8421875000000001
2.5144483450003463,0,0,2.607285607910156,0,0,1.8375000000000001
2.5164222860003065,0,0,2.6791116577148437,0,0,2.1437500000000003
2.518078396999954,0,0,2.3295582153320313,0,0,1.4546875000000001
2.51968412000042,0,0,0.6584054565429687,0,0,-0.9187500000000001
2.521306898000148,0,0,1.0558429321289062,0,0,0.30625
2.5230270090005433,0,0,1.5394716674804687,0,0,1.225
2.5246343430007983,0,0,1.7357962036132812,0,0,0.6890625
2.5262773060003383,0,0,0.6631938598632812,0,0,1.4546875000000001
2.5279381030004515,0,0,0.296881005859375,0,0,0.22968750000000002
2.530017136000424,0,0,1.2904746948242187,0,0,1.6843750000000002
2.531887707000351,0,0,2.1691467041015624,0,0,1.8375000000000001
2.5335408000000825,0,0,2.0087351928710935,0,0,1.225
2.5351419309999983,0,0,0.8188169677734375,0,0,0.6890625
2.5367297090006105,0,0,0.3327940307617187,0,0,0.22968750000000002
2.538391376000618,0,0,1.8243816650390623,0,0,0.0765625
2.5402576520000366,0,0,1.9393033447265624,0,0,0.6125
2.54203692900046,0,0,1.429338391113281,0,0,1.0718750000000001
2.5436376890002066,0,0,0.105344873046875,0,0,0.3828125
2.5453270770003655,0,0,0.8834604125976562,0,0,0.45937500000000003
2.546987726000225,0,0,1.9656395629882812,0,0,0.5359375000000001
2.5485390789999656,0,0,2.4516625,0,0,2.45
2.550176172000647,0,0,1.1420341918945311,0,0,1.378125
2.5519035970000914,0,0,0.43574470214843747,0,0,-0.6125
2.5535786160007774,0,0,1.2401964599609374,0,0,0.5359375000000001
2.5552349490008055,0,0,2.0302830078125,0,0,1.6078125
2.556914042000244,0,0,1.9680337646484374,0,0,1.990625
2.5586590040002193,0,0,1.0989385620117187,0,0,0.9953125
2.5602793010002642,0,0,0.3711012573242187,0,0,0.45937500000000003
2.562030374000642,0,0,1.3383587280273437,0,0,1.53125
2.5636372080007277,0,0,2.427720483398437,0,0,1.3015625000000002
2.565284394000628,0,0,1.8938135131835936,0,0,0.5359375000000001
2.5669431900005293,0,0,0.7829039428710937,0,0,0.3828125
2.568498636000186,0,0,-0.07422025146484375,0,0,0.3828125
2.5702341730002445,0,0,1.678335363769531,0,0,0.22968750000000002
2.571962005000387,0,0,1.8411410766601561,0,0,1.1484375
2.573625543000162,0,0,1.4891934326171874,0,0,2.1437500000000003
2.575288598000043,0,0,0.47644613037109373,0,0,0.45937500000000003
2.5771423370006232,0,0,1.7669208251953124,0,0,0.765625
2.5788104670000394,0,0,2.4588451049804685,0,0,1.6843750000000002
2.580658224000217,0,0,2.389413256835937,0,0,1.378125
2.5825655730004655,0,0,0.9074024291992187,0,0,0.6890625
2.5842530919999263,0,0,0.011971008300781249,0,0,-0.9187500000000001
2.5859101850001025,0,0,1.0127473022460938,0,0,0.5359375000000001
2.5879310509999414,0,0,1.5777788940429687,0,0,1.3015625000000002
2.589701772000808,0,0,1.177947216796875,0,0,1.8375000000000001
2.591375846000119,0,0,0.3495534423828125,0,0,1.0718750000000001
2.593217919000381,0,0,1.9895815795898437,0,0,1.3015625000000002
2.594861919000323,0,0,3.047818713378906,0,0,1.6078125
2.5964399200001935,0,0,2.5163059448242184,0,0,2.2203125000000004
2.5982441590003873,0,0,0.9528922607421875,0,0,0.9187500000000001
2.600450579000608,0,0,-0.19871873779296872,0,0,-1.0718750000000001
2.602056061999974,0,0,1.0031704956054688,0,0,0.765625
2.603951559000052,0,0,2.2936451904296873,0,0,0.9953125
2.605684281000322,0,0,1.4891934326171874,0,0,1.8375000000000001
2.607351540000309,0,0,-0.0430956298828125,0,0,0.30625
2.609059392000745,0,0,0.21068974609375,0,0,0.6890625
2.6105985410003996,0,0,2.592920397949219,0,0,1.7609375
2.6121364690006885,0,0,2.4133552734375,0,0,1.7609375
2.614091336000456,0,0,1.9393033447265624,0,0,1.3015625000000002
2.61611194300076,0,0,0.0383072265625,0,0,9.340625000000001
2.6186054530007823,0,0,1.898601916503906,0,0,1.0718750000000001
2.620341304000249,0,0,2.114080065917969,0,0,1.4546875000000001
2.622462688000269,0,0,0.9337386474609375,0,0,0.9953125
2.624798069999997,0,0,0.34237083740234375,0,0,0.3828125
2.6265446430006705,0,0,2.1547814941406247,0,0,1.1484375
2.6282023650001065,0,0,2.5067291381835934,0,0,1.378125
2.6297531079999317,0,0,1.8914193115234375,0,0,0.8421875000000001
2.631283534999966,0,0,-0.03591302490234375,0,0,-9.1875
2.632901221000793,0,0,-0.3327940307617187,0,0,0.6125
2.634708256000522,0,0,1.8124106567382812,0,0,1.3015625000000002
2.63640529300028,0,0,2.29843359375,0,0,1.53125
2.6379497020006966,0,0,2.04943662109375,0,0,1.9140625000000002
2.6396061650002594,0,0,0.6775590698242188,0,0,0.9187500000000001
2.6412116290002814,0,0,1.3814543579101561,0,0,0.765625
2.642742205000104,0,0,2.0278888061523435,0,0,0.9187500000000001
2.6444093899999643,0,0,2.2002713256835937,0,0,1.4546875000000001
2.6461017790006736,0,0,1.9895815795898437,0,0,0.6125
2.6476890760004608,0,0,0.1484405029296875,0,0,-0.9187500000000001
2.6493593720006174,0,0,0.7110778930664062,0,0,0.3828125
2.651250777000314,0,0,1.9416975463867185,0,0,1.53125
2.6529057590005323,0,0,1.707065783691406,0,0,1.8375000000000001
2.654813257000569,0,0,1.0917559570312498,0,0,1.225
2.6564109610008018,0,0,0.699106884765625,0,0,0.765625
2.6579532030000337,0,0,1.6208745239257811,0,0,1.8375000000000001
2.6596295370000007,0,0,2.767697119140625,0,0,1.1484375
2.6612553340000886,0,0,2.27927998046875,0,0,0.9953125
2.6630032770008256,0,0,1.1324573852539062,0,0,0.0
2.665057254000203,0,0,-0.33518823242187495,0,0,-0.6890625
2.666815272000349,0,0,1.2713210815429687,0,0,1.0718750000000001
2.6686421960002917,0,0,1.6112977172851561,0,0,1.6078125
2.670289252000657,0,0,1.2042834350585936,0,0,0.9953125
2.671823346000565,0,0,0.5291185668945312,0,0,1.4546875000000001
2.673408162000669,0,0,1.656787548828125,0,0,1.225
2.67528795599992,0,0,2.4684219116210935,0,0,1.0718750000000001
2.6769443450002655,0,0,2.6982652709960937,0,0,1.378125
2.6785318090005603,0,0,1.4820108276367188,0,0,0.765625
2.680059089000679,0,0,0.622492431640625,0,0,-0.9187500000000001
2.6816909600001964,0,0,0.9074024291992187,0,0,-0.22968750000000002
2.6834681990003446,0,0,1.70467158203125,0,0,1.225
2.6850047750003796,0,0,1.7357962036132812,0,0,1.53125
2.686613609000233,0,0,0.7062894897460937,0,0,0.9187500000000001
2.6884750330000315,0,0,0.7565677246093749,0,0,0.6890625
2.69007005200001,0,0,1.7381904052734374,0,0,1.4546875000000001
2.691807051000069,0,0,2.4157494750976563,0,0,1.1484375
2.6939893790004135,0,0,1.9967641845703124,0,0,0.9187500000000001
2.6956209170002694,0,0,0.30885201416015623,0,0,-0.765625
2.697246288000315,0,0,0.8044517578125,0,0,0.3828125
2.6988001590007116,0,0,1.3072341064453123,0,0,1.378125
2.7005815660004373,0,0,1.5753846923828123,0,0,1.53125
2.7022107140001026,0,0,1.2737152832031249,0,0,2.2203125000000004
2.703823456000464,0,0,0.8547299926757812,0,0,0.6890625
2.7057325460000357,0,0,1.8363526733398436,0,0,1.3015625000000002
2.7074182490005114,0,0,2.5234885498046875,0,0,1.378125
2.709443097000076,0,0,1.908178723144531,0,0,0.30625
2.7111060420002104,0,0,0.9888052856445312,0,0,-0.3828125
2.7132899070002168,0,0,0.6392518432617187,0,0,0.45937500000000003
2.7149768700001005,0,0,1.2713210815429687,0,0,1.0718750000000001
2.716551260000415,0,0,1.6448165405273436,0,0,1.8375000000000001
2.7181602600003316,0,0,1.407790576171875,0,0,1.4546875000000001
2.7198786120006844,0,0,0.7206546997070312,0,0,1.0718750000000001
2.721537408000586,0,0,2.0470424194335934,0,0,1.0718750000000001
2.7231312610001623,0,0,2.3965958618164063,0,0,0.9953125
2.7247118550003506,0,0,2.1835119140624997,0,0,1.1484375
2.726412225000786,0,0,0.9696516723632812,0,0,0.22968750000000002
2.7280511510007273,0,0,0.02154781494140625,0,0,-1.3015625000000002
2.7297308550005255,0,0,0.8954314208984374,0,0,0.0
2.731391318000533,0,0,1.5682020874023437,0,0,1.7609375
2.7330710210007965,0,0,1.388636962890625,0,0,2.45
2.735464736000722,0,0,0.3950432739257812,0,0,1.0718750000000001
2.7374244730008286,0,0,2.123656872558594,0,0,-8.881250000000001
2.7392303420001554,0,0,2.7820623291015623,0,0,1.0718750000000001
2.7411309320004875,0,0,2.442085693359375,0,0,0.765625
2.7428861170001255,0,0,1.0917559570312498,0,0,0.45937500000000003
2.7445994500003508,0,0,-0.5027823486328125,0,0,-0.45937500000000003
2.7462297649999527,0,0,1.369483349609375,0,0,0.0
2.7481117070001346,0,0,1.649604943847656,0,0,3.1390625
2.7499313910002456,0,0,1.2569558715820313,0,0,1.9140625000000002
2.7517204820005645,0,0,0.316034619140625,0,0,0.6890625
2.7534239080005136,0,0,1.6543933471679686,0,0,1.53125
2.755103129999952,0,0,2.578555187988281,0,0,0.765625
2.7568944620006732,0,0,2.8227637573242186,0,0,1.53125
2.7584325380003065,0,0,1.1707646118164061,0,0,1.3015625000000002
2.760032298000624,0,0,0.3806780639648437,0,0,-1.1484375
2.761838092000289,0,0,0.9409212524414062,0,0,0.0
2.763374983000176,0,0,1.7094599853515624,0,0,1.0718750000000001
2.76495181700011,0,0,1.3383587280273437,0,0,1.6078125
2.7667934450000757,0,0,0.47644613037109373,0,0,0.9187500000000001
2.7684452050007167,0,0,0.6679822631835937,0,0,0.6125
2.7699897060001604,0,0,1.9608511596679685,0,0,2.45
2.7716834650000237,0,0,2.6671406494140624,0,0,1.4546875000000001
2.773439538000275,0,0,2.231395947265625,0,0,1.0718750000000001
2.7749866690001,0,0,1.2138602416992186,0,0,0.45937500000000003
2.776733095000054,0,0,0.0526724365234375,0,0,0.22968750000000002
2.778451779000534,0,0,1.8339584716796873,0,0,0.45937500000000003
2.7801704450002944,0,0,1.446097802734375,0,0,1.8375000000000001
2.7819331850005256,0,0,0.9840168823242187,0,0,1.9140625000000002
2.783538853000209,0,0,0.24899697265624998,0,0,1.378125
2.7852079450003657,0,0,1.4030021728515625,0,0,1.0718750000000001
2.787276978000591,0,0,2.6144682128906247,0,0,1.3015625000000002
2.7891508650000105,0,0,2.3439234252929686,0,0,1.0718750000000001
2.790963808000015,0,0,1.3575123413085937,0,0,1.0718750000000001
2.792643493000469,0,0,-0.20829554443359374,0,0,0.153125
2.794469436000327,0,0,1.2904746948242187,0,0,0.0765625
2.796049436999965,0,0,1.5394716674804687,0,0,1.3015625000000002
2.797730529000546,0,0,1.3527239379882812,0,0,1.7609375
2.7992677530000947,0,0,0.584185205078125,0,0,0.9187500000000001
2.8009547340006975,0,0,0.8283937744140625,0,0,1.1484375
2.8027034000006097,0,0,2.6001030029296874,0,0,1.8375000000000001
2.804354475000764,0,0,2.6216508178710938,0,0,1.4546875000000001
2.8062833980002324,0,0,1.0941501586914062,0,0,0.765625
2.8081067480006823,0,0,0.4333505004882812,0,0,8.498437500000001
2.810025875000065,0,0,1.0007762939453124,0,0,-0.22968750000000002
2.8117155410000123,0,0,1.6711527587890624,0,0,1.1484375
2.813518966000629,0,0,0.9433154541015625,0,0,1.53125
2.815498222000315,0,0,0.373495458984375,0,0,0.8421875000000001
2.8171249450006144,0,0,0.8882488159179687,0,0,1.225
2.8187302790001922,0,0,2.808398547363281,0,0,1.3015625000000002
2.820943217000604,0,0,2.5450363647460934,0,0,1.4546875000000001
2.8226227730001483,0,0,1.216254443359375,0,0,0.765625
2.824296291000792,0,0,-0.086191259765625,0,0,-1.6078125
2.8259320690003733,0,0,0.9193734375,0,0,0.0
2.827927214000738,0,0,1.6304513305664061,0,0,0.6125
2.8296417139999903,0,0,0.9433154541015625,0,0,1.6078125
2.8317534500001784,0,0,0.1292868896484375,0,0,0.9187500000000001
2.833484468000279,0,0,1.924938134765625,0,0,1.6843750000000002
2.835813220000091,0,0,2.731784094238281,0,0,1.6078125
2.8375724410007024,0,0,2.4971523315429685,0,0,0.3828125
2.839420383000288,0,0,0.28730419921875,0,0,-0.765625
2.8412909920007223,0,0,1.426944189453125,0,0,0.45937500000000003
2.8430548800006363,0,0,1.7645266235351562,0,0,1.378125
2.8448721009999645,0,0,1.1252747802734375,0,0,1.9140625000000002
2.846492305000538,0,0,0.2059013427734375,0,0,0.9187500000000001
2.8484342840001773,0,0,0.842758984375,0,0,0.9187500000000001
2.8502123570006006,0,0,2.7748797241210936,0,0,1.53125
2.8518456159999914,0,0,2.96881005859375,0,0,1.9140625000000002
2.85366487400006,0,0,2.319981408691406,0,0,1.225
2.855783091000376,0,0,0.41898529052734373,0,0,0.5359375000000001
2.857445369000743,0,0,1.1851298217773436,0,0,0.0
2.8596459560003495,0,0,1.7573440185546874,0,0,0.6890625
2.8613851960008105,0,0,0.8930372192382812,0,0,1.53125
2.8633093970001937,0,0,0.1388636962890625,0,0,0.6890625
2.865183062000142,0,0,1.3862427612304686,0,0,0.8421875000000001
2.8667860069999733,0,0,2.308010400390625,0,0,1.7609375
2.868460155000321,0,0,2.6527754394531247,0,0,1.990625
2.870108748000348,0,0,2.085349645996094,0,0,0.9187500000000001
2.871903358000054,0,0,0.44532150878906246,0,0,-1.3015625000000002
2.873678134000329,0,0,1.139639990234375,0,0,0.0
2.8752426910004942,0,0,1.9871873779296874,0,0,1.53125
2.87693069100078,0,0,1.5586252807617187,0,0,1.9140625000000002
2.8786712090004585,0,0,0.6871358764648438,0,0,0.9187500000000001
2.880291524000313,0,0,0.2537853759765625,0,0,0.22968750000000002
2.88219792900054,0,0,2.370259643554687,0,0,1.53125
2.884006946000227,0,0,2.8993782104492185,0,0,1.0718750000000001
2.8855640589999894,0,0,2.592920397949219,0,0,1.53125
2.8870893749999595,0,0,1.2401964599609374,0,0,1.378125
2.8889822620003542,0,0,-0.33039982910156246,0,0,-0.153125
2.8906564280005114,0,0,1.6543933471679686,0,0,-0.22968750000000002
2.8922653740000897,0,0,1.879448303222656,0,0,1.378125
2.8940073910007413,0,0,1.199495031738281,0,0,1.6078125
2.895776298000783,0,0,0.1771709228515625,0,0,0.8421875000000001
2.8975191300005463,0,0,1.0773907470703123,0,0,0.45937500000000003
2.899261370000204,0,0,2.6312276245117188,0,0,1.6078125
2.9012982920003196,0,0,2.27927998046875,0,0,2.1437500000000003
2.9030459400000836,0,0,1.5251064575195312,0,0,0.3828125
2.904750310000054,0,0,-0.23223756103515625,0,0,-1.9140625000000002
2.90655001200048,0,0,1.5801730957031248,0,0,0.22968750000000002
2.908341326000482,0,0,2.3151930053710936,0,0,2.2203125000000004
2.910073640000519,0,0,1.5131354492187499,0,0,2.1437500000000003
2.911833380000644,0,0,0.47165772705078124,0,0,0.3828125
2.9135500640004466,0,0,0.3854664672851562,0,0,0.0
2.915375784999924,0,0,2.7940333374023436,0,0,1.7609375
2.9171005810003408,0,0,3.1483751831054687,0,0,1.6078125
2.918818506000207,0,0,2.375048046875,0,0,1.0718750000000001
2.9205828200001633,0,0,0.39983167724609375,0,0,-8.8046875
2.9225899270004447,0,0,0.3112462158203125,0,0,0.6125
2.9242116870000245,0,0,1.7621324218749999,0,0,0.22968750000000002
2.926023167000494,0,0,1.68551796875,0,0,1.4546875000000001
2.9277945740004725,0,0,0.7613561279296874,0,0,0.8421875000000001
2.930005605000588,0,0,0.10773907470703124,0,0,0.45937500000000003
2.931729030000497,0,0,1.924938134765625,0,0,1.4546875000000001
2.9335732870003994,0,0,2.829946362304687,0,0,1.990625
2.9351771960000406,0,0,1.838746875,0,0,1.9140625000000002
2.936943695000082,0,0,0.8643067993164062,0,0,0.153125
2.9386672870004986,0,0,0.16041151123046873,0,0,-1.4546875000000001
2.9403038240006936,0,0,1.9919757812499999,0,0,0.6125
2.9420576750007967,0,0,2.4157494750976563,0,0,1.7609375
2.9437587490001533,0,0,1.0342951171875,0,0,1.1484375
2.9456595800002106,0,0,0.0383072265625,0,0,0.0
2.9475650030008183,0,0,0.43574470214843747,0,0,0.0765625
2.9492621330000475,0,0,2.961627453613281,0,0,1.990625
2.9508323930003826,0,0,3.1675287963867187,0,0,2.45
2.9526402620003864,0,0,1.9488801513671874,0,0,1.7609375
2.9543414100007794,0,0,0.20829554443359374,0,0,-0.22968750000000002
2.9559804470000017,0,0,0.2442085693359375,0,0,-1.0718750000000001
2.9576530580006875,0,0,1.4867992309570313,0,0,0.6890625
2.959271911000542,0,0,2.1978771240234374,0,0,1.6078125
2.960813079000218,0,0,1.6017209106445311,0,0,1.8375000000000001
2.962341266000294,0,0,0.4860229370117187,0,0,1.6843750000000002
2.963887638000415,0,0,0.38307226562499996,0,0,0.0
2.9656150450000496,0,0,1.2737152832031249,0,0,0.0
2.9672968960003345,0,0,3.162740393066406,0,0,2.45
2.968959211000765,0,0,2.5450363647460934,0,0,1.7609375
2.970842153000376,0,0,1.1947066284179686,0,0,0.765625
2.972748058000434,0,0,0.40462008056640625,0,0,9.49375
2.97439583600044,0,0,0.852335791015625,0,0,-0.3828125
2.976165669000693,0,0,2.1404162841796874,0,0,0.9953125
2.978056074000051,0,0,1.687912170410156,0,0,2.296875
2.9796767410007305,0,0,0.19632453613281248,0,0,1.53125
2.9813101300005656,0,0,0.5889736083984375,0,0,-0.45937500000000003
2.983371977999923,0,0,1.66636435546875,0,0,0.0
2.985116088000723,0,0,2.5139117431640625,0,0,2.2203125000000004
2.98691964200043,0,0,2.3391350219726563,0,0,1.8375000000000001
2.9885881610007345,0,0,0.8451531860351562,0,0,-9.1109375
2.990260383000532,0,0,0.4525041137695312,0,0,9.1875
2.99186327300049,0,0,0.5363011718749999,0,0,9.340625000000001
2.9934998290000294,0,0,1.5203180541992187,0,0,1.4546875000000001
2.9955378250006106,0,0,1.9943699829101562,0,0,2.296875
2.997215306000726,0,0,0.4429273071289062,0,0,-8.957812500000001
2.9989568800001507,0,0,0.5770026000976562,0,0,0.9953125
3.000840841000354,0,0,1.0630255371093749,0,0,0.9187500000000001
3.0025822840007095,0,0,1.8602946899414061,0,0,1.378125
3.0042409699999553,0,0,2.5330653564453125,0,0,1.4546875000000001
3.006105985999966,0,0,1.7357962036132812,0,0,1.1484375
3.007881966000241,0,0,0.6607996582031249,0,0,0.0
3.0098183150003024,0,0,0.6536170532226562,0,0,0.0765625
3.011412835000556,0,0,0.9983820922851562,0,0,-0.45937500000000003
3.0129571510005917,0,0,1.6639701538085936,0,0,1.378125
3.014586744000553,0,0,1.419761584472656,0,0,2.0671875
3.0162035040002593,0,0,0.4644751220703125,0,0,0.6890625
3.0179241890000412,0,0,1.197100830078125,0,0,0.30625
3.0195467820003614,0,0,1.649604943847656,0,0,1.53125
3.021133487000043,0,0,1.9752163696289062,0,0,0.6125
3.0226589700005206,0,0,2.5641899780273434,0,0,1.6843750000000002
3.024235323000539,0,0,1.3742717529296875,0,0,1.3015625000000002
3.0260160620000534,0,0,0.814028564453125,0,0,0.153125
3.027561360000618,0,0,0.928950244140625,0,0,-0.6890625
3.029107084000316,0,0,0.8403647827148437,0,0,-0.22968750000000002
3.030891879000592,0,0,0.9217676391601562,0,0,0.45937500000000003
3.032542009000281,0,0,1.7741034301757812,0,0,1.3015625000000002
3.034075455000675,0,0,1.448492004394531,0,0,2.2203125000000004
3.0355882160001784,0,0,0.4740519287109375,0,0,0.9953125
3.0371887720002633,0,0,1.1875240234375,0,0,0.6125
3.0388329580000573,0,0,1.3814543579101561,0,0,1.1484375
3.0404454030003762,0,0,2.0638018310546875,0,0,0.6125
3.041965108000113,0,0,2.6527754394531247,0,0,1.225
3.0435724790004315,0,0,1.5275006591796874,0,0,1.3015625000000002
3.0455324950007707,0,0,0.38307226562499996,0,0,0.30625
3.04717595800048,0,0,0.603338818359375,0,0,-0.22968750000000002
3.049008234000212,0,0,0.8738836059570312,0,0,0.153125
3.0505899570007387,0,0,1.2713210815429687,0,0,1.0718750000000001
3.0521993840002324,0,0,1.6041151123046875,0,0,1.8375000000000001
3.054217343000346,0,0,0.9050082275390624,0,0,1.7609375
3.0558362510000734,0,0,0.7637503295898437,0,0,0.9953125
3.0577496559999418,0,0,1.4796166259765624,0,0,0.6890625
3.059522248000576,0,0,1.9776105712890624,0,0,0.3828125
3.061209840000629,0,0,2.5474305664062498,0,0,1.9140625000000002
3.062755267000284,0,0,2.039859814453125,0,0,1.225
3.064437175000421,0,0,0.5482721801757812,0,0,-0.22968750000000002
3.0662519140005315,0,0,0.5985504150390625,0,0,0.0
3.0678502110004047,0,0,0.48123453369140623,0,0,0.22968750000000002
3.069396767999933,0,0,0.7876923461914062,0,0,0.0
3.0710093430006964,0,0,1.1037269653320312,0,0,2.0671875
3.0727832490001674,0,0,1.637633935546875,0,0,2.0671875
3.074434824000491,0,0,1.120486376953125,0,0,1.4546875000000001
3.075996694999958,0,0,0.9409212524414062,0,0,1.225
3.0776402880001115,0,0,1.6998831787109374,0,0,0.6890625
3.07934747300078,0,0,2.0470424194335934,0,0,0.8421875000000001
3.0810154549999424,0,0,1.9991583862304687,0,0,1.53125
3.0826482700003908,0,0,1.678335363769531,0,0,0.9187500000000001
3.084468657000798,0,0,0.507570751953125,0,0,-0.30625
3.086295933000656,0,0,0.7541735229492187,0,0,-9.723437500000001
3.088090432000172,0,0,0.9193734375,0,0,0.5359375000000001
3.089725766000811,0,0,0.7278373046875,0,0,0.45937500000000003
3.0912650820000636,0,0,1.0797849487304687,0,0,1.225
3.093022896000548,0,0,1.429338391113281,0,0,1.7609375
3.094691414999943,0,0,1.47482822265625,0,0,2.0671875
3.09623158300019,0,0,1.3000515014648437,0,0,1.4546875000000001
3.0978173990006326,0,0,1.6519991455078125,0,0,0.3828125
3.0994703989999834,0,0,2.1547814941406247,0,0,1.0718750000000001
3.1010763260001113,0,0,1.9201497314453124,0,0,0.8421875000000001
3.1026121600007173,0,0,2.0757728393554684,0,0,1.3015625000000002
3.104238253999938,0,0,0.97683427734375,0,0,1.0718750000000001
3.1059494569999515,0,0,0.6679822631835937,0,0,0.153125
3.107560532000207,0,0,0.928950244140625,0,0,-0.30625
3.1091502360004597,0,0,0.9457096557617187,0,0,0.8421875000000001
3.110800996000762,0,0,0.8307879760742187,0,0,0.3828125
3.112468440000157,0,0,1.0797849487304687,0,0,1.3015625000000002
3.1141116440003316,0,0,1.4700398193359374,0,0,1.378125
3.1157391080005254,0,0,1.3239935180664062,0,0,1.9140625000000002
3.117350219999935,0,0,1.4604630126953124,0,0,1.378125
3.1191391259999364,0,0,1.9656395629882812,0,0,0.5359375000000001
3.12085031100014,0,0,2.1068974609374997,0,0,1.3015625000000002
3.1224123680003686,0,0,1.7166425903320313,0,0,0.45937500000000003
3.1239437950007414,0,0,2.1260510742187497,0,0,1.1484375
3.1256013320007696,0,0,1.1516109985351561,0,0,0.765625
3.1271979630000715,0,0,-0.30406361083984373,0,0,-0.22968750000000002
3.1287835190005353,0,0,0.4381389038085937,0,0,-1.4546875000000001
3.1306943320005303,0,0,1.3646949462890625,0,0,0.8421875000000001
3.1325019230007456,0,0,0.9864110839843749,0,0,0.6125
3.134089053000025,0,0,1.0941501586914062,0,0,2.0671875
3.1359252740003285,0,0,1.6472107421875,0,0,2.0671875
3.137621403000594,0,0,1.1731588134765625,0,0,1.6078125
3.1392226260004463,0,0,1.68551796875,0,0,1.0718750000000001
3.1408424600003855,0,0,2.1308394775390624,0,0,0.765625
3.142717143000482,0,0,2.2457611572265623,0,0,1.1484375
3.144427402000474,0,0,1.3455413330078123,0,0,0.5359375000000001
3.146055884000816,0,0,1.438915197753906,0,0,0.6890625
3.1479292890007855,0,0,0.6416460449218749,0,0,0.45937500000000003
3.149799546000395,0,0,0.19393033447265623,0,0,0.0765625
3.1513783810005407,0,0,1.3120225097656248,0,0,-0.153125
3.153003233000163,0,0,1.5825672973632812,0,0,1.3015625000000002
3.1546709560007002,0,0,1.3623007446289062,0,0,0.9187500000000001
3.1564861209999435,0,0,1.1563994018554686,0,0,1.9140625000000002
3.1581166210007723,0,0,1.5753846923828123,0,0,1.6078125
3.160070655000709,0,0,1.5155296508789062,0,0,1.0718750000000001
3.16175598800055,0,0,1.2617442749023438,0,0,0.5359375000000001
3.163452062000033,0,0,1.915361328125,0,0,0.3828125
3.1652594500001214,0,0,1.6352397338867186,0,0,0.9187500000000001
3.16687748700042,0,0,1.448492004394531,0,0,1.0718750000000001
3.168479339999976,0,0,1.3646949462890625,0,0,0.9187500000000001
3.1703481530003046,0,0,0.7876923461914062,0,0,0.9187500000000001
3.172284113000387,0,0,0.6488286499023437,0,0,0.0
3.173831318000339,0,0,1.1085153686523437,0,0,0.0765625
3.175710982000055,0,0,1.7118541870117185,0,0,1.225
3.177503574000184,0,0,1.180341418457031,0,0,1.0718750000000001
3.1790341860005356,0,0,0.8020575561523438,0,0,0.8421875000000001
3.1807149090000166,0,0,1.5514426757812498,0,0,1.1484375
3.1823956680000265,0,0,1.2832920898437499,0,0,1.378125
3.1839256140001453,0,0,1.216254443359375,0,0,0.5359375000000001
3.185597336000683,0,0,1.6352397338867186,0,0,0.30625
3.187293447000229,0,0,1.7884686401367187,0,0,0.6125
3.188954040000681,0,0,1.7884686401367187,0,0,1.378125
3.190707817000657,0,0,1.465251416015625,0,0,1.3015625000000002
3.1928506260001086,0,0,1.0893617553710937,0,0,0.9187500000000001
3.1949305480002295,0,0,0.7661445312499999,0,0,0.153125
3.196699658000398,0,0,1.3287819213867187,0,0,0.3828125
3.1983876760004932,0,0,1.8100164550781248,0,0,0.6890625
3.199926881000465,0,0,1.5801730957031248,0,0,1.0718750000000001
3.2017988050001804,0,0,0.6679822631835937,0,0,0.153125
3.20355563800058,0,0,0.8092401611328125,0,0,1.6078125
3.205515394000031,0,0,1.6328455322265625,0,0,2.1437500000000003
3.207632611000008,0,0,1.5107412475585937,0,0,1.3015625000000002
3.209421202000158,0,0,1.3096283081054687,0,0,1.0718750000000001
3.211304033000488,0,0,1.908178723144531,0,0,0.9187500000000001
3.2133607140003733,0,0,1.4820108276367188,0,0,1.378125
3.2151550650005447,0,0,1.0797849487304687,0,0,0.6125
3.2169013230004566,0,0,1.0319009155273438,0,0,0.6125
3.2184374730004492,0,0,1.24498486328125,0,0,0.22968750000000002
3.2199660300002506,0,0,1.0989385620117187,0,0,-0.5359375000000001
3.221926342000188,0,0,1.6208745239257811,0,0,0.9187500000000001
3.223485362000247,0,0,1.3048399047851562,0,0,1.1484375
3.225244157000816,0,0,0.6272808349609375,0,0,0.9187500000000001
3.2273140229999626,0,0,0.7230489013671875,0,0,0.0
3.228893209000489,0,0,1.4532804077148436,0,0,1.4546875000000001
3.23044187800042,0,0,1.7764976318359373,0,0,1.378125
3.2319684900003267,0,0,1.4939818359375,0,0,1.378125
3.233602195000458,0,0,1.0989385620117187,0,0,0.5359375000000001
3.236591884000518,0,0,1.8602946899414061,0,0,1.3015625000000002
3.2382871240006352,0,0,1.2976572998046874,0,0,1.0718750000000001
3.2398774210005286,0,0,0.9552864624023437,0,0,0.765625
3.241583958000774,0,0,1.3742717529296875,0,0,0.5359375000000001
3.2432822360005957,0,0,1.5442600708007812,0,0,0.9187500000000001
3.244981698000629,0,0,1.448492004394531,0,0,0.6125
3.2466583840005114,0,0,1.3383587280273437,0,0,1.0718750000000001
3.2482426619999387,0,0,1.3120225097656248,0,0,0.9953125
3.250005587000487,0,0,1.2114660400390624,0,0,-9.49375
3.2516054770003393,0,0,0.7398083129882812,0,0,0.765625
3.2532021630004238,0,0,0.9241618408203125,0,0,0.30625
3.25493473700044,0,0,1.4915876342773438,0,0,1.378125
3.256550089000484,0,0,1.5370774658203123,0,0,1.53125
3.258087128000625,0,0,1.2401964599609374,0,0,1.1484375
3.2598377379999874,0,0,1.2234370483398436,0,0,0.8421875000000001
3.261486275000607,0,0,1.7310078002929687,0,0,1.0718750000000001
3.263020518000303,0,0,1.707065783691406,0,0,0.9953125
3.2646064070004286,0,0,1.4867992309570313,0,0,0.6890625
3.2662741670001196,0,0,1.1563994018554686,0,0,0.5359375000000001
3.2678538720001598,0,0,1.35990654296875,0,0,0.8421875000000001
3.269522001000041,0,0,1.6136919189453125,0,0,1.3015625000000002
3.2711564090004686,0,0,1.2904746948242187,0,0,0.9953125
3.2728392050003094,0,0,0.842758984375,0,0,0.3828125
3.2744198180007515,0,0,1.6831237670898436,0,0,0.5359375000000001
3.276011300000391,0,0,1.649604943847656,0,0,0.45937500000000003
3.2776914670002952,0,0,0.9911994873046874,0,0,0.6125
3.27932607799994,0,0,0.5674257934570313,0,0,0.6125
3.2809079500002554,0,0,1.0390835205078124,0,0,1.225
3.282528413000364,0,0,1.5251064575195312,0,0,0.9953125
3.2841810429999896,0,0,1.388636962890625,0,0,1.8375000000000001
3.2857316740000897,0,0,0.9265560424804687,0,0,0.9187500000000001
3.287291100999937,0,0,1.2330138549804688,0,0,0.30625
3.2888890840004024,0,0,1.9871873779296874,0,0,0.8421875000000001
3.290597528000035,0,0,1.9033903198242186,0,0,1.378125
3.292178769000202,0,0,1.5825672973632812,0,0,0.9953125
3.2937612710002213,0,0,0.7302315063476562,0,0,0.5359375000000001
3.29539845599993,0,0,1.2306196533203124,0,0,0.6890625
3.2970497710002746,0,0,1.7669208251953124,0,0,0.765625
3.298587476000648,0,0,1.6136919189453125,0,0,1.1484375
3.300161737000053,0,0,1.3766659545898436,0,0,0.765625
3.301818070000081,0,0,1.0749965454101562,0,0,1.0718750000000001
3.303397479000523,0,0,1.3623007446289062,0,0,0.9187500000000001
3.304931740000029,0,0,1.1228805786132812,0,0,0.6125
3.3065523510003914,0,0,0.6751648681640625,0,0,0.45937500000000003
3.308169593000457,0,0,0.852335791015625,0,0,0.22968750000000002
3.309774945000754,0,0,1.8195932617187498,0,0,1.6843750000000002
3.311402650000673,0,0,1.6519991455078125,0,0,1.6078125
3.313015947000167,0,0,1.3431471313476562,0,0,1.0718750000000001
3.314626244000465,0,0,0.8259995727539062,0,0,0.765625
3.316250170000785,0,0,1.5634136840820312,0,0,0.6125
3.3178748370000903,0,0,1.8626888916015625,0,0,1.0718750000000001
3.3196876320007505,0,0,1.7118541870117185,0,0,0.765625
3.321342466000715,0,0,0.8092401611328125,0,0,1.0718750000000001
3.322999818000426,0,0,1.0223241088867188,0,0,0.5359375000000001
3.3245895039999596,0,0,1.6256629272460936,0,0,0.8421875000000001
3.3261761160001697,0,0,1.9656395629882812,0,0,1.1484375
3.3280553730000975,0,0,1.2234370483398436,0,0,0.6890625
3.329757002000406,0,0,0.9648632690429687,0,0,0.5359375000000001
3.331346152000151,0,0,1.6232687255859375,0,0,0.0
3.333027800000309,0,0,1.7118541870117185,0,0,0.8421875000000001
3.334772095000517,0,0,1.0175357055664063,0,0,0.6125
3.3367507210004987,0,0,0.4165910888671875,0,0,0.45937500000000003
3.339026104000368,0,0,1.2210428466796874,0,0,1.3015625000000002
3.3407439180000438,0,0,1.7621324218749999,0,0,1.6078125
3.342459806000079,0,0,1.3144167114257812,0,0,1.3015625000000002
3.3441420100007235,0,0,1.2138602416992186,0,0,0.8421875000000001
3.346023249000609,0,0,1.0869675537109373,0,0,0.9953125
3.3479724490007357,0,0,2.288856787109375,0,0,1.0718750000000001
3.34967139300079,0,0,1.848323681640625,0,0,0.9953125
3.3516104280006402,0,0,0.7541735229492187,0,0,0.45937500000000003
3.3531660220005506,0,0,0.5865794067382812,0,0,0.30625
3.3547375600001033,0,0,1.4053963745117186,0,0,1.0718750000000001
3.356801333000476,0,0,2.147598889160156,0,0,1.4546875000000001
3.359226084000511,0,0,0.8355763793945312,0,0,0.6125
3.361591910000243,0,0,0.9720458740234375,0,0,0.22968750000000002
3.363600351000059,0,0,1.8698714965820311,0,0,0.5359375000000001
3.365760123000655,0,0,1.3575123413085937,0,0,0.8421875000000001
3.3674552530001165,0,0,0.5602431884765625,0,0,0.0765625
3.369708802000787,0,0,1.4221557861328125,0,0,1.6078125
3.3717263910002657,0,0,1.9704279663085937,0,0,1.9140625000000002
3.3735025750002023,0,0,0.8379705810546875,0,0,1.53125
3.3751093720002245,0,0,0.6607996582031249,0,0,-0.153125
3.3772104409999884,0,0,1.189918225097656,0,0,0.5359375000000001
3.3788380710002457,0,0,2.0973206542968748,0,0,1.3015625000000002
3.3804176090006877,0,0,2.070984436035156,0,0,1.6843750000000002
3.3820552209999732,0,0,1.2497732666015624,0,0,0.9187500000000001
3.3836479810006495,0,0,1.0295067138671874,0,0,0.6890625
3.3852294640000764,0,0,2.1619640991210938,0,0,1.3015625000000002
3.387082276000001,0,0,2.090138049316406,0,0,1.3015625000000002
3.3886598330000197,0,0,1.5658078857421873,0,0,1.378125
3.39044403600019,0,0,0.3591302490234375,0,0,0.3828125
3.3920690360000663,0,0,0.3112462158203125,0,0,-0.30625
3.393613056000504,0,0,1.209071838378906,0,0,0.5359375000000001
3.395190594000269,0,0,2.042254016113281,0,0,1.1484375
3.3969356120005614,0,0,1.22583125,0,0,1.3015625000000002
3.398479039000449,0,0,0.6416460449218749,0,0,0.45937500000000003
3.4000683180001943,0,0,0.41898529052734373,0,0,0.3828125
3.401722578000772,0,0,1.0941501586914062,0,0,0.5359375000000001
3.4033494670002256,0,0,1.946485949707031,0,0,2.0671875
3.404906654000115,0,0,2.0302830078125,0,0,1.990625
3.406610263999937,0,0,1.235408056640625,0,0,1.378125
3.4082215610005733,0,0,0.833182177734375,0,0,0.45937500000000003
3.409964931000104,0,0,0.9816226806640624,0,0,0.0765625
3.4116133940005966,0,0,1.599326708984375,0,0,0.5359375000000001
3.413185321000128,0,0,1.7645266235351562,0,0,1.378125
3.4155209070004275,0,0,0.8954314208984374,0,0,0.9187500000000001
3.4172821280008066,0,0,0.27293898925781246,0,0,0.22968750000000002
3.419077477999963,0,0,1.0654197387695312,0,0,0.6125
3.4209969570001704,0,0,1.678335363769531,0,0,0.5359375000000001
3.422650402000727,0,0,1.6543933471679686,0,0,1.4546875000000001
3.424468937000711,0,0,1.218648645019531,0,0,0.6125
3.426992650000102,0,0,1.1923124267578125,0,0,0.3828125
3.4287077420003698,0,0,1.467645617675781,0,0,0.9187500000000001
3.430539759000567,0,0,1.659181750488281,0,0,0.22968750000000002
3.4324077569999645,0,0,1.4867992309570313,0,0,0.153125
3.434317347000615,0,0,1.0941501586914062,0,0,0.22968750000000002
3.4359383660003004,0,0,0.5722141967773438,0,0,0.30625
3.437678643000254,0,0,0.488417138671875,0,0,0.9953125
3.4403919840005983,0,0,1.6328455322265625,0,0,1.225
3.442424091000248,0,0,1.5370774658203123,0,0,1.0718750000000001
3.44433014400056,0,0,1.149216796875,0,0,0.765625
3.4459576070003095,0,0,1.2904746948242187,0,0,-852.8296875000001
3.447651940000469,0,0,1.2832920898437499,0,0,1.378125
3.4493501250008194,0,0,1.5897499023437498,0,0,1.4546875000000001
3.4509587560005457,0,0,1.8219874633789062,0,0,0.0
3.4526346259999627,0,0,1.2832920898437499,0,0,0.6890625
3.4549878410007295,0,0,0.9433154541015625,0,0,0.6125
3.456866024000192,0,0,1.3072341064453123,0,0,1.225
3.4587292440000965,0,0,1.5610194824218748,0,0,1.6078125
3.4603296519999276,0,0,1.7405846069335937,0,0,1.8375000000000001
3.4618854870004725,0,0,1.4891934326171874,0,0,1.225
3.4634853950001343,0,0,1.005564697265625,0,0,0.30625
3.4654488730002413,0,0,1.0390835205078124,0,0,0.6890625
3.467124985000737,0,0,1.5083470458984374,0,0,1.1484375
3.468913280000379,0,0,1.7645266235351562,0,0,0.6890625
3.4706553340001847,0,0,1.3527239379882812,0,0,0.765625
3.4722054840003693,0,0,0.8403647827148437,0,0,0.5359375000000001
3.474062704000062,0,0,0.5315127685546874,0,0,0.153125
3.476376975000676,0,0,1.158793603515625,0,0,0.22968750000000002
3.4782004360004066,0,0,1.5370774658203123,0,0,1.3015625000000002
3.480090915000801,0,0,2.1260510742187497,0,0,1.3015625000000002
3.4821001710006385,0,0,1.39821376953125,0,0,1.225
3.4836513019999984,0,0,0.928950244140625,0,0,0.6890625
3.4853162280005563,0,0,1.3096283081054687,0,0,0.45937500000000003
3.487408427000446,0,0,1.8914193115234375,0,0,0.153125
3.489323647000674,0,0,1.6807295654296874,0,0,1.225
3.491203404000771,0,0,1.6304513305664061,0,0,0.9187500000000001
3.4929451440002595,0,0,0.9792284790039062,0,0,0.765625
3.494553459000599,0,0,0.63206923828125,0,0,0.30625
3.4963411620001352,0,0,1.189918225097656,0,0,0.0
3.497961662000307,0,0,1.5753846923828123,0,0,0.9187500000000001
3.499558571000307,0,0,1.908178723144531,0,0,1.3015625000000002
3.5011227390004933,0,0,1.6256629272460936,0,0,1.225
3.5028389970002536,0,0,1.1731588134765625,0,0,1.225
3.504456054000002,0,0,1.189918225097656,0,0,0.6890625
3.5059949250007776,0,0,1.1540052001953125,0,0,0.30625
3.507547705000434,0,0,1.3383587280273437,0,0,0.0765625
3.5092684260007445,0,0,1.5322890624999999,0,0,0.45937500000000003
3.510889557000155,0,0,1.3910311645507811,0,0,0.9953125
3.512423316999957,0,0,1.1731588134765625,0,0,0.6125
3.514172465000229,0,0,0.9935936889648437,0,0,0.9187500000000001
3.515890853000201,0,0,0.9648632690429687,0,0,0.765625
3.5174559840006623,0,0,1.235408056640625,0,0,0.8421875000000001
3.5190103740005725,0,0,1.3646949462890625,0,0,0.5359375000000001
3.5208120770003006,0,0,1.455674609375,0,0,0.6890625
3.5224443180004528,0,0,1.7573440185546874,0,0,1.0718750000000001
3.5240911509999933,0,0,1.8148048583984373,0,0,1.0718750000000001
3.5257765400001517,0,0,1.2689268798828124,0,0,1.53125
3.5274376699999266,0,0,0.9457096557617187,0,0,0.22968750000000002
3.529030856000645,0,0,0.8954314208984374,0,0,0.30625
3.530646338000224,0,0,1.4772224243164063,0,0,0.30625
3.532261839000057,0,0,1.6328455322265625,0,0,0.22968750000000002
3.533870766000291,0,0,1.2689268798828124,0,0,0.9187500000000001
3.535405749000347,0,0,1.0199299072265624,0,0,0.9187500000000001
3.5371156740002334,0,0,1.0510545288085937,0,0,0.9187500000000001
3.5388056179999694,0,0,1.1755530151367186,0,0,0.9953125
3.540359212000112,0,0,1.484405029296875,0,0,0.6890625
3.541963121000663,0,0,1.6017209106445311,0,0,0.6125
3.543589343000349,0,0,1.7741034301757812,0,0,0.30625
3.5452140290008174,0,0,1.6472107421875,0,0,1.225
3.546837215000778,0,0,1.3048399047851562,0,0,0.5359375000000001
3.5485498810003264,0,0,1.0678139404296874,0,0,0.6125
3.5506731350005794,0,0,1.180341418457031,0,0,0.765625
3.5522399139999834,0,0,1.2689268798828124,0,0,0.45937500000000003
3.5539126920002673,0,0,1.6256629272460936,0,0,0.765625
3.555658599000708,0,0,1.429338391113281,0,0,0.6125
3.5573023400002057,0,0,1.1755530151367186,0,0,0.8421875000000001
3.5589338030004,0,0,1.20667763671875,0,0,0.9953125
3.5606502470000123,0,0,1.0606313354492187,0,0,0.6125
3.5623248590000003,0,0,1.1276689819335937,0,0,0.765625
3.563915600000655,0,0,1.3646949462890625,0,0,0.5359375000000001
3.5658223939999516,0,0,1.4628572143554686,0,0,0.6125
3.567449339000632,0,0,1.5059528442382812,0,0,0.9953125
3.5692807260002155,0,0,1.1755530151367186,0,0,0.765625
3.5709270229999674,0,0,1.0295067138671874,0,0,0.9953125
3.572469247000299,0,0,1.1659762084960936,0,0,0.5359375000000001
3.5740017300004183,0,0,1.2880804931640624,0,0,0.6125
3.5756180450007378,0,0,1.5825672973632812,0,0,0.9187500000000001
3.577207176000229,0,0,1.599326708984375,0,0,0.765625
3.5789680269999735,0,0,1.2737152832031249,0,0,1.0718750000000001
3.5806164340001487,0,0,1.4628572143554686,0,0,0.5359375000000001
3.5822855080004956,0,0,1.448492004394531,0,0,0.6890625
3.5838172320000012,0,0,1.2737152832031249,0,0,0.6890625
3.585861839000245,0,0,1.0103531005859374,0,0,0.3828125
3.5878314660003525,0,0,1.0390835205078124,0,0,0.45937500000000003
3.5897151300005135,0,0,1.5729904907226562,0,0,1.0718750000000001
3.591750793000756,0,0,1.599326708984375,0,0,1.1484375
3.593726919000801,0,0,1.2018892333984375,0,0,0.8421875000000001
3.595492325000123,0,0,1.2210428466796874,0,0,0.45937500000000003
3.5971451030000026,0,0,1.2808978881835937,0,0,0.3828125
3.599174322000181,0,0,1.66636435546875,0,0,0.153125
3.600795396000649,0,0,1.37906015625,0,0,0.5359375000000001
3.602499378000175,0,0,1.2138602416992186,0,0,0.5359375000000001
3.6042606170003637,0,0,1.1923124267578125,0,0,0.9187500000000001
3.6059355800007324,0,0,1.35990654296875,0,0,0.9953125
3.607512563000455,0,0,1.426944189453125,0,0,0.6125
3.6092152110004463,0,0,1.3024457031249999,0,0,0.765625
3.611009858000216,0,0,1.6112977172851561,0,0,0.30625
3.6129690770003435,0,0,1.39821376953125,0,0,0.6125
3.614640151000458,0,0,1.1061211669921875,0,0,0.6890625
3.6162989660006133,0,0,1.0295067138671874,0,0,0.3828125
3.6182183340006304,0,0,0.928950244140625,0,0,0.5359375000000001
3.6198588150000433,0,0,1.1156979736328125,0,0,0.30625
3.621441094000147,0,0,1.3359645263671873,0,0,0.45937500000000003
3.6230987610006196,0,0,1.3814543579101561,0,0,1.1484375
3.624748336000266,0,0,1.5562310791015623,0,0,0.9953125
3.6264244470003177,0,0,1.3096283081054687,0,0,0.9187500000000001
3.6281490200008193,0,0,1.4820108276367188,0,0,0.45937500000000003
3.629764836000504,0,0,1.1540052001953125,0,0,0.30625
3.6315016680000554,0,0,1.1420341918945311,0,0,0.5359375000000001
3.63335555499998,0,0,1.2976572998046874,0,0,0.6125
3.635028777000116,0,0,1.254561669921875,0,0,0.9187500000000001
3.6366326120005397,0,0,1.419761584472656,0,0,0.9187500000000001
3.638344963000236,0,0,1.2880804931640624,0,0,1.0718750000000001
3.639991519000432,0,0,1.2497732666015624,0,0,0.9187500000000001
3.6415282610005306,0,0,1.4030021728515625,0,0,0.6890625
3.6431710209999437,0,0,1.6543933471679686,0,0,0.8421875000000001
3.6448369280005863,0,0,1.37906015625,0,0,0.6125
3.6464324660000784,0,0,1.3742717529296875,0,0,0.6890625
3.6480875410006774,0,0,1.2952630981445312,0,0,-9.723437500000001
3.6497793920007098,0,0,0.8690952026367187,0,0,0.3828125
3.651383745000203,0,0,0.9217676391601562,0,0,0.45937500000000003
3.6529404130005787,0,0,1.1420341918945311,0,0,0.45937500000000003
3.654464877999999,0,0,1.4891934326171874,0,0,1.225
3.6560650820001683,0,0,1.618480322265625,0,0,1.0718750000000001
3.6577150270004495,0,0,1.438915197753906,0,0,1.1484375
3.6592706950004867,0,0,1.388636962890625,0,0,1.1484375
3.6609028250004485,0,0,1.3335703247070312,0,0,0.6890625
3.6627655270003743,0,0,1.4700398193359374,0,0,0.765625
3.6643708980000156,0,0,1.3215993164062498,0,0,0.45937500000000003
3.66601591700055,0,0,1.2401964599609374,0,0,0.30625
3.667648750000808,0,0,1.158793603515625,0,0,0.5359375000000001
3.669237640000574,0,0,1.0654197387695312,0,0,0.30625
3.6708250490000864,0,0,1.1731588134765625,0,0,0.8421875000000001
3.672458290000577,0,0,1.3120225097656248,0,0,0.9187500000000001
3.674149271000715,0,0,1.2737152832031249,0,0,0.8421875000000001
3.675717920000352,0,0,1.4724340209960938,0,0,0.153125
3.6773880320006356,0,0,1.7573440185546874,0,0,1.1484375
3.679059421000602,0,0,1.6807295654296874,0,0,1.0718750000000001
3.6809407520004243,0,0,1.5658078857421873,0,0,0.765625
3.6826629550005237,0,0,1.3000515014648437,0,0,0.3828125
3.684286474000146,0,0,1.180341418457031,0,0,0.3828125
3.6858846970008017,0,0,0.9959878906249999,0,0,0.45937500000000003
3.6875761780001994,0,0,1.0678139404296874,0,0,0.5359375000000001
3.6895220830001563,0,0,1.2569558715820313,0,0,0.6125
3.691092177000428,0,0,1.2425906616210938,0,0,0.8421875000000001
3.692828694000127,0,0,1.446097802734375,0,0,1.0718750000000001
3.694447584000045,0,0,1.3551181396484375,0,0,1.0718750000000001
3.6960511030001726,0,0,1.2282254516601563,0,0,0.9187500000000001
3.6977131769999687,0,0,1.4508862060546874,0,0,0.6890625
3.6993077340002856,0,0,1.6017209106445311,0,0,0.8421875000000001
3.700878809000642,0,0,1.675941162109375,0,0,0.6890625
3.702524884000013,0,0,1.369483349609375,0,0,0.5359375000000001
3.7041291250006907,0,0,1.2856862915039062,0,0,0.6125
3.7058012550005515,0,0,1.197100830078125,0,0,0.5359375000000001
3.7075205880000794,0,0,1.1635820068359375,0,0,0.6125
3.709130959000504,0,0,1.3670891479492187,0,0,0.6125
3.710752644000422,0,0,1.35990654296875,0,0,1.0718750000000001
3.712350145000528,0,0,1.3048399047851562,0,0,0.765625
3.7140555710002445,0,0,1.2689268798828124,0,0,0.6890625
3.7157531259999814,0,0,1.24498486328125,0,0,0.6890625
3.7174531079999724,0,0,1.2617442749023438,0,0,0.9953125
3.7192181070004153,0,0,1.2593500732421874,0,0,0.8421875000000001
3.7208731070004433,0,0,1.0917559570312498,0,0,0.6890625
3.722469311000168,0,0,1.43652099609375,0,0,0.9187500000000001
3.7241621820003274,0,0,1.5442600708007812,0,0,0.8421875000000001
3.725767367000117,0,0,1.465251416015625,0,0,0.8421875000000001
3.7273654610007725,0,0,1.158793603515625,0,0,1.0718750000000001
3.7291046450000067,0,0,1.2042834350585936,0,0,0.5359375000000001
3.730834589000551,0,0,1.1061211669921875,0,0,0.45937500000000003
3.732538663000014,0,0,1.3455413330078123,0,0,0.8421875000000001
3.734268255000643,0,0,1.465251416015625,0,0,0.5359375000000001
3.736051883000073,0,0,1.2952630981445312,0,0,0.9953125
3.7377689760005524,0,0,1.3120225097656248,0,0,0.3828125
3.739441679000265,0,0,1.2617442749023438,0,0,0.9953125
3.741161105000174,0,0,1.2880804931640624,0,0,0.765625
3.7428666600008,0,0,1.3407529296874998,0,0,0.45937500000000003
3.744518271000743,0,0,1.3431471313476562,0,0,0.765625
3.7462909930000023,0,0,1.3192051147460937,0,0,0.3828125
3.7479615110005398,0,0,1.3670891479492187,0,0,0.8421875000000001
3.74962421500004,0,0,1.2497732666015624,0,0,0.765625
3.7513029560004725,0,0,1.1659762084960936,0,0,0.765625
3.752870346000236,0,0,1.2138602416992186,0,0,0.6890625
3.7544312540003375,0,0,1.2928688964843749,0,0,0.8421875000000001
3.7561536610000985,0,0,1.2378022583007813,0,0,0.765625
3.7578027730005488,0,0,1.4317325927734375,0,0,0.6890625
3.7594185510006355,0,0,1.5466542724609373,0,0,0.9953125
3.7610445700001947,0,0,1.3168109130859373,0,0,0.9953125
3.7627004220003073,0,0,1.4341267944335936,0,0,0.45937500000000003
3.7643059600004563,0,0,1.209071838378906,0,0,0.6125
3.7658402580000256,0,0,1.235408056640625,0,0,0.5359375000000001
3.7673597230004816,0,0,1.3934253662109375,0,0,0.22968750000000002
3.7691984430002776,0,0,1.4772224243164063,0,0,0.765625
3.770850480000263,0,0,1.4125789794921875,0,0,1.0718750000000001
3.7724630740003704,0,0,1.0773907470703123,0,0,0.6890625
3.774108241000249,0,0,1.1731588134765625,0,0,0.8421875000000001
3.775778463000279,0,0,1.1372457885742187,0,0,0.45937500000000003
3.7773929820004923,0,0,1.3958195678710936,0,0,0.8421875000000001
3.778928484000062,0,0,1.39821376953125,0,0,0.5359375000000001
3.7805280400007177,0,0,1.2593500732421874,0,0,0.765625
3.782162948000405,0,0,1.35990654296875,0,0,0.6125
3.7838409480000337,0,0,1.1540052001953125,0,0,0.3828125
3.7854702630002066,0,0,1.2665326782226562,0,0,0.8421875000000001
3.787072579000778,0,0,1.3551181396484375,0,0,0.5359375000000001
3.788794412000243,0,0,1.3646949462890625,0,0,0.6125
3.790464874999998,0,0,1.3670891479492187,0,0,0.765625
3.7920737090007606,0,0,1.3407529296874998,0,0,0.5359375000000001
3.7936121729999286,0,0,1.5011644409179687,0,0,0.5359375000000001
3.7952385440003127,0,0,1.3215993164062498,0,0,0.6125
3.7969422480000503,0,0,1.1851298217773436,0,0,0.6890625
3.798530878000747,0,0,1.3239935180664062,0,0,0.6125
3.8000591210002312,0,0,1.2713210815429687,0,0,0.9187500000000001
3.8017780090003725,0,0,1.4125789794921875,0,0,0.3828125
3.803467935000299,0,0,1.3862427612304686,0,0,1.0718750000000001
3.8050833430006605,0,0,1.2880804931640624,0,0,0.9953125
3.8067235840007925,0,0,1.2832920898437499,0,0,0.765625
3.8083231590007927,0,0,1.1109095703125,0,0,0.8421875000000001
3.810033010000552,0,0,1.3527239379882812,0,0,0.3828125
3.8117727320004633,0,0,1.5538368774414062,0,0,1.0718750000000001
3.813721432999955,0,0,1.2832920898437499,0,0,0.9187500000000001
3.81539952500043,0,0,1.350329736328125,0,0,0.6890625
3.817189691000749,0,0,1.4820108276367188,0,0,0.8421875000000001
3.8187696730001335,0,0,1.209071838378906,0,0,0.45937500000000003
3.8215105130002485,0,0,1.4053963745117186,0,0,0.765625
3.823425251000117,0,0,1.5729904907226562,0,0,1.3015625000000002
3.8250605480006925,0,0,1.4341267944335936,0,0,0.6890625
3.826761529000578,0,0,1.1468225952148436,0,0,0.45937500000000003
3.8285646950007504,0,0,1.4006079711914061,0,0,0.765625
3.830216491000101,0,0,1.4939818359375,0,0,0.5359375000000001
3.831918417000452,0,0,1.3263877197265623,0,0,0.3828125
3.833641935000742,0,0,1.0271125122070313,0,0,0.6125
3.8357416520002516,0,0,1.6041151123046875,0,0,0.765625
3.8374185040001976,0,0,1.6448165405273436,0,0,0.9187500000000001
3.838978061000489,0,0,1.5131354492187499,0,0,0.8421875000000001
3.8408758730001864,0,0,1.3407529296874998,0,0,0.22968750000000002
3.8425675400003456,0,0,0.9696516723632812,0,0,0.45937500000000003
3.844159633000345,0,0,1.0654197387695312,0,0,0.0765625
3.8457936520007934,0,0,1.6831237670898436,0,0,0.9187500000000001
3.847319673000129,0,0,1.426944189453125,0,0,1.3015625000000002
3.8488577110001643,0,0,1.3263877197265623,0,0,1.225
3.8506455990000177,0,0,0.9145850341796874,0,0,0.8421875000000001
3.852320525000323,0,0,1.5658078857421873,0,0,0.5359375000000001
3.8538891000007425,0,0,1.6400281372070311,0,0,1.0718750000000001
3.8554110280001623,0,0,1.70467158203125,0,0,0.765625
3.8570184910004173,0,0,1.5346832641601562,0,0,0.45937500000000003
3.8587312500003463,0,0,0.9361328491210937,0,0,0.30625
3.8602654000005714,0,0,0.9361328491210937,0,0,0.45937500000000003
3.861940714999946,0,0,1.0366893188476562,0,0,0.765625
3.8637766570000167,0,0,1.2761094848632812,0,0,1.0718750000000001
3.8653766950001227,0,0,1.20667763671875,0,0,0.3828125
3.867046436000237,0,0,1.197100830078125,0,0,0.8421875000000001
3.868796676000784,0,0,1.6328455322265625,0,0,0.9953125
3.8703997320008057,0,0,1.6543933471679686,0,0,1.0718750000000001
3.872318933000315,0,0,1.4437036010742186,0,0,0.765625
3.874078044000271,0,0,1.2497732666015624,0,0,0.45937500000000003
3.8757326730001296,0,0,1.3144167114257812,0,0,0.6890625
3.877665134000381,0,0,1.1228805786132812,0,0,0.6125
3.8793181150003875,0,0,1.218648645019531,0,0,0.6125
3.881174817000101,0,0,1.3144167114257812,0,0,0.8421875000000001
3.883267127000181,0,0,1.6304513305664061,0,0,0.8421875000000001
3.8851699770002597,0,0,1.3479355346679687,0,0,0.9953125
3.887067474000105,0,0,1.3670891479492187,0,0,0.8421875000000001
3.888923657000305,0,0,1.5131354492187499,0,0,0.45937500000000003
3.8909286719999727,0,0,1.5658078857421873,0,0,0.5359375000000001
3.8926510420005798,0,0,1.448492004394531,0,0,0.9187500000000001
3.8945978350002406,0,0,1.3144167114257812,0,0,0.6890625
3.8971342889999505,0,0,1.3455413330078123,0,0,0.6890625
3.898984250000467,0,0,1.3958195678710936,0,0,0.9187500000000001
3.900536048000504,0,0,1.5035586425781249,0,0,1.0718750000000001
3.9025529700002153,0,0,1.3910311645507811,0,0,0.6890625
3.904313376000573,0,0,1.4772224243164063,0,0,0.6125
3.9059489320006833,0,0,1.4891934326171874,0,0,0.6125
3.9075281920004272,0,0,1.3455413330078123,0,0,0.6125
3.909117805000278,0,0,1.3766659545898436,0,0,0.9187500000000001
3.9108313599999747,0,0,1.3215993164062498,0,0,0.765625
3.912411083000734,0,0,1.388636962890625,0,0,0.8421875000000001
3.9141816930005007,0,0,1.4532804077148436,0,0,0.8421875000000001
3.9158195080008227,0,0,1.4891934326171874,0,0,0.9187500000000001
3.9176450439999826,0,0,1.3359645263671873,0,0,0.9187500000000001
3.91921210000055,0,0,1.2832920898437499,0,0,0.9187500000000001
3.9207692680001855,0,0,1.2497732666015624,0,0,0.765625
3.9223824910004623,0,0,1.369483349609375,0,0,0.6125
3.9239895290002096,0,0,1.2330138549804688,0,0,0.9953125
3.925529920000372,0,0,1.419761584472656,0,0,0.5359375000000001
3.9272972329999902,0,0,1.4867992309570313,0,0,0.8421875000000001
3.928938382000524,0,0,1.2282254516601563,0,0,0.9953125
3.9304965500004982,0,0,1.2928688964843749,0,0,0.765625
3.9322746600000755,0,0,1.1516109985351561,0,0,0.8421875000000001
