Time (s),Accel X,Accel Y,Accel Z,Gyro X,Gyro Y,Gyro Z,Temperature (C)
0.0010413630002403806,-0.40222587890625,-9.701305126953125,1.2928688964843749,0,0,0,0
0.0037004929999966407,-0.3950432739257812,-9.64623848876953,1.3000515014648437,0,0,0,0
0.00699085800033572,-0.3016694091796875,-9.622296472167967,1.20667763671875,0,0,0,0
0.008675495000261435,-0.32082302246093747,-9.593566052246093,1.3742717529296875,0,0,0,0
0.010196150000410853,-0.33758243408203126,-9.710881933593749,1.2761094848632812,0,0,0,0
0.011790250000103697,-0.35673604736328124,-9.660603698730467,1.3120225097656248,0,0,0,0
0.013407646000359819,-0.3950432739257812,-9.65342109375,1.2952630981445312,0,0,0,0
0.014919654000095761,-0.430956298828125,-9.586383447265625,1.2928688964843749,0,0,0,0
0.016458088000035787,-0.34237083740234375,-9.605537060546874,1.2928688964843749,0,0,0,0
0.018014225000115403,-0.32082302246093747,-9.591171850585937,1.3192051147460937,0,0,0,0
0.0192029760000878,-0.29927520751953124,-9.631873278808593,1.2282254516601563,0,0,0,0
0.02028880100033348,-0.3112462158203125,-9.639055883789062,1.2425906616210938,0,0,0,0
0.021363627000027918,-0.43574470214843747,-9.689334118652344,1.2138602416992186,0,0,0,0
0.022511360000407876,-0.34237083740234375,-9.734823950195311,1.254561669921875,0,0,0,0
0.023705796000285773,-0.3950432739257812,-9.698910925292969,1.24498486328125,0,0,0,0
0.024810103000163508,-0.3711012573242187,-9.70369932861328,1.3239935180664062,0,0,0,0
0.025892910000038682,-0.3806780639648437,-9.727641345214844,1.254561669921875,0,0,0,0
0.026999513000191655,-0.41898529052734373,-9.658209497070311,1.2210428466796874,0,0,0,0
0.028199338000376883,-0.40222587890625,-9.593566052246093,1.3192051147460937,0,0,0,0
0.029486736000308156,-0.24899697265624998,-9.560047229003906,1.3527239379882812,0,0,0,0
0.030594821000249794,-0.3136404174804687,-9.586383447265625,1.3359645263671873,0,0,0,0
0.03168120200007252,-0.33758243408203126,-9.593566052246093,1.3215993164062498,0,0,0,0
0.032767287000297074,-0.27293898925781246,-9.6151138671875,1.3359645263671873,0,0,0,0
0.033925131000160036,-0.3232172241210937,-9.655815295410155,1.2928688964843749,0,0,0,0
0.035100530000363506,-0.29448680419921874,-9.775525378417969,1.2713210815429687,0,0,0,0
0.036204781000378716,-0.4285620971679687,-9.708487731933593,1.2665326782226562,0,0,0,0
0.03729545900023368,-0.39743747558593745,-9.708487731933593,1.2737152832031249,0,0,0,0
0.038467246999971394,-0.3447650390625,-9.572018237304688,1.2593500732421874,0,0,0,0
0.03967773800013674,-0.36152445068359373,-9.591171850585937,1.2952630981445312,0,0,0,0
0.040764212000340194,-0.33518823242187495,-9.619902270507811,1.3144167114257812,0,0,0,0
0.04183453700034079,-0.35673604736328124,-9.619902270507811,1.2808978881835937,0,0,0,0
0.04290860400033125,-0.3016694091796875,-9.581595043945311,1.2976572998046874,0,0,0,0
0.044107744000029925,-0.29448680419921874,-9.670180505371093,1.3096283081054687,0,0,0,0
0.04526001300018834,-0.3112462158203125,-9.694122521972655,1.2808978881835937,0,0,0,0
0.04636096800004452,-0.30885201416015623,-9.74200655517578,1.1707646118164061,0,0,0,0
0.04745260900017456,-0.30406361083984373,-9.715670336914062,1.2330138549804688,0,0,0,0
0.04862197100010235,-0.3399766357421875,-9.641450085449218,1.3263877197265623,0,0,0,0
0.049785222000082285,-0.3327940307617187,-9.648632690429688,1.2928688964843749,0,0,0,0
0.05091463999997359,-0.373495458984375,-9.662997900390625,1.3551181396484375,0,0,0,0
0.0520174279999992,-0.33758243408203126,-9.634267480468749,1.2808978881835937,0,0,0,0
0.053215846000057354,-0.3280056274414062,-9.591171850585937,1.2761094848632812,0,0,0,0
0.05444000400029836,-0.316034619140625,-9.600748657226562,1.3144167114257812,0,0,0,0
0.055620810000164056,-0.277727392578125,-9.617508068847656,1.3263877197265623,0,0,0,0
0.05674117300031867,-0.2657563842773437,-9.679757312011718,1.3359645263671873,0,0,0,0
0.05782175800004552,-0.2609679809570312,-9.732429748535155,1.2928688964843749,0,0,0,0
0.05892278700002862,-0.2561795776367187,-9.701305126953125,1.3096283081054687,0,0,0,0
0.060110204000011436,-0.373495458984375,-9.753977563476562,1.4125789794921875,0,0,0,0
0.06124484400015717,-0.3399766357421875,-9.648632690429688,1.3742717529296875,0,0,0,0
0.06233442900020236,-0.34237083740234375,-9.639055883789062,1.2665326782226562,0,0,0,0
0.06342269900005704,-0.33039982910156246,-9.641450085449218,1.235408056640625,0,0,0,0
0.06457500600026833,-0.36631285400390623,-9.605537060546874,1.2928688964843749,0,0,0,0
0.06571812800029875,-0.3591302490234375,-9.586383447265625,1.2497732666015624,0,0,0,0
0.06681139800002711,-0.296881005859375,-9.658209497070311,1.2641384765625,0,0,0,0
0.06789435300015612,-0.3136404174804687,-9.662997900390625,1.3144167114257812,0,0,0,0
0.06897014200012563,-0.28969840087890625,-9.634267480468749,1.3239935180664062,0,0,0,0
0.07028878000028271,-0.277727392578125,-9.739612353515625,1.2904746948242187,0,0,0,0
0.071522883000398,-0.3806780639648437,-9.689334118652344,1.3646949462890625,0,0,0,0
0.07270537400017929,-0.4333505004882812,-9.710881933593749,1.3383587280273437,0,0,0,0
0.07386905100020158,-0.39264907226562495,-9.655815295410155,1.3623007446289062,0,0,0,0
0.07513407900023594,-0.4525041137695312,-9.581595043945311,1.2976572998046874,0,0,0,0
0.07764769100003832,-0.239420166015625,-9.521740002441407,1.3048399047851562,0,0,0,0
0.07895907100009936,-0.28730419921875,-9.629479077148437,1.2856862915039062,0,0,0,0
0.08048730100017565,-0.28730419921875,-9.658209497070311,1.3215993164062498,0,0,0,0
0.0819454760003282,-0.36391865234375,-9.715670336914062,1.1923124267578125,0,0,0,0
0.0833619660002114,-0.4572925170898437,-9.758765966796874,1.2952630981445312,0,0,0,0
0.08476380700039954,-0.3758896606445312,-9.708487731933593,1.3311761230468748,0,0,0,0
0.08618183400039925,-0.4285620971679687,-9.651026892089844,1.3335703247070312,0,0,0,0
0.08761549100017874,-0.2825157958984375,-9.660603698730467,1.3287819213867187,0,0,0,0
0.08904764700037049,-0.24660277099609373,-9.550470422363281,1.3335703247070312,0,0,0,0
0.0904515629999878,-0.21308394775390624,-9.672574707031249,1.2641384765625,0,0,0,0
0.09182686900021508,-0.3232172241210937,-9.689334118652344,1.0749965454101562,0,0,0,0
0.09313574800034985,-0.296881005859375,-9.706093530273437,1.2401964599609374,0,0,0,0
0.0946781259999625,-0.30885201416015623,-9.70369932861328,1.3359645263671873,0,0,0,0
0.09630174400035685,-0.24181436767578124,-9.696516723632811,1.2856862915039062,0,0,0,0
0.09787030699999377,-0.41419688720703124,-9.639055883789062,1.3383587280273437,0,0,0,0
0.0992667230002553,-0.3447650390625,-9.634267480468749,1.2641384765625,0,0,0,0
0.10047212200015565,-0.36152445068359373,-9.56962403564453,1.2282254516601563,0,0,0,0
0.10165198400000008,-0.32082302246093747,-9.56962403564453,1.37906015625,0,0,0,0
0.10275008700000399,-0.2561795776367187,-9.610325463867188,1.3024457031249999,0,0,0,0
0.1038447650003036,-0.29448680419921874,-9.658209497070311,1.2689268798828124,0,0,0,0
0.10494877600012842,-0.3016694091796875,-9.718064538574218,1.1923124267578125,0,0,0,0
0.10614102600038677,-0.26815058593749996,-9.696516723632811,1.2521674682617188,0,0,0,0
0.10737016600023708,-0.3854664672851562,-9.751583361816406,1.2976572998046874,0,0,0,0
0.10851684299996123,-0.36152445068359373,-9.679757312011718,1.3263877197265623,0,0,0,0
0.10959365000007892,-0.34237083740234375,-9.694122521972655,1.3742717529296875,0,0,0,0
0.11079934500003219,-0.33518823242187495,-9.610325463867188,1.3479355346679687,0,0,0,0
0.11253327700023874,-0.33039982910156246,-9.567229833984374,1.3431471313476562,0,0,0,0
0.11366951000036352,-0.26815058593749996,-9.64623848876953,1.3168109130859373,0,0,0,0
0.11476329900006021,-0.316034619140625,-9.68454571533203,1.2617442749023438,0,0,0,0
0.11593925300030605,-0.3136404174804687,-9.631873278808593,1.3192051147460937,0,0,0,0
0.11731874400038578,-0.296881005859375,-9.713276135253906,1.3144167114257812,0,0,0,0
0.11843153200015877,-0.37828386230468747,-9.744400756835937,1.2761094848632812,0,0,0,0
0.11953635700001541,-0.3806780639648437,-9.797073193359374,1.3455413330078123,0,0,0,0
0.12068938600032197,-0.40940848388671874,-9.694122521972655,1.3000515014648437,0,0,0,0
0.12241468900037944,-0.38786066894531246,-9.65342109375,1.3527239379882812,0,0,0,0
0.12364738400037822,-0.3758896606445312,-9.64623848876953,1.3934253662109375,0,0,0,0
0.12480402400024104,-0.29927520751953124,-9.629479077148437,1.37906015625,0,0,0,0
0.125944071000049,-0.26815058593749996,-9.64623848876953,1.2665326782226562,0,0,0,0
0.12716835900027945,-0.32561142578124996,-9.643844287109374,1.197100830078125,0,0,0,0
0.12834701700012374,-0.35673604736328124,-9.686939916992188,1.235408056640625,0,0,0,0
0.12945123200006492,-0.35673604736328124,-9.679757312011718,1.3479355346679687,0,0,0,0
0.13053974200010998,-0.3711012573242187,-9.679757312011718,1.3383587280273437,0,0,0,0
0.13163851200033605,-0.3447650390625,-9.64623848876953,1.2928688964843749,0,0,0,0
0.13280348600028447,-0.354341845703125,-9.622296472167967,1.3311761230468748,0,0,0,0
0.13398116300004403,-0.39983167724609375,-9.660603698730467,1.3646949462890625,0,0,0,0
0.13510863600004086,-0.34715924072265625,-9.797073193359374,1.3311761230468748,0,0,0,0
0.13620320200016067,-0.33039982910156246,-9.617508068847656,1.2617442749023438,0,0,0,0
0.13736010200000237,-0.2920926025390625,-9.65342109375,1.2808978881835937,0,0,0,0
0.13855655600036698,-0.28490999755859375,-9.627084875488281,1.2976572998046874,0,0,0,0
0.1396570110000539,-0.2705447875976562,-9.64623848876953,1.2018892333984375,0,0,0,0
0.14074287400035246,-0.316034619140625,-9.725247143554688,1.2401964599609374,0,0,0,0
0.1418285510003443,-0.3711012573242187,-9.708487731933593,1.3455413330078123,0,0,0,0
0.14291802500019912,-0.4070142822265625,-9.710881933593749,1.3455413330078123,0,0,0,0
0.14411098000027778,-0.3758896606445312,-9.78031378173828,1.39821376953125,0,0,0,0
0.14532504500039067,-0.3399766357421875,-9.617508068847656,1.3814543579101561,0,0,0,0
0.14641746300003433,-0.30406361083984373,-9.651026892089844,1.3335703247070312,0,0,0,0
0.14750465900033305,-0.30406361083984373,-9.627084875488281,1.2832920898437499,0,0,0,0
0.1485914849999972,-0.3112462158203125,-9.634267480468749,1.3670891479492187,0,0,0,0
0.14976018000015756,-0.3399766357421875,-9.660603698730467,1.3479355346679687,0,0,0,0
0.15093546800017066,-0.28730419921875,-9.68454571533203,1.2761094848632812,0,0,0,0
0.15204053500019654,-0.29927520751953124,-9.682151513671874,1.3048399047851562,0,0,0,0
0.15312421199996606,-0.354341845703125,-9.694122521972655,1.2761094848632812,0,0,0,0
0.1542117040003177,-0.3495534423828125,-9.64623848876953,1.2378022583007813,0,0,0,0
0.15540002900024774,-0.3591302490234375,-9.617508068847656,1.2330138549804688,0,0,0,0
0.1566350580001199,-0.40462008056640625,-9.595960253906249,1.2928688964843749,0,0,0,0
0.15772951300004934,-0.36152445068359373,-9.643844287109374,1.4006079711914061,0,0,0,0
0.15881535700009408,-0.35673604736328124,-9.634267480468749,1.3479355346679687,0,0,0,0
0.15990331200009678,-0.277727392578125,-9.567229833984374,1.2904746948242187,0,0,0,0
0.16106826700024612,-0.2154781494140625,-9.627084875488281,1.2401964599609374,0,0,0,0
0.16220568500011723,-0.2154781494140625,-9.617508068847656,1.2234370483398436,0,0,0,0
0.16344336100019063,-0.30406361083984373,-9.634267480468749,1.2617442749023438,0,0,0,0
0.16468285200016908,-0.3064578125,-9.727641345214844,1.3048399047851562,0,0,0,0
0.1659539180000138,-0.38307226562499996,-9.708487731933593,1.3000515014648437,0,0,0,0
0.16750896200028365,-0.40462008056640625,-9.710881933593749,1.3096283081054687,0,0,0,0
0.16871619400035343,-0.3758896606445312,-9.641450085449218,1.39821376953125,0,0,0,0
0.1698987780000607,-0.3136404174804687,-9.619902270507811,1.2042834350585936,0,0,0,0
0.1711548810003478,-0.3016694091796875,-9.622296472167967,1.2521674682617188,0,0,0,0
0.172695314000066,-0.2561795776367187,-9.682151513671874,1.2569558715820313,0,0,0,0
0.17512037100004818,-0.24181436767578124,-9.706093530273437,1.209071838378906,0,0,0,0
0.1773045780000757,-0.2154781494140625,-9.68454571533203,1.3287819213867187,0,0,0,0
0.17863523500000156,-0.38786066894531246,-9.706093530273437,1.2761094848632812,0,0,0,0
0.17990563400007886,-0.411802685546875,-9.667786303710937,1.2018892333984375,0,0,0,0
0.18117118000009214,-0.38307226562499996,-9.593566052246093,1.2521674682617188,0,0,0,0
0.1824593010001081,-0.33518823242187495,-9.564835632324218,1.2114660400390624,0,0,0,0
0.18364525500010132,-0.2825157958984375,-9.603142858886718,1.2282254516601563,0,0,0,0
0.18482348800034742,-0.3064578125,-9.622296472167967,1.1827356201171875,0,0,0,0
0.18607779300009497,-0.296881005859375,-9.670180505371093,1.2569558715820313,0,0,0,0
0.18737137700009043,-0.2920926025390625,-9.662997900390625,1.35990654296875,0,0,0,0
0.18855364600040048,-0.36631285400390623,-9.746794958496093,1.426944189453125,0,0,0,0
0.18972887900008573,-0.3327940307617187,-9.694122521972655,1.438915197753906,0,0,0,0
0.1909802960003617,-0.3806780639648437,-9.670180505371093,1.2425906616210938,0,0,0,0
0.1922452870003326,-0.3447650390625,-9.631873278808593,1.3263877197265623,0,0,0,0
0.1934235010003249,-0.373495458984375,-9.60793126220703,1.2785036865234374,0,0,0,0
0.19459538099999918,-0.33518823242187495,-9.598354455566406,1.3192051147460937,0,0,0,0
0.1958540210002866,-0.2753331909179687,-9.576806640625,1.2928688964843749,0,0,0,0
0.1971720850001475,-0.2920926025390625,-9.658209497070311,1.2401964599609374,0,0,0,0
0.1983501320000869,-0.2705447875976562,-9.70369932861328,1.199495031738281,0,0,0,0
0.1995248090001951,-0.3399766357421875,-9.698910925292969,1.2904746948242187,0,0,0,0
0.2007757080000374,-0.354341845703125,-9.6917283203125,1.3335703247070312,0,0,0,0
0.20205153200004133,-0.3806780639648437,-9.789890588378906,1.2641384765625,0,0,0,0
0.20323185699999158,-0.3950432739257812,-9.667786303710937,1.3670891479492187,0,0,0,0
0.204408923000301,-0.373495458984375,-9.624690673828125,1.458068811035156,0,0,0,0
0.20566289500038692,-0.32561142578124996,-9.64623848876953,1.2856862915039062,0,0,0,0
0.20720257000039055,-0.2705447875976562,-9.643844287109374,1.3000515014648437,0,0,0,0
0.20850393099999565,-0.2561795776367187,-9.65342109375,1.350329736328125,0,0,0,0
0.2101937520001229,-0.277727392578125,-9.715670336914062,1.2330138549804688,0,0,0,0
0.21201886900007594,-0.3136404174804687,-9.713276135253906,1.20667763671875,0,0,0,0
0.21330556400016576,-0.39743747558593745,-9.739612353515625,1.2761094848632812,0,0,0,0
0.21456238800010397,-0.3902548706054687,-9.696516723632811,1.2737152832031249,0,0,0,0
0.21681433499998093,-0.37828386230468747,-9.641450085449218,1.0869675537109373,0,0,0,0
0.21813565900038157,-0.35194764404296874,-9.572018237304688,1.2641384765625,0,0,0,0
0.2194397790003677,-0.2561795776367187,-9.651026892089844,1.2234370483398436,0,0,0,0
0.22127139600024748,-0.2825157958984375,-9.65342109375,1.3168109130859373,0,0,0,0
0.22254094300024008,-0.32561142578124996,-9.686939916992188,1.2785036865234374,0,0,0,0
0.22430329999997412,-0.3447650390625,-9.708487731933593,1.3455413330078123,0,0,0,0
0.22593828900016888,-0.4381389038085937,-9.65342109375,1.3910311645507811,0,0,0,0
0.2274881110001843,-0.33758243408203126,-9.65342109375,1.3120225097656248,0,0,0,0
0.2286667330004093,-0.3447650390625,-9.631873278808593,1.3934253662109375,0,0,0,0
0.23060746000010113,-0.3495534423828125,-9.610325463867188,1.350329736328125,0,0,0,0
0.2323320400000739,-0.430956298828125,-9.667786303710937,1.24498486328125,0,0,0,0
0.23345660600034535,-0.3064578125,-9.682151513671874,1.2952630981445312,0,0,0,0
0.23455070900035935,-0.3327940307617187,-9.694122521972655,1.218648645019531,0,0,0,0
0.23577823799996622,-0.32561142578124996,-9.698910925292969,1.3120225097656248,0,0,0,0
0.2371122100003049,-0.33039982910156246,-9.6917283203125,1.2665326782226562,0,0,0,0
0.2385302180000508,-0.3687070556640625,-9.6917283203125,1.235408056640625,0,0,0,0
0.23982657900023696,-0.3232172241210937,-9.655815295410155,1.2234370483398436,0,0,0,0
0.24126101399997424,-0.3136404174804687,-9.56962403564453,1.3551181396484375,0,0,0,0
0.24238476500022443,-0.2753331909179687,-9.574412438964844,1.4053963745117186,0,0,0,0
0.24347592399999485,-0.28490999755859375,-9.672574707031249,1.2641384765625,0,0,0,0
0.24455702700015536,-0.2825157958984375,-9.6151138671875,1.2593500732421874,0,0,0,0
0.24589396200008196,-0.3016694091796875,-9.667786303710937,1.24498486328125,0,0,0,0
0.24734056300030716,-0.3711012573242187,-9.737218151855469,1.2641384765625,0,0,0,0
0.24850305500012837,-0.39264907226562495,-9.694122521972655,1.426944189453125,0,0,0,0
0.24968932399997357,-0.35673604736328124,-9.605537060546874,1.3192051147460937,0,0,0,0
0.2509783340001377,-0.3806780639648437,-9.610325463867188,1.2904746948242187,0,0,0,0
0.25221889900012684,-0.354341845703125,-9.595960253906249,1.2952630981445312,0,0,0,0
0.25351896400025,-0.3399766357421875,-9.555258825683593,1.3168109130859373,0,0,0,0
0.2546156780003912,-0.3447650390625,-9.581595043945311,1.2330138549804688,0,0,0,0
0.25571174500009874,-0.3016694091796875,-9.694122521972655,1.3192051147460937,0,0,0,0
0.256933995000054,-0.3112462158203125,-9.732429748535155,1.2952630981445312,0,0,0,0
0.2582817080001405,-0.35673604736328124,-9.734823950195311,1.3335703247070312,0,0,0,0
0.25938484800008155,-0.39264907226562495,-9.785102185058593,1.2928688964843749,0,0,0,0
0.2604757660001269,-0.3806780639648437,-9.737218151855469,1.3096283081054687,0,0,0,0
0.26168342500022845,-0.40940848388671874,-9.658209497070311,1.3144167114257812,0,0,0,0
0.2629887299999609,-0.39983167724609375,-9.79946739501953,1.2785036865234374,0,0,0,0
0.26407805600001666,-0.3399766357421875,-9.612719665527344,1.2976572998046874,0,0,0,0
0.2651501410000492,-0.29927520751953124,-9.552864624023437,1.3168109130859373,0,0,0,0
0.266226115000336,-0.3016694091796875,-9.6151138671875,1.3144167114257812,0,0,0,0
0.2675028460002977,-0.2705447875976562,-9.655815295410155,1.37906015625,0,0,0,0
0.26887944800000696,-0.26815058593749996,-9.715670336914062,1.3335703247070312,0,0,0,0
0.269980551000117,-0.32082302246093747,-9.751583361816406,1.3168109130859373,0,0,0,0
0.27106830299999274,-0.3280056274414062,-9.78031378173828,1.3168109130859373,0,0,0,0
0.27216096100028153,-0.34715924072265625,-9.662997900390625,1.2737152832031249,0,0,0,0
0.2733958230001008,-0.36152445068359373,-9.662997900390625,1.3263877197265623,0,0,0,0
0.27473227700011194,-0.3399766357421875,-9.679757312011718,1.2928688964843749,0,0,0,0
0.27582747300039046,-0.28012159423828126,-9.662997900390625,1.3239935180664062,0,0,0,0
0.27690178000011656,-0.316034619140625,-9.686939916992188,1.2497732666015624,0,0,0,0
0.2779764570000225,-0.28012159423828126,-9.524134204101562,1.2497732666015624,0,0,0,0
0.2792064489999575,-0.28969840087890625,-9.624690673828125,1.3192051147460937,0,0,0,0
0.28086021500030256,-0.3112462158203125,-9.643844287109374,1.2952630981445312,0,0,0,0
0.2819717440002023,-0.3280056274414062,-9.677363110351562,1.2880804931640624,0,0,0,0
0.2834460300000501,-0.33518823242187495,-9.660603698730467,1.3575123413085937,0,0,0,0
0.2846526690000246,-0.3806780639648437,-9.679757312011718,1.3527239379882812,0,0,0,0
0.28619208400004936,-0.4165910888671875,-9.641450085449218,1.3215993164062498,0,0,0,0
0.2875263900000391,-0.34237083740234375,-9.660603698730467,1.235408056640625,0,0,0,0
0.28871467800036044,-0.3399766357421875,-9.586383447265625,1.235408056640625,0,0,0,0
0.2898115590000998,-0.3016694091796875,-9.591171850585937,1.2880804931640624,0,0,0,0
0.29136691800022163,-0.2705447875976562,-9.667786303710937,1.24498486328125,0,0,0,0
0.2932053860004089,-0.15562310791015624,-9.68454571533203,1.2880804931640624,0,0,0,0
0.29442339600018386,-0.36152445068359373,-9.732429748535155,1.3215993164062498,0,0,0,0
0.29575542400016275,-0.4165910888671875,-9.730035546875,1.37906015625,0,0,0,0
0.2971073960002286,-0.4261678955078125,-9.677363110351562,1.2785036865234374,0,0,0,0
0.29820596200033833,-0.3399766357421875,-9.631873278808593,1.254561669921875,0,0,0,0
0.2993239170000379,-0.35673604736328124,-9.617508068847656,1.2832920898437499,0,0,0,0
0.30048765000037747,-0.3399766357421875,-9.593566052246093,1.3096283081054687,0,0,0,0
0.3017810660003306,-0.27293898925781246,-9.627084875488281,1.484405029296875,0,0,0,0
0.30287228099996355,-0.24899697265624998,-9.658209497070311,1.3311761230468748,0,0,0,0
0.30399727300027735,-0.3112462158203125,-9.521740002441407,1.2761094848632812,0,0,0,0
0.3051068760000817,-0.2920926025390625,-9.686939916992188,1.13006318359375,0,0,0,0
0.3062818490002428,-0.36631285400390623,-9.682151513671874,1.2234370483398436,0,0,0,0
0.30760761800002,-0.33518823242187495,-9.674968908691406,1.3910311645507811,0,0,0,0
0.3087018320002244,-0.33518823242187495,-9.662997900390625,1.3263877197265623,0,0,0,0
0.3097859540002901,-0.354341845703125,-9.593566052246093,1.3431471313476562,0,0,0,0
0.3108723350001128,-0.36391865234375,-9.581595043945311,1.3335703247070312,0,0,0,0
0.3120239570002923,-0.3136404174804687,-9.593566052246093,1.1827356201171875,0,0,0,0
0.3132594480002808,-0.2657563842773437,-9.595960253906249,1.1635820068359375,0,0,0,0
0.3143353850000494,-0.28730419921875,-9.576806640625,1.197100830078125,0,0,0,0
0.3154181370000515,-0.2753331909179687,-9.648632690429688,1.3096283081054687,0,0,0,0
0.3165703510003368,-0.32561142578124996,-9.665392102050781,1.2856862915039062,0,0,0,0
0.3178474900000765,-0.38786066894531246,-9.694122521972655,1.3646949462890625,0,0,0,0
0.3189279820003321,-0.36631285400390623,-9.639055883789062,1.2521674682617188,0,0,0,0
0.32001753000031385,-0.354341845703125,-9.504980590820312,1.2904746948242187,0,0,0,0
0.3211063560002003,-0.38307226562499996,-9.583989245605467,1.3766659545898436,0,0,0,0
0.32227482899997995,-0.4572925170898437,-9.64623848876953,1.3359645263671873,0,0,0,0
0.32359537499996804,-0.3280056274414062,-9.624690673828125,1.407790576171875,0,0,0,0
0.3246931450003103,-0.32561142578124996,-9.627084875488281,1.3311761230468748,0,0,0,0
0.325775674000397,-0.3064578125,-9.658209497070311,1.2928688964843749,0,0,0,0
0.32686138899998696,-0.30406361083984373,-9.658209497070311,1.3168109130859373,0,0,0,0
0.32802130700019916,-0.2825157958984375,-9.70369932861328,1.3311761230468748,0,0,0,0
0.3293434080001134,-0.27293898925781246,-9.734823950195311,1.2761094848632812,0,0,0,0
0.33043388200030677,-0.3806780639648437,-9.727641345214844,1.3120225097656248,0,0,0,0
0.3315265040000668,-0.430956298828125,-9.718064538574218,1.2401964599609374,0,0,0,0
0.3326782369999819,-0.3591302490234375,-9.598354455566406,1.1133037719726562,0,0,0,0
0.33392504200037365,-0.3687070556640625,-9.588777648925781,1.2976572998046874,0,0,0,0
0.33501490500020736,-0.33518823242187495,-9.56962403564453,1.2617442749023438,0,0,0,0
0.3361521380002159,-0.39743747558593745,-9.588777648925781,1.2808978881835937,0,0,0,0
0.33733531500001845,-0.33039982910156246,-9.631873278808593,1.1755530151367186,0,0,0,0
0.33849699200027317,-0.3112462158203125,-9.662997900390625,1.2497732666015624,0,0,0,0
0.34017770200034647,-0.3447650390625,-9.694122521972655,1.2497732666015624,0,0,0,0
0.34131791600020733,-0.3806780639648437,-9.6917283203125,1.2808978881835937,0,0,0,0
0.3425383150001835,-0.38786066894531246,-9.708487731933593,1.2473790649414063,0,0,0,0
0.34422037700005603,-0.33039982910156246,-9.679757312011718,1.3646949462890625,0,0,0,0
0.34565408900016337,-0.34237083740234375,-9.581595043945311,1.2856862915039062,0,0,0,0
0.34707159800018417,-0.36152445068359373,-9.593566052246093,1.3168109130859373,0,0,0,0
0.3482126820003941,-0.45489831542968745,-9.610325463867188,1.3838485595703125,0,0,0,0
0.34930567400033397,-0.2825157958984375,-9.665392102050781,1.2042834350585936,0,0,0,0
0.3507670160001908,-0.3184288208007812,-9.72285294189453,1.3024457031249999,0,0,0,0
0.3522492830002193,-0.3184288208007812,-9.739612353515625,1.2785036865234374,0,0,0,0
0.3536516809999739,-0.4070142822265625,-9.732429748535155,1.3287819213867187,0,0,0,0
0.3547830980000981,-0.39264907226562495,-9.785102185058593,1.3623007446289062,0,0,0,0
0.35598866400005136,-0.3854664672851562,-9.682151513671874,1.3168109130859373,0,0,0,0
0.35716339600003266,-0.3112462158203125,-9.631873278808593,1.2761094848632812,0,0,0,0
0.3587719410002137,-0.354341845703125,-9.629479077148437,1.2880804931640624,0,0,0,0
0.3598692110003867,-0.3136404174804687,-9.610325463867188,1.3431471313476562,0,0,0,0
0.36099616600040463,-0.25139117431640623,-9.682151513671874,1.3527239379882812,0,0,0,0
0.36274137500004144,-0.2920926025390625,-9.686939916992188,1.254561669921875,0,0,0,0
0.3643676050000977,-0.33758243408203126,-9.679757312011718,1.3096283081054687,0,0,0,0
0.3654900780002208,-0.3950432739257812,-9.643844287109374,1.3359645263671873,0,0,0,0
0.36658070000021326,-0.46208092041015625,-9.643844287109374,1.2761094848632812,0,0,0,0
0.36821916999997484,-0.3447650390625,-9.634267480468749,1.350329736328125,0,0,0,0
0.36939082800017786,-0.33758243408203126,-9.670180505371093,1.3742717529296875,0,0,0,0
0.37049343200033036,-0.36152445068359373,-9.65342109375,1.3287819213867187,0,0,0,0
0.37164172000029794,-0.258573779296875,-9.68454571533203,1.3144167114257812,0,0,0,0
0.37348661400028504,-0.2753331909179687,-9.670180505371093,1.2593500732421874,0,0,0,0
0.37458701400009886,-0.2705447875976562,-9.698910925292969,1.3335703247070312,0,0,0,0
0.37567480200004866,-0.32561142578124996,-9.662997900390625,1.3096283081054687,0,0,0,0
0.37676044299996647,-0.3495534423828125,-9.713276135253906,1.24498486328125,0,0,0,0
0.3783674129999781,-0.4070142822265625,-9.65342109375,1.2952630981445312,0,0,0,0
0.3795436640002663,-0.41898529052734373,-9.631873278808593,1.3263877197265623,0,0,0,0
0.3806342670000049,-0.40940848388671874,-9.605537060546874,1.2880804931640624,0,0,0,0
0.381719871000314,-0.3806780639648437,-9.777919580078125,1.369483349609375,0,0,0,0
0.38329821100023764,-0.28730419921875,-9.658209497070311,1.2976572998046874,0,0,0,0
0.3844761660002405,-0.26336218261718747,-9.662997900390625,1.2928688964843749,0,0,0,0
0.385579121000319,-0.28490999755859375,-9.651026892089844,1.2617442749023438,0,0,0,0
0.3866676689999622,-0.28012159423828126,-9.557653027343749,1.2306196533203124,0,0,0,0
0.3882686580000154,-0.34715924072265625,-9.696516723632811,1.2785036865234374,0,0,0,0
0.3894466680003461,-0.3327940307617187,-9.651026892089844,1.2593500732421874,0,0,0,0
0.3905357900002855,-0.4285620971679687,-9.636661682128906,1.235408056640625,0,0,0,0
0.39166898500025127,-0.39983167724609375,-9.792284790039062,1.3239935180664062,0,0,0,0
0.3932629550004094,-0.3112462158203125,-9.648632690429688,1.3215993164062498,0,0,0,0
0.3944401319999997,-0.29448680419921874,-9.6917283203125,1.3120225097656248,0,0,0,0
0.39553971700024704,-0.24899697265624998,-9.60793126220703,1.2521674682617188,0,0,0,0
0.3966278760003661,-0.24660277099609373,-9.639055883789062,1.2425906616210938,0,0,0,0
0.3982154760001322,-0.16759411621093748,-9.682151513671874,1.2785036865234374,0,0,0,0
0.39945570800000496,-0.30885201416015623,-9.70369932861328,1.3096283081054687,0,0,0,0
0.400592885000151,-0.3232172241210937,-9.701305126953125,1.3192051147460937,0,0,0,0
0.40166841400014164,-0.3806780639648437,-9.689334118652344,1.3311761230468748,0,0,0,0
0.4035296240003845,-0.35673604736328124,-9.634267480468749,1.3311761230468748,0,0,0,0
0.4047069860002921,-0.3184288208007812,-9.6151138671875,1.2401964599609374,0,0,0,0
0.40579879300003086,-0.34237083740234375,-9.612719665527344,1.2832920898437499,0,0,0,0
0.4068858400000863,-0.15562310791015624,-9.598354455566406,1.2665326782226562,0,0,0,0
0.40890445600007297,-0.24899697265624998,-9.631873278808593,1.2425906616210938,0,0,0,0
0.41017248400021344,-0.19153613281249998,-9.725247143554688,1.3168109130859373,0,0,0,0
0.4123723570000948,-0.28730419921875,-9.694122521972655,1.3263877197265623,0,0,0,0
0.41381058800016035,-0.3687070556640625,-9.70369932861328,1.3287819213867187,0,0,0,0
0.4150069870001971,-0.4213794921875,-9.634267480468749,1.3072341064453123,0,0,0,0
0.41628934800019124,-0.36631285400390623,-9.679757312011718,1.3120225097656248,0,0,0,0
0.4173930619999737,-0.3591302490234375,-9.6151138671875,1.2713210815429687,0,0,0,0
0.418569461000061,-0.26336218261718747,-9.581595043945311,1.2952630981445312,0,0,0,0
0.4197318050000831,-0.2442085693359375,-9.662997900390625,1.1348515869140625,0,0,0,0
0.42083122300027753,-0.28730419921875,-9.672574707031249,1.2617442749023438,0,0,0,0
0.42191417800040654,-0.3016694091796875,-9.734823950195311,1.3311761230468748,0,0,0,0
0.42300070800001777,-0.24899697265624998,-9.715670336914062,1.2761094848632812,0,0,0,0
0.4243903460001093,-0.354341845703125,-9.70369932861328,1.2234370483398436,0,0,0,0
0.42554381900026783,-0.3950432739257812,-9.660603698730467,1.3000515014648437,0,0,0,0
0.42664046000027156,-0.36391865234375,-9.65342109375,1.3646949462890625,0,0,0,0
0.4277462480004033,-0.36631285400390623,-9.639055883789062,1.2593500732421874,0,0,0,0
0.42882522200034145,-0.3854664672851562,-9.605537060546874,1.3192051147460937,0,0,0,0
0.42998534400021526,-0.35194764404296874,-9.579200842285156,1.3623007446289062,0,0,0,0
0.4311173730002338,-0.24899697265624998,-9.64623848876953,1.2808978881835937,0,0,0,0
0.43221943900016413,-0.26815058593749996,-9.674968908691406,1.2473790649414063,0,0,0,0
0.4333090610002728,-0.21787235107421873,-9.727641345214844,1.2689268798828124,0,0,0,0
0.43447966400026417,-0.2609679809570312,-9.682151513671874,1.3072341064453123,0,0,0,0
0.43563676600024337,-0.36152445068359373,-9.64623848876953,1.24498486328125,0,0,0,0
0.43672729600029925,-0.2657563842773437,-9.708487731933593,1.2976572998046874,0,0,0,0
0.4378099360001215,-0.3399766357421875,-9.658209497070311,1.2401964599609374,0,0,0,0
0.4388939840000603,-0.38786066894531246,-9.622296472167967,1.218648645019531,0,0,0,0
0.4400812720000431,-0.32082302246093747,-9.598354455566406,1.2904746948242187,0,0,0,0
0.44121974500012584,-0.258573779296875,-9.600748657226562,1.2904746948242187,0,0,0,0
0.44231131200012896,-0.20350714111328125,-9.622296472167967,1.2401964599609374,0,0,0,0
0.4434066190001431,-0.2920926025390625,-9.658209497070311,1.2880804931640624,0,0,0,0
0.4445669810002073,-0.23223756103515625,-9.64623848876953,1.2713210815429687,0,0,0,0
0.4457032690002052,-0.20829554443359374,-9.679757312011718,1.3718775512695311,0,0,0,0
0.4467808360000163,-0.2825157958984375,-9.689334118652344,1.2234370483398436,0,0,0,0
0.4478605320000497,-0.34715924072265625,-9.725247143554688,1.3096283081054687,0,0,0,0
0.44912235600031636,-0.34237083740234375,-9.64623848876953,1.3239935180664062,0,0,0,0
0.4503916430003301,-0.38786066894531246,-9.60793126220703,1.2737152832031249,0,0,0,0
0.45153400600020177,-0.36152445068359373,-9.60793126220703,1.235408056640625,0,0,0,0
0.4526204050002889,-0.3950432739257812,-9.658209497070311,1.3048399047851562,0,0,0,0
0.45370308300016404,-0.3399766357421875,-9.619902270507811,1.3575123413085937,0,0,0,0
0.45492401900037294,-0.3399766357421875,-9.598354455566406,1.2856862915039062,0,0,0,0
0.4561216950000926,-0.3806780639648437,-9.708487731933593,1.3024457031249999,0,0,0,0
0.4572678720001022,-0.3136404174804687,-9.679757312011718,1.3575123413085937,0,0,0,0
0.4583741790002023,-0.40940848388671874,-9.677363110351562,1.209071838378906,0,0,0,0
0.45965239300039684,-0.37828386230468747,-9.694122521972655,1.2880804931640624,0,0,0,0
0.4609433280002122,-0.39743747558593745,-9.667786303710937,1.2593500732421874,0,0,0,0
0.4620663760001662,-0.3758896606445312,-9.60793126220703,1.3455413330078123,0,0,0,0
0.4632852190002268,-0.38307226562499996,-9.65342109375,1.2569558715820313,0,0,0,0
0.46453852500007997,-0.33758243408203126,-9.612719665527344,1.24498486328125,0,0,0,0
0.46580384900016725,-0.40462008056640625,-9.600748657226562,1.2138602416992186,0,0,0,0
0.46710139500009973,-0.4261678955078125,-9.64623848876953,1.2018892333984375,0,0,0,0
0.4684261080001306,-0.296881005859375,-9.64623848876953,1.2234370483398436,0,0,0,0
0.4696067300001232,-0.33039982910156246,-9.6917283203125,1.2617442749023438,0,0,0,0
0.47078396200004136,-0.33039982910156246,-9.72285294189453,1.3335703247070312,0,0,0,0
0.4720509530002346,-0.37828386230468747,-9.677363110351562,1.3144167114257812,0,0,0,0
0.47330737000038425,-0.42377369384765623,-9.65342109375,1.2832920898437499,0,0,0,0
0.4744889730000068,-0.39743747558593745,-9.6151138671875,1.2832920898437499,0,0,0,0
0.47569033500030855,-0.35673604736328124,-9.655815295410155,1.3072341064453123,0,0,0,0
0.4769550290002371,-0.3136404174804687,-9.581595043945311,1.1923124267578125,0,0,0,0
0.47820661300011125,-0.21068974609375,-9.665392102050781,1.216254443359375,0,0,0,0
0.4794075120003072,-0.3184288208007812,-9.672574707031249,1.3383587280273437,0,0,0,0
0.48057455900016066,-0.35194764404296874,-9.648632690429688,1.2952630981445312,0,0,0,0
0.48224030700021103,-0.40222587890625,-9.696516723632811,1.3479355346679687,0,0,0,0
0.48350468700027704,-0.4165910888671875,-9.710881933593749,1.3455413330078123,0,0,0,0
0.4846877710001536,-0.40462008056640625,-9.64623848876953,1.2761094848632812,0,0,0,0
0.48577676300010353,-0.36631285400390623,-9.591171850585937,1.3048399047851562,0,0,0,0
0.4869416810001894,-0.33758243408203126,-9.641450085449218,1.3048399047851562,0,0,0,0
0.4881058949999897,-0.19153613281249998,-9.639055883789062,1.3287819213867187,0,0,0,0
0.4891957940003522,-0.33758243408203126,-9.581595043945311,1.2880804931640624,0,0,0,0
0.4907841540002664,-0.35673604736328124,-9.598354455566406,1.2234370483398436,0,0,0,0
0.49196618200039666,-0.29927520751953124,-9.660603698730467,1.2737152832031249,0,0,0,0
0.49312774800000625,-0.1867477294921875,-9.70369932861328,1.2138602416992186,0,0,0,0
0.49422301799995694,-0.4165910888671875,-9.730035546875,1.2138602416992186,0,0,0,0
0.49534452900024917,-0.39264907226562495,-9.720458740234374,1.3383587280273437,0,0,0,0
0.4964960020001854,-0.4070142822265625,-9.610325463867188,1.3910311645507811,0,0,0,0
0.4976453640001637,-0.38307226562499996,-9.56962403564453,1.4772224243164063,0,0,0,0
0.4987293200001659,-0.33518823242187495,-9.60793126220703,1.3000515014648437,0,0,0,0
0.4998515340002996,-0.36391865234375,-9.5384994140625,1.3048399047851562,0,0,0,0
0.5009453220000069,-0.2705447875976562,-9.598354455566406,1.2497732666015624,0,0,0,0
0.5021294070002114,-0.28730419921875,-9.651026892089844,1.2617442749023438,0,0,0,0
0.503427749000366,-0.25139117431640623,-9.658209497070311,1.2737152832031249,0,0,0,0
0.5046079820003797,-0.28012159423828126,-9.715670336914062,1.2713210815429687,0,0,0,0
0.5056884370001171,-0.3184288208007812,-9.6917283203125,1.2641384765625,0,0,0,0
0.5067631700003403,-0.316034619140625,-9.648632690429688,1.3311761230468748,0,0,0,0
0.507951162000154,-0.29448680419921874,-9.655815295410155,1.2737152832031249,0,0,0,0
0.5091165980002188,-0.36631285400390623,-9.622296472167967,1.2569558715820313,0,0,0,0
0.5102162010002758,-0.354341845703125,-9.64623848876953,1.2401964599609374,0,0,0,0
0.5113774149999699,-0.33518823242187495,-9.624690673828125,1.197100830078125,0,0,0,0
0.5126948690003701,-0.3184288208007812,-9.60793126220703,1.2617442749023438,0,0,0,0
0.5139852670004075,-0.277727392578125,-9.634267480468749,1.2138602416992186,0,0,0,0
0.5153409060003469,-0.2609679809570312,-9.68454571533203,1.2761094848632812,0,0,0,0
0.5165376750001087,-0.296881005859375,-9.730035546875,1.2497732666015624,0,0,0,0
0.5177149440000903,-0.3711012573242187,-9.6917283203125,1.3527239379882812,0,0,0,0
0.5191161200000352,-0.3711012573242187,-9.639055883789062,1.3048399047851562,0,0,0,0
0.5220970430000307,-0.34237083740234375,-9.639055883789062,1.2928688964843749,0,0,0,0
0.523333090000051,-0.3136404174804687,-9.583989245605467,1.3479355346679687,0,0,0,0
0.525317539000298,-0.26336218261718747,-9.667786303710937,1.2330138549804688,0,0,0,0
0.5266013069999644,-0.28490999755859375,-9.639055883789062,1.2282254516601563,0,0,0,0
0.5277418730001955,-0.33758243408203126,-9.68454571533203,1.20667763671875,0,0,0,0
0.5289918270000271,-0.3711012573242187,-9.744400756835937,1.3000515014648437,0,0,0,0
0.5302208740004062,-0.3495534423828125,-9.730035546875,1.2330138549804688,0,0,0,0
0.5314167360002102,-0.38786066894531246,-9.622296472167967,1.254561669921875,0,0,0,0
0.532554987000367,-0.3758896606445312,-9.581595043945311,1.2473790649414063,0,0,0,0
0.5336519980000958,-0.36391865234375,-9.622296472167967,1.3551181396484375,0,0,0,0
0.5347432680000566,-0.38786066894531246,-9.64623848876953,1.3335703247070312,0,0,0,0
0.5359189450000486,-0.316034619140625,-9.612719665527344,1.3479355346679687,0,0,0,0
0.5370893070003149,-0.27293898925781246,-9.636661682128906,1.4101847778320311,0,0,0,0
0.5381794660002015,-0.21787235107421873,-9.68454571533203,1.429338391113281,0,0,0,0
0.5393213100001049,-0.22026655273437498,-9.706093530273437,1.388636962890625,0,0,0,0
0.5405765600003178,-0.2920926025390625,-9.720458740234374,1.3096283081054687,0,0,0,0
0.541806829000052,-0.3806780639648437,-9.686939916992188,1.2018892333984375,0,0,0,0
0.5429023579999921,-0.45010991210937495,-9.68454571533203,1.197100830078125,0,0,0,0
0.5439930730003653,-0.3854664672851562,-9.686939916992188,1.3048399047851562,0,0,0,0
0.5450799360000929,-0.3447650390625,-9.643844287109374,1.3335703247070312,0,0,0,0
0.5462655940000332,-0.373495458984375,-9.574412438964844,1.3359645263671873,0,0,0,0
0.5474784370003363,-0.3280056274414062,-9.600748657226562,1.3335703247070312,0,0,0,0
0.5485668180003813,-0.316034619140625,-9.651026892089844,1.254561669921875,0,0,0,0
0.5496486250003727,-0.26815058593749996,-9.72285294189453,1.2617442749023438,0,0,0,0
0.5507355070003541,-0.24660277099609373,-9.706093530273437,1.2425906616210938,0,0,0,0
0.5519547200001398,-0.24660277099609373,-9.753977563476562,1.2330138549804688,0,0,0,0
0.5530804160002845,-0.36391865234375,-9.665392102050781,1.2306196533203124,0,0,0,0
0.5541685930002131,-0.3950432739257812,-9.651026892089844,1.3215993164062498,0,0,0,0
0.5552890490002937,-0.3806780639648437,-9.72285294189453,1.3527239379882812,0,0,0,0
0.5564585400002215,-0.39743747558593745,-9.660603698730467,1.2785036865234374,0,0,0,0
0.5576317170002767,-0.36152445068359373,-9.689334118652344,1.3192051147460937,0,0,0,0
0.5587219690000893,-0.3016694091796875,-9.634267480468749,1.2976572998046874,0,0,0,0
0.5598339420002958,-0.2657563842773437,-9.651026892089844,1.2904746948242187,0,0,0,0
0.5609087860002546,-0.2705447875976562,-9.507374792480467,1.22583125,0,0,0,0
0.5619827230002556,-0.34237083740234375,-9.751583361816406,1.2665326782226562,0,0,0,0
0.5631504740003948,-0.2561795776367187,-9.715670336914062,1.2521674682617188,0,0,0,0
0.5643358360002821,-0.2657563842773437,-9.749189160156249,1.3287819213867187,0,0,0,0
0.565411958000368,-0.316034619140625,-9.744400756835937,1.2904746948242187,0,0,0,0
0.5664841360003265,-0.33518823242187495,-9.713276135253906,1.2665326782226562,0,0,0,0
0.567834719000075,-0.35673604736328124,-9.548076220703125,1.39821376953125,0,0,0,0
0.5693316340002639,-0.3854664672851562,-9.583989245605467,1.3814543579101561,0,0,0,0
0.5704375150003216,-0.32082302246093747,-9.648632690429688,1.2904746948242187,0,0,0,0
0.571537711000019,-0.26815058593749996,-9.600748657226562,1.2785036865234374,0,0,0,0
0.5726258520003285,-0.28012159423828126,-9.636661682128906,1.2832920898437499,0,0,0,0
0.5738044540003102,-0.30885201416015623,-9.521740002441407,1.2138602416992186,0,0,0,0
0.5753359990003446,-0.2609679809570312,-9.710881933593749,1.2737152832031249,0,0,0,0
0.576436491000095,-0.354341845703125,-9.682151513671874,1.3048399047851562,0,0,0,0
0.5777854080001816,-0.3806780639648437,-9.682151513671874,1.2665326782226562,0,0,0,0
0.5790405840002677,-0.30885201416015623,-9.60793126220703,1.3455413330078123,0,0,0,0
0.5805019809999976,-0.35673604736328124,-9.610325463867188,1.2713210815429687,0,0,0,0
0.5816120660001616,-0.33758243408203126,-9.619902270507811,1.3431471313476562,0,0,0,0
0.5827037250001013,-0.3495534423828125,-9.610325463867188,1.3168109130859373,0,0,0,0
0.5839403640002274,-0.258573779296875,-9.603142858886718,1.2713210815429687,0,0,0,0
0.5852212070003588,-0.2609679809570312,-9.612719665527344,1.3000515014648437,0,0,0,0
0.5863936240002658,-0.3016694091796875,-9.715670336914062,1.2665326782226562,0,0,0,0
0.5874938199999633,-0.33758243408203126,-9.660603698730467,1.2593500732421874,0,0,0,0
0.5886650710003778,-0.36152445068359373,-9.639055883789062,1.3072341064453123,0,0,0,0
0.5898668220002037,-0.354341845703125,-9.718064538574218,1.1731588134765625,0,0,0,0
0.5909867590003159,-0.3806780639648437,-9.639055883789062,1.2832920898437499,0,0,0,0
0.5920784730001287,-0.3495534423828125,-9.674968908691406,1.2785036865234374,0,0,0,0
0.5931642620003004,-0.35194764404296874,-9.636661682128906,1.3311761230468748,0,0,0,0
0.5943541980000191,-0.296881005859375,-9.516951599121093,1.3000515014648437,0,0,0,0
0.5955440410002666,-0.29448680419921874,-9.617508068847656,1.254561669921875,0,0,0,0
0.5966354040001534,-0.33518823242187495,-9.593566052246093,1.2018892333984375,0,0,0,0
0.5978657100004057,-0.2561795776367187,-9.509768994140625,1.1947066284179686,0,0,0,0
0.5989812950001578,-0.29927520751953124,-9.674968908691406,1.2880804931640624,0,0,0,0
0.6001884160000373,-0.3806780639648437,-9.677363110351562,1.350329736328125,0,0,0,0
0.6013449810002385,-0.41419688720703124,-9.679757312011718,1.3287819213867187,0,0,0,0
0.6025255470003685,-0.39264907226562495,-9.706093530273437,1.3742717529296875,0,0,0,0
0.6037029650001386,-0.373495458984375,-9.634267480468749,1.3623007446289062,0,0,0,0
0.6048874560001423,-0.3399766357421875,-9.65342109375,1.3120225097656248,0,0,0,0
0.6060845960000734,-0.45968671875,-9.593566052246093,1.2976572998046874,0,0,0,0
0.607332217000021,-0.27293898925781246,-9.689334118652344,1.209071838378906,0,0,0,0
0.608518708000247,-0.28730419921875,-9.643844287109374,1.3168109130859373,0,0,0,0
0.6097045700003036,-0.28730419921875,-9.682151513671874,1.3718775512695311,0,0,0,0
0.6108808400003909,-0.29927520751953124,-9.670180505371093,1.3527239379882812,0,0,0,0
0.6125963460003732,-0.34237083740234375,-9.509768994140625,1.2952630981445312,0,0,0,0
0.6139643740002612,-0.3806780639648437,-9.6917283203125,1.235408056640625,0,0,0,0
0.615062866000244,-0.39743747558593745,-9.64623848876953,1.1947066284179686,0,0,0,0
0.6161437840000872,-0.3806780639648437,-9.586383447265625,1.24498486328125,0,0,0,0
0.6172180360003949,-0.3495534423828125,-9.586383447265625,1.2976572998046874,0,0,0,0
0.6189070240002366,-0.30885201416015623,-9.629479077148437,1.2593500732421874,0,0,0,0
0.6200851270000385,-0.258573779296875,-9.639055883789062,1.2378022583007813,0,0,0,0
0.6214089320001221,-0.2657563842773437,-9.701305126953125,1.2976572998046874,0,0,0,0
0.6225047950001681,-0.2657563842773437,-9.622296472167967,1.2617442749023438,0,0,0,0
0.6241932460002317,-0.3136404174804687,-9.655815295410155,1.2976572998046874,0,0,0,0
0.6253599970000323,-0.3327940307617187,-9.682151513671874,1.3144167114257812,0,0,0,0
0.626442082000267,-0.39264907226562495,-9.64623848876953,1.35990654296875,0,0,0,0
0.6278171640001347,-0.41898529052734373,-9.627084875488281,1.3096283081054687,0,0,0,0
0.628917433999959,-0.3495534423828125,-9.555258825683593,1.2880804931640624,0,0,0,0
0.6306261070003529,-0.28969840087890625,-9.651026892089844,1.2904746948242187,0,0,0,0
0.632046783000078,-0.2705447875976562,-9.655815295410155,1.3215993164062498,0,0,0,0
0.6331389599999966,-0.22744915771484372,-9.706093530273437,1.3096283081054687,0,0,0,0
0.6342240260000835,-0.32082302246093747,-9.689334118652344,1.1348515869140625,0,0,0,0
0.6370987100003731,-0.3950432739257812,-9.639055883789062,1.2617442749023438,0,0,0,0
0.6383687750003446,-0.34237083740234375,-9.686939916992188,1.2952630981445312,0,0,0,0
0.6395847110002251,-0.33518823242187495,-9.603142858886718,1.2928688964843749,0,0,0,0
0.6408636090000073,-0.3112462158203125,-9.617508068847656,1.24498486328125,0,0,0,0
0.6421563040003093,-0.2825157958984375,-9.639055883789062,1.2880804931640624,0,0,0,0
0.6434401460001027,-0.30885201416015623,-9.583989245605467,1.3431471313476562,0,0,0,0
0.6445424720000119,-0.3136404174804687,-9.658209497070311,1.2737152832031249,0,0,0,0
0.6456360940001105,-0.316034619140625,-9.725247143554688,1.2856862915039062,0,0,0,0
0.6468251590004002,-0.3064578125,-9.689334118652344,1.2401964599609374,0,0,0,0
0.6482250379999641,-0.3112462158203125,-9.698910925292969,1.3263877197265623,0,0,0,0
0.6496086400002241,-0.35673604736328124,-9.665392102050781,1.3359645263671873,0,0,0,0
0.6508871310002178,-0.373495458984375,-9.627084875488281,1.3431471313476562,0,0,0,0
0.6521821210003509,-0.3447650390625,-9.619902270507811,1.2737152832031249,0,0,0,0
0.6533505390002574,-0.28490999755859375,-9.557653027343749,1.2593500732421874,0,0,0,0
0.6546160300003976,-0.30406361083984373,-9.612719665527344,1.180341418457031,0,0,0,0
0.655719911000233,-0.35194764404296874,-9.617508068847656,1.22583125,0,0,0,0
0.6568053480000344,-0.28730419921875,-9.543287817382812,1.2378022583007813,0,0,0,0
0.6578876550001951,-0.33518823242187495,-9.715670336914062,1.2425906616210938,0,0,0,0
0.6589751840001554,-0.34237083740234375,-9.660603698730467,1.2928688964843749,0,0,0,0
0.6601604170000428,-0.36631285400390623,-9.65342109375,1.2928688964843749,0,0,0,0
0.6614084080001703,-0.40462008056640625,-9.624690673828125,1.2880804931640624,0,0,0,0
0.6625012330000573,-0.3280056274414062,-9.629479077148437,1.2378022583007813,0,0,0,0
0.6637235580001288,-0.3280056274414062,-9.610325463867188,1.3168109130859373,0,0,0,0
0.6648139760000049,-0.3495534423828125,-9.574412438964844,1.2832920898437499,0,0,0,0
0.665970894000111,-0.16998831787109375,-9.64623848876953,1.3168109130859373,0,0,0,0
0.6672085520003748,-0.23702596435546874,-9.648632690429688,1.3311761230468748,0,0,0,0
0.6683048220002092,-0.24899697265624998,-9.686939916992188,1.2689268798828124,0,0,0,0
0.669392259000233,-0.2657563842773437,-9.734823950195311,1.2138602416992186,0,0,0,0
0.6705488800002968,-0.30406361083984373,-9.70369932861328,1.3024457031249999,0,0,0,0
0.6718668710000202,-0.38307226562499996,-9.694122521972655,1.2761094848632812,0,0,0,0
0.6731043250001676,-0.354341845703125,-9.648632690429688,1.3096283081054687,0,0,0,0
0.6744249640000817,-0.38307226562499996,-9.641450085449218,1.2665326782226562,0,0,0,0
0.6757631770001353,-0.430956298828125,-9.756371765136718,1.3623007446289062,0,0,0,0
0.6768794650001837,-0.35194764404296874,-9.639055883789062,1.2641384765625,0,0,0,0
0.6779650680000486,-0.2753331909179687,-9.639055883789062,1.2306196533203124,0,0,0,0
0.6791698380002344,-0.28012159423828126,-9.641450085449218,1.2713210815429687,0,0,0,0
0.6805151610001303,-0.2609679809570312,-9.68454571533203,1.2952630981445312,0,0,0,0
0.6818268740003077,-0.29927520751953124,-9.713276135253906,1.3144167114257812,0,0,0,0
0.6830524400002105,-0.3327940307617187,-9.672574707031249,1.235408056640625,0,0,0,0
0.6843588560000171,-0.3711012573242187,-9.667786303710937,1.2952630981445312,0,0,0,0
0.6854918850003742,-0.3758896606445312,-9.651026892089844,1.3455413330078123,0,0,0,0
0.6868284500001209,-0.373495458984375,-9.60793126220703,1.2785036865234374,0,0,0,0
0.6879754970000249,-0.4165910888671875,-9.562441430664062,1.3096283081054687,0,0,0,0
0.6890609160000167,-0.25139117431640623,-9.639055883789062,1.2665326782226562,0,0,0,0
0.6901417410003887,-0.2346317626953125,-9.627084875488281,1.209071838378906,0,0,0,0
0.6912250670002322,-0.2442085693359375,-9.610325463867188,1.1707646118164061,0,0,0,0
0.6923712070001784,-0.2609679809570312,-9.718064538574218,1.3072341064453123,0,0,0,0
0.6936094210000192,-0.354341845703125,-9.706093530273437,1.3359645263671873,0,0,0,0
0.6946889680002641,-0.38307226562499996,-9.677363110351562,1.3359645263671873,0,0,0,0
0.695763609000096,-0.3758896606445312,-9.698910925292969,1.2761094848632812,0,0,0,0
0.6968334160001177,-0.35673604736328124,-9.662997900390625,1.3623007446289062,0,0,0,0
0.6979722600003697,-0.27293898925781246,-9.619902270507811,1.3168109130859373,0,0,0,0
0.6993276760003937,-0.2609679809570312,-9.622296472167967,1.2785036865234374,0,0,0,0
0.7004239279999638,-0.3687070556640625,-9.624690673828125,1.2521674682617188,0,0,0,0
0.7015097350003998,-0.354341845703125,-9.68454571533203,1.2521674682617188,0,0,0,0
0.7026628749999873,-0.36391865234375,-9.708487731933593,1.350329736328125,0,0,0,0
0.703967606000333,-0.3136404174804687,-9.665392102050781,1.2880804931640624,0,0,0,0
0.7050745620003909,-0.354341845703125,-9.665392102050781,1.3263877197265623,0,0,0,0
0.7061589980003191,-0.39264907226562495,-9.665392102050781,1.2904746948242187,0,0,0,0
0.7072617500002707,-0.354341845703125,-9.70369932861328,1.254561669921875,0,0,0,0
0.7084237970002505,-0.36152445068359373,-9.737218151855469,1.3048399047851562,0,0,0,0
0.7097292690000359,-0.35194764404296874,-9.758765966796874,1.2569558715820313,0,0,0,0
0.7108189840000705,-0.354341845703125,-9.655815295410155,1.3120225097656248,0,0,0,0
0.7119104020002851,-0.29927520751953124,-9.634267480468749,1.3646949462890625,0,0,0,0
0.7129978200000551,-0.181959326171875,-9.665392102050781,1.3048399047851562,0,0,0,0
0.7141707750001842,-0.2657563842773437,-9.643844287109374,1.2473790649414063,0,0,0,0
0.7156280980002521,-0.316034619140625,-9.689334118652344,1.2282254516601563,0,0,0,0
0.7167462010002055,-0.3399766357421875,-9.658209497070311,1.3311761230468748,0,0,0,0
0.7178336010001658,-0.40462008056640625,-9.655815295410155,1.2713210815429687,0,0,0,0
0.7189209630000732,-0.39743747558593745,-9.65342109375,1.3048399047851562,0,0,0,0
0.7201070480000453,-0.40462008056640625,-9.665392102050781,1.3311761230468748,0,0,0,0
0.7214152240003386,-0.3495534423828125,-9.643844287109374,1.2952630981445312,0,0,0,0
0.722510419000173,-0.28969840087890625,-9.631873278808593,1.3263877197265623,0,0,0,0
0.7236071150000498,-0.3136404174804687,-9.610325463867188,1.350329736328125,0,0,0,0
0.7250939010000366,-0.2609679809570312,-9.660603698730467,1.3215993164062498,0,0,0,0
0.7262176340000224,-0.2920926025390625,-9.622296472167967,1.3120225097656248,0,0,0,0
0.7273235710003974,-0.28012159423828126,-9.658209497070311,1.3527239379882812,0,0,0,0
0.7284546370001408,-0.3232172241210937,-9.718064538574218,1.2401964599609374,0,0,0,0
0.7296134990001519,-0.3687070556640625,-9.682151513671874,1.3120225097656248,0,0,0,0
0.7310634330001449,-0.43574470214843747,-9.658209497070311,1.2401964599609374,0,0,0,0
0.732160851000117,-0.3280056274414062,-9.651026892089844,1.3287819213867187,0,0,0,0
0.7332450470003096,-0.3495534423828125,-9.65342109375,1.2378022583007813,0,0,0,0
0.7343318910002381,-0.39983167724609375,-9.612719665527344,1.2114660400390624,0,0,0,0
0.7355004020000706,-0.38307226562499996,-9.595960253906249,1.350329736328125,0,0,0,0
0.7369214469999861,-0.2753331909179687,-9.636661682128906,1.2808978881835937,0,0,0,0
0.7381416980001632,-0.2561795776367187,-9.674968908691406,1.3144167114257812,0,0,0,0
0.7397586120000597,-0.30885201416015623,-9.801861596679688,1.3239935180664062,0,0,0,0
0.7410466030000862,-0.33758243408203126,-9.713276135253906,1.2641384765625,0,0,0,0
0.7426896470001338,-0.3687070556640625,-9.763554370117188,1.2593500732421874,0,0,0,0
0.7439386010000817,-0.38786066894531246,-9.581595043945311,1.3096283081054687,0,0,0,0
0.7455649780004023,-0.373495458984375,-9.617508068847656,1.2928688964843749,0,0,0,0
0.7479942570003004,-0.22505495605468748,-9.677363110351562,1.2521674682617188,0,0,0,0
0.7507746450000923,-0.38307226562499996,-9.727641345214844,1.2880804931640624,0,0,0,0
0.753044740000405,-0.3687070556640625,-9.679757312011718,1.2928688964843749,0,0,0,0
0.7549345050001648,-0.32561142578124996,-9.670180505371093,1.2808978881835937,0,0,0,0
0.7571406000001843,-0.3399766357421875,-9.636661682128906,1.2880804931640624,0,0,0,0
0.7588856250004028,-0.28730419921875,-9.593566052246093,1.3575123413085937,0,0,0,0
0.7602007450000201,-0.3495534423828125,-9.622296472167967,1.2425906616210938,0,0,0,0
0.761336052000388,-0.30885201416015623,-9.636661682128906,1.22583125,0,0,0,0
0.7624120630002835,-0.316034619140625,-9.655815295410155,1.254561669921875,0,0,0,0
0.76348805500038,-0.296881005859375,-9.718064538574218,1.2952630981445312,0,0,0,0
0.7646416210000098,-0.3687070556640625,-9.74200655517578,1.3096283081054687,0,0,0,0
0.7659496119999858,-0.36152445068359373,-9.68454571533203,1.3742717529296875,0,0,0,0
0.7671205480000935,-0.3591302490234375,-9.617508068847656,1.350329736328125,0,0,0,0
0.7681975960003911,-0.30885201416015623,-9.591171850585937,1.3479355346679687,0,0,0,0
0.769264922000275,-0.29448680419921874,-9.588777648925781,1.350329736328125,0,0,0,0
0.7703989139999976,-0.36631285400390623,-9.639055883789062,1.3311761230468748,0,0,0,0
0.7717251630001556,-0.32561142578124996,-9.543287817382812,1.3431471313476562,0,0,0,0
0.7728148590003912,-0.3184288208007812,-9.641450085449218,1.3215993164062498,0,0,0,0
0.7738976670002558,-0.28969840087890625,-9.70369932861328,1.3646949462890625,0,0,0,0
0.7749745850001091,-0.17956512451171874,-9.701305126953125,1.2665326782226562,0,0,0,0
0.7761558730003344,-0.34237083740234375,-9.713276135253906,1.2952630981445312,0,0,0,0
0.7774397709999903,-0.3447650390625,-9.686939916992188,1.2593500732421874,0,0,0,0
0.7787910209999609,-0.3687070556640625,-9.677363110351562,1.254561669921875,0,0,0,0
0.7799756050003452,-0.38786066894531246,-9.619902270507811,1.2378022583007813,0,0,0,0
0.7811520410000412,-0.36631285400390623,-9.641450085449218,1.2401964599609374,0,0,0,0
0.7823300330001075,-0.33039982910156246,-9.576806640625,1.2713210815429687,0,0,0,0
0.7835927090000041,-0.316034619140625,-9.603142858886718,1.3335703247070312,0,0,0,0
0.7848974220000855,-0.2657563842773437,-9.641450085449218,1.3407529296874998,0,0,0,0
0.7860599140003615,-0.28012159423828126,-9.686939916992188,1.2928688964843749,0,0,0,0
0.787221479999971,-0.30406361083984373,-9.660603698730467,1.2737152832031249,0,0,0,0
0.7884908040000482,-0.3184288208007812,-9.6917283203125,1.3287819213867187,0,0,0,0
0.7898058870000568,-0.3447650390625,-9.610325463867188,1.2928688964843749,0,0,0,0
0.7909905080000499,-0.35673604736328124,-9.639055883789062,1.3048399047851562,0,0,0,0
0.7921713700002329,-0.36152445068359373,-9.64623848876953,1.3455413330078123,0,0,0,0
0.7933728620000693,-0.3591302490234375,-9.643844287109374,1.3000515014648437,0,0,0,0
0.7946392970002307,-0.30406361083984373,-9.651026892089844,1.2976572998046874,0,0,0,0
0.795957362000081,-0.24660277099609373,-9.634267480468749,1.3000515014648437,0,0,0,0
0.7971202240000821,-0.2705447875976562,-9.605537060546874,1.3359645263671873,0,0,0,0
0.7982808270003261,-0.3016694091796875,-9.624690673828125,1.3838485595703125,0,0,0,0
0.7995517440003823,-0.32082302246093747,-9.746794958496093,1.2737152832031249,0,0,0,0
0.8010352710002735,-0.35194764404296874,-9.677363110351562,1.2928688964843749,0,0,0,0
0.8022227810001823,-0.35673604736328124,-9.6917283203125,1.2904746948242187,0,0,0,0
0.8035891970002922,-0.3758896606445312,-9.619902270507811,1.37906015625,0,0,0,0
0.8048499840001568,-0.38786066894531246,-9.619902270507811,1.2473790649414063,0,0,0,0
0.8065619910003079,-0.2657563842773437,-9.631873278808593,1.2617442749023438,0,0,0,0
0.8079334070002915,-0.16041151123046873,-9.600748657226562,1.3072341064453123,0,0,0,0
0.8095434510000814,-0.2920926025390625,-9.65342109375,1.3766659545898436,0,0,0,0
0.8108258860002024,-0.36391865234375,-9.718064538574218,1.2593500732421874,0,0,0,0
0.8122200430002522,-0.3447650390625,-9.68454571533203,1.2521674682617188,0,0,0,0
0.8133850160002112,-0.3806780639648437,-9.672574707031249,1.3024457031249999,0,0,0,0
0.8145458970002437,-0.37828386230468747,-9.674968908691406,1.3215993164062498,0,0,0,0
0.8157886480003071,-0.3232172241210937,-9.643844287109374,1.2785036865234374,0,0,0,0
0.8172625629999857,-0.3280056274414062,-9.579200842285156,1.254561669921875,0,0,0,0
0.8184324810004,-0.24660277099609373,-9.610325463867188,1.3311761230468748,0,0,0,0
0.8196072130003813,-0.296881005859375,-9.639055883789062,1.37906015625,0,0,0,0
0.8211604060002173,-0.3112462158203125,-9.749189160156249,1.3527239379882812,0,0,0,0
0.8225426369999695,-0.3591302490234375,-9.68454571533203,1.2904746948242187,0,0,0,0
0.8237465360002716,-0.34715924072265625,-9.6917283203125,1.3024457031249999,0,0,0,0
0.8249423790002766,-0.411802685546875,-9.708487731933593,1.254561669921875,0,0,0,0
0.826205759000004,-0.39743747558593745,-9.651026892089844,1.2785036865234374,0,0,0,0
0.8275736200002939,-0.30885201416015623,-9.60793126220703,1.2904746948242187,0,0,0,0
0.8287518890001593,-0.28730419921875,-9.636661682128906,1.2641384765625,0,0,0,0
0.8299224920001507,-0.26336218261718747,-9.619902270507811,1.254561669921875,0,0,0,0
0.8311695760003204,-0.3064578125,-9.595960253906249,1.2473790649414063,0,0,0,0
0.8331035989999691,-0.33758243408203126,-9.706093530273437,1.3335703247070312,0,0,0,0
0.8348538270001882,-0.36152445068359373,-9.732429748535155,1.35990654296875,0,0,0,0
0.8368846460002715,-0.43574470214843747,-9.670180505371093,1.2641384765625,0,0,0,0
0.8382341180004005,-0.4381389038085937,-9.624690673828125,1.2904746948242187,0,0,0,0
0.8398323660003371,-0.4572925170898437,-9.579200842285156,1.350329736328125,0,0,0,0
0.8420251840002493,-0.28969840087890625,-9.576806640625,1.2425906616210938,0,0,0,0
0.8435690060000525,-0.239420166015625,-9.593566052246093,1.235408056640625,0,0,0,0
0.8452067350003745,-0.29927520751953124,-9.64623848876953,1.2785036865234374,0,0,0,0
0.8468968160000259,-0.16998831787109375,-9.730035546875,1.2856862915039062,0,0,0,0
0.8480997890001163,-0.39264907226562495,-9.698910925292969,1.2018892333984375,0,0,0,0
0.8492677809999805,-0.3687070556640625,-9.655815295410155,1.2497732666015624,0,0,0,0
0.8508793060000244,-0.44532150878906246,-9.665392102050781,1.209071838378906,0,0,0,0
0.8521420199999739,-0.3399766357421875,-9.6151138671875,1.1851298217773436,0,0,0,0
0.8533263630001784,-0.2920926025390625,-9.574412438964844,1.2521674682617188,0,0,0,0
0.8544174110002132,-0.2561795776367187,-9.627084875488281,1.24498486328125,0,0,0,0
0.8560173810001288,-0.29927520751953124,-9.639055883789062,1.3192051147460937,0,0,0,0
0.8571796690002884,-0.28969840087890625,-9.674968908691406,1.2569558715820313,0,0,0,0
0.8582696610001221,-0.34237083740234375,-9.674968908691406,1.2761094848632812,0,0,0,0
0.8593615800000407,-0.35673604736328124,-9.667786303710937,1.254561669921875,0,0,0,0
0.86094425400006,-0.3902548706054687,-9.636661682128906,1.3527239379882812,0,0,0,0
0.8648189670002466,-0.40940848388671874,-9.648632690429688,1.2880804931640624,0,0,0,0
0.8660496060001606,-0.23702596435546874,-9.627084875488281,1.24498486328125,0,0,0,0
0.867375653000181,-0.3064578125,-9.60793126220703,1.2641384765625,0,0,0,0
0.8687360870003431,-0.3232172241210937,-9.718064538574218,1.2425906616210938,0,0,0,0
0.8705845000004047,-0.33758243408203126,-9.70369932861328,1.2378022583007813,0,0,0,0
0.8721217300003445,-0.35673604736328124,-9.648632690429688,1.218648645019531,0,0,0,0
0.8734424240001317,-0.36391865234375,-9.662997900390625,1.4006079711914061,0,0,0,0
0.8747582850000981,-0.40222587890625,-9.622296472167967,1.3024457031249999,0,0,0,0
0.8761117200001536,-0.277727392578125,-9.56962403564453,1.2665326782226562,0,0,0,0
0.8781327990000136,-0.2825157958984375,-9.64623848876953,1.2785036865234374,0,0,0,0
0.879521233000105,-0.28730419921875,-9.672574707031249,1.2785036865234374,0,0,0,0
0.8808211310001752,-0.354341845703125,-9.74200655517578,1.2737152832031249,0,0,0,0
0.8825327120002839,-0.3447650390625,-9.732429748535155,1.2617442749023438,0,0,0,0
0.884292736000134,-0.3591302490234375,-9.689334118652344,1.3287819213867187,0,0,0,0
0.8856045970001105,-0.3136404174804687,-9.634267480468749,1.3048399047851562,0,0,0,0
0.8875828980003462,-0.27293898925781246,-9.624690673828125,1.2713210815429687,0,0,0,0
0.8889561850000973,-0.28012159423828126,-9.674968908691406,1.2569558715820313,0,0,0,0
0.890390323000247,-0.2753331909179687,-9.603142858886718,1.2306196533203124,0,0,0,0
0.8916128509999908,-0.2753331909179687,-9.591171850585937,1.2042834350585936,0,0,0,0
0.8927588060000744,-0.3327940307617187,-9.70369932861328,1.1851298217773436,0,0,0,0
0.893881631000113,-0.44053310546874996,-9.6917283203125,1.3024457031249999,0,0,0,0
0.8951807890002783,-0.3806780639648437,-9.670180505371093,1.369483349609375,0,0,0,0
0.896546853000018,-0.4165910888671875,-9.667786303710937,1.2832920898437499,0,0,0,0
0.8977357890003077,-0.4070142822265625,-9.612719665527344,1.2785036865234374,0,0,0,0
0.8988670590001675,-0.30885201416015623,-9.593566052246093,1.3431471313476562,0,0,0,0
0.9001932529999976,-0.239420166015625,-9.583989245605467,1.2761094848632812,0,0,0,0
0.9015754470001411,-0.28012159423828126,-9.622296472167967,1.3215993164062498,0,0,0,0
0.9027925499999583,-0.3902548706054687,-9.730035546875,1.350329736328125,0,0,0,0
0.9039901710002596,-0.3112462158203125,-9.74200655517578,1.2952630981445312,0,0,0,0
0.9051943290000963,-0.37828386230468747,-9.734823950195311,1.20667763671875,0,0,0,0
0.9064076540003043,-0.39743747558593745,-9.708487731933593,1.3311761230468748,0,0,0,0
0.907760311000402,-0.44053310546874996,-9.658209497070311,1.3838485595703125,0,0,0,0
0.9092054300003838,-0.354341845703125,-9.660603698730467,1.2976572998046874,0,0,0,0
0.9104024770003889,-0.30406361083984373,-9.622296472167967,1.3192051147460937,0,0,0,0
0.9116316910003661,-0.316034619140625,-9.622296472167967,1.2785036865234374,0,0,0,0
0.9129673850002291,-0.277727392578125,-9.708487731933593,1.218648645019531,0,0,0,0
0.9144661340001221,-0.277727392578125,-9.662997900390625,1.2880804931640624,0,0,0,0
0.9156618660003915,-0.27293898925781246,-9.696516723632811,1.2497732666015624,0,0,0,0
0.9168307100003403,-0.38307226562499996,-9.682151513671874,1.2856862915039062,0,0,0,0
0.9181014970004071,-0.39264907226562495,-9.662997900390625,1.2306196533203124,0,0,0,0
0.919461376000072,-0.4333505004882812,-9.64623848876953,1.3263877197265623,0,0,0,0
0.9206779790001747,-0.38307226562499996,-9.624690673828125,1.2593500732421874,0,0,0,0
0.9218980069999816,-0.3327940307617187,-9.662997900390625,1.2521674682617188,0,0,0,0
0.9231134240003485,-0.35673604736328124,-9.622296472167967,1.2880804931640624,0,0,0,0
0.92428523100034,-0.26336218261718747,-9.624690673828125,1.2401964599609374,0,0,0,0
0.9255878880003365,-0.30885201416015623,-9.634267480468749,1.3359645263671873,0,0,0,0
0.9269637300003524,-0.2920926025390625,-9.674968908691406,1.2904746948242187,0,0,0,0
0.9282290549999743,-0.2920926025390625,-9.715670336914062,1.3000515014648437,0,0,0,0
0.9294171200003802,-0.4070142822265625,-9.677363110351562,1.3192051147460937,0,0,0,0
0.9305120020003415,-0.411802685546875,-9.710881933593749,1.24498486328125,0,0,0,0
0.9318173070000739,-0.3854664672851562,-9.600748657226562,1.235408056640625,0,0,0,0
0.9332174450000821,-0.29448680419921874,-9.667786303710937,1.3096283081054687,0,0,0,0
0.9343014559999574,-0.3399766357421875,-9.655815295410155,1.2617442749023438,0,0,0,0
0.9354402260000825,-0.3399766357421875,-9.622296472167967,1.2761094848632812,0,0,0,0
0.9367481240001325,-0.28012159423828126,-9.622296472167967,1.3263877197265623,0,0,0,0
0.9382093910003277,-0.25139117431640623,-9.667786303710937,1.3359645263671873,0,0,0,0
0.9394992710003862,-0.3016694091796875,-9.730035546875,1.2641384765625,0,0,0,0
0.9407459660001223,-0.39983167724609375,-9.708487731933593,1.2928688964843749,0,0,0,0
0.9420187720002104,-0.3711012573242187,-9.696516723632811,1.2856862915039062,0,0,0,0
0.9431384310000794,-0.37828386230468747,-9.660603698730467,1.2737152832031249,0,0,0,0
0.9442211079999652,-0.3806780639648437,-9.679757312011718,1.2234370483398436,0,0,0,0
0.9452929150002092,-0.29927520751953124,-9.667786303710937,1.350329736328125,0,0,0,0
0.9465018140003849,-0.2657563842773437,-9.586383447265625,1.2737152832031249,0,0,0,0
0.9476897130002726,-0.258573779296875,-9.629479077148437,1.37906015625,0,0,0,0
0.9487702979999995,-0.3016694091796875,-9.610325463867188,1.2976572998046874,0,0,0,0
0.9498417350000636,-0.277727392578125,-9.639055883789062,1.2330138549804688,0,0,0,0
0.9509121350001806,-0.28012159423828126,-9.713276135253906,1.2665326782226562,0,0,0,0
0.9521515520000321,-0.3591302490234375,-9.696516723632811,1.2401964599609374,0,0,0,0
0.9533140440003081,-0.36631285400390623,-9.713276135253906,1.2904746948242187,0,0,0,0
0.9543905550003728,-0.39743747558593745,-9.677363110351562,1.2928688964843749,0,0,0,0
0.9555441760003305,-0.40462008056640625,-9.56962403564453,1.4030021728515625,0,0,0,0
0.9567861300001823,-0.354341845703125,-9.600748657226562,1.4508862060546874,0,0,0,0
0.9578903260003244,-0.32561142578124996,-9.524134204101562,1.3144167114257812,0,0,0,0
0.958956911000314,-0.2442085693359375,-9.593566052246093,1.216254443359375,0,0,0,0
0.9600760880002781,-0.258573779296875,-9.68454571533203,1.2282254516601563,0,0,0,0
0.9611658030003127,-0.3280056274414062,-9.686939916992188,1.2737152832031249,0,0,0,0
0.962399516000005,-0.3136404174804687,-9.674968908691406,1.2593500732421874,0,0,0,0
0.9635690080003769,-0.33518823242187495,-9.514557397460937,1.3024457031249999,0,0,0,0
0.9646625740001582,-0.32082302246093747,-9.746794958496093,1.35990654296875,0,0,0,0
0.9657463630001075,-0.3447650390625,-9.725247143554688,1.2785036865234374,0,0,0,0
0.9668303739999828,-0.38786066894531246,-9.689334118652344,1.2785036865234374,0,0,0,0
0.9680749950002792,-0.3232172241210937,-9.610325463867188,1.2641384765625,0,0,0,0
0.9692532460003349,-0.35194764404296874,-9.598354455566406,1.3239935180664062,0,0,0,0
0.9703476820000105,-0.3232172241210937,-9.581595043945311,1.2641384765625,0,0,0,0
0.9715908220000529,-0.32082302246093747,-9.665392102050781,1.3311761230468748,0,0,0,0
0.9728803310003968,-0.2609679809570312,-9.627084875488281,1.2569558715820313,0,0,0,0
0.9742964880001637,-0.229843359375,-9.70369932861328,1.2641384765625,0,0,0,0
0.9756498670003566,-0.26815058593749996,-9.639055883789062,1.3096283081054687,0,0,0,0
0.9768157850003263,-0.3758896606445312,-9.667786303710937,1.2832920898437499,0,0,0,0
0.9781485530002101,-0.3806780639648437,-9.708487731933593,1.2737152832031249,0,0,0,0
0.9793987110001581,-0.38786066894531246,-9.610325463867188,1.3862427612304686,0,0,0,0
0.9805382030003784,-0.2920926025390625,-9.56962403564453,1.3096283081054687,0,0,0,0
0.9816315100001702,-0.36152445068359373,-9.516951599121093,1.3000515014648437,0,0,0,0
0.9827139100002569,-0.28012159423828126,-9.576806640625,1.2928688964843749,0,0,0,0
0.9838087170001018,-0.3064578125,-9.651026892089844,1.254561669921875,0,0,0,0
0.9850436710003123,-0.277727392578125,-9.651026892089844,1.199495031738281,0,0,0,0
0.9862052000003132,-0.28969840087890625,-9.660603698730467,1.2138602416992186,0,0,0,0
0.9873634690002291,-0.2825157958984375,-9.713276135253906,1.2785036865234374,0,0,0,0
0.98874803300032,-0.354341845703125,-9.667786303710937,1.3120225097656248,0,0,0,0
0.9899813209999593,-0.3806780639648437,-9.65342109375,1.2521674682617188,0,0,0,0
0.9914227550002579,-0.33518823242187495,-9.634267480468749,1.3575123413085937,0,0,0,0
0.992543840000053,-0.30885201416015623,-9.763554370117188,1.3192051147460937,0,0,0,0
0.9936288880003303,-0.33758243408203126,-9.543287817382812,1.2904746948242187,0,0,0,0
0.9947213240002384,-0.28969840087890625,-9.598354455566406,1.2378022583007813,0,0,0,0
0.9958926680001241,-0.2825157958984375,-9.605537060546874,1.2018892333984375,0,0,0,0
0.9971702890002234,-0.26336218261718747,-9.660603698730467,1.197100830078125,0,0,0,0
0.9982631330003642,-0.28490999755859375,-9.744400756835937,1.2593500732421874,0,0,0,0
0.9993582730003254,-0.3184288208007812,-9.718064538574218,1.2306196533203124,0,0,0,0
1.0005173570002626,-0.32561142578124996,-9.512163195800781,1.2569558715820313,0,0,0,0
1.0017582010000297,-0.3232172241210937,-9.634267480468749,1.1707646118164061,0,0,0,0
1.0028522300003715,-0.3758896606445312,-9.624690673828125,1.2234370483398436,0,0,0,0
1.0039513520000583,-0.354341845703125,-9.6151138671875,1.3455413330078123,0,0,0,0
1.0050522139999885,-0.3399766357421875,-9.617508068847656,1.3575123413085937,0,0,0,0
1.006223539000075,-0.32082302246093747,-9.624690673828125,1.3527239379882812,0,0,0,0
1.007471956000245,-0.28730419921875,-9.651026892089844,1.2832920898437499,0,0,0,0
1.0085623750001105,-0.2825157958984375,-9.662997900390625,1.2210428466796874,0,0,0,0
1.0096464410003136,-0.30885201416015623,-9.696516723632811,1.2904746948242187,0,0,0,0
1.010730599999988,-0.28012159423828126,-9.749189160156249,1.2473790649414063,0,0,0,0
1.0118166480001491,-0.2537853759765625,-9.76116016845703,1.1755530151367186,0,0,0,0
1.0129763250001815,-0.3591302490234375,-9.670180505371093,1.1516109985351561,0,0,0,0
1.0142187420001392,-0.3854664672851562,-9.629479077148437,1.3096283081054687,0,0,0,0
1.0153404190000401,-0.36631285400390623,-9.636661682128906,1.35990654296875,0,0,0,0
1.0164281710003706,-0.316034619140625,-9.605537060546874,1.2593500732421874,0,0,0,0
1.017588218000128,-0.32561142578124996,-9.617508068847656,1.2521674682617188,0,0,0,0
1.0188480420001724,-0.3016694091796875,-9.686939916992188,1.2737152832031249,0,0,0,0
1.019958330999998,-0.2705447875976562,-9.670180505371093,1.3263877197265623,0,0,0,0
1.0210427120000531,-0.33518823242187495,-9.706093530273437,1.2952630981445312,0,0,0,0
1.022164167000028,-0.3687070556640625,-9.725247143554688,1.2737152832031249,0,0,0,0
1.0233578620000117,-0.33518823242187495,-9.6917283203125,1.3215993164062498,0,0,0,0
1.0246271680002792,-0.354341845703125,-9.696516723632811,1.3048399047851562,0,0,0,0
1.0257220309999866,-0.41898529052734373,-9.631873278808593,1.3407529296874998,0,0,0,0
1.0268078379999679,-0.33518823242187495,-9.627084875488281,1.2593500732421874,0,0,0,0
1.0278974600000765,-0.3806780639648437,-9.588777648925781,1.2856862915039062,0,0,0,0
1.0289824520000366,-0.3184288208007812,-9.593566052246093,1.3455413330078123,0,0,0,0
1.0301601850001134,-0.239420166015625,-9.598354455566406,1.2713210815429687,0,0,0,0
1.0314744900001642,-0.296881005859375,-9.617508068847656,1.3000515014648437,0,0,0,0
1.0326010010003301,-0.30406361083984373,-9.689334118652344,1.2904746948242187,0,0,0,0
1.033690697000111,-0.33758243408203126,-9.739612353515625,1.3024457031249999,0,0,0,0
1.034777707000103,-0.4429273071289062,-9.710881933593749,1.3215993164062498,0,0,0,0
1.0361055870002929,-0.3758896606445312,-9.658209497070311,1.3239935180664062,0,0,0,0
1.0373851330000434,-0.43574470214843747,-9.634267480468749,1.2713210815429687,0,0,0,0
1.0384626810000555,-0.40222587890625,-9.634267480468749,1.2856862915039062,0,0,0,0
1.0395467110001846,-0.3399766357421875,-9.629479077148437,1.2689268798828124,0,0,0,0
1.0411789210002098,-0.28490999755859375,-9.643844287109374,1.2497732666015624,0,0,0,0
1.0426319480002348,-0.2825157958984375,-9.619902270507811,1.3048399047851562,0,0,0,0
1.0437321250001332,-0.28490999755859375,-9.624690673828125,1.3527239379882812,0,0,0,0
1.0448189140001887,-0.1771709228515625,-9.655815295410155,1.3742717529296875,0,0,0,0
1.0460005910003929,-0.3280056274414062,-9.665392102050781,1.3263877197265623,0,0,0,0
1.0472817300001225,-0.38307226562499996,-9.634267480468749,1.3168109130859373,0,0,0,0
1.048909107000327,-0.34715924072265625,-9.682151513671874,1.3479355346679687,0,0,0,0
1.05000600700032,-0.3016694091796875,-9.605537060546874,1.3407529296874998,0,0,0,0
1.0511764620000577,-0.316034619140625,-9.622296472167967,1.4245499877929686,0,0,0,0
1.052424082000016,-0.35194764404296874,-9.622296472167967,1.2976572998046874,0,0,0,0
1.053516908000347,-0.28012159423828126,-9.550470422363281,1.2617442749023438,0,0,0,0
1.0546019370003705,-0.2657563842773437,-9.634267480468749,1.1851298217773436,0,0,0,0
1.0564287020001757,-0.28730419921875,-9.713276135253906,1.2282254516601563,0,0,0,0
1.0578986919999807,-0.430956298828125,-9.730035546875,1.3623007446289062,0,0,0,0
1.0590261100001044,-0.41419688720703124,-9.674968908691406,1.3072341064453123,0,0,0,0
1.060121435000383,-0.33758243408203126,-9.629479077148437,1.2569558715820313,0,0,0,0
1.0612101130000156,-0.3687070556640625,-9.643844287109374,1.3048399047851562,0,0,0,0
1.06240766000019,-0.3184288208007812,-9.622296472167967,1.2641384765625,0,0,0,0
1.0638218349999988,-0.33039982910156246,-9.595960253906249,1.2210428466796874,0,0,0,0
1.064922346000003,-0.32561142578124996,-9.627084875488281,1.2042834350585936,0,0,0,0
1.0660082450003756,-0.3280056274414062,-9.667786303710937,1.2617442749023438,0,0,0,0
1.06710608900039,-0.239420166015625,-9.660603698730467,1.2569558715820313,0,0,0,0
1.0682943030001297,-0.2657563842773437,-9.624690673828125,1.3407529296874998,0,0,0,0
1.0695048689999567,-0.3016694091796875,-9.70369932861328,1.2569558715820313,0,0,0,0
1.0705961940002453,-0.3758896606445312,-9.68454571533203,1.2952630981445312,0,0,0,0
1.0716862420003963,-0.3112462158203125,-9.70369932861328,1.2952630981445312,0,0,0,0
1.0727719200003776,-0.4525041137695312,-9.648632690429688,1.2832920898437499,0,0,0,0
1.0739283190000606,-0.354341845703125,-9.648632690429688,1.2880804931640624,0,0,0,0
1.0751590510003552,-0.35673604736328124,-9.605537060546874,1.2737152832031249,0,0,0,0
1.0762555620003695,-0.3399766357421875,-9.591171850585937,1.2785036865234374,0,0,0,0
1.0773436839999704,-0.2609679809570312,-9.665392102050781,1.2713210815429687,0,0,0,0
1.0785043420000875,-0.2753331909179687,-9.665392102050781,1.2880804931640624,0,0,0,0
1.0797281479999583,-0.20829554443359374,-9.6151138671875,1.2665326782226562,0,0,0,0
1.0808074920000763,-0.3806780639648437,-9.665392102050781,1.3479355346679687,0,0,0,0
1.0818793370003732,-0.41898529052734373,-9.763554370117188,1.3623007446289062,0,0,0,0
1.0829477550000774,-0.40462008056640625,-9.74200655517578,1.3263877197265623,0,0,0,0
1.0841252100003658,-0.40222587890625,-9.670180505371093,1.24498486328125,0,0,0,0
1.0855119780003406,-0.35673604736328124,-9.555258825683593,1.3168109130859373,0,0,0,0
1.0866256180001983,-0.34715924072265625,-9.598354455566406,1.2114660400390624,0,0,0,0
1.0877206290001595,-0.45010991210937495,-9.600748657226562,1.216254443359375,0,0,0,0
1.0888063800002783,-0.3064578125,-9.648632690429688,1.2330138549804688,0,0,0,0
1.0899651680001625,-0.3136404174804687,-9.639055883789062,1.3096283081054687,0,0,0,0
1.0912781960000757,-0.2657563842773437,-9.662997900390625,1.3359645263671873,0,0,0,0
1.0923732440001004,-0.27293898925781246,-9.753977563476562,1.3287819213867187,0,0,0,0
1.0934622730001138,-0.3447650390625,-9.665392102050781,1.235408056640625,0,0,0,0
1.0949168920001284,-0.411802685546875,-9.689334118652344,1.2114660400390624,0,0,0,0
1.0962471050002023,-0.39264907226562495,-9.701305126953125,1.2785036865234374,0,0,0,0
1.097342375000153,-0.3711012573242187,-9.634267480468749,1.3072341064453123,0,0,0,0
1.0984998120002274,-0.3064578125,-9.593566052246093,1.2737152832031249,0,0,0,0
1.1002417810000225,-0.30406361083984373,-9.605537060546874,1.3766659545898436,0,0,0,0
1.1013651800003572,-0.2657563842773437,-9.612719665527344,1.2425906616210938,0,0,0,0
1.102453061000233,-0.2705447875976562,-9.588777648925781,1.3311761230468748,0,0,0,0
1.1035579240001425,-0.36631285400390623,-9.639055883789062,1.3096283081054687,0,0,0,0
1.1046404530002292,-0.3280056274414062,-9.631873278808593,1.35990654296875,0,0,0,0
1.1057230569999774,-0.40222587890625,-9.710881933593749,1.3168109130859373,0,0,0,0
1.1069042700000864,-0.40462008056640625,-9.682151513671874,1.3120225097656248,0,0,0,0
1.1081470950002767,-0.373495458984375,-9.639055883789062,1.2880804931640624,0,0,0,0
1.1093366980003339,-0.36631285400390623,-9.6151138671875,1.2114660400390624,0,0,0,0
1.1104296339999564,-0.3447650390625,-9.560047229003906,1.2832920898437499,0,0,0,0
1.111682922,-0.3806780639648437,-9.581595043945311,1.3048399047851562,0,0,0,0
1.1129334310003287,-0.29927520751953124,-9.627084875488281,1.3000515014648437,0,0,0,0
1.1166075350001847,-0.3758896606445312,-9.689334118652344,1.235408056640625,0,0,0,0
1.1184235590003482,-0.3447650390625,-9.68454571533203,1.3096283081054687,0,0,0,0
1.1199293260001468,-0.3232172241210937,-9.651026892089844,1.3455413330078123,0,0,0,0
1.1219706450001468,-0.35194764404296874,-9.605537060546874,1.3168109130859373,0,0,0,0
1.1237472810003055,-0.24899697265624998,-9.560047229003906,1.2497732666015624,0,0,0,0
1.1256571560002158,-0.2561795776367187,-9.679757312011718,1.3646949462890625,0,0,0,0
1.1288487630004056,-0.35673604736328124,-9.715670336914062,1.2497732666015624,0,0,0,0
1.1305592880003132,-0.41898529052734373,-9.631873278808593,1.2473790649414063,0,0,0,0
1.1320705000002818,-0.3806780639648437,-9.574412438964844,1.216254443359375,0,0,0,0
1.133943857000304,-0.277727392578125,-9.631873278808593,1.2593500732421874,0,0,0,0
1.135353717000271,-0.2825157958984375,-9.583989245605467,1.2832920898437499,0,0,0,0
1.136462154000128,-0.32082302246093747,-9.622296472167967,1.2425906616210938,0,0,0,0
1.1375474980000035,-0.30885201416015623,-9.670180505371093,1.2569558715820313,0,0,0,0
1.1386339160003445,-0.26815058593749996,-9.658209497070311,1.2569558715820313,0,0,0,0
1.1400953690003917,-0.3806780639648437,-9.694122521972655,1.20667763671875,0,0,0,0
1.1415698030000385,-0.4429273071289062,-9.674968908691406,1.209071838378906,0,0,0,0
1.1426617760002955,-0.3950432739257812,-9.689334118652344,1.3359645263671873,0,0,0,0
1.143753695000214,-0.4429273071289062,-9.610325463867188,1.2880804931640624,0,0,0,0
1.1455252560003828,-0.3711012573242187,-9.557653027343749,1.2785036865234374,0,0,0,0
1.1466953400004058,-0.4572925170898437,-9.622296472167967,1.2641384765625,0,0,0,0
1.1477824810003767,-0.28012159423828126,-9.708487731933593,1.3096283081054687,0,0,0,0
1.1488553809999758,-0.33039982910156246,-9.655815295410155,1.2521674682617188,0,0,0,0
1.1505972390000352,-0.3687070556640625,-9.737218151855469,1.2641384765625,0,0,0,0
1.151784508000219,-0.28012159423828126,-9.674968908691406,1.20667763671875,0,0,0,0
1.1528743339999892,-0.28012159423828126,-9.734823950195311,1.3000515014648437,0,0,0,0
1.153961067000182,-0.37828386230468747,-9.701305126953125,1.3024457031249999,0,0,0,0
1.1557216840001274,-0.3447650390625,-9.643844287109374,1.2880804931640624,0,0,0,0
1.1568717130003279,-0.33039982910156246,-9.651026892089844,1.350329736328125,0,0,0,0
1.157960538000225,-0.3232172241210937,-9.660603698730467,1.388636962890625,0,0,0,0
1.1590676230002828,-0.3184288208007812,-9.5384994140625,1.2138602416992186,0,0,0,0
1.161008239000239,-0.2920926025390625,-9.696516723632811,1.3048399047851562,0,0,0,0
1.1621949530003803,-0.27293898925781246,-9.665392102050781,1.3263877197265623,0,0,0,0
1.163310851999995,-0.3447650390625,-9.64623848876953,1.2401964599609374,0,0,0,0
1.1643969000001562,-0.3399766357421875,-9.718064538574218,1.3239935180664062,0,0,0,0
1.1659929630000079,-0.39743747558593745,-9.698910925292969,1.3215993164062498,0,0,0,0
1.167157103000136,-0.354341845703125,-9.627084875488281,1.2617442749023438,0,0,0,0
1.1683050020001247,-0.28730419921875,-9.624690673828125,1.3096283081054687,0,0,0,0
1.169397606000075,-0.32082302246093747,-9.622296472167967,1.3359645263671873,0,0,0,0
1.171016353000141,-0.277727392578125,-9.674968908691406,1.2952630981445312,0,0,0,0
1.1722138260001884,-0.28730419921875,-9.715670336914062,1.3335703247070312,0,0,0,0
1.173305948000234,-0.2657563842773437,-9.651026892089844,1.2665326782226562,0,0,0,0
1.174393904000226,-0.3280056274414062,-9.74200655517578,1.209071838378906,0,0,0,0
1.1764275000000453,-0.39743747558593745,-9.706093530273437,1.2617442749023438,0,0,0,0
1.177600343999984,-0.3854664672851562,-9.631873278808593,1.2306196533203124,0,0,0,0
1.1786912430002303,-0.36631285400390623,-9.598354455566406,1.3024457031249999,0,0,0,0
1.179784791000202,-0.2920926025390625,-9.56962403564453,1.2785036865234374,0,0,0,0
1.1815344640003786,-0.3016694091796875,-9.634267480468749,1.2306196533203124,0,0,0,0
1.1837607820002631,-0.229843359375,-9.655815295410155,1.2521674682617188,0,0,0,0
1.1849145139999564,-0.2920926025390625,-9.715670336914062,1.2713210815429687,0,0,0,0
1.1861592090003796,-0.3064578125,-9.70369932861328,1.3000515014648437,0,0,0,0
1.1873581820000254,-0.35673604736328124,-9.74200655517578,1.2665326782226562,0,0,0,0
1.1884522850000394,-0.354341845703125,-9.80665,1.2330138549804688,0,0,0,0
1.1895293150000725,-0.38786066894531246,-9.629479077148437,1.2952630981445312,0,0,0,0
1.1906079919999684,-0.4381389038085937,-9.619902270507811,1.3024457031249999,0,0,0,0
1.1917016880001938,-0.354341845703125,-9.641450085449218,1.24498486328125,0,0,0,0
1.1928577910002787,-0.3184288208007812,-9.617508068847656,1.2808978881835937,0,0,0,0
1.1940115980000883,-0.258573779296875,-9.622296472167967,1.3335703247070312,0,0,0,0
1.1951051270002608,-0.28969840087890625,-9.622296472167967,1.2497732666015624,0,0,0,0
1.1961901190002209,-0.2825157958984375,-9.636661682128906,1.2761094848632812,0,0,0,0
1.1972737040000538,-0.22744915771484372,-9.720458740234374,1.1707646118164061,0,0,0,0
1.1984250670002439,-0.2825157958984375,-9.76116016845703,1.2737152832031249,0,0,0,0
1.1995834100002867,-0.3950432739257812,-9.696516723632811,1.3575123413085937,0,0,0,0
1.2007676610001,-0.39983167724609375,-9.648632690429688,1.4053963745117186,0,0,0,0
1.201939338000102,-0.4213794921875,-9.610325463867188,1.2761094848632812,0,0,0,0
1.2031061450002198,-0.38786066894531246,-9.56962403564453,1.3455413330078123,0,0,0,0
1.2045920970003863,-0.45010991210937495,-9.564835632324218,1.3024457031249999,0,0,0,0
1.205837755000175,-0.28490999755859375,-9.598354455566406,1.24498486328125,0,0,0,0
1.2070883940000385,-0.3184288208007812,-9.624690673828125,1.2114660400390624,0,0,0,0
1.2082646820003902,-0.2825157958984375,-9.612719665527344,1.3455413330078123,0,0,0,0
1.2094422660002238,-0.32561142578124996,-9.6917283203125,1.3407529296874998,0,0,0,0
1.2106993870002043,-0.3806780639648437,-9.701305126953125,1.3168109130859373,0,0,0,0
1.2119766190003247,-0.3280056274414062,-9.751583361816406,1.2665326782226562,0,0,0,0
1.2131544250000843,-0.3591302490234375,-9.708487731933593,1.2904746948242187,0,0,0,0
1.2144826570001896,-0.3232172241210937,-9.593566052246093,1.2976572998046874,0,0,0,0
1.2157763879999948,-0.29927520751953124,-9.612719665527344,1.2761094848632812,0,0,0,0
1.2170122679999622,-0.3112462158203125,-9.586383447265625,1.3072341064453123,0,0,0,0
1.2181801120000273,-0.3280056274414062,-9.65342109375,1.3670891479492187,0,0,0,0
1.219367863000116,-0.2705447875976562,-9.708487731933593,1.3144167114257812,0,0,0,0
1.2206206500000008,-0.29448680419921874,-9.70369932861328,1.3910311645507811,0,0,0,0
1.2218458270003794,-0.296881005859375,-9.677363110351562,1.3311761230468748,0,0,0,0
1.2230155219999688,-0.34237083740234375,-9.682151513671874,1.3024457031249999,0,0,0,0
1.2244404010002654,-0.3950432739257812,-9.662997900390625,1.3431471313476562,0,0,0,0
1.2256104850002885,-0.3495534423828125,-9.64623848876953,1.3527239379882812,0,0,0,0
1.2269847720003781,-0.29927520751953124,-9.641450085449218,1.2473790649414063,0,0,0,0
1.2280911530001504,-0.3232172241210937,-9.617508068847656,1.2713210815429687,0,0,0,0
1.2291712190003636,-0.277727392578125,-9.600748657226562,1.2497732666015624,0,0,0,0
1.2304365250001865,-0.2442085693359375,-9.672574707031249,1.24498486328125,0,0,0,0
1.2316251280003598,-0.2442085693359375,-9.6917283203125,1.3048399047851562,0,0,0,0
1.2329112669999631,-0.32082302246093747,-9.665392102050781,1.3359645263671873,0,0,0,0
1.2340118520000942,-0.2825157958984375,-9.651026892089844,1.2856862915039062,0,0,0,0
1.2351929730002666,-0.373495458984375,-9.689334118652344,1.2832920898437499,0,0,0,0
1.2363851310001337,-0.4070142822265625,-9.674968908691406,1.3527239379882812,0,0,0,0
1.237510770999961,-0.3687070556640625,-9.605537060546874,1.37906015625,0,0,0,0
1.2385961889999635,-0.34237083740234375,-9.631873278808593,1.2521674682617188,0,0,0,0
1.2400324010000077,-0.3136404174804687,-9.595960253906249,1.2785036865234374,0,0,0,0
1.24136433700005,-0.26815058593749996,-9.516951599121093,1.2856862915039062,0,0,0,0
1.2426567900001828,-0.23702596435546874,-9.65342109375,1.3838485595703125,0,0,0,0
1.2438687820003906,-0.26815058593749996,-9.662997900390625,1.3215993164062498,0,0,0,0
1.2450391990000753,-0.32561142578124996,-9.737218151855469,1.3192051147460937,0,0,0,0
1.2462096360000032,-0.3136404174804687,-9.679757312011718,1.3024457031249999,0,0,0,0
1.2474958490001882,-0.35673604736328124,-9.679757312011718,1.22583125,0,0,0,0
1.248745192000115,-0.4213794921875,-9.651026892089844,1.3670891479492187,0,0,0,0
1.2502642550002747,-0.411802685546875,-9.672574707031249,1.3096283081054687,0,0,0,0
1.252015983000092,-0.29448680419921874,-9.586383447265625,1.2832920898437499,0,0,0,0
1.2543089860000691,-0.3064578125,-9.627084875488281,1.3383587280273437,0,0,0,0
1.2560046030002923,-0.2346317626953125,-9.698910925292969,1.180341418457031,0,0,0,0
1.2591926360000798,-0.411802685546875,-9.710881933593749,1.2401964599609374,0,0,0,0
1.2611382520003644,-0.39264907226562495,-9.674968908691406,1.2928688964843749,0,0,0,0
1.26270901900034,-0.33758243408203126,-9.641450085449218,1.3263877197265623,0,0,0,0
1.2650722430003043,-0.23223756103515625,-9.679757312011718,1.2856862915039062,0,0,0,0
1.2669638770003075,-0.30885201416015623,-9.672574707031249,1.3263877197265623,0,0,0,0
1.2689303260003726,-0.35194764404296874,-9.648632690429688,1.2401964599609374,0,0,0,0
1.2708188500000688,-0.42377369384765623,-9.674968908691406,1.2880804931640624,0,0,0,0
1.2724333760002082,-0.40222587890625,-9.643844287109374,1.3551181396484375,0,0,0,0
1.2749924869999631,-0.3232172241210937,-9.533711010742186,1.3910311645507811,0,0,0,0
1.2767954190003366,-0.26336218261718747,-9.622296472167967,1.2665326782226562,0,0,0,0
1.2791010320001988,-0.27293898925781246,-9.677363110351562,1.3455413330078123,0,0,0,0
1.2812166470002921,-0.39264907226562495,-9.677363110351562,1.2497732666015624,0,0,0,0
1.282783173000098,-0.411802685546875,-9.696516723632811,1.22583125,0,0,0,0
1.2846605849999833,-0.3854664672851562,-9.591171850585937,1.3670891479492187,0,0,0,0
1.2859355210002832,-0.3399766357421875,-9.624690673828125,1.2808978881835937,0,0,0,0
1.28712890099996,-0.3064578125,-9.622296472167967,1.1133037719726562,0,0,0,0
1.2883003560000361,-0.27293898925781246,-9.502586389160156,1.2737152832031249,0,0,0,0
1.289847956000358,-0.3184288208007812,-9.629479077148437,1.2330138549804688,0,0,0,0
1.2915254810000079,-0.201112939453125,-9.730035546875,1.3096283081054687,0,0,0,0
1.2928657120000935,-0.34715924072265625,-9.706093530273437,1.2306196533203124,0,0,0,0
1.2940466490003928,-0.34237083740234375,-9.739612353515625,1.2904746948242187,0,0,0,0
1.2952175110003736,-0.3687070556640625,-9.624690673828125,1.2832920898437499,0,0,0,0
1.2968993880003836,-0.38307226562499996,-9.662997900390625,1.2928688964843749,0,0,0,0
1.298154175000036,-0.354341845703125,-9.64623848876953,1.2904746948242187,0,0,0,0
1.2993565370002216,-0.4381389038085937,-9.519345800781249,1.3407529296874998,0,0,0,0
1.3005265840001812,-0.3280056274414062,-9.756371765136718,1.3742717529296875,0,0,0,0
1.3021792760000608,-0.22744915771484372,-9.641450085449218,1.3215993164062498,0,0,0,0
1.3045500000002903,-0.17956512451171874,-9.710881933593749,1.3958195678710936,0,0,0,0
1.307196555000246,-0.4429273071289062,-9.696516723632811,1.2306196533203124,0,0,0,0
1.308608268000171,-0.3591302490234375,-9.677363110351562,1.2521674682617188,0,0,0,0
1.3097508890000427,-0.373495458984375,-9.648632690429688,1.2497732666015624,0,0,0,0
1.31084127000031,-0.33758243408203126,-9.56962403564453,1.3000515014648437,0,0,0,0
1.3122244090000095,-0.23223756103515625,-9.622296472167967,1.2808978881835937,0,0,0,0
1.3133738080000512,-0.25139117431640623,-9.634267480468749,1.1875240234375,0,0,0,0
1.3146218550000413,-0.26815058593749996,-9.670180505371093,1.2330138549804688,0,0,0,0
1.3157539390003876,-0.29448680419921874,-9.689334118652344,1.2401964599609374,0,0,0,0
1.3168392649999987,-0.3591302490234375,-9.746794958496093,1.3048399047851562,0,0,0,0
1.3179234610001913,-0.373495458984375,-9.744400756835937,1.2401964599609374,0,0,0,0
1.319006619999982,-0.37828386230468747,-9.674968908691406,1.2832920898437499,0,0,0,0
1.3201918340000702,-0.36391865234375,-9.660603698730467,1.254561669921875,0,0,0,0
1.3213994180000554,-0.36391865234375,-9.598354455566406,1.3000515014648437,0,0,0,0
1.3230529620000198,-0.33039982910156246,-9.5384994140625,1.2401964599609374,0,0,0,0
1.3243953780001902,-0.28490999755859375,-9.627084875488281,1.3455413330078123,0,0,0,0
1.3258905710004,-0.24660277099609373,-9.68454571533203,1.2976572998046874,0,0,0,0
1.3270702660001916,-0.30885201416015623,-9.749189160156249,1.3144167114257812,0,0,0,0
1.3281980920000933,-0.35194764404296874,-9.725247143554688,1.3311761230468748,0,0,0,0
1.3292852510003286,-0.411802685546875,-9.689334118652344,1.448492004394531,0,0,0,0
1.3304378910002015,-0.36631285400390623,-9.634267480468749,1.4173673828125,0,0,0,0
1.3315871970003172,-0.3447650390625,-9.617508068847656,1.3120225097656248,0,0,0,0
1.3326777639999818,-0.3687070556640625,-9.643844287109374,1.3215993164062498,0,0,0,0
1.3337584600003538,-0.39264907226562495,-9.612719665527344,1.3215993164062498,0,0,0,0
1.3348516000000927,-0.3447650390625,-9.593566052246093,1.2880804931640624,0,0,0,0
1.3360971280003469,-0.2657563842773437,-9.595960253906249,1.2880804931640624,0,0,0,0
1.3372975090001091,-0.30885201416015623,-9.514557397460937,1.2473790649414063,0,0,0,0
1.3385163890002332,-0.28730419921875,-9.727641345214844,1.2425906616210938,0,0,0,0
1.3397204550001334,-0.29927520751953124,-9.718064538574218,1.3048399047851562,0,0,0,0
1.3409787049999977,-0.3184288208007812,-9.756371765136718,1.4125789794921875,0,0,0,0
1.34221264100006,-0.3399766357421875,-9.651026892089844,1.3263877197265623,0,0,0,0
1.3435358530000485,-0.36631285400390623,-9.624690673828125,1.3144167114257812,0,0,0,0
1.34639353700004,-0.30406361083984373,-9.672574707031249,1.2880804931640624,0,0,0,0
1.3481661910000184,-0.2920926025390625,-9.667786303710937,1.3072341064453123,0,0,0,0
1.349386164000407,-0.30406361083984373,-9.694122521972655,1.2234370483398436,0,0,0,0
1.3505167110001821,-0.43574470214843747,-9.708487731933593,1.2401964599609374,0,0,0,0
1.3516280740000184,-0.3280056274414062,-9.662997900390625,1.3623007446289062,0,0,0,0
1.3530411750002713,-0.373495458984375,-9.682151513671874,1.3120225097656248,0,0,0,0
1.3543071480003164,-0.40940848388671874,-9.514557397460937,1.3287819213867187,0,0,0,0
1.3554648060003274,-0.4070142822265625,-9.639055883789062,1.254561669921875,0,0,0,0
1.356560076000278,-0.38307226562499996,-9.617508068847656,1.2785036865234374,0,0,0,0
1.357800234000024,-0.36152445068359373,-9.562441430664062,1.35990654296875,0,0,0,0
1.3589081330001136,-0.24899697265624998,-9.60793126220703,1.3910311645507811,0,0,0,0
1.3599932920001265,-0.2537853759765625,-9.670180505371093,1.3096283081054687,0,0,0,0
1.3610623399999895,-0.3447650390625,-9.64623848876953,1.3670891479492187,0,0,0,0
1.3621315740001592,-0.30885201416015623,-9.713276135253906,1.2928688964843749,0,0,0,0
1.3634234350001861,-0.3016694091796875,-9.727641345214844,1.2808978881835937,0,0,0,0
1.364672685000187,-0.3327940307617187,-9.694122521972655,1.3287819213867187,0,0,0,0
1.3658810100000665,-0.30885201416015623,-9.660603698730467,1.3383587280273437,0,0,0,0
1.3669699280003442,-0.37828386230468747,-9.658209497070311,1.3144167114257812,0,0,0,0
1.3683016410000164,-0.36631285400390623,-9.785102185058593,1.3455413330078123,0,0,0,0
1.3695169100001294,-0.3447650390625,-9.588777648925781,1.3120225097656248,0,0,0,0
1.3709331039999597,-0.2561795776367187,-9.595960253906249,1.3263877197265623,0,0,0,0
1.3721060580000994,-0.25139117431640623,-9.641450085449218,1.1731588134765625,0,0,0,0
1.3732041800003572,-0.316034619140625,-9.641450085449218,1.2641384765625,0,0,0,0
1.3742935990003389,-0.28012159423828126,-9.797073193359374,1.235408056640625,0,0,0,0
1.3755382750000535,-0.40940848388671874,-9.701305126953125,1.35990654296875,0,0,0,0
1.3768299880002814,-0.3687070556640625,-9.708487731933593,1.3024457031249999,0,0,0,0
1.377988758000356,-0.3711012573242187,-9.698910925292969,1.2665326782226562,0,0,0,0
1.379098453000097,-0.44053310546874996,-9.612719665527344,1.369483349609375,0,0,0,0
1.3801879640000152,-0.38786066894531246,-9.593566052246093,1.3431471313476562,0,0,0,0
1.381409196000277,-0.3327940307617187,-9.550470422363281,1.3335703247070312,0,0,0,0
1.382625391000147,-0.28012159423828126,-9.651026892089844,1.3455413330078123,0,0,0,0
1.3837506240001858,-0.32082302246093747,-9.651026892089844,1.2904746948242187,0,0,0,0
1.3849535050003396,-0.29448680419921874,-9.677363110351562,1.2210428466796874,0,0,0,0
1.3861134590001711,-0.316034619140625,-9.698910925292969,1.2808978881835937,0,0,0,0
1.387439357000403,-0.3232172241210937,-9.727641345214844,1.2521674682617188,0,0,0,0
1.3886386080002922,-0.3495534423828125,-9.715670336914062,1.2569558715820313,0,0,0,0
1.389746008000202,-0.33758243408203126,-9.677363110351562,1.3239935180664062,0,0,0,0
1.390829407000183,-0.3758896606445312,-9.641450085449218,1.2928688964843749,0,0,0,0
1.3919157330001326,-0.3327940307617187,-9.694122521972655,1.2761094848632812,0,0,0,0
1.3931215580000753,-0.3280056274414062,-9.662997900390625,1.2306196533203124,0,0,0,0
1.3944174000002931,-0.28012159423828126,-9.622296472167967,1.199495031738281,0,0,0,0
1.3957070579999709,-0.3232172241210937,-9.639055883789062,1.3192051147460937,0,0,0,0
1.3968056980002075,-0.3064578125,-9.737218151855469,1.3455413330078123,0,0,0,0
1.397886765000294,-0.28490999755859375,-9.725247143554688,1.3646949462890625,0,0,0,0
1.3989656830003696,-0.36631285400390623,-9.689334118652344,1.24498486328125,0,0,0,0
1.400049694000245,-0.3711012573242187,-9.727641345214844,1.2856862915039062,0,0,0,0
1.401297870000235,-0.4213794921875,-9.775525378417969,1.2425906616210938,0,0,0,0
1.4024614550003207,-0.4525041137695312,-9.627084875488281,1.20667763671875,0,0,0,0
1.403574743000263,-0.33518823242187495,-9.679757312011718,1.2665326782226562,0,0,0,0
1.4046733459999814,-0.36391865234375,-9.622296472167967,1.3431471313476562,0,0,0,0
1.4057582090003962,-0.29927520751953124,-9.612719665527344,1.2569558715820313,0,0,0,0
1.4069754780002768,-0.2657563842773437,-9.56962403564453,1.2737152832031249,0,0,0,0
1.4081730070001868,-0.3327940307617187,-9.581595043945311,1.3527239379882812,0,0,0,0
1.4092903320001824,-0.33758243408203126,-9.80665,1.3335703247070312,0,0,0,0
1.4104022129999976,-0.32561142578124996,-9.686939916992188,1.3215993164062498,0,0,0,0
1.4116156120003325,-0.36152445068359373,-9.698910925292969,1.3335703247070312,0,0,0,0
1.4129446400002053,-0.3447650390625,-9.696516723632811,1.3120225097656248,0,0,0,0
1.4140389100002722,-0.3495534423828125,-9.651026892089844,1.2713210815429687,0,0,0,0
1.4151297350003915,-0.34237083740234375,-9.595960253906249,1.2665326782226562,0,0,0,0
1.4162186530002145,-0.373495458984375,-9.586383447265625,1.3144167114257812,0,0,0,0
1.417429163000179,-0.2753331909179687,-9.622296472167967,1.2473790649414063,0,0,0,0
1.4186125620003622,-0.25139117431640623,-9.660603698730467,1.2306196533203124,0,0,0,0
1.419716573000187,-0.2154781494140625,-9.708487731933593,1.3024457031249999,0,0,0,0
1.4207999730001575,-0.2825157958984375,-9.751583361816406,1.3646949462890625,0,0,0,0
1.4218835210003817,-0.32082302246093747,-9.694122521972655,1.2856862915039062,0,0,0,0
1.4230966420000186,-0.3687070556640625,-9.801861596679688,1.2378022583007813,0,0,0,0
1.424517928000114,-0.35673604736328124,-9.655815295410155,1.3192051147460937,0,0,0,0
1.4256144200003291,-0.33518823242187495,-9.617508068847656,1.35990654296875,0,0,0,0
1.4267031720000887,-0.30885201416015623,-9.612719665527344,1.3311761230468748,0,0,0,0
1.427943922000395,-0.3232172241210937,-9.629479077148437,1.2330138549804688,0,0,0,0
1.4291296730002614,-0.24660277099609373,-9.627084875488281,1.2761094848632812,0,0,0,0
1.43022449900036,-0.2537853759765625,-9.744400756835937,1.2761094848632812,0,0,0,0
1.431335269000101,-0.2561795776367187,-9.631873278808593,1.3096283081054687,0,0,0,0
1.4325814080002601,-0.32561142578124996,-9.70369932861328,1.2425906616210938,0,0,0,0
1.4338286770002924,-0.3758896606445312,-9.715670336914062,1.2378022583007813,0,0,0,0
1.4349919280002723,-0.3758896606445312,-9.746794958496093,1.2282254516601563,0,0,0,0
1.4361208459999943,-0.34715924072265625,-9.713276135253906,1.1731588134765625,0,0,0,0
1.4372197640000195,-0.3232172241210937,-9.648632690429688,1.3000515014648437,0,0,0,0
1.4384590700001354,-0.17956512451171874,-9.60793126220703,1.2641384765625,0,0,0,0
1.439706598000157,-0.3495534423828125,-9.651026892089844,1.2832920898437499,0,0,0,0
1.4409202560000267,-0.29448680419921874,-9.627084875488281,1.2473790649414063,0,0,0,0
1.4420918959999653,-0.27293898925781246,-9.648632690429688,1.2856862915039062,0,0,0,0
1.4432980730002782,-0.3064578125,-9.70369932861328,1.24498486328125,0,0,0,0
1.4446746370003893,-0.3136404174804687,-9.732429748535155,1.3239935180664062,0,0,0,0
1.4460404420001396,-0.40222587890625,-9.636661682128906,1.3072341064453123,0,0,0,0
1.4473778220003624,-0.35194764404296874,-9.667786303710937,1.2928688964843749,0,0,0,0
1.4486116279999806,-0.39264907226562495,-9.64623848876953,1.3551181396484375,0,0,0,0
1.4498646560000452,-0.33758243408203126,-9.643844287109374,1.2737152832031249,0,0,0,0
1.4511100360000455,-0.2705447875976562,-9.622296472167967,1.2665326782226562,0,0,0,0
1.4522852869999952,-0.28490999755859375,-9.641450085449218,1.2138602416992186,0,0,0,0
1.453459390000262,-0.2537853759765625,-9.674968908691406,1.3000515014648437,0,0,0,0
1.4547085470003367,-0.258573779296875,-9.648632690429688,1.2569558715820313,0,0,0,0
1.4559573900000942,-0.26815058593749996,-9.622296472167967,1.3311761230468748,0,0,0,0
1.4571292340001492,-0.28969840087890625,-9.732429748535155,1.3215993164062498,0,0,0,0
1.4582979290003095,-0.3447650390625,-9.672574707031249,1.3551181396484375,0,0,0,0
1.4595490500000778,-0.3399766357421875,-9.64623848876953,1.3120225097656248,0,0,0,0
1.4607910970003104,-0.3495534423828125,-9.579200842285156,1.235408056640625,0,0,0,0
1.461964552000154,-0.3136404174804687,-9.622296472167967,1.3120225097656248,0,0,0,0
1.4631354510001984,-0.29448680419921874,-9.665392102050781,1.3215993164062498,0,0,0,0
1.4643056830000205,-0.28969840087890625,-9.698910925292969,1.350329736328125,0,0,0,0
1.4655539710001904,-0.28969840087890625,-9.667786303710937,1.2593500732421874,0,0,0,0
1.466947146000166,-0.316034619140625,-9.715670336914062,1.2904746948242187,0,0,0,0
1.4681721370002379,-0.2537853759765625,-9.679757312011718,1.3144167114257812,0,0,0,0
1.4693469990002086,-0.33518823242187495,-9.737218151855469,1.3862427612304686,0,0,0,0
1.4706019160003052,-0.4333505004882812,-9.74200655517578,1.3383587280273437,0,0,0,0
1.4718452780002735,-0.40222587890625,-9.629479077148437,1.3263877197265623,0,0,0,0
1.4730203070002972,-0.36631285400390623,-9.60793126220703,1.2928688964843749,0,0,0,0
1.4741866130002563,-0.3327940307617187,-9.605537060546874,1.2521674682617188,0,0,0,0
1.4753800680000495,-0.277727392578125,-9.617508068847656,1.2880804931640624,0,0,0,0
1.476633614000093,-0.3232172241210937,-9.617508068847656,1.2713210815429687,0,0,0,0
1.477883531000316,-0.3064578125,-9.629479077148437,1.3120225097656248,0,0,0,0
1.4794153170000754,-0.3687070556640625,-9.696516723632811,1.2808978881835937,0,0,0,0
1.4812670070000422,-0.3447650390625,-9.672574707031249,1.3215993164062498,0,0,0,0
1.4826124420001179,-0.354341845703125,-9.634267480468749,1.209071838378906,0,0,0,0
1.483813414999986,-0.33518823242187495,-9.600748657226562,1.2593500732421874,0,0,0,0
1.484981333000178,-0.39743747558593745,-9.579200842285156,1.3311761230468748,0,0,0,0
1.4865278960000978,-0.3280056274414062,-9.612719665527344,1.2641384765625,0,0,0,0
1.4883966610000243,-0.23702596435546874,-9.627084875488281,1.2832920898437499,0,0,0,0
1.4896233560002656,-0.3136404174804687,-9.627084875488281,1.2138602416992186,0,0,0,0
1.4909120130000701,-0.3064578125,-9.662997900390625,1.3742717529296875,0,0,0,0
1.4923747440002444,-0.3687070556640625,-9.715670336914062,1.3000515014648437,0,0,0,0
1.4938511400000607,-0.3447650390625,-9.715670336914062,1.3383587280273437,0,0,0,0
1.4952367420000883,-0.36631285400390623,-9.658209497070311,1.3000515014648437,0,0,0,0
1.4972436160001052,-0.3399766357421875,-9.662997900390625,1.2880804931640624,0,0,0,0
1.4990928070001246,-0.2561795776367187,-9.519345800781249,1.3215993164062498,0,0,0,0
1.500669888000175,-0.2705447875976562,-9.64623848876953,1.2689268798828124,0,0,0,0
1.5019019350002054,-0.27293898925781246,-9.682151513671874,1.3575123413085937,0,0,0,0
1.5029800199999954,-0.30885201416015623,-9.6917283203125,1.2018892333984375,0,0,0,0
1.5041179380000358,-0.4070142822265625,-9.641450085449218,1.2737152832031249,0,0,0,0
1.505217301000357,-0.40222587890625,-9.660603698730467,1.3096283081054687,0,0,0,0
1.5063823290001892,-0.41898529052734373,-9.658209497070311,1.3407529296874998,0,0,0,0
1.5081084100002045,-0.42377369384765623,-9.643844287109374,1.2569558715820313,0,0,0,0
1.509207809000145,-0.35194764404296874,-9.595960253906249,1.177947216796875,0,0,0,0
1.5102951349999785,-0.30406361083984373,-9.56962403564453,1.2234370483398436,0,0,0,0
1.5114570710002226,-0.29927520751953124,-9.600748657226562,1.2761094848632812,0,0,0,0
1.5127446550000059,-0.3064578125,-9.658209497070311,1.2904746948242187,0,0,0,0
1.5138382580003054,-0.2825157958984375,-9.65342109375,1.3239935180664062,0,0,0,0
1.5149189170001591,-0.29927520751953124,-9.732429748535155,1.3407529296874998,0,0,0,0
1.5160059280001406,-0.35194764404296874,-9.720458740234374,1.3431471313476562,0,0,0,0
1.5172035120003784,-0.3447650390625,-9.689334118652344,1.3072341064453123,0,0,0,0
1.5185832430001938,-0.3711012573242187,-9.641450085449218,1.3431471313476562,0,0,0,0
1.5197633090001545,-0.3495534423828125,-9.60793126220703,1.3814543579101561,0,0,0,0
1.520946560000084,-0.296881005859375,-9.603142858886718,1.3048399047851562,0,0,0,0
1.522106014000201,-0.16280571289062498,-9.605537060546874,1.2952630981445312,0,0,0,0
1.5238580019999972,-0.3280056274414062,-9.634267480468749,1.2856862915039062,0,0,0,0
1.5251108260004003,-0.277727392578125,-9.619902270507811,1.369483349609375,0,0,0,0
1.5262853180001912,-0.2609679809570312,-9.749189160156249,1.2856862915039062,0,0,0,0
1.5277441970001746,-0.29927520751953124,-9.674968908691406,1.2785036865234374,0,0,0,0
1.5291483160003736,-0.3447650390625,-9.658209497070311,1.2761094848632812,0,0,0,0
1.5304039000002376,-0.4070142822265625,-9.655815295410155,1.3024457031249999,0,0,0,0
1.5315842250001879,-0.3711012573242187,-9.583989245605467,1.3646949462890625,0,0,0,0
1.5330419550000443,-0.32082302246093747,-9.588777648925781,1.2473790649414063,0,0,0,0
1.5344348720000198,-0.28012159423828126,-9.603142858886718,1.2904746948242187,0,0,0,0
1.5356908260000637,-0.2825157958984375,-9.648632690429688,1.235408056640625,0,0,0,0
1.5368552800000543,-0.2609679809570312,-9.662997900390625,1.2880804931640624,0,0,0,0
1.5383948250000685,-0.16519991455078123,-9.753977563476562,1.189918225097656,0,0,0,0
1.5398828330003198,-0.3447650390625,-9.70369932861328,1.2378022583007813,0,0,0,0
1.5411634160000176,-0.33758243408203126,-9.770736975097655,1.2378022583007813,0,0,0,0
1.5428784970004017,-0.38786066894531246,-9.648632690429688,1.2952630981445312,0,0,0,0
1.5443855420003274,-0.3806780639648437,-9.634267480468749,1.3072341064453123,0,0,0,0
1.5456338660001165,-0.33758243408203126,-9.581595043945311,1.3359645263671873,0,0,0,0
1.5467936730001384,-0.32082302246093747,-9.617508068847656,1.3575123413085937,0,0,0,0
1.5480649050000466,-0.3399766357421875,-9.651026892089844,1.3263877197265623,0,0,0,0
1.5497485220003,-0.3184288208007812,-9.65342109375,1.2952630981445312,0,0,0,0
1.5512709930003439,-0.316034619140625,-9.679757312011718,1.3359645263671873,0,0,0,0
1.55247685500035,-0.34237083740234375,-9.689334118652344,1.3072341064453123,0,0,0,0
1.5543412860001808,-0.33039982910156246,-9.720458740234374,1.3096283081054687,0,0,0,0
1.5559711450000577,-0.33518823242187495,-9.662997900390625,1.2856862915039062,0,0,0,0
1.5585002200000417,-0.24899697265624998,-9.648632690429688,1.22583125,0,0,0,0
1.5601777630004108,-0.2537853759765625,-9.660603698730467,1.3192051147460937,0,0,0,0
1.5614868470001966,-0.316034619140625,-9.737218151855469,1.2832920898437499,0,0,0,0
1.5629317440002524,-0.3327940307617187,-9.739612353515625,1.1228805786132812,0,0,0,0
1.5641149950001818,-0.35194764404296874,-9.739612353515625,1.2401964599609374,0,0,0,0
1.5656317620000664,-0.40462008056640625,-9.686939916992188,1.3048399047851562,0,0,0,0
1.5670331410001381,-0.37828386230468747,-9.648632690429688,1.3000515014648437,0,0,0,0
1.5688875900000312,-0.3399766357421875,-9.648632690429688,1.2737152832031249,0,0,0,0
1.5700732670002253,-0.32561142578124996,-9.600748657226562,1.2952630981445312,0,0,0,0
1.5715956450003432,-0.3327940307617187,-9.660603698730467,1.20667763671875,0,0,0,0
1.5734961320004004,-0.28490999755859375,-9.734823950195311,1.3144167114257812,0,0,0,0
1.5747726970002986,-0.3232172241210937,-9.698910925292969,1.3263877197265623,0,0,0,0
1.5759129850002864,-0.3854664672851562,-9.662997900390625,1.2473790649414063,0,0,0,0
1.5770523470000626,-0.3711012573242187,-9.662997900390625,1.2330138549804688,0,0,0,0
1.5782435060000353,-0.373495458984375,-9.6151138671875,1.2832920898437499,0,0,0,0
1.5793970530003207,-0.32561142578124996,-9.6151138671875,1.2617442749023438,0,0,0,0
1.5804913790002502,-0.316034619140625,-9.65342109375,1.2330138549804688,0,0,0,0
1.5815728710003896,-0.3184288208007812,-9.56962403564453,1.1923124267578125,0,0,0,0
1.5826597889999903,-0.30885201416015623,-9.610325463867188,1.3359645263671873,0,0,0,0
1.5838273180002034,-0.29448680419921874,-9.617508068847656,1.3120225097656248,0,0,0,0
1.5849894210000457,-0.33039982910156246,-9.622296472167967,1.3144167114257812,0,0,0,0
1.5860776540002917,-0.36631285400390623,-9.629479077148437,1.2737152832031249,0,0,0,0
1.5871594790000927,-0.3447650390625,-9.526528405761718,1.1324573852539062,0,0,0,0
1.5882472500002223,-0.3711012573242187,-9.660603698730467,1.209071838378906,0,0,0,0
1.5894101490002868,-0.4070142822265625,-9.64623848876953,1.2832920898437499,0,0,0,0
1.5905932140003642,-0.35194764404296874,-9.677363110351562,1.2976572998046874,0,0,0,0
1.5916981140003372,-0.3447650390625,-9.629479077148437,1.218648645019531,0,0,0,0
1.5927809580002759,-0.3280056274414062,-9.600748657226562,1.2306196533203124,0,0,0,0
1.5939520050001192,-0.29927520751953124,-9.593566052246093,1.2521674682617188,0,0,0,0
1.5951778860003287,-0.3112462158203125,-9.521740002441407,1.2282254516601563,0,0,0,0
1.596429210000224,-0.3447650390625,-9.672574707031249,1.235408056640625,0,0,0,0
1.597536128000229,-0.3758896606445312,-9.6917283203125,1.2378022583007813,0,0,0,0
1.5986189170002945,-0.36631285400390623,-9.641450085449218,1.3072341064453123,0,0,0,0
1.5997079460003079,-0.3806780639648437,-9.674968908691406,1.3096283081054687,0,0,0,0
1.6009058450003977,-0.4213794921875,-9.674968908691406,1.3000515014648437,0,0,0,0
1.6020195590003823,-0.40940848388671874,-9.665392102050781,1.3168109130859373,0,0,0,0
1.6031019220004055,-0.38307226562499996,-9.770736975097655,1.2952630981445312,0,0,0,0
1.6041958220002925,-0.36391865234375,-9.536105212402344,1.3168109130859373,0,0,0,0
1.6052835550003692,-0.24660277099609373,-9.610325463867188,1.2832920898437499,0,0,0,0
1.6064508610002122,-0.24660277099609373,-9.670180505371093,1.2737152832031249,0,0,0,0
1.6076261860002887,-0.2561795776367187,-9.6917283203125,1.3168109130859373,0,0,0,0
1.6087138450002385,-0.2920926025390625,-9.672574707031249,1.3311761230468748,0,0,0,0
1.6097943930003566,-0.33039982910156246,-9.6917283203125,1.2521674682617188,0,0,0,0
1.6108790340003907,-0.39743747558593745,-9.727641345214844,1.254561669921875,0,0,0,0
1.6120347480000419,-0.37828386230468747,-9.643844287109374,1.2761094848632812,0,0,0,0
1.6131899430001795,-0.3806780639648437,-9.634267480468749,1.350329736328125,0,0,0,0
1.6158957570000894,-0.30406361083984373,-9.651026892089844,1.3239935180664062,0,0,0,0
1.617066786000123,-0.28490999755859375,-9.519345800781249,1.2761094848632812,0,0,0,0
1.6186549600001854,-0.27293898925781246,-9.634267480468749,1.2856862915039062,0,0,0,0
1.6198495070002537,-0.24660277099609373,-9.682151513671874,1.3335703247070312,0,0,0,0
1.6210299620001933,-0.30406361083984373,-9.6917283203125,1.2569558715820313,0,0,0,0
1.6228773010002442,-0.33758243408203126,-9.6917283203125,1.2761094848632812,0,0,0,0
1.6242994020003607,-0.38307226562499996,-9.655815295410155,1.3742717529296875,0,0,0,0
1.6254865040000368,-0.3591302490234375,-9.567229833984374,1.2808978881835937,0,0,0,0
1.6267446810002184,-0.3327940307617187,-9.627084875488281,1.3239935180664062,0,0,0,0
1.6281019670000205,-0.3064578125,-9.617508068847656,1.2425906616210938,0,0,0,0
1.6294325500002742,-0.26815058593749996,-9.674968908691406,1.22583125,0,0,0,0
1.6309442800002216,-0.28730419921875,-9.64623848876953,1.2713210815429687,0,0,0,0
1.6323365480002394,-0.17477672119140625,-9.662997900390625,1.2497732666015624,0,0,0,0
1.633495225000388,-0.36631285400390623,-9.660603698730467,1.2737152832031249,0,0,0,0
1.6346858840001914,-0.39264907226562495,-9.713276135253906,1.2880804931640624,0,0,0,0
1.6359331710000333,-0.38307226562499996,-9.715670336914062,1.2617442749023438,0,0,0,0
1.6370851260003292,-0.33039982910156246,-9.672574707031249,1.2928688964843749,0,0,0,0
1.6382812840001861,-0.30885201416015623,-9.617508068847656,1.24498486328125,0,0,0,0
1.6394364050001968,-0.30885201416015623,-9.624690673828125,1.3072341064453123,0,0,0,0
1.6405309900001157,-0.28490999755859375,-9.648632690429688,1.3431471313476562,0,0,0,0
1.641612871000234,-0.30406361083984373,-9.660603698730467,1.3383587280273437,0,0,0,0
1.642695919000289,-0.2561795776367187,-9.672574707031249,1.3670891479492187,0,0,0,0
1.6438922440001988,-0.28969840087890625,-9.674968908691406,1.3407529296874998,0,0,0,0
1.6450785320002979,-0.30885201416015623,-9.68454571533203,1.2952630981445312,0,0,0,0
1.6462214130001485,-0.316034619140625,-9.720458740234374,1.216254443359375,0,0,0,0
1.647379645000001,-0.35673604736328124,-9.689334118652344,1.1923124267578125,0,0,0,0
1.6484759900004065,-0.3711012573242187,-9.622296472167967,1.2904746948242187,0,0,0,0
1.649568463000378,-0.3136404174804687,-9.6151138671875,1.3479355346679687,0,0,0,0
1.6507343620000938,-0.30885201416015623,-9.610325463867188,1.3551181396484375,0,0,0,0
1.651896317000137,-0.316034619140625,-9.617508068847656,1.2952630981445312,0,0,0,0
1.652999106000152,-0.24181436767578124,-9.631873278808593,1.2401964599609374,0,0,0,0
1.65408778300025,-0.25139117431640623,-9.651026892089844,1.3000515014648437,0,0,0,0
1.65517834900038,-0.30406361083984373,-9.74200655517578,1.2713210815429687,0,0,0,0
1.6563449710001805,-0.354341845703125,-9.677363110351562,1.2521674682617188,0,0,0,0
1.6574993520002863,-0.3758896606445312,-9.662997900390625,1.3311761230468748,0,0,0,0
1.6586074550000376,-0.33518823242187495,-9.619902270507811,1.3239935180664062,0,0,0,0
1.6598211870000341,-0.35194764404296874,-9.588777648925781,1.3359645263671873,0,0,0,0
1.6614140830001816,-0.32082302246093747,-9.641450085449218,1.350329736328125,0,0,0,0
1.6627193150002313,-0.34715924072265625,-9.598354455566406,1.2713210815429687,0,0,0,0
1.663971287000095,-0.30885201416015623,-9.605537060546874,1.3551181396484375,0,0,0,0
1.6651625010003954,-0.2561795776367187,-9.672574707031249,1.2737152832031249,0,0,0,0
1.666351178000241,-0.2346317626953125,-9.682151513671874,1.2593500732421874,0,0,0,0
1.667704556999979,-0.26336218261718747,-9.715670336914062,1.2234370483398436,0,0,0,0
1.669189935000304,-0.2825157958984375,-9.677363110351562,1.1827356201171875,0,0,0,0
1.6704595930000323,-0.3591302490234375,-9.696516723632811,1.2401964599609374,0,0,0,0
1.6716588440003761,-0.34715924072265625,-9.662997900390625,1.2785036865234374,0,0,0,0
1.6728373350001675,-0.33039982910156246,-9.682151513671874,1.2306196533203124,0,0,0,0
1.6744055650001428,-0.34237083740234375,-9.612719665527344,1.2210428466796874,0,0,0,0
1.675716389000172,-0.28969840087890625,-9.543287817382812,1.2665326782226562,0,0,0,0
1.677025287000106,-0.3064578125,-9.651026892089844,1.2042834350585936,0,0,0,0
1.6783148710001115,-0.28012159423828126,-9.651026892089844,1.254561669921875,0,0,0,0
1.6795611770003234,-0.28490999755859375,-9.706093530273437,1.3096283081054687,0,0,0,0
1.6807420200002525,-0.3112462158203125,-9.655815295410155,1.3024457031249999,0,0,0,0
1.6820038630003182,-0.38786066894531246,-9.65342109375,1.3168109130859373,0,0,0,0
1.683323019999989,-0.34715924072265625,-9.689334118652344,1.4125789794921875,0,0,0,0
1.6845397710003454,-0.3447650390625,-9.639055883789062,1.3144167114257812,0,0,0,0
1.6857183179999993,-0.33039982910156246,-9.603142858886718,1.2737152832031249,0,0,0,0
1.6870941230004064,-0.3184288208007812,-9.598354455566406,1.2761094848632812,0,0,0,0
1.6884220950000781,-0.3327940307617187,-9.6151138671875,1.235408056640625,0,0,0,0
1.6896143830003894,-0.33039982910156246,-9.643844287109374,1.2880804931640624,0,0,0,0
1.6907882640002754,-0.30406361083984373,-9.651026892089844,1.2689268798828124,0,0,0,0
1.691970959000173,-0.30406361083984373,-9.68454571533203,1.3383587280273437,0,0,0,0
1.6932440059999863,-0.4429273071289062,-9.727641345214844,1.3479355346679687,0,0,0,0
1.6944959600000402,-0.38786066894531246,-9.706093530273437,1.3168109130859373,0,0,0,0
1.6956866919999811,-0.38307226562499996,-9.667786303710937,1.3718775512695311,0,0,0,0
1.69686801700027,-0.32082302246093747,-9.560047229003906,1.3335703247070312,0,0,0,0
1.6981490269999995,-0.2825157958984375,-9.636661682128906,1.3742717529296875,0,0,0,0
1.6994146100000762,-0.2346317626953125,-9.662997900390625,1.2521674682617188,0,0,0,0
1.7006593420001082,-0.2657563842773437,-9.672574707031249,1.1875240234375,0,0,0,0
1.701841871000397,-0.2825157958984375,-9.526528405761718,1.2473790649414063,0,0,0,0
1.7034179890001724,-0.38786066894531246,-9.720458740234374,1.2928688964843749,0,0,0,0
1.7046788880002168,-0.38786066894531246,-9.708487731933593,1.3144167114257812,0,0,0,0
1.7058597130003363,-0.45489831542968745,-9.660603698730467,1.2856862915039062,0,0,0,0
1.7070364270002756,-0.3711012573242187,-9.619902270507811,1.2832920898437499,0,0,0,0
1.7087803399999757,-0.32561142578124996,-9.595960253906249,1.3096283081054687,0,0,0,0
1.7100216280000495,-0.3184288208007812,-9.593566052246093,1.3431471313476562,0,0,0,0
1.7111979160004012,-0.239420166015625,-9.634267480468749,1.2928688964843749,0,0,0,0
1.7126569980000568,-0.28490999755859375,-9.622296472167967,1.235408056640625,0,0,0,0
1.7141228950004006,-0.3016694091796875,-9.672574707031249,1.3144167114257812,0,0,0,0
1.7153714969999783,-0.3447650390625,-9.651026892089844,1.3048399047851562,0,0,0,0
1.7167210990000967,-0.3184288208007812,-9.689334118652344,1.3239935180664062,0,0,0,0
1.7192968770000334,-0.3854664672851562,-9.6151138671875,1.2952630981445312,0,0,0,0
1.7211076050002703,-0.32561142578124996,-9.627084875488281,1.2042834350585936,0,0,0,0
1.7232834780002122,-0.430956298828125,-9.662997900390625,1.3048399047851562,0,0,0,0
1.725617054000395,-0.2657563842773437,-9.686939916992188,1.3096283081054687,0,0,0,0
1.7269055640003899,-0.28012159423828126,-9.629479077148437,1.3000515014648437,0,0,0,0
1.728194277000057,-0.2609679809570312,-9.756371765136718,1.2306196533203124,0,0,0,0
1.7293165650003175,-0.38786066894531246,-9.689334118652344,1.2473790649414063,0,0,0,0
1.7307336850003594,-0.430956298828125,-9.643844287109374,1.2425906616210938,0,0,0,0
1.7320667860003596,-0.3687070556640625,-9.581595043945311,1.3311761230468748,0,0,0,0
1.7333786100002726,-0.3112462158203125,-9.560047229003906,1.2210428466796874,0,0,0,0
1.7346271750002416,-0.2561795776367187,-9.591171850585937,1.3168109130859373,0,0,0,0
1.7362416640003175,-0.28012159423828126,-9.6151138671875,1.2689268798828124,0,0,0,0
1.73749910000015,-0.26336218261718747,-9.658209497070311,1.3383587280273437,0,0,0,0
1.7388113500001054,-0.354341845703125,-9.696516723632811,1.2832920898437499,0,0,0,0
1.7399147680002898,-0.3184288208007812,-9.677363110351562,1.3000515014648437,0,0,0,0
1.7412964250002005,-0.17477672119140625,-9.68454571533203,1.3646949462890625,0,0,0,0
1.742546823000339,-0.3902548706054687,-9.60793126220703,1.369483349609375,0,0,0,0
1.7438515550002194,-0.373495458984375,-9.636661682128906,1.3383587280273437,0,0,0,0
1.7449548250001499,-0.3232172241210937,-9.622296472167967,1.3048399047851562,0,0,0,0
1.7460434650001844,-0.2920926025390625,-9.64623848876953,1.3383587280273437,0,0,0,0
1.7471325500000603,-0.27293898925781246,-9.641450085449218,1.254561669921875,0,0,0,0
1.748220801000116,-0.24899697265624998,-9.670180505371093,1.1875240234375,0,0,0,0
1.7494327370000065,-0.24899697265624998,-9.6917283203125,1.197100830078125,0,0,0,0
1.7507266360003086,-0.33039982910156246,-9.715670336914062,1.2401964599609374,0,0,0,0
1.7518213500002275,-0.39983167724609375,-9.6917283203125,1.2521674682617188,0,0,0,0
1.7528930830003446,-0.3687070556640625,-9.720458740234374,1.218648645019531,0,0,0,0
1.7539646310001444,-0.3327940307617187,-9.674968908691406,1.3311761230468748,0,0,0,0
1.7551943080002275,-0.3854664672851562,-9.65342109375,1.2880804931640624,0,0,0,0
1.75643891000027,-0.30885201416015623,-9.56962403564453,1.2856862915039062,0,0,0,0
1.7575331240000196,-0.30406361083984373,-9.552864624023437,1.3431471313476562,0,0,0,0
1.7586198020003394,-0.25139117431640623,-9.662997900390625,1.35990654296875,0,0,0,0
1.7597088310003528,-0.2920926025390625,-9.679757312011718,1.5155296508789062,0,0,0,0
1.7610047850002957,-0.2920926025390625,-9.629479077148437,1.2808978881835937,0,0,0,0
1.7624639780001417,-0.3806780639648437,-9.710881933593749,1.2952630981445312,0,0,0,0
1.7636667480001051,-0.35673604736328124,-9.6917283203125,1.4030021728515625,0,0,0,0
1.7648404060000757,-0.3591302490234375,-9.631873278808593,1.2521674682617188,0,0,0,0
1.7661269150003136,-0.41419688720703124,-9.677363110351562,1.3168109130859373,0,0,0,0
1.7675164050001513,-0.30885201416015623,-9.70369932861328,1.3215993164062498,0,0,0,0
1.768699545000345,-0.316034619140625,-9.651026892089844,1.2593500732421874,0,0,0,0
1.7697856490003687,-0.3280056274414062,-9.617508068847656,1.2952630981445312,0,0,0,0
1.770859660000042,-0.2825157958984375,-9.631873278808593,1.2808978881835937,0,0,0,0
1.7719721520002167,-0.23223756103515625,-9.64623848876953,1.35990654296875,0,0,0,0
1.7732130500003223,-0.16519991455078123,-9.746794958496093,1.2665326782226562,0,0,0,0
1.774534782000046,-0.30885201416015623,-9.679757312011718,1.3072341064453123,0,0,0,0
1.7756364220003888,-0.354341845703125,-9.641450085449218,1.3623007446289062,0,0,0,0
1.776721655000074,-0.3950432739257812,-9.648632690429688,1.2761094848632812,0,0,0,0
1.7778103330001613,-0.4261678955078125,-9.694122521972655,1.2880804931640624,0,0,0,0
1.7790234170001895,-0.33758243408203126,-9.79946739501953,1.2665326782226562,0,0,0,0
1.7803241110000272,-0.3136404174804687,-9.579200842285156,1.2904746948242187,0,0,0,0
1.7814079920003678,-0.3064578125,-9.593566052246093,1.2904746948242187,0,0,0,0
1.7824844110000413,-0.26815058593749996,-9.715670336914062,1.2952630981445312,0,0,0,0
1.7838897340002404,-0.2920926025390625,-9.651026892089844,1.2641384765625,0,0,0,0
1.785224243000357,-0.43574470214843747,-9.6917283203125,1.3479355346679687,0,0,0,0
