Time (s),Accel X,Accel Y,Accel Z,Gyro X,Gyro Y,Gyro Z,Temperature (C)
0.01318359100014277,-0.2059013427734375,-9.70369932861328,1.2832920898437499,0,0,0,0
0.015901885999937804,-0.32561142578124996,-9.660603698730467,1.2808978881835937,0,0,0,0
0.018550534000041807,-0.430956298828125,-9.689334118652344,1.2497732666015624,0,0,0,0
0.02087770200023442,-0.4333505004882812,-9.622296472167967,1.2928688964843749,0,0,0,0
0.02332370300018738,-0.28012159423828126,-9.68454571533203,1.3359645263671873,0,0,0,0
0.025721777999933693,-0.296881005859375,-9.698910925292969,1.3000515014648437,0,0,0,0
0.028109556999879715,-0.40222587890625,-9.622296472167967,1.2713210815429687,0,0,0,0
0.030487187999824528,-0.4477157104492187,-9.667786303710937,1.2330138549804688,0,0,0,0
0.032782152999971004,-0.44532150878906246,-9.56962403564453,1.2952630981445312,0,0,0,0
0.035235468999871955,-0.22505495605468748,-9.543287817382812,1.3072341064453123,0,0,0,0
0.03778848799993284,-0.16759411621093748,-9.651026892089844,1.3742717529296875,0,0,0,0
0.04009845300015513,-0.430956298828125,-9.641450085449218,1.2952630981445312,0,0,0,0
0.04279954399999042,-0.2920926025390625,-9.639055883789062,1.2808978881835937,0,0,0,0
0.04523099000016373,-0.2705447875976562,-9.524134204101562,1.2976572998046874,0,0,0,0
0.047702435000246624,-0.24899697265624998,-9.672574707031249,1.2497732666015624,0,0,0,0
0.050038011000197,-0.2825157958984375,-9.686939916992188,1.2808978881835937,0,0,0,0
0.05421944399995482,-0.39743747558593745,-9.753977563476562,1.3646949462890625,0,0,0,0
0.05671029599989197,-0.42377369384765623,-9.643844287109374,1.2713210815429687,0,0,0,0
0.05939183200007392,-0.2609679809570312,-9.672574707031249,1.2928688964843749,0,0,0,0
0.06181629599996086,-0.1867477294921875,-9.662997900390625,1.3192051147460937,0,0,0,0
0.06451829500019812,-0.40222587890625,-9.667786303710937,1.3120225097656248,0,0,0,0
0.06714768400024695,-0.3327940307617187,-9.624690673828125,1.2713210815429687,0,0,0,0
0.06958861100019931,-0.22026655273437498,-9.696516723632811,1.3742717529296875,0,0,0,0
0.07209594500000094,-0.27293898925781246,-9.658209497070311,1.2904746948242187,0,0,0,0
0.07465570400017896,-0.3806780639648437,-9.665392102050781,1.209071838378906,0,0,0,0
0.07715039000004253,-0.46208092041015625,-9.79946739501953,1.2785036865234374,0,0,0,0
0.07971739000004163,-0.4429273071289062,-9.655815295410155,1.3192051147460937,0,0,0,0
0.08253766600000745,-0.2753331909179687,-9.591171850585937,1.3239935180664062,0,0,0,0
0.0851337029998831,-0.3232172241210937,-9.698910925292969,1.2785036865234374,0,0,0,0
0.08805845899996712,-0.37828386230468747,-9.639055883789062,1.2761094848632812,0,0,0,0
0.09051588600004834,-0.33758243408203126,-9.639055883789062,1.3263877197265623,0,0,0,0
0.09333771799992974,-0.2346317626953125,-9.658209497070311,1.2617442749023438,0,0,0,0
0.09624441899995873,-0.3064578125,-9.674968908691406,1.2641384765625,0,0,0,0
0.09877858600020772,-0.37828386230468747,-9.718064538574218,1.209071838378906,0,0,0,0
0.10161384299999554,-0.32082302246093747,-9.605537060546874,1.35990654296875,0,0,0,0
0.1037414020001961,-0.33518823242187495,-9.598354455566406,1.3000515014648437,0,0,0,0
0.10496244900014062,-0.258573779296875,-9.624690673828125,1.2952630981445312,0,0,0,0
0.10614758900010202,-0.2753331909179687,-9.65342109375,1.2617442749023438,0,0,0,0
0.1074318390001281,-0.25139117431640623,-9.6917283203125,1.350329736328125,0,0,0,0
0.10886179099998117,-0.19153613281249998,-9.696516723632811,1.2306196533203124,0,0,0,0
0.11007396800005154,-0.3950432739257812,-9.725247143554688,1.2378022583007813,0,0,0,0
0.1113144400001147,-0.35194764404296874,-9.777919580078125,1.3048399047851562,0,0,0,0
0.1126178939998681,-0.3280056274414062,-9.74200655517578,1.2569558715820313,0,0,0,0
0.11400486499996987,-0.28490999755859375,-9.641450085449218,1.2689268798828124,0,0,0,0
0.11521998599982908,-0.28490999755859375,-9.619902270507811,1.2832920898437499,0,0,0,0
0.11665638300019054,-0.316034619140625,-9.74200655517578,1.3335703247070312,0,0,0,0
0.11805739200008247,-0.28969840087890625,-9.639055883789062,1.2808978881835937,0,0,0,0
0.11933503099999143,-0.33039982910156246,-9.672574707031249,1.3766659545898436,0,0,0,0
0.12053035500002807,-0.40222587890625,-9.718064538574218,1.2521674682617188,0,0,0,0
0.1221688250002444,-0.296881005859375,-9.696516723632811,1.2737152832031249,0,0,0,0
0.12348887100006323,-0.3112462158203125,-9.708487731933593,1.2952630981445312,0,0,0,0
0.12471780700025192,-0.4165910888671875,-9.591171850585937,1.3144167114257812,0,0,0,0
0.12589237200018033,-0.3184288208007812,-9.598354455566406,1.4053963745117186,0,0,0,0
0.1280615979999311,-0.277727392578125,-9.624690673828125,1.2018892333984375,0,0,0,0
0.12954501300009724,-0.23223756103515625,-9.560047229003906,1.3072341064453123,0,0,0,0
0.13077272600003198,-0.24181436767578124,-9.682151513671874,1.2617442749023438,0,0,0,0
0.13194471799988605,-0.27293898925781246,-9.658209497070311,1.3192051147460937,0,0,0,0
0.13311637600008908,-0.354341845703125,-9.686939916992188,1.2761094848632812,0,0,0,0
0.13478130800012877,-0.40940848388671874,-9.658209497070311,1.2880804931640624,0,0,0,0
0.13608876199987208,-0.411802685546875,-9.636661682128906,1.3144167114257812,0,0,0,0
0.1373938269998689,-0.3591302490234375,-9.648632690429688,1.1659762084960936,0,0,0,0
0.13938051600007384,-0.26336218261718747,-9.643844287109374,1.1827356201171875,0,0,0,0
0.1408142840000437,-0.20829554443359374,-9.622296472167967,1.3311761230468748,0,0,0,0
0.14196812699992734,-0.20350714111328125,-9.686939916992188,1.388636962890625,0,0,0,0
0.14312721099986447,-0.29448680419921874,-9.715670336914062,1.3144167114257812,0,0,0,0
0.14422586999990017,-0.37828386230468747,-9.624690673828125,1.2689268798828124,0,0,0,0
0.14537932500024908,-0.36631285400390623,-9.672574707031249,1.1348515869140625,0,0,0,0
0.14655440900014582,-0.39264907226562495,-9.6917283203125,1.22583125,0,0,0,0
0.14765486399983274,-0.40222587890625,-9.739612353515625,1.235408056640625,0,0,0,0
0.14873835600019447,-0.39743747558593745,-9.720458740234374,1.2689268798828124,0,0,0,0
0.14981910799997422,-0.40462008056640625,-9.6917283203125,1.4149731811523436,0,0,0,0
0.1509019889999763,-0.27293898925781246,-9.545682019042967,1.37906015625,0,0,0,0
0.15214942400007203,-0.2537853759765625,-9.598354455566406,1.2234370483398436,0,0,0,0
0.15334371200015084,-0.20829554443359374,-9.631873278808593,1.2306196533203124,0,0,0,0
0.15443872300011208,-0.25139117431640623,-9.756371765136718,1.2473790649414063,0,0,0,0
0.15554477000023326,-0.29927520751953124,-9.710881933593749,1.3215993164062498,0,0,0,0
0.15663078099987615,-0.34715924072265625,-9.785102185058593,1.3742717529296875,0,0,0,0
0.1578241430001981,-0.4213794921875,-9.641450085449218,1.2689268798828124,0,0,0,0
0.1590279299998656,-0.4381389038085937,-9.64623848876953,1.2665326782226562,0,0,0,0
0.16012449600020773,-0.35673604736328124,-9.679757312011718,1.3479355346679687,0,0,0,0
0.1612099330000092,-0.29927520751953124,-9.732429748535155,1.3431471313476562,0,0,0,0
0.1624061470001834,-0.2657563842773437,-9.603142858886718,1.4101847778320311,0,0,0,0
0.1636237490001804,-0.20350714111328125,-9.591171850585937,1.3311761230468748,0,0,0,0
0.16471455600003537,-0.2609679809570312,-9.660603698730467,1.2976572998046874,0,0,0,0
0.16579725200017492,-0.2537853759765625,-9.730035546875,1.2952630981445312,0,0,0,0
0.1668790590001663,-0.16041151123046873,-9.713276135253906,1.1923124267578125,0,0,0,0
0.16810225400013223,-0.36152445068359373,-9.662997900390625,1.177947216796875,0,0,0,0
0.16932076400007645,-0.3591302490234375,-9.64623848876953,1.3263877197265623,0,0,0,0
0.1704407560000618,-0.42377369384765623,-9.593566052246093,1.3718775512695311,0,0,0,0
0.171554025000205,-0.3711012573242187,-9.655815295410155,1.2928688964843749,0,0,0,0
0.17263877699997465,-0.3399766357421875,-9.593566052246093,1.22583125,0,0,0,0
0.1738279720002538,-0.3327940307617187,-9.593566052246093,1.2785036865234374,0,0,0,0
0.1750189260001207,-0.24181436767578124,-9.60793126220703,1.3359645263671873,0,0,0,0
0.17610097399983715,-0.22744915771484372,-9.610325463867188,1.2976572998046874,0,0,0,0
0.17734922399995412,-0.1867477294921875,-9.651026892089844,1.3670891479492187,0,0,0,0
0.17856314200025736,-0.2657563842773437,-9.789890588378906,1.2880804931640624,0,0,0,0
0.1798127070001101,-0.38307226562499996,-9.641450085449218,1.3239935180664062,0,0,0,0
0.18090601399990192,-0.3806780639648437,-9.70369932861328,1.3144167114257812,0,0,0,0
0.1819920610000736,-0.3902548706054687,-9.710881933593749,1.2234370483398436,0,0,0,0
0.1832561999999598,-0.36391865234375,-9.6917283203125,1.2665326782226562,0,0,0,0
0.18447124700014683,-0.3232172241210937,-9.6151138671875,1.2378022583007813,0,0,0,0
0.1862135500000477,-0.21787235107421873,-9.586383447265625,1.3215993164062498,0,0,0,0
0.18739709700003004,-0.24660277099609373,-9.612719665527344,1.2497732666015624,0,0,0,0
0.1884865520000858,-0.2825157958984375,-9.605537060546874,1.3120225097656248,0,0,0,0
0.1895693400001619,-0.24181436767578124,-9.550470422363281,1.3263877197265623,0,0,0,0
0.19097296000018105,-0.29448680419921874,-9.612719665527344,1.3144167114257812,0,0,0,0
0.19255300399981934,-0.38786066894531246,-9.706093530273437,1.2713210815429687,0,0,0,0
0.19368773699989106,-0.36631285400390623,-9.706093530273437,1.2928688964843749,0,0,0,0
0.19479495099994892,-0.38307226562499996,-9.631873278808593,1.3311761230468748,0,0,0,0
0.19599803500022972,-0.3495534423828125,-9.629479077148437,1.3215993164062498,0,0,0,0
0.19749396799988972,-0.296881005859375,-9.572018237304688,1.3120225097656248,0,0,0,0
0.19873440399987885,-0.28969840087890625,-9.6151138671875,1.3168109130859373,0,0,0,0
0.19986569200000304,-0.24660277099609373,-9.595960253906249,1.3479355346679687,0,0,0,0
0.20097088800002894,-0.2705447875976562,-9.641450085449218,1.4006079711914061,0,0,0,0
0.20256124700017608,-0.2920926025390625,-9.701305126953125,1.2234370483398436,0,0,0,0
0.20435282600010396,-0.33518823242187495,-9.734823950195311,1.20667763671875,0,0,0,0
0.2059475559999555,-0.3447650390625,-9.636661682128906,1.3359645263671873,0,0,0,0
0.20722384300006524,-0.33758243408203126,-9.605537060546874,1.3383587280273437,0,0,0,0
0.20847681499981263,-0.33039982910156246,-9.636661682128906,1.2713210815429687,0,0,0,0
0.2097279909999088,-0.3184288208007812,-9.679757312011718,1.3048399047851562,0,0,0,0
0.21093218700025318,-0.21308394775390624,-9.665392102050781,1.3048399047851562,0,0,0,0
0.2121120480001082,-0.3112462158203125,-9.64623848876953,1.2689268798828124,0,0,0,0
0.21335529899988614,-0.3136404174804687,-9.670180505371093,1.5059528442382812,0,0,0,0
0.21459397499984334,-0.32082302246093747,-9.636661682128906,1.2737152832031249,0,0,0,0
0.21577348500022708,-0.3136404174804687,-9.727641345214844,1.24498486328125,0,0,0,0
0.21694140299996434,-0.40462008056640625,-9.730035546875,1.24498486328125,0,0,0,0
0.218112413000199,-0.38307226562499996,-9.715670336914062,1.2928688964843749,0,0,0,0
0.21937747799984209,-0.3758896606445312,-9.682151513671874,1.2617442749023438,0,0,0,0
0.22063374600020325,-0.3016694091796875,-9.655815295410155,1.254561669921875,0,0,0,0
0.22181177499987825,-0.2346317626953125,-9.572018237304688,1.3048399047851562,0,0,0,0
0.22298226700013402,-0.2753331909179687,-9.583989245605467,1.2689268798828124,0,0,0,0
0.2241547950002314,-0.2609679809570312,-9.696516723632811,1.2425906616210938,0,0,0,0
0.22540186000014728,-0.3064578125,-9.737218151855469,1.2569558715820313,0,0,0,0
0.22665498100013792,-0.33758243408203126,-9.667786303710937,1.2904746948242187,0,0,0,0
0.22783784300008847,-0.3495534423828125,-9.679757312011718,1.2832920898437499,0,0,0,0
0.22902101899990157,-0.36152445068359373,-9.619902270507811,1.2856862915039062,0,0,0,0
0.23017993700022998,-0.32561142578124996,-9.581595043945311,1.3144167114257812,0,0,0,0
0.23141192799994315,-0.3280056274414062,-9.68454571533203,1.2880804931640624,0,0,0,0
0.2326527340001121,-0.35194764404296874,-9.617508068847656,1.254561669921875,0,0,0,0
0.23381383700007063,-0.4165910888671875,-9.651026892089844,1.3144167114257812,0,0,0,0
0.23497132800002873,-0.16759411621093748,-9.624690673828125,1.2521674682617188,0,0,0,0
0.2361576349999268,-0.18914193115234373,-9.655815295410155,1.2737152832031249,0,0,0,0
0.23739768099994762,-0.2657563842773437,-9.667786303710937,1.2737152832031249,0,0,0,0
0.23870528299994476,-0.2920926025390625,-9.639055883789062,1.2785036865234374,0,0,0,0
0.2398754599998938,-0.354341845703125,-9.636661682128906,1.3383587280273437,0,0,0,0
0.24102709999988292,-0.430956298828125,-9.68454571533203,1.3335703247070312,0,0,0,0
0.24218381399987265,-0.34715924072265625,-9.682151513671874,1.197100830078125,0,0,0,0
0.24341587900016748,-0.316034619140625,-9.720458740234374,1.2785036865234374,0,0,0,0
0.2446546290002516,-0.29448680419921874,-9.545682019042967,1.3239935180664062,0,0,0,0
0.24581715800013626,-0.2705447875976562,-9.586383447265625,1.3215993164062498,0,0,0,0
0.24722042500025054,-0.2609679809570312,-9.6151138671875,1.3096283081054687,0,0,0,0
0.24849832400013838,-0.2346317626953125,-9.665392102050781,1.3000515014648437,0,0,0,0
0.24987810999982685,-0.354341845703125,-9.629479077148437,1.3479355346679687,0,0,0,0
0.2511843410002257,-0.3232172241210937,-9.598354455566406,1.3311761230468748,0,0,0,0
0.2523679999999331,-0.296881005859375,-9.622296472167967,1.3383587280273437,0,0,0,0
0.2535434360002,-0.3232172241210937,-9.785102185058593,1.3120225097656248,0,0,0,0
0.2547945010001058,-0.35673604736328124,-9.660603698730467,1.388636962890625,0,0,0,0
0.2562276009998641,-0.37828386230468747,-9.682151513671874,1.3263877197265623,0,0,0,0
0.25753653599986137,-0.3016694091796875,-9.631873278808593,1.2378022583007813,0,0,0,0
0.2588811750001696,-0.2346317626953125,-9.639055883789062,1.2808978881835937,0,0,0,0
0.26012674000003244,-0.2346317626953125,-9.579200842285156,1.3096283081054687,0,0,0,0
0.26143230500019854,-0.277727392578125,-9.634267480468749,1.407790576171875,0,0,0,0
0.26260957400018015,-0.27293898925781246,-9.68454571533203,1.3479355346679687,0,0,0,0
0.2637877140000455,-0.4213794921875,-9.658209497070311,1.2641384765625,0,0,0,0
0.2652084259998446,-0.430956298828125,-9.662997900390625,1.22583125,0,0,0,0
0.2666025449998415,-0.40940848388671874,-9.593566052246093,1.2641384765625,0,0,0,0
0.2677866849999191,-0.33758243408203126,-9.593566052246093,1.3479355346679687,0,0,0,0
0.26895291700020607,-0.28969840087890625,-9.662997900390625,1.3742717529296875,0,0,0,0
0.270127408999997,-0.2059013427734375,-9.6917283203125,1.3335703247070312,0,0,0,0
0.2713897700000416,-0.2609679809570312,-9.648632690429688,1.2641384765625,0,0,0,0
0.272802185999808,-0.26815058593749996,-9.670180505371093,1.2832920898437499,0,0,0,0
0.27398102899996957,-0.2825157958984375,-9.701305126953125,1.3048399047851562,0,0,0,0
0.27518411300025036,-0.33039982910156246,-9.6917283203125,1.3120225097656248,0,0,0,0
0.27642795600013415,-0.4165910888671875,-9.679757312011718,1.2497732666015624,0,0,0,0
0.2778853340000751,-0.33518823242187495,-9.6917283203125,1.3192051147460937,0,0,0,0
0.27905939999982365,-0.277727392578125,-9.648632690429688,1.2976572998046874,0,0,0,0
0.2802404839999326,-0.3136404174804687,-9.634267480468749,1.3000515014648437,0,0,0,0
0.28147540100007973,-0.29927520751953124,-9.641450085449218,1.2761094848632812,0,0,0,0
0.2828638360001605,-0.2346317626953125,-9.662997900390625,1.2737152832031249,0,0,0,0
0.28404245699994135,-0.21308394775390624,-9.674968908691406,1.3551181396484375,0,0,0,0
0.28521483700023964,-0.28730419921875,-9.720458740234374,1.3024457031249999,0,0,0,0
0.2864512169999216,-0.37828386230468747,-9.730035546875,1.3407529296874998,0,0,0,0
0.28788331800024025,-0.36631285400390623,-9.701305126953125,1.3359645263671873,0,0,0,0
0.2890579390000312,-0.3016694091796875,-9.627084875488281,1.2856862915039062,0,0,0,0
0.29023276399993847,-0.30885201416015623,-9.583989245605467,1.2856862915039062,0,0,0,0
0.29147886600003403,-0.36152445068359373,-9.639055883789062,1.3455413330078123,0,0,0,0
0.2928967640000337,-0.22266075439453123,-9.672574707031249,1.22583125,0,0,0,0
0.29407127400008903,-0.22266075439453123,-9.674968908691406,1.22583125,0,0,0,0
0.29527183900017917,-0.24899697265624998,-9.667786303710937,1.3192051147460937,0,0,0,0
0.29651451500012627,-0.3064578125,-9.643844287109374,1.2952630981445312,0,0,0,0
0.2983375019998675,-0.373495458984375,-9.667786303710937,1.2785036865234374,0,0,0,0
0.2995364190001055,-0.3184288208007812,-9.725247143554688,1.2210428466796874,0,0,0,0
0.3007191699998657,-0.38307226562499996,-9.660603698730467,1.3144167114257812,0,0,0,0
0.30222484500018254,-0.32561142578124996,-9.670180505371093,1.3455413330078123,0,0,0,0
0.3034706319999714,-0.33039982910156246,-9.605537060546874,1.2569558715820313,0,0,0,0
0.30487054800005353,-0.21787235107421873,-9.651026892089844,1.2761094848632812,0,0,0,0
0.3061341679999714,-0.20829554443359374,-9.629479077148437,1.3072341064453123,0,0,0,0
0.3075057700002617,-0.25139117431640623,-9.68454571533203,1.2880804931640624,0,0,0,0
0.30877555699998993,-0.36152445068359373,-9.730035546875,1.2497732666015624,0,0,0,0
0.3099585479999405,-0.35673604736328124,-9.756371765136718,1.2234370483398436,0,0,0,0
0.31117748399992706,-0.3854664672851562,-9.689334118652344,1.2425906616210938,0,0,0,0
0.3124307709999812,-0.39264907226562495,-9.619902270507811,1.254561669921875,0,0,0,0
0.31393900100010796,-0.3327940307617187,-9.629479077148437,1.3239935180664062,0,0,0,0
0.3151594179998938,-0.296881005859375,-9.639055883789062,1.3718775512695311,0,0,0,0
0.3163503910000145,-0.296881005859375,-9.651026892089844,1.2641384765625,0,0,0,0
0.31758830799981297,-0.3136404174804687,-9.758765966796874,1.2880804931640624,0,0,0,0
0.3189247059999616,-0.22266075439453123,-9.660603698730467,1.2976572998046874,0,0,0,0
0.3210505050001302,-0.3232172241210937,-9.715670336914062,1.3383587280273437,0,0,0,0
0.32240221800020663,-0.354341845703125,-9.6917283203125,1.3000515014648437,0,0,0,0
0.3236054320000221,-0.39264907226562495,-9.662997900390625,1.2473790649414063,0,0,0,0
0.3247128870002598,-0.5267243652343749,-9.651026892089844,1.2641384765625,0,0,0,0
0.32580054500022015,-0.3447650390625,-9.617508068847656,1.2401964599609374,0,0,0,0
0.3268790560000525,-0.316034619140625,-9.605537060546874,1.3048399047851562,0,0,0,0
0.32796452999991743,-0.181959326171875,-9.641450085449218,1.3120225097656248,0,0,0,0
0.3291854469998725,-0.2154781494140625,-9.655815295410155,1.235408056640625,0,0,0,0
0.3303581979998853,-0.22266075439453123,-9.667786303710937,1.2713210815429687,0,0,0,0
0.3314577080000163,-0.2442085693359375,-9.753977563476562,1.3479355346679687,0,0,0,0
0.332536108000113,-0.30885201416015623,-9.739612353515625,1.3383587280273437,0,0,0,0
0.3336223589999463,-0.3399766357421875,-9.70369932861328,1.180341418457031,0,0,0,0
0.3348136660001728,-0.38307226562499996,-9.679757312011718,1.1923124267578125,0,0,0,0
0.3359927310002604,-0.33518823242187495,-9.634267480468749,1.2689268798828124,0,0,0,0
0.3370836120002423,-0.32561142578124996,-9.68454571533203,1.3168109130859373,0,0,0,0
0.3381650119999904,-0.3136404174804687,-9.665392102050781,1.2976572998046874,0,0,0,0
0.33938131800005067,-0.27293898925781246,-9.70369932861328,1.2904746948242187,0,0,0,0
0.34056206900004327,-0.22026655273437498,-9.665392102050781,1.2497732666015624,0,0,0,0
0.341651838999951,-0.19871873779296872,-9.655815295410155,1.3120225097656248,0,0,0,0
0.3427325349998682,-0.23702596435546874,-9.603142858886718,1.2641384765625,0,0,0,0
0.34395348899988676,-0.28969840087890625,-9.636661682128906,1.2497732666015624,0,0,0,0
0.34522605400024986,-0.28012159423828126,-9.658209497070311,1.2282254516601563,0,0,0,0
0.34639408200018806,-0.36631285400390623,-9.641450085449218,1.3335703247070312,0,0,0,0
0.3474893150000753,-0.38307226562499996,-9.636661682128906,1.2976572998046874,0,0,0,0
0.34863084400012667,-0.3591302490234375,-9.660603698730467,1.3814543579101561,0,0,0,0
0.34972355799982324,-0.3399766357421875,-9.622296472167967,1.3215993164062498,0,0,0,0
0.3509187170002406,-0.30406361083984373,-9.593566052246093,1.2521674682617188,0,0,0,0
0.35210030100006406,-0.21787235107421873,-9.600748657226562,1.3168109130859373,0,0,0,0
0.3531915150001623,-0.21068974609375,-9.588777648925781,1.2497732666015624,0,0,0,0
0.3542756920001011,-0.2825157958984375,-9.679757312011718,1.3407529296874998,0,0,0,0
0.35549472100001367,-0.30885201416015623,-9.686939916992188,1.2641384765625,0,0,0,0
0.3566783050000595,-0.2346317626953125,-9.696516723632811,1.2282254516601563,0,0,0,0
0.35777020400018955,-0.39743747558593745,-9.65342109375,1.3646949462890625,0,0,0,0
0.3588513449999482,-0.3854664672851562,-9.65342109375,1.3479355346679687,0,0,0,0
0.359942614999909,-0.35673604736328124,-9.686939916992188,1.35990654296875,0,0,0,0
0.3611629580000226,-0.29927520751953124,-9.636661682128906,1.3742717529296875,0,0,0,0
0.3623387080001521,-0.2753331909179687,-9.610325463867188,1.3383587280273437,0,0,0,0
0.36346477400002186,-0.24181436767578124,-9.593566052246093,1.2880804931640624,0,0,0,0
0.3646170249999159,-0.2825157958984375,-9.617508068847656,1.3048399047851562,0,0,0,0
0.3657930170002146,-0.143652099609375,-9.648632690429688,1.2617442749023438,0,0,0,0
0.36702004500011753,-0.24899697265624998,-9.658209497070311,1.3000515014648437,0,0,0,0
0.3682116660002066,-0.27293898925781246,-9.672574707031249,1.2425906616210938,0,0,0,0
0.3693274359998213,-0.36391865234375,-9.698910925292969,1.2665326782226562,0,0,0,0
0.3705107420000786,-0.3854664672851562,-9.672574707031249,1.2856862915039062,0,0,0,0
0.3716135680001571,-0.39264907226562495,-9.665392102050781,1.3359645263671873,0,0,0,0
0.3728548919998502,-0.3112462158203125,-9.622296472167967,1.2665326782226562,0,0,0,0
0.3741200869999375,-0.24660277099609373,-9.619902270507811,1.24498486328125,0,0,0,0
0.37535978100004286,-0.258573779296875,-9.610325463867188,1.2713210815429687,0,0,0,0
0.3765851240000302,-0.2753331909179687,-9.68454571533203,1.2665326782226562,0,0,0,0
0.37782378200017774,-0.27293898925781246,-9.804255798339844,1.2282254516601563,0,0,0,0
0.3790583840000181,-0.17238251953125,-9.801861596679688,1.216254443359375,0,0,0,0
0.3802292830000624,-0.3136404174804687,-9.595960253906249,1.235408056640625,0,0,0,0
0.3813943489999474,-0.49320554199218747,-9.682151513671874,1.2018892333984375,0,0,0,0
0.38261924800008273,-0.6344634399414062,-9.617508068847656,1.2042834350585936,0,0,0,0
0.38385390500025096,-0.47165772705078124,-9.751583361816406,1.2785036865234374,0,0,0,0
0.38502578599991466,-0.17956512451171874,-9.667786303710937,1.3623007446289062,0,0,0,0
0.3861921480001911,-0.05985504150390625,-9.677363110351562,1.5035586425781249,0,0,0,0
0.3874634349999724,-0.076614453125,-9.576806640625,1.467645617675781,0,0,0,0
0.3887412590001986,-0.24899697265624998,-9.648632690429688,1.3838485595703125,0,0,0,0
0.3900289349999184,0.13168109130859373,-9.986215124511718,1.0797849487304687,0,0,0,0
0.3922754929999428,-0.4644751220703125,-9.387664709472656,0.6871358764648438,0,0,0,0
0.3937546490001296,-1.4963760375976562,-9.502586389160156,0.6967126831054687,0,0,0,0
0.3959947070002272,-0.74699091796875,-9.629479077148437,0.8714894042968749,0,0,0,0
0.39712423599985414,-0.2154781494140625,-9.440337145996093,1.3144167114257812,0,0,0,0
0.39826365399994756,0.44053310546874996,-9.730035546875,1.7286135986328124,0,0,0,0
0.3994583120002062,0.8978256225585937,-9.394847314453125,1.687912170410156,0,0,0,0
0.4005400080000072,0.4285620971679687,-9.828197814941406,1.5203180541992187,0,0,0,0
0.40160690699985935,-0.06703764648437499,-9.660603698730467,1.2928688964843749,0,0,0,0
0.4026763810002194,-0.7613561279296874,-9.751583361816406,1.0917559570312498,0,0,0,0
0.40384231699999873,-0.9983820922851562,-9.904812268066406,1.1013327636718748,0,0,0,0
0.40508454900009383,-0.33518823242187495,-9.890447058105469,1.2114660400390624,0,0,0,0
0.40616678200012757,0.13407529296874998,-9.605537060546874,1.429338391113281,0,0,0,0
0.4072476999999708,0.3902548706054687,-9.483432775878907,1.5658078857421873,0,0,0,0
0.40838713599987386,0.1197100830078125,-9.363722692871093,1.3048399047851562,0,0,0,0
0.40959922000001825,-0.2609679809570312,-9.660603698730467,1.0079588989257813,0,0,0,0
0.4106810640000731,-0.4525041137695312,-9.718064538574218,0.9050082275390624,0,0,0,0
0.411784242000067,-0.7733271362304687,-9.91438907470703,0.814028564453125,0,0,0,0
0.41285341899993,-0.7015010864257812,-10.01015714111328,0.833182177734375,0,0,0,0
0.41400068900020415,-0.5817910034179687,-9.777919580078125,1.158793603515625,0,0,0,0
0.41568893600015144,-0.34237083740234375,-9.725247143554688,1.3431471313476562,0,0,0,0
0.41682140900002196,0.0047884033203125,-9.514557397460937,1.3575123413085937,0,0,0,0
0.4179120120002153,-0.1292868896484375,-9.612719665527344,1.3670891479492187,0,0,0,0
0.4189839310001844,-0.373495458984375,-9.591171850585937,1.3144167114257812,0,0,0,0
0.420150274000207,-0.5147533569335937,-9.545682019042967,1.3168109130859373,0,0,0,0
0.4214035610002611,-0.4860229370117187,-9.540893615722656,1.3527239379882812,0,0,0,0
0.42250583099985306,-0.2825157958984375,-9.751583361816406,1.37906015625,0,0,0,0
0.4240942830001586,-0.0526724365234375,-9.816226806640625,1.407790576171875,0,0,0,0
0.42531123700018725,0.08140285644531249,-9.595960253906249,1.3192051147460937,0,0,0,0
0.4265734320001684,0.03591302490234375,-9.536105212402344,1.2904746948242187,0,0,0,0
0.42768479400001524,-0.2059013427734375,-9.557653027343749,1.1923124267578125,0,0,0,0
0.42875861899983647,-0.6368576416015624,-9.74200655517578,1.0630255371093749,0,0,0,0
0.42982990800010157,-0.6679822631835937,-9.775525378417969,1.1061211669921875,0,0,0,0
0.4308987519998482,-0.63206923828125,-9.70369932861328,1.1156979736328125,0,0,0,0
0.4320875960002013,-0.30406361083984373,-9.706093530273437,1.0941501586914062,0,0,0,0
0.4339827859998877,-0.23223756103515625,-9.488221179199218,1.2761094848632812,0,0,0,0
0.43561140400015574,-0.105344873046875,-9.440337145996093,1.3287819213867187,0,0,0,0
0.4376315929998782,-0.229843359375,-9.701305126953125,1.2210428466796874,0,0,0,0
0.43930865499987704,-0.4381389038085937,-9.797073193359374,1.254561669921875,0,0,0,0
0.44081223600005615,-0.36152445068359373,-9.801861596679688,1.2832920898437499,0,0,0,0
0.442569075999927,-0.354341845703125,-9.588777648925781,1.4006079711914061,0,0,0,0
0.4443959879999966,-0.2609679809570312,-9.5384994140625,1.3575123413085937,0,0,0,0
0.445923385000242,-0.26815058593749996,-9.6917283203125,1.3144167114257812,0,0,0,0
0.4477419640002154,-0.20350714111328125,-9.775525378417969,1.22583125,0,0,0,0
0.44954232200007027,-0.25139117431640623,-9.6917283203125,1.0941501586914062,0,0,0,0
0.4510662920001778,-0.3327940307617187,-9.662997900390625,1.1540052001953125,0,0,0,0
0.4528391310000188,-0.4165910888671875,-9.665392102050781,1.0965443603515623,0,0,0,0
0.4546135820000927,-0.3687070556640625,-9.679757312011718,1.1635820068359375,0,0,0,0
0.456129293000231,-0.25139117431640623,-9.651026892089844,1.1731588134765625,0,0,0,0
0.4578536690000874,-0.29448680419921874,-9.612719665527344,1.0941501586914062,0,0,0,0
0.459687785999904,-0.3136404174804687,-9.610325463867188,1.180341418457031,0,0,0,0
0.46121434899987435,-0.24899697265624998,-9.655815295410155,1.0989385620117187,0,0,0,0
0.46298302100012734,-0.2825157958984375,-9.694122521972655,1.2808978881835937,0,0,0,0
0.4647798790001616,-0.3495534423828125,-9.710881933593749,1.2952630981445312,0,0,0,0
0.46647801500012065,-0.33758243408203126,-9.617508068847656,1.3670891479492187,0,0,0,0
0.46845711200012374,-0.3495534423828125,-9.603142858886718,1.2617442749023438,0,0,0,0
0.4700723780001681,-0.27293898925781246,-9.603142858886718,1.2785036865234374,0,0,0,0
0.4715982369998528,-0.28969840087890625,-9.674968908691406,1.2425906616210938,0,0,0,0
0.47354777900000045,-0.28730419921875,-9.68454571533203,1.2210428466796874,0,0,0,0
0.47520204500006,-0.373495458984375,-9.6917283203125,1.2641384765625,0,0,0,0
0.47677540399990903,-0.4261678955078125,-9.732429748535155,1.2976572998046874,0,0,0,0
0.47854642799984504,-0.3902548706054687,-9.694122521972655,1.218648645019531,0,0,0,0
0.479884826000216,-0.3495534423828125,-9.696516723632811,1.24498486328125,0,0,0,0
0.4813139080001747,-0.18435352783203124,-9.686939916992188,1.2114660400390624,0,0,0,0
0.48325685700001486,-0.17238251953125,-9.605537060546874,1.2497732666015624,0,0,0,0
0.4844766259998323,-0.18914193115234373,-9.710881933593749,1.1228805786132812,0,0,0,0
0.48558696999998574,-0.2154781494140625,-9.698910925292969,1.0797849487304687,0,0,0,0
0.48673996200022884,-0.39264907226562495,-9.770736975097655,1.0630255371093749,0,0,0,0
0.4878385460001482,-0.38786066894531246,-9.708487731933593,1.1516109985351561,0,0,0,0
0.48898255699987203,-0.49320554199218747,-9.674968908691406,1.1372457885742187,0,0,0,0
0.4901191970002401,-0.4860229370117187,-9.595960253906249,1.1276689819335937,0,0,0,0
0.4912833920002413,-0.33758243408203126,-9.60793126220703,1.22583125,0,0,0,0
0.49238968000008754,-0.23223756103515625,-9.521740002441407,1.2904746948242187,0,0,0,0
0.4934760979999737,-0.1867477294921875,-9.521740002441407,1.2018892333984375,0,0,0,0
0.4945577759999651,-0.2059013427734375,-9.528922607421874,1.216254443359375,0,0,0,0
0.49566030500000124,-0.16280571289062498,-9.598354455566406,1.2042834350585936,0,0,0,0
0.4968157779999274,-0.2920926025390625,-9.643844287109374,1.1827356201171875,0,0,0,0
0.4979650660002335,-0.39264907226562495,-9.686939916992188,1.216254443359375,0,0,0,0
0.4990574660000675,-0.4070142822265625,-9.655815295410155,1.2713210815429687,0,0,0,0
0.5001462909999645,-0.4070142822265625,-9.65342109375,1.120486376953125,0,0,0,0
0.5012845050000578,-0.40462008056640625,-9.65342109375,1.3263877197265623,0,0,0,0
0.5024320339998667,-0.36631285400390623,-9.552864624023437,1.3048399047851562,0,0,0,0
0.5035554330002014,-0.29448680419921874,-9.543287817382812,1.3048399047851562,0,0,0,0
0.5046392590002142,-0.1771709228515625,-9.574412438964844,1.2569558715820313,0,0,0,0
0.5057216029999836,-0.28969840087890625,-9.679757312011718,1.3024457031249999,0,0,0,0
0.5068078539998169,-0.1867477294921875,-9.6917283203125,1.4101847778320311,0,0,0,0
0.5079872350002006,-0.1867477294921875,-9.696516723632811,1.3646949462890625,0,0,0,0
0.5091220600002089,-0.25139117431640623,-9.70369932861328,1.2856862915039062,0,0,0,0
0.5102103109998097,-0.29448680419921874,-9.727641345214844,1.2808978881835937,0,0,0,0
0.511293637000108,-0.35194764404296874,-9.78031378173828,1.2808978881835937,0,0,0,0
0.5123653700002251,-0.4261678955078125,-9.737218151855469,1.3383587280273437,0,0,0,0
0.5134923059999892,-0.4525041137695312,-9.794678991699218,1.2617442749023438,0,0,0,0
0.5146231500002614,-0.40462008056640625,-9.749189160156249,1.218648645019531,0,0,0,0
0.5157147350000741,-0.3902548706054687,-9.713276135253906,1.254561669921875,0,0,0,0
0.5167977269998119,-0.2442085693359375,-9.68454571533203,1.1516109985351561,0,0,0,0
0.5178786820001733,-0.16519991455078123,-9.648632690429688,1.1635820068359375,0,0,0,0
0.5194146899998486,-0.20350714111328125,-9.765948571777344,1.0941501586914062,0,0,0,0
0.5206065510001281,-0.18435352783203124,-9.737218151855469,1.0606313354492187,0,0,0,0
0.5216977840000254,-0.48123453369140623,-9.70369932861328,1.0510545288085937,0,0,0,0
0.5227847390001443,-0.51714755859375,-9.643844287109374,1.0845733520507812,0,0,0,0
0.5238994350002031,-0.49799394531249996,-9.674968908691406,1.1013327636718748,0,0,0,0
0.5252869249998184,-0.4572925170898437,-9.74200655517578,1.1516109985351561,0,0,0,0
0.5264599540000745,-0.39264907226562495,-9.476250170898437,1.3192051147460937,0,0,0,0
0.5275590940000257,-0.40462008056640625,-9.449913952636718,1.3072341064453123,0,0,0,0
0.5286384750002071,-0.28490999755859375,-9.512163195800781,1.3072341064453123,0,0,0,0
0.5297185780000291,-0.14125789794921875,-9.481038574218749,1.3000515014648437,0,0,0,0
0.5308822739998504,-0.16280571289062498,-9.512163195800781,1.419761584472656,0,0,0,0
0.5320712839998123,-0.2657563842773437,-9.557653027343749,1.39821376953125,0,0,0,0
0.5331773679999969,-0.3327940307617187,-9.612719665527344,1.5275006591796874,0,0,0,0
0.5342585640000834,-0.33758243408203126,-9.631873278808593,1.3383587280273437,0,0,0,0
0.5354340929998216,-0.35194764404296874,-9.686939916992188,1.369483349609375,0,0,0,0
0.5366059920002044,-0.17956512451171874,-9.648632690429688,1.37906015625,0,0,0,0
0.5377181869998822,-0.3495534423828125,-9.612719665527344,1.2952630981445312,0,0,0,0
0.540323558000182,-0.277727392578125,-9.794678991699218,1.1324573852539062,0,0,0,0
0.542351802000212,-0.4285620971679687,-9.80665,1.0893617553710937,0,0,0,0
0.5437344400002075,-0.38307226562499996,-9.852139831542969,1.120486376953125,0,0,0,0
0.5459638689999338,-0.40222587890625,-9.871293444824218,1.1252747802734375,0,0,0,0
0.5476306720001958,-0.37828386230468747,-9.686939916992188,1.235408056640625,0,0,0,0
0.5492583640002522,-0.373495458984375,-9.605537060546874,1.1635820068359375,0,0,0,0
0.5512687380000898,-0.3447650390625,-9.576806640625,1.3383587280273437,0,0,0,0
0.5529257080002026,-0.1484405029296875,-9.603142858886718,1.4604630126953124,0,0,0,0
0.5548999709999407,-0.0909796630859375,-9.605537060546874,1.4125789794921875,0,0,0,0
0.5568936240001676,-0.17238251953125,-9.610325463867188,1.4030021728515625,0,0,0,0
0.5585373710000567,-0.28490999755859375,-9.622296472167967,1.3527239379882812,0,0,0,0
0.5601109340000221,-0.46208092041015625,-9.660603698730467,1.3575123413085937,0,0,0,0
0.5619192909998674,-0.33518823242187495,-9.631873278808593,1.1707646118164061,0,0,0,0
0.5637548149998111,-0.3016694091796875,-9.595960253906249,1.0869675537109373,0,0,0,0
0.565260323000075,-0.21068974609375,-9.605537060546874,1.1013327636718748,0,0,0,0
0.5670576249999613,-0.3806780639648437,-9.679757312011718,1.0630255371093749,0,0,0,0
0.5688506299998153,-0.5961562133789062,-9.87608184814453,0.9217676391601562,0,0,0,0
0.5703644710001754,-0.7062894897460937,-9.90241806640625,1.0797849487304687,0,0,0,0
0.571478371000012,-0.718260498046875,-9.612719665527344,1.1875240234375,0,0,0,0
0.5726320660000965,-0.38786066894531246,-9.528922607421874,1.3383587280273437,0,0,0,0
0.5737821500001701,-0.15322890625,-9.540893615722656,1.5490484741210937,0,0,0,0
0.5748743280000781,0.009576806640625,-9.473855969238281,1.656787548828125,0,0,0,0
0.5759517639999103,0.15562310791015624,-9.495403784179686,1.7812860351562498,0,0,0,0
0.5770215900001858,0.12689268798828124,-9.588777648925781,1.7381904052734374,0,0,0,0
0.5781468780000978,0.0430956298828125,-9.658209497070311,1.7405846069335937,0,0,0,0
0.5792857400001594,-0.11013327636718749,-9.792284790039062,1.35990654296875,0,0,0,0
0.5803765470000144,-0.13407529296874998,-9.76116016845703,1.3335703247070312,0,0,0,0
0.5814589840001645,-0.201112939453125,-9.670180505371093,1.1061211669921875,0,0,0,0
0.5825403280000501,-0.36391865234375,-9.746794958496093,0.93852705078125,0,0,0,0
0.5836251350001476,-0.5219359619140624,-9.713276135253906,0.8355763793945312,0,0,0,0
0.5847691640001358,-0.6392518432617187,-9.64623848876953,0.7948749511718749,0,0,0,0
0.5859220070001356,-0.5147533569335937,-9.60793126220703,0.8283937744140625,0,0,0,0
0.5870157590002236,-0.4333505004882812,-9.502586389160156,0.7661445312499999,0,0,0,0
0.5881055840000045,-0.4213794921875,-9.591171850585937,0.8020575561523438,0,0,0,0
0.589259150000089,-0.411802685546875,-9.804255798339844,1.0271125122070313,0,0,0,0
0.5904206599998361,-0.469263525390625,-9.708487731933593,1.1228805786132812,0,0,0,0
0.5915233559999251,-0.3232172241210937,-9.72285294189453,1.3239935180664062,0,0,0,0
0.592608514999938,-0.6105214233398437,-9.655815295410155,1.4437036010742186,0,0,0,0
0.5936957660001099,-0.28012159423828126,-9.586383447265625,1.6041151123046875,0,0,0,0
0.5948430359999293,-0.10773907470703124,-9.629479077148437,1.7286135986328124,0,0,0,0
0.5962057299998378,-0.011971008300781249,-9.560047229003906,1.917755529785156,0,0,0,0
0.5973062030002438,0.11731588134765625,-9.45470235595703,1.8411410766601561,0,0,0,0
0.5983940659998552,0.17238251953125,-9.476250170898437,1.7573440185546874,0,0,0,0
0.5995694829998683,0.27293898925781246,-9.622296472167967,1.659181750488281,0,0,0,0
0.6007523080002102,-0.19393033447265623,-9.715670336914062,1.3311761230468748,0,0,0,0
0.6018508560000555,-0.25139117431640623,-9.828197814941406,1.0654197387695312,0,0,0,0
0.6029513849998693,-0.4333505004882812,-9.832986218261718,0.8954314208984374,0,0,0,0
0.6040466919998835,-0.5698199951171875,-9.880870251464843,0.6679822631835937,0,0,0,0
0.605218294000224,-0.6057330200195312,-9.883264453125,0.5147533569335937,0,0,0,0
0.6064060819999213,-0.7206546997070312,-9.720458740234374,0.5961562133789062,0,0,0,0
0.6075065740001264,-0.6248866333007812,-9.622296472167967,0.6416460449218749,0,0,0,0
0.6086545660000411,-0.7637503295898437,-9.64623848876953,0.8116343627929687,0,0,0,0
0.6098694460001752,-0.49799394531249996,-9.603142858886718,1.01514150390625,0,0,0,0
0.61099212299996,-0.2609679809570312,-9.612719665527344,1.3670891479492187,0,0,0,0
0.6121749479998471,-0.15322890625,-9.679757312011718,1.6543933471679686,0,0,0,0
0.6132636809998075,0.07900865478515624,-9.555258825683593,1.656787548828125,0,0,0,0
0.6143488769998839,0.10773907470703124,-9.514557397460937,1.7022773803710936,0,0,0,0
0.6155045350001274,0.016759411621093748,-9.737218151855469,1.7788918334960937,0,0,0,0
0.6166536569999153,-0.05746083984375,-9.749189160156249,1.7357962036132812,0,0,0,0
0.6177440559999923,-0.1771709228515625,-9.672574707031249,1.5825672973632812,0,0,0,0
0.6188246040001104,-0.30885201416015623,-9.540893615722656,1.4317325927734375,0,0,0,0
0.6199071519999961,-0.3064578125,-9.562441430664062,1.2282254516601563,0,0,0,0
0.6210666619999756,-0.3902548706054687,-9.572018237304688,1.1372457885742187,0,0,0,0
0.6221987280000576,-0.5123591552734374,-9.488221179199218,0.9576806640625,0,0,0,0
0.623462310999912,-0.507570751953125,-9.507374792480467,0.9145850341796874,0,0,0,0
0.6245651919998636,-0.5195417602539062,-9.548076220703125,0.9265560424804687,0,0,0,0
0.6256476660000772,-0.5051765502929687,-9.643844287109374,0.8571241943359375,0,0,0,0
0.6267922500001077,-0.4285620971679687,-9.737218151855469,0.9097966308593749,0,0,0,0
0.6281535369998892,-0.4381389038085937,-9.694122521972655,1.37906015625,0,0,0,0
0.6292488439999033,-0.3399766357421875,-9.557653027343749,1.5203180541992187,0,0,0,0
0.6303320209999583,-0.28490999755859375,-9.710881933593749,1.707065783691406,0,0,0,0
0.631482030999905,-0.19393033447265623,-9.698910925292969,1.6352397338867186,0,0,0,0
0.6327935220001564,-0.028730419921875,-9.6917283203125,1.5753846923828123,0,0,0,0
0.6338837180001065,-0.05027823486328125,-9.706093530273437,1.5849614990234373,0,0,0,0
0.6349654509999709,-0.14125789794921875,-9.662997900390625,1.467645617675781,0,0,0,0
0.6360511470002166,-0.2537853759765625,-9.548076220703125,1.3239935180664062,0,0,0,0
0.6371974160001628,-0.35673604736328124,-9.651026892089844,1.0582371337890624,0,0,0,0
0.6384962030001589,-0.51714755859375,-9.696516723632811,0.9744400756835937,0,0,0,0
0.6396584909998637,-0.679953271484375,-9.696516723632811,0.9409212524414062,0,0,0,0
0.6411763510000128,-0.6871358764648438,-9.782707983398437,1.1276689819335937,0,0,0,0
0.6424798230000306,-0.32561142578124996,-9.749189160156249,1.3192051147460937,0,0,0,0
0.643803220999871,0.023942016601562498,-9.686939916992188,1.426944189453125,0,0,0,0
0.6449069350001082,0.09337386474609374,-9.694122521972655,1.429338391113281,0,0,0,0
0.6459878340001524,0.09576806640624999,-9.698910925292969,1.4437036010742186,0,0,0,0
0.6471008449998408,-0.15083470458984374,-9.744400756835937,1.13006318359375,0,0,0,0
0.6482553179998831,-0.3136404174804687,-9.658209497070311,1.0917559570312498,0,0,0,0
0.6495764380001674,-0.5243301635742187,-9.660603698730467,0.9552864624023437,0,0,0,0
0.6506643379998422,-0.5482721801757812,-9.593566052246093,1.0079588989257813,0,0,0,0
0.6517496629999187,-0.4644751220703125,-9.557653027343749,1.0079588989257813,0,0,0,0
0.6528335630000583,-0.4333505004882812,-9.533711010742186,1.0558429321289062,0,0,0,0
0.6539919619999637,-0.3711012573242187,-9.504980590820312,1.2689268798828124,0,0,0,0
0.6552705270000843,-0.42377369384765623,-9.363722692871093,1.37906015625,0,0,0,0
0.6563559450000866,-0.41419688720703124,-9.524134204101562,1.429338391113281,0,0,0,0
0.6574358450002364,-0.37828386230468747,-9.598354455566406,1.5658078857421873,0,0,0,0
0.6585153549999632,-0.28490999755859375,-9.629479077148437,1.6543933471679686,0,0,0,0
0.6596578100002262,0.2442085693359375,-9.591171850585937,1.6328455322265625,0,0,0,0
0.6609585599999264,0.27293898925781246,-9.672574707031249,1.6017209106445311,0,0,0,0
0.6620466630001829,0.16998831787109375,-9.746794958496093,1.419761584472656,0,0,0,0
0.6631562110001141,-0.17477672119140625,-9.631873278808593,1.0175357055664063,0,0,0,0
0.6643046839999442,-0.469263525390625,-9.777919580078125,0.842758984375,0,0,0,0
0.665760506999959,-1.0007762939453124,-9.725247143554688,0.737414111328125,0,0,0,0
0.6673235510002087,-1.0342951171875,-9.720458740234374,0.699106884765625,0,0,0,0
0.668435061999844,-0.852335791015625,-9.586383447265625,0.9050082275390624,0,0,0,0
0.6695841649998329,-0.2705447875976562,-9.612719665527344,1.0223241088867188,0,0,0,0
0.6713138370000706,0.05746083984375,-9.6917283203125,1.37906015625,0,0,0,0
0.6725667169998815,0.16998831787109375,-9.737218151855469,1.4628572143554686,0,0,0,0
0.6737157090001347,-0.05746083984375,-9.83777462158203,1.4724340209960938,0,0,0,0
0.674861607999901,-0.22744915771484372,-9.878476049804688,1.484405029296875,0,0,0,0
0.6761460620000435,-0.4261678955078125,-9.849745629882811,1.1827356201171875,0,0,0,0
0.6772391839999727,-0.5961562133789062,-9.95987890625,1.1563994018554686,0,0,0,0
0.6783248060000915,-0.5746083984375,-9.478644372558593,1.1228805786132812,0,0,0,0
0.6794750009999007,-0.55545478515625,-9.392453112792968,1.0295067138671874,0,0,0,0
0.6807790100001512,-0.19632453613281248,-9.402029919433593,1.2114660400390624,0,0,0,0
0.6818702430000485,-0.21787235107421873,-9.404424121093749,1.3910311645507811,0,0,0,0
0.6829507910001666,-0.22266075439453123,-9.507374792480467,1.4413093994140624,0,0,0,0
0.684072672000184,-0.1388636962890625,-9.586383447265625,1.4820108276367188,0,0,0,0
0.6852275520000148,-0.1388636962890625,-9.792284790039062,1.4053963745117186,0,0,0,0
0.686517227999957,-0.1292868896484375,-9.777919580078125,1.467645617675781,0,0,0,0
0.6876289050001105,-0.18914193115234373,-9.725247143554688,1.3718775512695311,0,0,0,0
0.6887149160002082,-0.3136404174804687,-9.68454571533203,1.2904746948242187,0,0,0,0
0.6902278870002192,-0.49799394531249996,-9.581595043945311,1.1348515869140625,0,0,0,0
0.6913956739999776,-0.6177040283203125,-9.521740002441407,1.0271125122070313,0,0,0,0
0.6929770330002611,-0.7661445312499999,-9.564835632324218,1.1013327636718748,0,0,0,0
0.6943596529999922,-0.5961562133789062,-9.533711010742186,1.3000515014648437,0,0,0,0
0.696537674999945,0.3902548706054687,-9.65342109375,1.6615759521484375,0,0,0,0
0.6981169219998264,0.316034619140625,-9.809044201660155,1.5538368774414062,0,0,0,0
0.6998242250001567,-0.229843359375,-9.892841259765625,1.254561669921875,0,0,0,0
0.7017979140000534,-0.8667010009765624,-9.81862100830078,0.852335791015625,0,0,0,0
0.7035367540001971,-0.8092401611328125,-9.545682019042967,0.8738836059570312,0,0,0,0
0.7056883310001467,-0.32561142578124996,-9.373299499511718,1.1875240234375,0,0,0,0
0.7079011850000825,-0.0143652099609375,-9.41639512939453,1.4796166259765624,0,0,0,0
0.7093356939999467,0.12689268798828124,-9.718064538574218,1.5682020874023437,0,0,0,0
0.710856516000149,0.05027823486328125,-9.868899243164062,1.4939818359375,0,0,0,0
0.7128028349998203,-0.4285620971679687,-9.950302099609374,1.3383587280273437,0,0,0,0
0.7140929370002596,-0.4860229370117187,-9.888052856445311,1.1731588134765625,0,0,0,0
0.715236650999941,-0.5674257934570313,-9.801861596679688,1.024718310546875,0,0,0,0
0.71634855100001,-0.6368576416015624,-9.41639512939453,1.01514150390625,0,0,0,0
0.7174360240001079,-0.47644613037109373,-9.370905297851563,1.0295067138671874,0,0,0,0
0.7185269050000898,-0.30885201416015623,-9.442731347656249,1.0797849487304687,0,0,0,0
0.7197611560000041,-0.20829554443359374,-9.588777648925781,1.1348515869140625,0,0,0,0
0.7209484250001879,-0.14604630126953125,-9.696516723632811,1.216254443359375,0,0,0,0
0.7220368799999051,-0.16759411621093748,-9.842563024902343,1.1635820068359375,0,0,0,0
0.7231565570000384,-0.17477672119140625,-9.866505041503906,1.0845733520507812,0,0,0,0
0.7243631599999389,-0.33758243408203126,-9.828197814941406,1.1156979736328125,0,0,0,0
0.7255422070002169,-0.612915625,-9.689334118652344,1.139639990234375,0,0,0,0
0.7267465499999162,-0.7206546997070312,-9.545682019042967,1.1540052001953125,0,0,0,0
0.7279447629998685,-0.6177040283203125,-9.512163195800781,1.2713210815429687,0,0,0,0
0.7290412369998194,-0.3950432739257812,-9.5001921875,1.6112977172851561,0,0,0,0
0.7302686910002194,-0.086191259765625,-9.452308154296874,1.6998831787109374,0,0,0,0
0.73144234900019,0.0430956298828125,-9.421183532714844,1.7334020019531249,0,0,0,0
0.7325339530002566,0.2154781494140625,-9.610325463867188,1.6711527587890624,0,0,0,0
0.7336160370000471,0.12449848632812499,-9.756371765136718,1.5298948608398437,0,0,0,0
0.734699696000007,-0.11013327636718749,-9.888052856445311,1.3527239379882812,0,0,0,0
0.7359064840002247,-0.4955997436523437,-9.964667309570311,1.2138602416992186,0,0,0,0
0.7370919380000487,-0.8738836059570312,-9.988609326171874,0.852335791015625,0,0,0,0
0.7381854860000203,-1.1061211669921875,-9.794678991699218,0.9074024291992187,0,0,0,0
0.7392803299999287,-1.0630255371093749,-9.483432775878907,0.9983820922851562,0,0,0,0
0.740479673000209,-0.6153098266601562,-9.411606726074218,1.2473790649414063,0,0,0,0
0.7416570539999157,0.41419688720703124,-9.490615380859374,1.4604630126953124,0,0,0,0
0.7427485829998659,0.6177040283203125,-9.512163195800781,1.5370774658203123,0,0,0,0
0.7438430560000597,0.4525041137695312,-9.734823950195311,1.2856862915039062,0,0,0,0
0.7449314559999038,-0.028730419921875,-9.90241806640625,1.1755530151367186,0,0,0,0
0.7461431510000693,-0.584185205078125,-10.031704956054687,0.7517793212890624,0,0,0,0
0.7473086429999967,-1.0486603271484374,-9.777919580078125,0.7206546997070312,0,0,0,0
0.74839937500019,-1.3239935180664062,-9.581595043945311,0.8738836059570312,0,0,0,0
0.7494820709998748,-1.149216796875,-9.490615380859374,1.1947066284179686,0,0,0,0
0.7505656749999616,-0.3399766357421875,-9.332598071289063,1.448492004394531,0,0,0,0
0.7517587960001038,0.3495534423828125,-9.196128576660156,1.6903063720703124,0,0,0,0
0.7529419719999169,0.8212111694335937,-9.208099584960937,1.936909143066406,0,0,0,0
0.7540290199999617,0.9097966308593749,-9.363722692871093,1.9680337646484374,0,0,0,0
0.7551386049999564,0.622492431640625,-9.801861596679688,1.3120225097656248,0,0,0,0
0.7564046329998746,0.02154781494140625,-10.022128149414062,1.0797849487304687,0,0,0,0
0.7576285869999992,-1.0582371337890624,-10.115502014160155,0.8451531860351562,0,0,0,0
0.7587414489998991,-1.2976572998046874,-9.916783276367187,0.7302315063476562,0,0,0,0
0.7598442379999142,-1.2018892333984375,-9.708487731933593,0.7493851196289062,0,0,0,0
0.7609574329999305,-0.7158662963867187,-9.5384994140625,1.0031704956054688,0,0,0,0
0.7621835539998756,-0.15083470458984374,-9.4618849609375,1.2497732666015624,0,0,0,0
0.7634802480001781,0.21787235107421873,-9.306261853027344,1.3120225097656248,0,0,0,0
0.7647374060002221,0.33039982910156246,-9.514557397460937,1.2378022583007813,0,0,0,0
0.765977249000116,-0.033518823242187495,-9.7683427734375,1.20667763671875,0,0,0,0
0.7673019620001469,-0.5626373901367188,-10.204087475585936,0.7685387329101562,0,0,0,0
0.7684374539999226,-1.0414777221679687,-10.062829577636718,0.9074024291992187,0,0,0,0
0.7695225749998826,-0.9744400756835937,-9.83777462158203,1.0534487304687499,0,0,0,0
0.7706576599998698,-0.5482721801757812,-9.483432775878907,1.4245499877929686,0,0,0,0
0.7719428360001075,-0.05746083984375,-9.203311181640624,1.8076222534179687,0,0,0,0
0.7732096230001844,0.39743747558593745,-9.253589416503905,1.9967641845703124,0,0,0,0
0.7745053540002118,0.7445967163085937,-9.402029919433593,1.8698714965820311,0,0,0,0
0.7756534569998621,0.4477157104492187,-9.718064538574218,1.6112977172851561,0,0,0,0
0.7767390789999808,-0.15322890625,-9.85692823486328,1.2808978881835937,0,0,0,0
0.7778406639999957,-0.833182177734375,-10.005368737792969,0.9504980590820312,0,0,0,0
0.7789292299999033,-1.3335703247070312,-10.060435375976562,0.7445967163085937,0,0,0,0
0.7801594060001662,-1.4867992309570313,-10.060435375976562,0.9504980590820312,0,0,0,0
0.7814319710000746,-0.9576806640625,-9.588777648925781,1.1875240234375,0,0,0,0
0.782524611000099,0.42377369384765623,-9.41639512939453,1.4772224243164063,0,0,0,0
0.7836124370001016,0.7565677246093749,-9.3852705078125,1.4915876342773438,0,0,0,0
0.7849249280002368,0.5913678100585937,-9.445125549316407,1.3048399047851562,0,0,0,0
0.7861247340001682,-0.1005564697265625,-9.610325463867188,0.718260498046875,0,0,0,0
0.7876002419998258,-1.407790576171875,-10.012551342773437,0.44532150878906246,0,0,0,0
0.7887140480002017,-1.6448165405273436,-10.115502014160155,0.45489831542968745,0,0,0,0
0.7898010590001832,-1.4604630126953124,-10.022128149414062,0.7613561279296874,0,0,0,0
0.7910262730001705,-0.8092401611328125,-9.701305126953125,1.8219874633789062,0,0,0,0
0.792663149999953,1.0366893188476562,-9.169792358398437,2.205059729003906,0,0,0,0
0.7938704369998959,1.467645617675781,-9.157821350097656,2.243366955566406,0,0,0,0
0.7951870199999576,1.0845733520507812,-9.282319836425781,1.6927005737304686,0,0,0,0
0.7963894559998153,0.1867477294921875,-9.885658654785155,1.1420341918945311,0,0,0,0
0.7976945760001399,-1.4987702392578124,-10.196904870605469,0.7254431030273437,0,0,0,0
0.7987828830000581,-1.714248388671875,-10.263942517089843,0.5027823486328125,0,0,0,0
0.7998970980002014,-1.4149731811523436,-9.9981861328125,0.6655880615234374,0,0,0,0
0.8009782190001715,-0.6272808349609375,-9.270348828125,1.2689268798828124,0,0,0,0
0.8024178939999729,0.26815058593749996,-9.03332286376953,1.4820108276367188,0,0,0,0
0.8037612920002175,0.9816226806640624,-9.085995300292968,1.1851298217773436,0,0,0,0
0.8053474100001949,0.44053310546874996,-9.765948571777344,0.814028564453125,0,0,0,0
0.8065131060002386,-1.5346832641601562,-10.029310754394531,0.4261678955078125,0,0,0,0
0.8089678289998119,-1.8626888916015625,-10.081983190917969,0.8307879760742187,0,0,0,0
0.8100769500001661,-0.9576806640625,-9.787496386718749,1.7884686401367187,0,0,0,0
0.811196776000088,0.3016694091796875,-9.04050546875,2.205059729003906,0,0,0,0
0.8125496180000482,1.714248388671875,-8.997409838867187,2.403778466796875,0,0,0,0
0.8137029610002173,1.35990654296875,-9.107543115234375,2.231395947265625,0,0,0,0
0.8150722290001795,0.29927520751953124,-9.380482104492186,1.2617442749023438,0,0,0,0
0.8163921089999349,-0.9552864624023437,-10.13226142578125,0.9265560424804687,0,0,0,0
0.8177906360001543,-1.9943699829101562,-10.31661495361328,0.9696516723632812,0,0,0,0
0.8192137920000278,-1.3096283081054687,-10.165780249023436,1.3335703247070312,0,0,0,0
0.8203417280001304,-0.15562310791015624,-9.380482104492186,1.5682020874023437,0,0,0,0
0.8214229059999525,0.8810662109374999,-9.014169250488282,1.5945383056640625,0,0,0,0
0.822500712999954,1.0031704956054688,-9.112331518554686,1.3000515014648437,0,0,0,0
0.8236440929999844,0.02633621826171875,-9.411606726074218,0.9361328491210937,0,0,0,0
0.8249144360001992,-1.197100830078125,-9.782707983398437,0.5482721801757812,0,0,0,0
0.8260018169999057,-2.1883003173828124,-10.172962854003906,0.258573779296875,0,0,0,0
0.827105309000217,-2.418143676757812,-10.426748229980468,0.689530078125,0,0,0,0
0.8281949870001881,-1.8028338500976562,-10.20169327392578,1.2856862915039062,0,0,0,0
0.82943694100004,-0.35194764404296874,-9.370905297851563,1.8555062866210936,0,0,0,0
0.8307893940000213,1.8291700683593748,-9.047688073730468,2.3295582153320313,0,0,0,0
0.8319747000000461,1.7477672119140624,-9.153032946777342,2.2864625854492187,0,0,0,0
0.8331449880001855,0.7852981445312499,-9.22485899658203,1.177947216796875,0,0,0,0
0.8343160170002193,-0.5698199951171875,-10.091559997558592,0.7493851196289062,0,0,0,0
0.8355639340002199,-2.2601263671875,-10.273519323730468,0.49799394531249996,0,0,0,0
0.8369956269998511,-1.7645266235351562,-10.17056865234375,1.0127473022460938,0,0,0,0
0.8382287660001566,-0.6560112548828124,-9.397241516113281,1.39821376953125,0,0,0,0
0.8394322019998981,0.6919242797851562,-9.102754711914063,1.656787548828125,0,0,0,0
0.840673526000046,1.3287819213867187,-9.112331518554686,1.5275006591796874,0,0,0,0
0.8421077379998678,0.3136404174804687,-9.299079248046874,0.7613561279296874,0,0,0,0
0.8432859519998601,-1.1061211669921875,-10.096348400878906,0.5051765502929687,0,0,0,0
0.844458220999968,-2.2649147705078123,-10.259154113769531,0.49799394531249996,0,0,0,0
0.845695638000052,-1.618480322265625,-10.1131078125,0.7134720947265625,0,0,0,0
0.8471351279999908,-0.36152445068359373,-9.873687646484374,1.879448303222656,0,0,0,0
0.8483199530001002,0.9121908325195311,-9.093177905273437,2.2194249389648437,0,0,0,0
0.8494922410000072,1.3383587280273437,-8.997409838867187,2.250549560546875,0,0,0,0
0.8507283059998372,0.30885201416015623,-9.188945971679686,1.9129671264648436,0,0,0,0
0.852181777000169,-0.7565677246093749,-9.773131176757811,1.1109095703125,0,0,0,0
0.8533550090000972,-1.4508862060546874,-10.297461340332031,0.97683427734375,0,0,0,0
0.8545337599998675,-0.842758984375,-10.254365710449218,0.9864110839843749,0,0,0,0
0.8557992510000076,-0.05985504150390625,-9.907206469726562,1.209071838378906,0,0,0,0
0.8571690190001391,0.5315127685546874,-9.504980590820312,1.3311761230468748,0,0,0,0
0.858342881000226,0.7565677246093749,-9.169792358398437,1.158793603515625,0,0,0,0
0.859548593999989,-0.6560112548828124,-9.409212524414063,0.9217676391601562,0,0,0,0
0.8608073820000754,-1.3192051147460937,-9.74200655517578,0.7757213378906249,0,0,0,0
0.8622983340001156,-1.429338391113281,-10.005368737792969,0.9050082275390624,0,0,0,0
0.8634854360002464,-0.17477672119140625,-9.880870251464843,1.1827356201171875,0,0,0,0
0.8646574089998467,0.5003881469726562,-9.72285294189453,1.4317325927734375,0,0,0,0
0.8660875660002603,0.6727706665039062,-9.366116894531249,1.5586252807617187,0,0,0,0
0.867505815000186,-0.2346317626953125,-9.373299499511718,1.3431471313476562,0,0,0,0
0.8691570619998856,-0.8667010009765624,-9.469067565917967,0.9983820922851562,0,0,0,0
0.8704756639999687,-0.7350199096679687,-9.816226806640625,0.9696516723632812,0,0,0,0
0.8718948760001695,-0.19632453613281248,-9.6917283203125,1.16837041015625,0,0,0,0
0.8730933299998469,0.2920926025390625,-9.804255798339844,1.2785036865234374,0,0,0,0
0.8745867640000142,0.10773907470703124,-9.380482104492186,1.2018892333984375,0,0,0,0
0.8760528090001571,-0.488417138671875,-9.536105212402344,0.97683427734375,0,0,0,0
0.8772633930002485,-1.0654197387695312,-9.801861596679688,1.0223241088867188,0,0,0,0
0.8784190139999737,-1.3575123413085937,-9.90241806640625,1.1516109985351561,0,0,0,0
0.8798334670000258,-0.38307226562499996,-9.904812268066406,1.2713210815429687,0,0,0,0
0.8812973640001474,0.3136404174804687,-9.490615380859374,1.7597382202148437,0,0,0,0
0.8825212440001451,0.46686932373046874,-9.45470235595703,1.7908628417968748,0,0,0,0
0.8836935499998617,0.05027823486328125,-9.495403784179686,1.7741034301757812,0,0,0,0
0.8851190400000633,-0.28730419921875,-9.698910925292969,1.3144167114257812,0,0,0,0
0.8865827330000684,-0.584185205078125,-10.012551342773437,1.1611878051757811,0,0,0,0
0.887801890999981,-0.48123453369140623,-10.122684619140625,1.1563994018554686,0,0,0,0
0.8889704940002048,-0.3399766357421875,-9.911994873046874,1.0486603271484374,0,0,0,0
0.8902438370000709,-0.35673604736328124,-9.488221179199218,1.0534487304687499,0,0,0,0
0.8923892470002102,-0.7326257080078125,-9.512163195800781,1.1085153686523437,0,0,0,0
0.8936100529999749,-0.1867477294921875,-9.593566052246093,1.218648645019531,0,0,0,0
0.8947772110000187,0.229843359375,-9.679757312011718,1.2928688964843749,0,0,0,0
0.8962724040002286,0.3687070556640625,-9.710881933593749,1.218648645019531,0,0,0,0
0.8981263539999418,-0.2609679809570312,-9.730035546875,1.0678139404296874,0,0,0,0
0.8993347529999483,-0.74699091796875,-9.828197814941406,0.9265560424804687,0,0,0,0
0.9005037440001615,-0.8547299926757812,-9.811438403320311,0.9193734375,0,0,0,0
0.9020031410000229,-0.42377369384765623,-9.610325463867188,1.199495031738281,0,0,0,0
0.903504797000096,0.3591302490234375,-9.473855969238281,1.235408056640625,0,0,0,0
0.9047186769998916,0.1197100830078125,-9.234435803222656,1.2330138549804688,0,0,0,0
0.9058850569999777,-0.41898529052734373,-9.394847314453125,1.1875240234375,0,0,0,0
0.9073347319999812,-0.8044517578125,-9.682151513671874,1.0917559570312498,0,0,0,0
0.9088106839999455,-0.8283937744140625,-9.679757312011718,1.2210428466796874,0,0,0,0
0.9100238050000371,-0.30885201416015623,-9.801861596679688,1.687912170410156,0,0,0,0
0.9112149259999569,0.2609679809570312,-9.540893615722656,1.8243816650390623,0,0,0,0
0.9126056390000485,0.1580173095703125,-9.56962403564453,1.8219874633789062,0,0,0,0
0.9145362360000036,-0.3950432739257812,-9.634267480468749,1.6400281372070311,0,0,0,0
0.9159379480001917,-0.4261678955078125,-9.665392102050781,1.5155296508789062,0,0,0,0
0.9170339219999732,-0.34715924072265625,-9.763554370117188,1.0175357055664063,0,0,0,0
0.9181898950000686,-0.24899697265624998,-9.7683427734375,0.9744400756835937,0,0,0,0
0.9197238100000504,-0.6177040283203125,-9.595960253906249,0.9409212524414062,0,0,0,0
0.9208234500001709,-0.9600748657226562,-9.658209497070311,0.8834604125976562,0,0,0,0
0.9219196459998784,-0.9050082275390624,-9.830592016601562,0.8092401611328125,0,0,0,0
0.9230038599998807,-0.5793968017578125,-9.904812268066406,1.1923124267578125,0,0,0,0
0.9242062220000662,-0.1292868896484375,-9.658209497070311,1.3958195678710936,0,0,0,0
0.9257070809999277,0.25139117431640623,-9.588777648925781,1.4173673828125,0,0,0,0
0.9268057029999,0.023942016601562498,-9.622296472167967,1.350329736328125,0,0,0,0
0.9281881380002233,-0.41898529052734373,-9.859322436523437,1.0462661254882812,0,0,0,0
0.9294045360002201,-0.6655880615234374,-9.950302099609374,1.0199299072265624,0,0,0,0
0.9308545260000756,-0.40222587890625,-9.785102185058593,1.1875240234375,0,0,0,0
0.9322136270002375,-0.08858546142578125,-9.440337145996093,1.2042834350585936,0,0,0,0
0.9334265440002127,-0.09816226806640624,-9.193734375,1.20667763671875,0,0,0,0
0.9346262389999538,-0.39983167724609375,-9.296685046386719,1.197100830078125,0,0,0,0
0.935849730999962,-0.6943184814453125,-9.495403784179686,1.1707646118164061,0,0,0,0
0.9370759439998437,-0.948103857421875,-9.591171850585937,1.2569558715820313,0,0,0,0
0.93816671400009,-0.699106884765625,-9.861716638183593,1.3192051147460937,0,0,0,0
0.9392597619998924,-0.24899697265624998,-9.536105212402344,1.5634136840820312,0,0,0,0
0.940472568000132,0.17477672119140625,-9.430760339355468,1.7022773803710936,0,0,0,0
0.941679022000244,0.16998831787109375,-9.430760339355468,1.8171990600585937,0,0,0,0
0.9427706810001837,0.1197100830078125,-9.502586389160156,1.7094599853515624,0,0,0,0
0.9438583950000066,0.076614453125,-9.698910925292969,1.6711527587890624,0,0,0,0
0.9449440910002522,-0.12210428466796874,-9.81862100830078,1.149216796875,0,0,0,0
0.9461584900000162,-0.36152445068359373,-9.847351428222655,0.9002198242187499,0,0,0,0
0.9473687770000652,-0.5482721801757812,-9.631873278808593,0.8882488159179687,0,0,0,0
0.9484585660002267,-1.24498486328125,-9.694122521972655,0.8595183959960937,0,0,0,0
0.9495380399998794,-1.0319009155273438,-9.832986218261718,0.9026140258789062,0,0,0,0
0.9506238469998607,-0.5889736083984375,-9.667786303710937,1.0510545288085937,0,0,0,0
0.9518207450000773,-0.04548983154296875,-9.641450085449218,1.2832920898437499,0,0,0,0
0.9530316810000841,0.49320554199218747,-9.770736975097655,1.3958195678710936,0,0,0,0
0.9541244510000979,0.5698199951171875,-9.78031378173828,1.3215993164062498,0,0,0,0
0.9552172950002387,0.19871873779296872,-9.892841259765625,1.1372457885742187,0,0,0,0
0.9564102310000635,-1.01514150390625,-9.923965881347655,1.0486603271484374,0,0,0,0
0.957598593000057,-0.9696516723632812,-10.029310754394531,0.9624690673828125,0,0,0,0
0.9586892329998591,-0.6057330200195312,-9.801861596679688,1.0749965454101562,0,0,0,0
0.959773020999819,-0.17956512451171874,-9.610325463867188,1.2282254516601563,0,0,0,0
0.9608587359998637,0.09337386474609374,-9.519345800781249,1.2497732666015624,0,0,0,0
0.9620694680002089,-0.00718260498046875,-9.220070593261719,1.197100830078125,0,0,0,0
0.9632459039999048,-0.316034619140625,-9.291896643066405,1.189918225097656,0,0,0,0
0.964324784999917,-0.49799394531249996,-9.363722692871093,1.0773907470703123,0,0,0,0
0.9654155729999729,-0.5674257934570313,-9.730035546875,1.1468225952148436,0,0,0,0
0.966490344000249,-0.06464344482421874,-9.758765966796874,1.4317325927734375,0,0,0,0
0.9677602229999138,-0.028730419921875,-9.56962403564453,1.6041151123046875,0,0,0,0
0.9688651599999503,0.031124621582031248,-9.579200842285156,1.6711527587890624,0,0,0,0
0.9699353370001518,0.21308394775390624,-9.509768994140625,1.5179238525390624,0,0,0,0
0.9710035699999935,0.06943184814453125,-9.366116894531249,1.4053963745117186,0,0,0,0
0.9720935250002185,-0.1484405029296875,-9.686939916992188,1.1659762084960936,0,0,0,0
0.9735044779999953,-0.488417138671875,-9.706093530273437,1.0079588989257813,0,0,0,0
0.9747690250001142,-0.948103857421875,-9.564835632324218,0.9864110839843749,0,0,0,0
0.9760235160001685,-1.3144167114257812,-9.536105212402344,0.9217676391601562,0,0,0,0
0.9771184149999499,-0.97683427734375,-9.667786303710937,1.1516109985351561,0,0,0,0
0.9785224420002123,0.24899697265624998,-9.536105212402344,1.3623007446289062,0,0,0,0
0.9799022840002181,0.7038952880859375,-9.715670336914062,1.4724340209960938,0,0,0,0
0.9809966279999571,0.63206923828125,-9.660603698730467,1.3838485595703125,0,0,0,0
0.9820815279999806,-0.00718260498046875,-9.93354268798828,1.0726023437499999,0,0,0,0
0.9840906240001459,-1.20667763671875,-10.096348400878906,0.7972691528320313,0,0,0,0
0.9852106900002582,-1.1468225952148436,-10.105925207519531,0.7781155395507812,0,0,0,0
0.9862996450001447,-0.7038952880859375,-9.70369932861328,0.9648632690429687,0,0,0,0
0.9873931380002432,-0.06943184814453125,-9.258377819824219,1.1875240234375,0,0,0,0
0.9899131010001838,-0.1867477294921875,-9.287108239746093,1.3479355346679687,0,0,0,0
0.9911323139999695,-0.507570751953125,-9.945513696289062,1.2497732666015624,0,0,0,0
0.9923520830002417,-0.3711012573242187,-9.986215124511718,1.429338391113281,0,0,0,0
0.9935189080001692,-0.3495534423828125,-9.804255798339844,1.6065093139648436,0,0,0,0
0.9947249550000379,-0.39983167724609375,-9.852139831542969,1.637633935546875,0,0,0,0
0.9958221880001474,-0.2346317626953125,-9.655815295410155,1.6711527587890624,0,0,0,0
0.9969033840002339,0.031124621582031248,-9.576806640625,1.5969325073242187,0,0,0,0
0.9979891910002152,0.27293898925781246,-9.576806640625,1.5466542724609373,0,0,0,0
0.9991953680000734,0.46208092041015625,-9.507374792480467,1.3718775512695311,0,0,0,0
1.0003685070000756,-0.7158662963867187,-9.358934289550781,1.1252747802734375,0,0,0,0
1.0014561849998245,-1.3407529296874998,-9.591171850585937,0.814028564453125,0,0,0,0
1.0025391399999535,-1.2856862915039062,-9.80665,0.70868369140625,0,0,0,0
1.0036221880000085,-0.8259995727539062,-9.80665,0.7924807495117187,0,0,0,0
1.0047957350002434,-0.18914193115234373,-9.787496386718749,1.0486603271484374,0,0,0,0
1.0059704300001613,0.33039982910156246,-9.72285294189453,1.2785036865234374,0,0,0,0
1.0070928109998931,0.2561795776367187,-9.425971936035156,1.2569558715820313,0,0,0,0
1.0081881179999073,-0.06943184814453125,-9.634267480468749,0.9576806640625,0,0,0,0
1.0093592389998776,-0.6512228515624999,-9.86411083984375,0.8810662109374999,0,0,0,0
1.0106773400002567,-0.5865794067382812,-9.952696301269532,0.8690952026367187,0,0,0,0
1.011779721000039,-0.48123453369140623,-9.95987890625,0.9433154541015625,0,0,0,0
1.0128601209999033,-0.565031591796875,-9.694122521972655,1.1923124267578125,0,0,0,0
1.0139398910000637,-0.47644613037109373,-9.543287817382812,1.3215993164062498,0,0,0,0
1.015018697999949,-0.4525041137695312,-9.200916979980468,1.5298948608398437,0,0,0,0
1.0166921489999368,-0.031124621582031248,-9.622296472167967,1.5059528442382812,0,0,0,0
1.0179656210002577,0.19393033447265623,-9.665392102050781,1.9033903198242186,0,0,0,0
1.019224796999879,-0.15083470458984374,-9.832986218261718,1.7094599853515624,0,0,0,0
1.0204478069999823,-0.17238251953125,-9.90241806640625,1.7118541870117185,0,0,0,0
1.021711057000175,-0.1388636962890625,-9.636661682128906,1.4532804077148436,0,0,0,0
1.0233766380001725,0.1867477294921875,-9.797073193359374,1.3742717529296875,0,0,0,0
1.0248965340001632,-0.15322890625,-9.497797985839844,1.1468225952148436,0,0,0,0
1.0260886930000197,-0.679953271484375,-9.576806640625,0.9193734375,0,0,0,0
1.0273081280001861,-1.0606313354492187,-9.72285294189453,0.8307879760742187,0,0,0,0
1.028535323000142,-0.5123591552734374,-9.866505041503906,0.8643067993164062,0,0,0,0
1.030440550000094,-0.009576806640625,-9.698910925292969,1.0510545288085937,0,0,0,0
1.0318348730002072,-0.23702596435546874,-9.667786303710937,1.024718310546875,0,0,0,0
1.0331745859998591,-0.45968671875,-9.792284790039062,0.9696516723632812,0,0,0,0
1.0343692999999803,-0.44532150878906246,-9.847351428222655,1.0031704956054688,0,0,0,0
1.03602114000023,-0.3591302490234375,-9.878476049804688,0.9911994873046874,0,0,0,0
1.0375519620001796,-0.6392518432617187,-9.655815295410155,1.0654197387695312,0,0,0,0
1.0389757110001483,-0.5770026000976562,-9.595960253906249,1.4508862060546874,0,0,0,0
1.040185221000229,-0.622492431640625,-9.3086560546875,1.4317325927734375,0,0,0,0
1.0425670740000896,0.086191259765625,-9.260772021484375,1.8650830932617186,0,0,0,0
1.0437706389998311,0.0,-9.696516723632811,1.7621324218749999,0,0,0,0
1.04491718700001,0.11013327636718749,-9.835380419921874,1.5418658691406248,0,0,0,0
1.046043882000049,0.011971008300781249,-9.579200842285156,1.419761584472656,0,0,0,0
1.0472276700002112,0.023942016601562498,-9.287108239746093,1.209071838378906,0,0,0,0
1.0499390579998362,-0.9744400756835937,-9.658209497070311,0.833182177734375,0,0,0,0
1.0514635290001024,-0.6943184814453125,-9.502586389160156,0.9696516723632812,0,0,0,0
1.052737481999884,-0.2561795776367187,-9.689334118652344,1.0271125122070313,0,0,0,0
1.0540632880001795,0.19632453613281248,-9.765948571777344,1.1635820068359375,0,0,0,0
1.055422518999876,-0.3711012573242187,-9.481038574218749,1.1851298217773436,0,0,0,0
1.0567807679999532,-0.44532150878906246,-9.639055883789062,0.9600748657226562,0,0,0,0
1.0582484609999483,-0.36152445068359373,-9.986215124511718,0.9074024291992187,0,0,0,0
1.0600596330000371,-0.16280571289062498,-9.708487731933593,1.139639990234375,0,0,0,0
1.0615011230001983,-0.8307879760742187,-9.56962403564453,1.0031704956054688,0,0,0,0
1.062828262000039,-0.9145850341796874,-9.402029919433593,1.2713210815429687,0,0,0,0
1.0641421220002485,-0.74699091796875,-9.655815295410155,1.4604630126953124,0,0,0,0
1.0653581320002559,0.062249243164062495,-9.560047229003906,1.7908628417968748,0,0,0,0
1.0666067339998335,-0.0909796630859375,-9.787496386718749,1.8555062866210936,0,0,0,0
1.0678310029998102,0.1388636962890625,-10.189722265624999,1.7621324218749999,0,0,0,0
1.0690252730000793,0.24899697265624998,-9.737218151855469,1.6256629272460936,0,0,0,0
1.070293281999966,0.055066638183593745,-9.938331091308592,1.4939818359375,0,0,0,0
1.0716385320001791,-0.5770026000976562,-9.588777648925781,1.3551181396484375,0,0,0,0
1.0728791340002317,-1.1516109985351561,-9.775525378417969,0.8379705810546875,0,0,0,0
1.0740963660000489,-0.967257470703125,-9.696516723632811,1.0127473022460938,0,0,0,0
1.0753832079999484,-0.296881005859375,-9.68454571533203,1.1468225952148436,0,0,0,0
1.0766306250002344,0.26336218261718747,-9.598354455566406,1.1540052001953125,0,0,0,0
1.0778443939998397,0.011971008300781249,-9.282319836425781,1.1252747802734375,0,0,0,0
1.0790500890002477,-0.23223756103515625,-9.9215716796875,0.9265560424804687,0,0,0,0
1.080277636000119,-0.35673604736328124,-9.794678991699218,0.9121908325195311,0,0,0,0
1.0814862570000514,-0.4477157104492187,-9.952696301269532,0.7924807495117187,0,0,0,0
1.0826428039999882,-0.5530605834960938,-9.725247143554688,0.7733271362304687,0,0,0,0
1.083755832999941,-0.9265560424804687,-9.457096557617186,0.842758984375,0,0,0,0
1.0848668990001897,-0.8044517578125,-9.698910925292969,1.3287819213867187,0,0,0,0
1.0860366870001599,-0.5458779785156249,-9.239224206542968,1.5059528442382812,0,0,0,0
1.0872135310000886,-0.2609679809570312,-9.334992272949219,1.7429788085937499,0,0,0,0
1.08829667100008,0.16998831787109375,-8.927977990722656,1.9680337646484374,0,0,0,0
1.0893652559998372,-0.02154781494140625,-9.5384994140625,1.8555062866210936,0,0,0,0
1.090434137000102,0.21068974609375,-9.82580361328125,1.7956512451171873,0,0,0,0
1.0917542759998469,-0.009576806640625,-9.485826977539062,1.927332336425781,0,0,0,0
1.0929251190000286,0.11252747802734374,-9.873687646484374,1.5514426757812498,0,0,0,0
1.094000536999829,-0.00239420166015625,-9.670180505371093,1.35990654296875,0,0,0,0
1.095093270000234,-0.7948749511718749,-9.900023864746093,1.0486603271484374,0,0,0,0
1.0962337619998834,-1.0438719238281249,-9.770736975097655,0.9983820922851562,0,0,0,0
1.09738764299982,-0.3327940307617187,-9.572018237304688,1.0175357055664063,0,0,0,0
1.0984628569999586,0.12449848632812499,-9.8449572265625,1.0678139404296874,0,0,0,0
1.099551053000141,-0.062249243164062495,-9.440337145996093,1.1013327636718748,0,0,0,0
1.1006250079999518,-0.5363011718749999,-9.514557397460937,1.0558429321289062,0,0,0,0
1.10176140700014,-0.38786066894531246,-10.129867224121092,0.7709329345703124,0,0,0,0
1.1030483240001558,-0.51714755859375,-10.002974536132811,0.6105214233398437,0,0,0,0
1.1041740939999727,-0.5746083984375,-10.022128149414062,0.679953271484375,0,0,0,0
1.1052529930002493,-0.5315127685546874,-9.509768994140625,0.7445967163085937,0,0,0,0
1.1063902629998665,-1.1180921752929687,-9.686939916992188,0.8068459594726562,0,0,0,0
1.1078594559999146,-0.8882488159179687,-9.655815295410155,1.3838485595703125,0,0,0,0
1.1089459479999277,-0.3854664672851562,-9.627084875488281,1.7501614135742187,0,0,0,0
1.110031218000131,0.37828386230468747,-9.188945971679686,2.0925322509765625,0,0,0,0
1.1115063369998097,0.2609679809570312,-9.368511096191405,2.070984436035156,0,0,0,0
1.1130406779998339,0.4165910888671875,-9.299079248046874,1.9704279663085937,0,0,0,0
1.1141230040002483,0.20350714111328125,-9.81862100830078,1.5586252807617187,0,0,0,0
1.1153654390000156,-0.2920926025390625,-9.720458740234374,1.4724340209960938,0,0,0,0
1.1166765590000978,-1.0845733520507812,-9.576806640625,1.2473790649414063,0,0,0,0
1.1178219960002025,-0.967257470703125,-9.967061511230469,1.1324573852539062,0,0,0,0
1.1190457829998195,-0.5003881469726562,-9.423577734375,1.1037269653320312,0,0,0,0
1.1201377010002034,-0.15322890625,-9.605537060546874,1.1085153686523437,0,0,0,0
1.1212101189998975,0.38307226562499996,-9.291896643066405,1.1468225952148436,0,0,0,0
1.122429425000064,-0.39983167724609375,-9.543287817382812,0.9265560424804687,0,0,0,0
1.1237458420000621,-0.4285620971679687,-9.995791931152343,0.55545478515625,0,0,0,0
1.124894759000199,-0.8954314208984374,-9.892841259765625,0.36391865234375,0,0,0,0
1.1259917150000547,-0.9337386474609375,-10.005368737792969,0.47644613037109373,0,0,0,0
1.1270962250000593,-1.0486603271484374,-9.835380419921874,0.5674257934570313,0,0,0,0
1.1282496059998266,-1.2617442749023438,-9.770736975097655,0.9648632690429687,0,0,0,0
1.129468911999993,-0.3016694091796875,-9.64623848876953,1.35990654296875,0,0,0,0
1.13056851500005,0.28490999755859375,-9.287108239746093,1.8195932617187498,0,0,0,0
1.131657043999894,0.4261678955078125,-8.89924757080078,2.2553379638671873,0,0,0,0
1.1327427219998754,0.39983167724609375,-9.299079248046874,2.1452046874999997,0,0,0,0
1.133894527999928,0.49320554199218747,-9.449913952636718,2.1978771240234374,0,0,0,0
1.1351037790000191,0.3399766357421875,-10.199299072265624,1.707065783691406,0,0,0,0
1.1362021410000125,0.17477672119140625,-9.931148486328125,1.659181750488281,0,0,0,0
1.1372934109999733,-1.209071838378906,-9.622296472167967,1.37906015625,0,0,0,0
1.1384404949999407,-1.1156979736328125,-9.89523546142578,1.1659762084960936,0,0,0,0
1.1396665789998224,-0.5315127685546874,-9.495403784179686,1.3407529296874998,0,0,0,0
1.1408012010001585,-0.0526724365234375,-9.445125549316407,1.1324573852539062,0,0,0,0
1.1431521280001107,0.3399766357421875,-9.6917283203125,0.8355763793945312,0,0,0,0
1.1443684159999066,-0.17477672119140625,-9.947907897949218,0.48123453369140623,0,0,0,0
1.1455661479999435,-0.7733271362304687,-9.957484704589843,0.201112939453125,0,0,0,0
1.1466708620000645,-1.1659762084960936,-10.256759912109374,0.04548983154296875,0,0,0,0
1.147788650000166,-1.5346832641601562,-9.952696301269532,0.2346317626953125,0,0,0,0
1.148875382999904,-1.9823989746093749,-9.758765966796874,0.7254431030273437,0,0,0,0
1.1501097820000723,-1.4413093994140624,-9.564835632324218,1.0989385620117187,0,0,0,0
1.1512853290000749,0.3950432739257812,-9.176974963378905,1.8052280517578123,0,0,0,0
1.1523689880000347,0.7829039428710937,-9.016563452148437,2.2553379638671873,0,0,0,0
1.1534426279999934,0.8930372192382812,-9.41639512939453,2.1619640991210938,0,0,0,0
1.1546629899999061,0.7637503295898437,-9.344569079589844,2.2385785522460937,0,0,0,0
1.15593881399991,0.43574470214843747,-9.718064538574218,1.8267758666992187,0,0,0,0
1.1570845090000148,0.11252747802734374,-9.6917283203125,1.8171990600585937,0,0,0,0
1.1581755759998487,-0.7110778930664062,-10.014945544433592,1.388636962890625,0,0,0,0
1.1593978260002586,-1.0702081420898437,-9.739612353515625,1.3814543579101561,0,0,0,0
1.1604987810001148,-0.4285620971679687,-9.325415466308593,1.3215993164062498,0,0,0,0
1.1616649389998202,0.33039982910156246,-9.449913952636718,1.3000515014648437,0,0,0,0
1.1628117270001894,0.9169792358398436,-9.181763366699219,1.2761094848632812,0,0,0,0
1.1642720129998452,0.12689268798828124,-9.665392102050781,0.8259995727539062,0,0,0,0
1.1653672090001237,-0.22266075439453123,-9.789890588378906,0.4740519287109375,0,0,0,0
1.1665280530000928,-0.9337386474609375,-10.204087475585936,0.19632453613281248,0,0,0,0
1.167802932000086,-1.4508862060546874,-10.232817895507813,0.0430956298828125,0,0,0,0
1.1688997209998888,-2.020706201171875,-10.04846436767578,0.33758243408203126,0,0,0,0
1.1699977500002205,-1.9871873779296874,-9.809044201660155,0.7996633544921875,0,0,0,0
1.1712450559998615,-0.011971008300781249,-9.459490759277344,1.4245499877929686,0,0,0,0
1.1724596210001437,0.612915625,-9.272743029785156,2.0661960327148434,0,0,0,0
1.1737300009999672,0.9504980590820312,-9.658209497070311,2.114080065917969,0,0,0,0
1.1748339740001938,0.7206546997070312,-9.375693701171874,2.1715409057617188,0,0,0,0
1.1759233180000592,0.612915625,-9.629479077148437,1.886630908203125,0,0,0,0
1.1770059400000719,0.2537853759765625,-9.402029919433593,1.7597382202148437,0,0,0,0
1.17817226499983,-0.9050082275390624,-10.019733947753906,1.3623007446289062,0,0,0,0
1.179317885999808,-1.0702081420898437,-10.005368737792969,1.39821376953125,0,0,0,0
1.1804041929999585,-0.40222587890625,-9.423577734375,1.5586252807617187,0,0,0,0
1.1814879630001087,0.30406361083984373,-9.605537060546874,1.6065093139648436,0,0,0,0
1.1829388229998585,0.74699091796875,-9.344569079589844,1.5059528442382812,0,0,0,0
1.184193888000209,0.488417138671875,-9.670180505371093,1.1540052001953125,0,0,0,0
1.1853697689998626,-0.22505495605468748,-9.507374792480467,0.7924807495117187,0,0,0,0
1.1864646310000353,-1.1635820068359375,-9.907206469726562,0.3687070556640625,0,0,0,0
1.1877680289999262,-1.6472107421875,-10.228029492187499,0.201112939453125,0,0,0,0
1.189029206000214,-2.0278888061523435,-9.86411083984375,0.51714755859375,0,0,0,0
1.19025071499982,-0.3495534423828125,-9.8449572265625,0.9074024291992187,0,0,0,0
1.1914045220000844,0.40940848388671874,-9.153032946777342,1.6041151123046875,0,0,0,0
1.1924997360001726,0.8451531860351562,-9.33978067626953,1.908178723144531,0,0,0,0
1.193590894999943,1.0845733520507812,-9.718064538574218,1.8602946899414061,0,0,0,0
1.1946798690000833,0.47644613037109373,-9.315838659667968,1.9704279663085937,0,0,0,0
1.1958496010001909,0.0143652099609375,-9.861716638183593,1.2808978881835937,0,0,0,0
1.197012389000065,-0.7924807495117187,-9.859322436523437,1.139639990234375,0,0,0,0
1.1981030850001844,-1.66636435546875,-10.175357055664062,1.0319009155273438,0,0,0,0
1.1991890770000282,-1.388636962890625,-9.552864624023437,1.3144167114257812,0,0,0,0
1.2003460690002612,-0.02633621826171875,-9.311050256347656,1.467645617675781,0,0,0,0
1.2014983939998274,0.948103857421875,-9.37808790283203,1.7788918334960937,0,0,0,0
1.2025890519998939,1.2497732666015624,-9.100360510253905,1.8626888916015625,0,0,0,0
1.2036738780002452,0.9337386474609375,-9.447519750976562,1.5155296508789062,0,0,0,0
1.2047565000002578,0.3758896606445312,-9.730035546875,0.47884033203125,0,0,0,0
1.2061106750002182,-0.8451531860351562,-10.194510668945313,0.22266075439453123,0,0,0,0
1.207264147999922,-2.43250888671875,-10.36210478515625,0.023942016601562498,0,0,0,0
1.2083573439999782,-2.3439234252929686,-10.038887561035155,0.143652099609375,0,0,0,0
1.2094370589998107,-1.0319009155273438,-10.04846436767578,0.6344634399414062,0,0,0,0
1.2105202359998657,0.15083470458984374,-9.303867651367186,1.4341267944335936,0,0,0,0
1.2116736540001511,0.70868369140625,-8.781931689453124,2.1404162841796874,0,0,0,0
1.2128226820000236,1.4796166259765624,-9.392453112792968,2.2577321655273437,0,0,0,0
1.2138977670001623,1.2617442749023438,-8.892064965820312,1.9536685546875,0,0,0,0
1.214935000999958,0.6655880615234374,-9.560047229003906,1.5873557006835937,0,0,0,0
1.2160294370000884,-0.16280571289062498,-10.127473022460936,1.3048399047851562,0,0,0,0
1.2171879289999197,-1.429338391113281,-10.522516296386717,0.8738836059570312,0,0,0,0
1.2183476609998252,-1.5801730957031248,-10.137049829101562,1.1635820068359375,0,0,0,0
1.2194432639998922,-0.699106884765625,-9.708487731933593,1.3168109130859373,0,0,0,0
1.2205307379999795,0.411802685546875,-9.294290844726563,1.675941162109375,0,0,0,0
1.2216149710002355,1.2497732666015624,-8.93755479736328,1.9033903198242186,0,0,0,0
1.2227686109999922,1.407790576171875,-8.963891015625,1.39821376953125,0,0,0,0
1.2239308429998346,1.0869675537109373,-9.057264880371093,0.6967126831054687,0,0,0,0
1.225033797999913,-0.09816226806640624,-10.105925207519531,0.19871873779296872,0,0,0,0
1.226118420000148,-1.668758557128906,-10.412383020019531,-0.1580173095703125,0,0,0,0
1.2272758009999052,-2.806004345703125,-10.350133776855468,-0.076614453125,0,0,0,0
1.2284208480000416,-1.6112977172851561,-10.139444030761718,0.4860229370117187,0,0,0,0
1.2295062480002343,-0.6081272216796875,-9.397241516113281,1.3072341064453123,0,0,0,0
1.230575313999907,0.40940848388671874,-9.315838659667968,2.252943762207031,0,0,0,0
1.2320695250000426,1.656787548828125,-8.916006982421875,2.47081611328125,0,0,0,0
1.2332242950001273,1.218648645019531,-9.469067565917967,2.070984436035156,0,0,0,0
1.2345344340001247,0.03591302490234375,-9.414000927734374,1.8722656982421875,0,0,0,0
1.2356432960000348,-1.5394716674804687,-9.706093530273437,1.254561669921875,0,0,0,0
1.2367262329998994,-1.89620771484375,-10.079588989257813,1.16837041015625,0,0,0,0
1.2378081510000811,-1.5107412475585937,-9.907206469726562,1.2976572998046874,0,0,0,0
1.2389842540001155,-0.5793968017578125,-9.457096557617186,1.675941162109375,0,0,0,0
1.2403936509999767,1.3048399047851562,-9.481038574218749,1.649604943847656,0,0,0,0
1.2414914949999911,1.4341267944335936,-9.289502441406249,1.62805712890625,0,0,0,0
1.2425689309998234,0.9265560424804687,-9.227253198242186,1.0869675537109373,0,0,0,0
1.2438462740001341,-0.6368576416015624,-9.543287817382812,0.11252747802734374,0,0,0,0
1.245087987000261,-2.0925322509765625,-10.0748005859375,-0.1005564697265625,0,0,0,0
1.2464832740001839,-2.6216508178710938,-10.335768566894531,-0.1005564697265625,0,0,0,0
1.2475928210001257,-1.3239935180664062,-10.058041174316406,0.6081272216796875,0,0,0,0
1.2486943499998233,-0.22505495605468748,-9.593566052246093,1.2976572998046874,0,0,0,0
1.249778767999942,1.37906015625,-9.686939916992188,2.43250888671875,0,0,0,0
1.250958055999945,2.0446482177734375,-9.272743029785156,2.195482922363281,0,0,0,0
1.2527117099998577,0.7972691528320313,-9.598354455566406,1.4772224243164063,0,0,0,0
1.2539438869998776,-1.0007762939453124,-9.710881933593749,0.9935936889648437,0,0,0,0
1.2552287110001998,-2.269703173828125,-9.988609326171874,0.9169792358398436,0,0,0,0
1.2563884430001053,-1.6041151123046875,-10.029310754394531,1.5442600708007812,0,0,0,0
1.2580871350000962,-0.2537853759765625,-9.445125549316407,1.8076222534179687,0,0,0,0
1.2592101449999973,1.9895815795898437,-9.047688073730468,1.879448303222656,0,0,0,0
1.260296156000095,1.8100164550781248,-8.690952026367187,1.8052280517578123,0,0,0,0
1.2613775740001074,0.4261678955078125,-9.229647399902344,1.0462661254882812,0,0,0,0
1.2625337690001288,-1.3814543579101561,-9.634267480468749,0.5458779785156249,0,0,0,0
1.263843167000232,-2.636016027832031,-10.002974536132811,-0.055066638183593745,0,0,0,0
1.2649432700000034,-2.741360900878906,-10.627861169433594,0.5003881469726562,0,0,0,0
1.266036374000123,-2.059013427734375,-9.976638317871092,0.9935936889648437,0,0,0,0
1.2672061250000297,0.7206546997070312,-9.907206469726562,1.5011644409179687,0,0,0,0
1.2686241880001035,1.8267758666992187,-8.94473740234375,2.1930887207031247,0,0,0,0
1.2701708999998118,2.142810485839844,-9.17458076171875,1.9895815795898437,0,0,0,0
1.2716613520001374,-0.41898529052734373,-9.433154541015625,1.2785036865234374,0,0,0,0
1.2736615409999104,-2.3247698120117186,-9.9215716796875,0.679953271484375,0,0,0,0
1.275519119999899,-0.9361328491210937,-9.974244116210937,1.2928688964843749,0,0,0,0
1.2770128130000558,0.5219359619140624,-9.418789331054686,2.0063409912109376,0,0,0,0
1.2788145039999108,1.7741034301757812,-8.949525805664061,1.5083470458984374,0,0,0,0
1.2811891910000668,-1.9632453613281249,-9.732429748535155,0.6775590698242188,0,0,0,0
1.2828405489999568,-2.133233679199219,-10.259154113769531,0.7852981445312499,0,0,0,0
1.2847700719999011,-0.7517793212890624,-10.254365710449218,1.5346832641601562,0,0,0,0
1.2867188919999535,1.5131354492187499,-9.093177905273437,1.8267758666992187,0,0,0,0
1.2882225289999951,0.6344634399414062,-8.8872765625,1.649604943847656,0,0,0,0
1.2900076460000491,-0.9840168823242187,-10.09395419921875,0.5339069702148437,0,0,0,0
1.292002797999885,-1.9919757812499999,-10.103531005859374,0.612915625,0,0,0,0
1.2934820649998073,-0.5578489868164063,-10.002974536132811,0.9600748657226562,0,0,0,0
1.2958026410001366,1.3263877197265623,-9.253589416503905,1.5658078857421873,0,0,0,0
1.2977598860002217,0.20829554443359374,-9.315838659667968,1.0175357055664063,0,0,0,0
1.2996288170002117,-1.886630908203125,-9.923965881347655,0.7445967163085937,0,0,0,0
1.3018576899999061,-1.4173673828125,-10.007762939453125,1.4939818359375,0,0,0,0
1.303407401000186,1.3000515014648437,-9.356540087890625,2.085349645996094,0,0,0,0
1.3061007340002107,1.484405029296875,-9.081206896972656,1.4987702392578124,0,0,0,0
1.3079059430001507,-1.0606313354492187,-9.847351428222655,0.6703764648437499,0,0,0,0
1.3105640349999703,-1.1228805786132812,-10.424354028320312,0.8643067993164062,0,0,0,0
1.312152320000223,0.5243301635742187,-9.445125549316407,1.2521674682617188,0,0,0,0
1.3134337550000055,0.9457096557617187,-9.325415466308593,1.2593500732421874,0,0,0,0
1.3151425569999446,-0.7302315063476562,-9.320627062988281,1.0749965454101562,0,0,0,0
1.3164812889999666,-1.3551181396484375,-9.821015209960937,1.0031704956054688,0,0,0,0
1.318020628999875,-1.7860744384765623,-10.046070166015625,1.120486376953125,0,0,0,0
1.3193558050002139,-0.32082302246093747,-10.304643945312499,1.37906015625,0,0,0,0
1.3206334810001863,0.7805097412109374,-9.627084875488281,2.176329309082031,0,0,0,0
1.3220929519998208,1.4724340209960938,-9.133879333496093,2.3439234252929686,0,0,0,0
1.3234697200000483,0.46208092041015625,-9.361328491210937,1.8914193115234375,0,0,0,0
1.3247403220002525,-0.5458779785156249,-9.526528405761718,1.0678139404296874,0,0,0,0
1.325881684000251,-1.1061211669921875,-9.890447058105469,0.7493851196289062,0,0,0,0
1.3272307669999464,-0.9911994873046874,-10.062829577636718,0.8355763793945312,0,0,0,0
1.3284684059999563,-0.5315127685546874,-9.880870251464843,0.6536170532226562,0,0,0,0
1.3296844530000271,0.02154781494140625,-9.545682019042967,0.9552864624023437,0,0,0,0
1.3309400550001556,0.3902548706054687,-9.275137231445312,0.9528922607421875,0,0,0,0
1.3320414730001175,0.062249243164062495,-9.588777648925781,0.8858546142578124,0,0,0,0
1.3332181310001943,-1.0582371337890624,-9.775525378417969,0.7948749511718749,0,0,0,0
1.334485400000176,-1.426944189453125,-9.593566052246093,1.0678139404296874,0,0,0,0
1.3355758729999252,-0.9744400756835937,-10.259154113769531,0.9648632690429687,0,0,0,0
1.3366482729998097,-0.15322890625,-10.199299072265624,1.458068811035156,0,0,0,0
1.3377200989998528,0.603338818359375,-9.619902270507811,1.8626888916015625,0,0,0,0
1.3388702940001167,0.9816226806640624,-9.579200842285156,1.9512743530273435,0,0,0,0
1.3400923039998816,0.6775590698242188,-9.222464794921875,1.6424223388671875,0,0,0,0
1.3411909070000547,-0.63206923828125,-9.320627062988281,1.4604630126953124,0,0,0,0
1.3423073439998916,-0.9074024291992187,-9.514557397460937,1.189918225097656,0,0,0,0
1.3434834459999365,-0.8762778076171874,-9.694122521972655,1.0103531005859374,0,0,0,0
1.3446726779998244,-0.3447650390625,-10.000580334472655,1.0319009155273438,0,0,0,0
1.3457487450000372,0.023942016601562498,-9.713276135253906,1.0797849487304687,0,0,0,0
1.346814773999995,0.2753331909179687,-9.557653027343749,0.9600748657226562,0,0,0,0
1.3479254879998734,0.09576806640624999,-9.325415466308593,0.9720458740234375,0,0,0,0
1.3489989059999061,-0.6775590698242188,-9.679757312011718,0.7613561279296874,0,0,0,0
1.3501614169999812,-1.5059528442382812,-9.612719665527344,0.9193734375,0,0,0,0
1.351318038000045,-1.3072341064453123,-9.830592016601562,1.0342951171875,0,0,0,0
1.352393678000226,-0.239420166015625,-10.244788903808594,1.218648645019531,0,0,0,0
1.3534619110000676,0.5530605834960938,-9.636661682128906,1.678335363769531,0,0,0,0
1.354535830000259,1.0079588989257813,-9.507374792480467,1.9895815795898437,0,0,0,0
1.3557012100000065,0.8882488159179687,-9.272743029785156,1.7932570434570312,0,0,0,0
1.3569044790001499,0.17238251953125,-9.595960253906249,1.3551181396484375,0,0,0,0
1.3579797679999501,-0.6296750366210937,-9.94072529296875,1.0630255371093749,0,0,0,0
1.3590507230001094,-1.139639990234375,-10.036493359375,0.852335791015625,0,0,0,0
1.3601959000002353,-0.8403647827148437,-10.043675964355469,1.0390835205078124,0,0,0,0
1.3614040209999985,-0.28969840087890625,-9.821015209960937,1.0319009155273438,0,0,0,0
1.3624873650001064,-0.04548983154296875,-9.514557397460937,1.1085153686523437,0,0,0,0
1.3635698759999286,0.05746083984375,-9.380482104492186,1.3479355346679687,0,0,0,0
1.364635645999897,-0.21787235107421873,-9.507374792480467,1.177947216796875,0,0,0,0
1.3661818010000388,-0.7852981445312499,-9.466673364257812,1.22583125,0,0,0,0
1.3675160699999651,-1.01514150390625,-9.777919580078125,1.2904746948242187,0,0,0,0
1.3685946169998715,-0.20350714111328125,-10.297461340332031,1.3623007446289062,0,0,0,0
1.369666961999883,0.28490999755859375,-9.660603698730467,1.697488977050781,0,0,0,0
1.3710935990002326,0.59376201171875,-9.483432775878907,1.7262193969726563,0,0,0,0
1.3723303130000204,-0.3136404174804687,-9.598354455566406,1.388636962890625,0,0,0,0
1.3734066380002332,-0.6488286499023437,-9.65342109375,1.2330138549804688,0,0,0,0
1.3747969060000287,-0.7517793212890624,-9.753977563476562,0.9433154541015625,0,0,0,0
1.3761286929998278,-0.3016694091796875,-9.765948571777344,0.9696516723632812,0,0,0,0
1.3774419239998679,0.0047884033203125,-9.485826977539062,0.9552864624023437,0,0,0,0
1.3785198049999963,0.031124621582031248,-9.430760339355468,0.9959878906249999,0,0,0,0
1.3796339079999598,-0.2154781494140625,-9.651026892089844,0.9050082275390624,0,0,0,0
1.3810641569998552,-0.8044517578125,-10.022128149414062,0.8188169677734375,0,0,0,0
1.3825154619999012,-1.1540052001953125,-9.732429748535155,1.1420341918945311,0,0,0,0
1.3836145830000532,-1.0558429321289062,-9.674968908691406,1.2928688964843749,0,0,0,0
1.3847256859999106,0.040701428222656245,-10.014945544433592,2.118868469238281,0,0,0,0
1.387828238000111,0.5315127685546874,-9.430760339355468,1.687912170410156,0,0,0,0
1.3890116000002308,-0.01915361328125,-9.64623848876953,1.4149731811523436,0,0,0,0
1.3902732209999158,-0.8858546142578124,-9.859322436523437,1.209071838378906,0,0,0,0
1.3936272519999875,0.04548983154296875,-9.739612353515625,1.0630255371093749,0,0,0,0
1.395697496000139,-0.15562310791015624,-9.318232861328125,0.7158662963867187,0,0,0,0
1.3972328190002372,-1.2617442749023438,-9.70369932861328,0.718260498046875,0,0,0,0
1.3985961789999237,-1.4317325927734375,-9.83777462158203,1.254561669921875,0,0,0,0
1.4000465760000225,-1.2210428466796874,-10.206481677246094,1.4796166259765624,0,0,0,0
1.4014665479999167,0.8571241943359375,-9.3852705078125,2.1308394775390624,0,0,0,0
1.4025638359998993,1.20667763671875,-9.440337145996093,2.205059729003906,0,0,0,0
1.4036635689999457,0.9744400756835937,-9.557653027343749,1.917755529785156,0,0,0,0
1.4051062439998532,-0.40940848388671874,-9.816226806640625,1.6065093139648436,0,0,0,0
1.4065463629999613,-0.8834604125976562,-9.801861596679688,1.2665326782226562,0,0,0,0
1.4078230569998595,-1.2832920898437499,-9.943119494628906,0.7565677246093749,0,0,0,0
1.4089533830001528,-0.6751648681640625,-9.888052856445311,0.7541735229492187,0,0,0,0
1.4104737980001119,-0.031124621582031248,-9.327809667968749,0.6105214233398437,0,0,0,0
1.4118929350001963,-0.181959326171875,-9.275137231445312,0.6272808349609375,0,0,0,0
1.4129837979999138,-0.8259995727539062,-9.306261853027344,0.63206923828125,0,0,0,0
1.414064789999884,-1.3455413330078123,-9.509768994140625,0.7900865478515624,0,0,0,0
1.4151638930002264,-1.1133037719726562,-9.694122521972655,1.120486376953125,0,0,0,0
1.4166118090001873,-0.04548983154296875,-9.744400756835937,1.9823989746093749,0,0,0,0
1.4180334279999443,0.8283937744140625,-9.710881933593749,2.109291662597656,0,0,0,0
1.4191759760001332,0.5985504150390625,-9.545682019042967,2.1021090576171875,0,0,0,0
1.420261653000125,0.03591302490234375,-9.662997900390625,1.8650830932617186,0,0,0,0
1.4213466639998842,-0.4860229370117187,-9.670180505371093,1.4173673828125,0,0,0,0
1.4227763760000016,-0.8116343627929687,-9.686939916992188,1.0917559570312498,0,0,0,0
1.4242547540002306,-0.5961562133789062,-9.885658654785155,1.0773907470703123,0,0,0,0
1.425356820000161,0.21787235107421873,-9.734823950195311,1.189918225097656,0,0,0,0
1.4264417939998566,0.34715924072265625,-9.488221179199218,0.8667010009765624,0,0,0,0
1.4282784289998744,-0.8283937744140625,-9.528922607421874,0.7924807495117187,0,0,0,0
1.4294698829999106,-1.4173673828125,-9.600748657226562,0.5530605834960938,0,0,0,0
1.4305484490000708,-1.5538368774414062,-9.674968908691406,0.6368576416015624,0,0,0,0
1.4316905149999002,-1.4317325927734375,-10.235212097167969,1.3215993164062498,0,0,0,0
1.4336983530001817,0.8164227661132812,-9.682151513671874,2.1068974609374997,0,0,0,0
1.4348852329999318,1.1348515869140625,-9.253589416503905,2.152387292480469,0,0,0,0
1.4359751510000933,0.7972691528320313,-9.435548742675781,1.8818425048828125,0,0,0,0
1.4370556059998307,0.16519991455078123,-9.421183532714844,1.7094599853515624,0,0,0,0
1.4381349870000122,-0.5698199951171875,-9.634267480468749,1.465251416015625,0,0,0,0
1.4400051779998648,-1.0223241088867188,-10.029310754394531,1.024718310546875,0,0,0,0
1.4413533719998668,-0.10295067138671875,-9.919177478027343,1.0342951171875,0,0,0,0
1.4425845300002038,0.040701428222656245,-9.507374792480467,0.8762778076171874,0,0,0,0
1.4437216689998422,-0.229843359375,-9.49300958251953,0.9600748657226562,0,0,0,0
1.4450377530001788,-0.8571241943359375,-9.440337145996093,0.9097966308593749,0,0,0,0
1.446202095999979,-0.9911994873046874,-9.548076220703125,0.9552864624023437,0,0,0,0
1.4475582899999608,-0.9528922607421875,-9.713276135253906,1.199495031738281,0,0,0,0
1.4487878919999275,-0.0718260498046875,-10.189722265624999,1.7764976318359373,0,0,0,0
1.4499919390000287,0.7996633544921875,-9.598354455566406,1.8267758666992187,0,0,0,0
1.4511217089998354,0.4429273071289062,-9.495403784179686,1.7549498168945312,0,0,0,0
1.4522829040001852,-0.3399766357421875,-9.598354455566406,1.4939818359375,0,0,0,0
1.4534456920000594,-0.8499415893554687,-9.588777648925781,1.3192051147460937,0,0,0,0
1.4545403140000417,-0.8714894042968749,-9.588777648925781,1.158793603515625,0,0,0,0
1.45562995399996,-1.0702081420898437,-9.689334118652344,1.0678139404296874,0,0,0,0
1.4567138910001631,-0.5770026000976562,-9.725247143554688,1.1372457885742187,0,0,0,0
1.4578631969998241,0.17956512451171874,-9.382876306152344,1.1707646118164061,0,0,0,0
1.4591741320000438,0.21308394775390624,-9.5001921875,1.005564697265625,0,0,0,0
1.4602623280002263,-0.5267243652343749,-9.495403784179686,0.8786720092773437,0,0,0,0
1.4613387089998469,-1.2401964599609374,-9.655815295410155,0.7900865478515624,0,0,0,0
1.4624845530001949,-1.3479355346679687,-9.734823950195311,0.8930372192382812,0,0,0,0
1.463651045000006,-1.3287819213867187,-9.677363110351562,1.4867992309570313,0,0,0,0
1.4647423890000937,-0.411802685546875,-10.129867224121092,1.9321207397460936,0,0,0,0
1.4658287699999164,0.7685387329101562,-9.512163195800781,2.1619640991210938,0,0,0,0
1.467009556999983,0.9337386474609375,-9.392453112792968,2.118868469238281,0,0,0,0
1.4682765299999119,-0.0430956298828125,-9.514557397460937,1.8267758666992187,0,0,0,0
1.4696250940000937,-0.5051765502929687,-9.490615380859374,1.3048399047851562,0,0,0,0
1.470743604999825,-0.6464344482421874,-9.674968908691406,1.0103531005859374,0,0,0,0
1.4718386710001141,-0.8906430175781249,-10.058041174316406,0.8762778076171874,0,0,0,0
1.472924662999958,-0.6009446166992187,-9.93354268798828,0.7829039428710937,0,0,0,0
1.4740087109998967,-0.13646949462890623,-9.598354455566406,0.8667010009765624,0,0,0,0
1.4752150170002096,-0.1867477294921875,-9.581595043945311,0.7948749511718749,0,0,0,0
1.4763594350001767,-0.8690952026367187,-9.284714038085937,0.7230489013671875,0,0,0,0
1.4774414449998403,-1.3359645263671873,-9.442731347656249,0.6655880615234374,0,0,0,0
1.4785148450000634,-1.4628572143554686,-9.610325463867188,0.8858546142578124,0,0,0,0
1.4796083559999715,-1.4053963745117186,-9.583989245605467,1.4915876342773438,0,0,0,0
1.480746106999959,-0.2705447875976562,-10.1131078125,2.0757728393554684,0,0,0,0
1.4819665979998717,0.9624690673828125,-9.4618849609375,2.1883003173828124,0,0,0,0
1.4830472379999264,1.3311761230468748,-9.344569079589844,2.2385785522460937,0,0,0,0
1.484135581999908,0.32561142578124996,-9.512163195800781,1.9847931762695312,0,0,0,0
1.4852842410000449,-0.2561795776367187,-9.433154541015625,1.7094599853515624,0,0,0,0
1.486512694999874,-0.6679822631835937,-9.519345800781249,1.5562310791015623,0,0,0,0
1.4875998349998554,-1.0965443603515623,-9.823409411621093,1.0390835205078124,0,0,0,0
1.4886739389999093,-0.6607996582031249,-10.046070166015625,1.0366893188476562,0,0,0,0
1.489746820000164,0.04548983154296875,-9.868899243164062,0.9457096557617187,0,0,0,0
1.49088484899994,0.17956512451171874,-9.718064538574218,0.6560112548828124,0,0,0,0
1.4922431169998163,-0.9121908325195311,-9.191340173339842,0.612915625,0,0,0,0
1.4933434240001588,-1.4700398193359374,-9.516951599121093,0.3016694091796875,0,0,0,0
1.4944331010001406,-1.4915876342773438,-9.603142858886718,0.5339069702148437,0,0,0,0
1.4958104430002095,-1.6017209106445311,-10.273519323730468,1.01514150390625,0,0,0,0
1.4973050620001231,0.7326257080078125,-9.789890588378906,1.675941162109375,0,0,0,0
1.498536404999868,0.9433154541015625,-9.593566052246093,2.0183119995117185,0,0,0,0
1.499871690999953,0.833182177734375,-9.715670336914062,2.0087351928710935,0,0,0,0
1.5010637750001479,-0.4908113403320312,-9.5384994140625,1.8339584716796873,0,0,0,0
1.5023807659999875,-0.7398083129882812,-9.706093530273437,1.6448165405273436,0,0,0,0
1.5035015170001316,-1.0797849487304687,-9.744400756835937,1.5083470458984374,0,0,0,0
1.5046701199999006,-0.7589619262695312,-9.753977563476562,1.3479355346679687,0,0,0,0
1.5058294079999541,0.2753331909179687,-9.291896643066405,1.419761584472656,0,0,0,0
1.507017788000212,0.5626373901367188,-9.478644372558593,1.1635820068359375,0,0,0,0
1.5081172989998777,-0.33758243408203126,-9.53131680908203,0.8786720092773437,0,0,0,0
1.5092086240001663,-1.0726023437499999,-9.804255798339844,0.5363011718749999,0,0,0,0
1.510296357000243,-1.6998831787109374,-9.744400756835937,0.5770026000976562,0,0,0,0
1.511494255999878,-1.9991583862304687,-9.753977563476562,0.5698199951171875,0,0,0,0
1.5126768959999026,-1.0295067138671874,-10.24000050048828,1.6639701538085936,0,0,0,0
1.513776536000023,0.181959326171875,-9.641450085449218,1.898601916503906,0,0,0,0
1.5148623430000043,0.8044517578125,-9.56962403564453,2.118868469238281,0,0,0,0
1.5159437420002178,0.9696516723632812,-9.651026892089844,2.070984436035156,0,0,0,0
1.517102770999827,0.09337386474609374,-9.533711010742186,1.905784521484375,0,0,0,0
1.5182388739999624,-0.36631285400390623,-9.627084875488281,1.7238251953125,0,0,0,0
1.5193466810001155,-1.0989385620117187,-9.751583361816406,1.4628572143554686,0,0,0,0
1.5204373950000445,-0.9624690673828125,-9.935936889648437,1.2904746948242187,0,0,0,0
1.5215241840001,-0.12449848632812499,-9.873687646484374,1.0917559570312498,0,0,0,0
1.5226762500001314,0.19393033447265623,-9.481038574218749,1.2114660400390624,0,0,0,0
1.5242995899998277,-0.3591302490234375,-9.600748657226562,0.9840168823242187,0,0,0,0
1.52541032299996,-1.0438719238281249,-9.512163195800781,0.7589619262695312,0,0,0,0
1.526500629000111,-1.3766659545898436,-9.528922607421874,0.82360537109375,0,0,0,0
1.5276635469999746,-1.4963760375976562,-9.732429748535155,0.9935936889648437,0,0,0,0
1.5288931680001951,-0.6679822631835937,-9.756371765136718,1.455674609375,0,0,0,0
1.529986678000114,0.33039982910156246,-9.639055883789062,1.7453730102539062,0,0,0,0
1.5310979300002145,0.6775590698242188,-9.488221179199218,1.9033903198242186,0,0,0,0
1.532239828999991,0.12210428466796874,-9.588777648925781,1.637633935546875,0,0,0,0
1.5336449299998094,-0.33518823242187495,-9.636661682128906,1.3287819213867187,0,0,0,0
1.5348301990002255,-0.5889736083984375,-9.70369932861328,1.139639990234375,0,0,0,0
1.5360565609998957,-0.8164227661132812,-9.859322436523437,1.005564697265625,0,0,0,0
1.5372123299998748,-0.18435352783203124,-9.720458740234374,1.0534487304687499,0,0,0,0
1.538443172999905,0.0718260498046875,-9.464279162597656,1.2210428466796874,0,0,0,0
1.5395467210000788,0.0383072265625,-9.533711010742186,0.9864110839843749,0,0,0,0
1.5406341200000497,-0.44532150878906246,-9.382876306152344,0.8762778076171874,0,0,0,0
1.5417195939999147,-0.8571241943359375,-9.481038574218749,1.0510545288085937,0,0,0,0
1.5428050489999805,-1.0558429321289062,-9.581595043945311,1.2928688964843749,0,0,0,0
1.5439704109999184,-1.1707646118164061,-10.149020837402343,1.3910311645507811,0,0,0,0
1.5451094959998954,0.5291185668945312,-9.730035546875,1.7908628417968748,0,0,0,0
1.5461921360001725,1.0031704956054688,-9.574412438964844,1.9584569580078124,0,0,0,0
1.5473247760000959,0.8020575561523438,-9.485826977539062,1.9967641845703124,0,0,0,0
1.5485086190001311,0.12210428466796874,-9.562441430664062,1.8148048583984373,0,0,0,0
1.5498546100002386,-0.55545478515625,-9.68454571533203,1.2521674682617188,0,0,0,0
1.5510596570002235,-1.0845733520507812,-9.83777462158203,1.1180921752929687,0,0,0,0
1.5521535000002586,-0.7517793212890624,-10.022128149414062,1.0175357055664063,0,0,0,0
1.5533160290001433,-0.1005564697265625,-9.830592016601562,0.9935936889648437,0,0,0,0
1.5548301479998372,0.28012159423828126,-9.64623848876953,0.9983820922851562,0,0,0,0
1.556342210999901,-0.41898529052734373,-9.576806640625,0.7445967163085937,0,0,0,0
1.5575117950002095,-1.1085153686523437,-9.550470422363281,0.7110778930664062,0,0,0,0
1.5586073979998218,-1.47482822265625,-9.64623848876953,0.8834604125976562,0,0,0,0
1.5597015389998887,-1.5346832641601562,-9.658209497070311,1.1013327636718748,0,0,0,0
1.5611451770000713,0.05746083984375,-9.840168823242188,1.6807295654296874,0,0,0,0
1.5625952400000642,0.7206546997070312,-9.643844287109374,2.2936451904296873,0,0,0,0
1.563748564999969,0.8379705810546875,-9.282319836425781,2.0973206542968748,0,0,0,0
1.5650151859999824,0.05746083984375,-9.251195214843749,1.8722656982421875,0,0,0,0
1.5662193620000835,-0.11013327636718749,-9.399635717773437,1.7453730102539062,0,0,0,0
1.5675366310001664,-0.6464344482421874,-9.751583361816406,1.1180921752929687,0,0,0,0
1.5686326230002123,-0.7398083129882812,-10.072406384277343,0.9457096557617187,0,0,0,0
1.5697153189998971,-0.296881005859375,-10.002974536132811,0.8786720092773437,0,0,0,0
1.5708026440001959,-0.20350714111328125,-9.6151138671875,0.7757213378906249,0,0,0,0
1.572012746999917,-0.8714894042968749,-9.409212524414063,0.6153098266601562,0,0,0,0
1.57330095899988,-1.2425906616210938,-9.33978067626953,0.6009446166992187,0,0,0,0
1.574411580999822,-1.2138602416992186,-9.445125549316407,0.7541735229492187,0,0,0,0
1.575525109999944,-1.1372457885742187,-9.516951599121093,1.0941501586914062,0,0,0,0
1.5767216019999069,-0.316034619140625,-10.060435375976562,1.5849614990234373,0,0,0,0
1.578088518000186,0.8954314208984374,-9.70369932861328,1.6519991455078125,0,0,0,0
1.5791959170001064,0.63206923828125,-9.718064538574218,1.8339584716796873,0,0,0,0
1.5802835200001937,-0.086191259765625,-9.720458740234374,1.6998831787109374,0,0,0,0
1.5813704380002491,-0.6416460449218749,-9.634267480468749,1.5801730957031248,0,0,0,0
1.5825786700002027,-0.8451531860351562,-9.555258825683593,1.5107412475585937,0,0,0,0
1.5839116050001394,-1.1755530151367186,-9.967061511230469,1.4939818359375,0,0,0,0
1.5850048749998678,0.2920926025390625,-9.648632690429688,1.5322890624999999,0,0,0,0
1.5860917559998597,0.5817910034179687,-9.253589416503905,1.5275006591796874,0,0,0,0
1.5872982659998343,0.51714755859375,-9.430760339355468,1.5035586425781249,0,0,0,0
1.5886041459998523,-0.30885201416015623,-9.318232861328125,0.8714894042968749,0,0,0,0
1.589701044999856,-1.0917559570312498,-9.5001921875,0.7493851196289062,0,0,0,0
1.5907845370002178,-1.4053963745117186,-9.928754284667969,0.8475473876953125,0,0,0,0
1.5919051959999706,-1.3958195678710936,-10.426748229980468,0.9576806640625,0,0,0,0
1.5931266500001584,0.3327940307617187,-10.108319409179687,1.458068811035156,0,0,0,0
1.594440104000114,0.8283937744140625,-9.636661682128906,1.6424223388671875,0,0,0,0
1.5955435219998435,0.5530605834960938,-9.392453112792968,1.5275006591796874,0,0,0,0
1.5966263290001734,-0.05027823486328125,-9.521740002441407,1.2665326782226562,0,0,0,0
1.5977135250000174,-0.7278373046875,-9.576806640625,1.2210428466796874,0,0,0,0
1.5989299789998768,-0.9265560424804687,-9.852139831542969,1.0702081420898437,0,0,0,0
1.6002213770002527,-0.699106884765625,-10.103531005859374,1.1444283935546875,0,0,0,0
1.601325850000194,0.0909796630859375,-9.828197814941406,1.22583125,0,0,0,0
1.6024186019999433,0.3280056274414062,-9.459490759277344,1.5203180541992187,0,0,0,0
1.6036480739999206,0.3136404174804687,-9.370905297851563,1.3144167114257812,0,0,0,0
1.6051798230000713,-0.7637503295898437,-9.45470235595703,1.149216796875,0,0,0,0
1.6062799810001707,-0.9409212524414062,-9.593566052246093,1.1540052001953125,0,0,0,0
1.6073883990002287,-1.2234370483398436,-9.679757312011718,1.0773907470703123,0,0,0,0
1.6088625369998226,-0.5219359619140624,-9.801861596679688,1.438915197753906,0,0,0,0
1.6100483989998793,0.3854664672851562,-9.421183532714844,1.62805712890625,0,0,0,0
1.6113816110000698,0.181959326171875,-9.397241516113281,1.6041151123046875,0,0,0,0
1.6126534360000733,-0.04548983154296875,-9.545682019042967,1.3910311645507811,0,0,0,0
1.613875556000039,-0.4213794921875,-9.497797985839844,1.1947066284179686,0,0,0,0
1.6151406029998725,-0.6416460449218749,-9.670180505371093,1.0486603271484374,0,0,0,0
1.6164288710001529,-0.6368576416015624,-9.78031378173828,0.9792284790039062,0,0,0,0
1.617542104000222,-0.14125789794921875,-9.811438403320311,1.0223241088867188,0,0,0,0
1.6186250410000866,-0.0143652099609375,-9.715670336914062,0.9241618408203125,0,0,0,0
1.6200355119999585,-0.7110778930664062,-9.715670336914062,0.9193734375,0,0,0,0
1.621281688000181,-0.8667010009765624,-9.634267480468749,0.842758984375,0,0,0,0
1.6227344560002166,-1.0223241088867188,-9.579200842285156,1.2018892333984375,0,0,0,0
1.6239242430001468,-1.1707646118164061,-10.038887561035155,1.3311761230468748,0,0,0,0
1.6251337530002274,0.7278373046875,-9.6151138671875,1.8291700683593748,0,0,0,0
1.6263260219998301,0.9983820922851562,-9.5384994140625,1.9823989746093749,0,0,0,0
1.627566513000147,0.584185205078125,-9.813832604980469,1.714248388671875,0,0,0,0
1.6289899660000629,-0.8283937744140625,-9.72285294189453,1.438915197753906,0,0,0,0
1.6301681979998648,-0.9241618408203125,-9.792284790039062,1.3311761230468748,0,0,0,0
1.6313423010001316,-1.177947216796875,-9.744400756835937,1.2497732666015624,0,0,0,0
1.6325629779998962,-0.7445967163085937,-9.744400756835937,1.2880804931640624,0,0,0,0
1.63396080099983,0.229843359375,-9.327809667968749,1.4006079711914061,0,0,0,0
1.6351743660002285,0.22026655273437498,-9.5384994140625,1.1827356201171875,0,0,0,0
1.6363547470000412,-0.4955997436523437,-9.586383447265625,0.8882488159179687,0,0,0,0
1.6375862190002408,-1.1444283935546875,-9.720458740234374,0.82360537109375,0,0,0,0
1.638965060999908,-1.4891934326171874,-9.737218151855469,0.9169792358398436,0,0,0,0
1.6401465530002497,-0.7350199096679687,-10.129867224121092,1.0678139404296874,0,0,0,0
1.6414566170001308,0.45968671875,-9.576806640625,1.9943699829101562,0,0,0,0
1.642788978000226,1.0366893188476562,-9.471461767578125,2.104503259277344,0,0,0,0
1.644682001000092,0.14125789794921875,-9.30147344970703,1.5873557006835937,0,0,0,0
1.6458665109998947,-0.5578489868164063,-9.627084875488281,1.4317325927734375,0,0,0,0
1.6474104819999411,-0.6871358764648438,-9.706093530273437,1.3000515014648437,0,0,0,0
1.6491041730000688,0.18435352783203124,-9.785102185058593,1.199495031738281,0,0,0,0
1.6506857180002044,0.1005564697265625,-9.373299499511718,0.8786720092773437,0,0,0,0
1.6525019270002304,-0.718260498046875,-9.6151138671875,0.7158662963867187,0,0,0,0
1.6539790460001313,-1.197100830078125,-9.935936889648437,0.7924807495117187,0,0,0,0
1.6552315180001642,-1.2904746948242187,-9.734823950195311,1.0486603271484374,0,0,0,0
1.6564054360001137,-0.5793968017578125,-10.101136804199218,1.0989385620117187,0,0,0,0
1.657814887999848,0.3950432739257812,-9.425971936035156,1.7669208251953124,0,0,0,0
1.659324154999922,0.6440402465820312,-9.5001921875,1.7693150268554687,0,0,0,0
1.6605933499999992,0.08140285644531249,-9.617508068847656,1.5227122558593749,0,0,0,0
1.661766008000086,-0.6153098266601562,-9.7683427734375,1.4101847778320311,0,0,0,0
1.663289590000204,-0.9576806640625,-9.758765966796874,1.24498486328125,0,0,0,0
1.665006632999848,0.0430956298828125,-9.689334118652344,1.3168109130859373,0,0,0,0
1.6662559940000392,0.28012159423828126,-9.404424121093749,1.3670891479492187,0,0,0,0
1.6682399249998525,-0.5003881469726562,-9.593566052246093,1.0797849487304687,0,0,0,0
1.6705999629998587,-1.209071838378906,-9.746794958496093,1.01514150390625,0,0,0,0
1.6723006550000719,-0.47165772705078124,-10.070012182617187,1.1013327636718748,0,0,0,0
1.673891291000018,0.6153098266601562,-9.445125549316407,1.8171990600585937,0,0,0,0
1.6760053319999315,-0.07900865478515624,-9.6151138671875,1.6065093139648436,0,0,0,0
1.6777041710001868,-0.7805097412109374,-9.797073193359374,1.2138602416992186,0,0,0,0
1.6792844189999414,-1.0319009155273438,-9.76116016845703,1.0773907470703123,0,0,0,0
1.6813196450002579,-0.031124621582031248,-9.634267480468749,1.1516109985351561,0,0,0,0
1.6828918189999058,0.2537853759765625,-9.469067565917967,1.218648645019531,0,0,0,0
1.6843177900000228,-0.09816226806640624,-9.694122521972655,1.2234370483398436,0,0,0,0
1.686254425000243,-0.93852705078125,-9.739612353515625,1.1013327636718748,0,0,0,0
1.687555692999922,-1.235408056640625,-9.667786303710937,1.13006318359375,0,0,0,0
1.6887459989998206,-0.5530605834960938,-9.706093530273437,1.5466542724609373,0,0,0,0
1.6900078980002036,0.5913678100585937,-9.469067565917967,1.6232687255859375,0,0,0,0
1.6915755159998298,0.4477157104492187,-9.588777648925781,1.5227122558593749,0,0,0,0
1.6929737469999964,-0.59376201171875,-9.543287817382812,1.3000515014648437,0,0,0,0
1.6942592559998957,-0.5722141967773438,-9.617508068847656,1.2018892333984375,0,0,0,0
1.6955599319999237,-0.8978256225585937,-9.60793126220703,1.01514150390625,0,0,0,0
1.697160346000146,-0.0143652099609375,-9.89523546142578,1.0510545288085937,0,0,0,0
1.6984880220002196,0.0143652099609375,-9.473855969238281,1.1156979736328125,0,0,0,0
1.7002331570001843,-0.5219359619140624,-9.674968908691406,1.1252747802734375,0,0,0,0
1.7016734429998905,-1.216254443359375,-9.504980590820312,1.0486603271484374,0,0,0,0
1.7032346730002246,-1.1468225952148436,-9.576806640625,1.2593500732421874,0,0,0,0
1.704659958999855,-0.29927520751953124,-10.09395419921875,1.9512743530273435,0,0,0,0
1.7059220050000476,0.8834604125976562,-9.275137231445312,2.001552587890625,0,0,0,0
1.7071204600001693,0.6775590698242188,-9.447519750976562,1.8650830932617186,0,0,0,0
1.7083005250001406,0.13407529296874998,-9.6917283203125,1.6711527587890624,0,0,0,0
1.7095496830002048,-0.5458779785156249,-9.710881933593749,1.1731588134765625,0,0,0,0
1.7108202290000918,-1.0199299072265624,-9.785102185058593,1.01514150390625,0,0,0,0
1.712040628000068,-0.9983820922851562,-9.935936889648437,0.8116343627929687,0,0,0,0
1.7132277119999344,-0.19153613281249998,-9.60793126220703,1.0079588989257813,0,0,0,0
1.7144729070000722,0.258573779296875,-9.165003955078124,1.0702081420898437,0,0,0,0
1.7158294900000328,0.5793968017578125,-9.311050256347656,1.0726023437499999,0,0,0,0
1.7170088699999724,-0.8978256225585937,-9.459490759277344,0.9026140258789062,0,0,0,0
1.7181847130000278,-1.2018892333984375,-9.679757312011718,0.9433154541015625,0,0,0,0
1.7196355920000315,-1.43652099609375,-9.60793126220703,1.369483349609375,0,0,0,0
1.7209223230001953,-0.5363011718749999,-9.821015209960937,1.8722656982421875,0,0,0,0
1.7221945179999238,0.7829039428710937,-9.5001921875,2.114080065917969,0,0,0,0
1.7235032859998682,0.6607996582031249,-9.5001921875,1.9943699829101562,0,0,0,0
1.724877091000053,0.44053310546874996,-9.662997900390625,1.6519991455078125,0,0,0,0
1.7261165820000315,-0.6105214233398437,-9.773131176757811,1.4149731811523436,0,0,0,0
1.7280432910001764,-0.8044517578125,-9.964667309570311,1.0079588989257813,0,0,0,0
1.7300262950002434,-0.14604630126953125,-9.550470422363281,0.8499415893554687,0,0,0,0
1.7320052989998658,-0.51714755859375,-9.598354455566406,0.7541735229492187,0,0,0,0
1.7337792859998444,-0.9648632690429687,-9.651026892089844,0.7781155395507812,0,0,0,0
1.735969567000211,-0.41898529052734373,-10.149020837402343,1.0582371337890624,0,0,0,0
1.7377306280000084,0.5626373901367188,-9.579200842285156,1.7597382202148437,0,0,0,0
1.7393182470000284,0.45489831542968745,-9.572018237304688,1.867477294921875,0,0,0,0
1.7413041579998207,-0.3806780639648437,-9.512163195800781,1.5801730957031248,0,0,0,0
1.7430233680001948,-0.8882488159179687,-9.562441430664062,1.3072341064453123,0,0,0,0
1.7445707639999455,-0.6057330200195312,-9.648632690429688,1.2401964599609374,0,0,0,0
1.7465571389998331,0.08858546142578125,-9.275137231445312,1.1611878051757811,0,0,0,0
1.7482654599998568,-0.2657563842773437,-9.457096557617186,1.0127473022460938,0,0,0,0
1.7498263190000216,-0.7302315063476562,-9.68454571533203,0.8403647827148437,0,0,0,0
1.7518647860001693,-1.5011644409179687,-10.340556970214843,1.1516109985351561,0,0,0,0
1.753562589000012,0.6081272216796875,-9.897629663085937,1.637633935546875,0,0,0,0
1.7551391880001574,0.43574470214843747,-9.583989245605467,1.7190367919921874,0,0,0,0
1.756989545000124,-0.584185205078125,-9.727641345214844,1.3479355346679687,0,0,0,0
1.7588285689998884,-0.833182177734375,-9.885658654785155,0.9121908325195311,0,0,0,0
1.7604074470000342,-0.928950244140625,-10.000580334472655,0.9600748657226562,0,0,0,0
1.7623915809999744,0.05027823486328125,-9.469067565917967,1.2497732666015624,0,0,0,0
1.7641540489998988,-0.11731588134765625,-9.507374792480467,1.3000515014648437,0,0,0,0
1.7657002420000936,-0.5219359619140624,-9.406818322753905,1.3192051147460937,0,0,0,0
1.7678739490002044,-1.1180921752929687,-10.050858569335936,1.3335703247070312,0,0,0,0
1.7696205470001587,0.6081272216796875,-9.677363110351562,1.867477294921875,0,0,0,0
1.7711984430002303,0.565031591796875,-9.718064538574218,1.7741034301757812,0,0,0,0
1.7730820040001163,-0.7541735229492187,-9.595960253906249,1.2521674682617188,0,0,0,0
1.7745065670001168,-0.9792284790039062,-9.617508068847656,0.7541735229492187,0,0,0,0
1.776004538000052,-0.8834604125976562,-9.813832604980469,0.7781155395507812,0,0,0,0
1.777530064000075,-0.033518823242187495,-9.792284790039062,1.0941501586914062,0,0,0,0
1.779269996000039,0.373495458984375,-9.583989245605467,1.1276689819335937,0,0,0,0
1.7805255980001675,-0.316034619140625,-9.490615380859374,0.7924807495117187,0,0,0,0
1.7818763109999054,-1.1252747802734375,-9.866505041503906,0.9504980590820312,0,0,0,0
1.783583131999876,-1.5418658691406248,-9.595960253906249,1.3311761230468748,0,0,0,0
1.785018232999846,0.6440402465820312,-9.586383447265625,1.867477294921875,0,0,0,0
1.7863130939999792,0.9169792358398436,-9.459490759277344,2.0278888061523435,0,0,0,0
1.7890222219998577,-0.09576806640624999,-9.627084875488281,1.6400281372070311,0,0,0,0
1.7903713420000713,-0.44053310546874996,-9.988609326171874,1.2880804931640624,0,0,0,0
1.791580463000173,-1.120486376953125,-10.084377392578125,0.8714894042968749,0,0,0,0
1.7929217679998146,-0.47644613037109373,-10.05564697265625,0.6751648681640625,0,0,0,0
1.7948223469998084,-0.2920926025390625,-9.502586389160156,0.7852981445312499,0,0,0,0
1.7961869490000026,-0.6703764648437499,-9.528922607421874,0.7038952880859375,0,0,0,0
1.7974066430001585,-1.0654197387695312,-9.483432775878907,0.689530078125,0,0,0,0
1.798576950000097,-1.2114660400390624,-9.358934289550781,1.1755530151367186,0,0,0,0
1.7997518669999408,-1.3742717529296875,-10.050858569335936,1.39821376953125,0,0,0,0
1.8009933210000781,0.6847416748046875,-9.631873278808593,1.9129671264648436,0,0,0,0
1.8022586460001548,0.928950244140625,-9.557653027343749,2.1260510742187497,0,0,0,0
1.8034446189999471,0.7757213378906249,-9.631873278808593,2.123656872558594,0,0,0,0
1.8046214619998864,0.3711012573242187,-9.65342109375,1.917755529785156,0,0,0,0
1.805858748999981,0.0383072265625,-9.696516723632811,1.68551796875,0,0,0,0
1.8072019430001092,-1.0510545288085937,-9.593566052246093,1.3096283081054687,0,0,0,0
1.8083848420001232,-0.7685387329101562,-9.76116016845703,1.0127473022460938,0,0,0,0
1.8095598889999565,-0.062249243164062495,-9.737218151855469,0.7541735229492187,0,0,0,0
1.8108011210001678,-0.26815058593749996,-9.380482104492186,0.5219359619140624,0,0,0,0
1.812068796999938,-0.7517793212890624,-9.351751684570312,0.5219359619140624,0,0,0,0
1.81324980699992,-1.1444283935546875,-9.272743029785156,0.584185205078125,0,0,0,0
1.814424501999838,-1.2641384765625,-9.430760339355468,1.0223241088867188,0,0,0,0
1.81566825300024,-1.2832920898437499,-10.105925207519531,1.3048399047851562,0,0,0,0
1.8169789839998884,0.7278373046875,-9.928754284667969,1.7836802368164062,0,0,0,0
1.818154383000092,0.7541735229492187,-9.74200655517578,1.9967641845703124,0,0,0,0
1.8193342449999363,0.36152445068359373,-9.87608184814453,2.0159177978515626,0,0,0,0
1.820576050999989,0.20350714111328125,-9.753977563476562,1.8004396484374998,0,0,0,0
1.8218858559998807,-0.09337386474609374,-9.765948571777344,1.5275006591796874,0,0,0,0
1.823066180999831,-1.0127473022460938,-9.72285294189453,1.2856862915039062,0,0,0,0
1.8242459500002042,-0.4860229370117187,-9.804255798339844,1.1540052001953125,0,0,0,0
1.8254847190000874,0.277727392578125,-9.696516723632811,1.13006318359375,0,0,0,0
1.8267733580000822,0.033518823242187495,-9.45470235595703,0.8571241943359375,0,0,0,0
1.8279478499998731,-0.7685387329101562,-9.504980590820312,0.7134720947265625,0,0,0,0
1.8291072669999267,-1.2713210815429687,-9.643844287109374,0.6536170532226562,0,0,0,0
1.830339313999957,-1.3575123413085937,-9.926360083007811,0.9169792358398436,0,0,0,0
1.8317066929998873,-1.4437036010742186,-10.041281762695311,1.3263877197265623,0,0,0,0
1.8328954250000606,1.0319009155273438,-9.639055883789062,1.9105729248046874,0,0,0,0
1.8340691759999572,0.97683427734375,-9.208099584960937,2.099714855957031,0,0,0,0
1.8353442960001303,0.679953271484375,-9.464279162597656,1.7956512451171873,0,0,0,0
1.8370540800001436,-0.3687070556640625,-9.68454571533203,1.6112977172851561,0,0,0,0
1.8382759420001094,-0.8068459594726562,-9.821015209960937,1.3311761230468748,0,0,0,0
1.839528452000195,-1.3838485595703125,-9.701305126953125,1.0127473022460938,0,0,0,0
1.840715573000125,-0.86191259765625,-9.885658654785155,1.120486376953125,0,0,0,0
1.841956341000241,0.2609679809570312,-9.504980590820312,1.1037269653320312,0,0,0,0
1.8433841269998084,0.016759411621093748,-9.600748657226562,1.0438719238281249,0,0,0,0
1.844576859999961,-0.5003881469726562,-9.26316622314453,0.7637503295898437,0,0,0,0
1.8457655729998805,-1.177947216796875,-9.483432775878907,0.7589619262695312,0,0,0,0
1.8470604529998127,-1.458068811035156,-9.548076220703125,0.9792284790039062,0,0,0,0
1.8485106829998585,-0.3495534423828125,-10.211270080566406,1.70467158203125,0,0,0,0
1.8498100440001508,1.01514150390625,-9.679757312011718,1.905784521484375,0,0,0,0
1.851023035000253,0.3950432739257812,-9.622296472167967,1.9584569580078124,0,0,0,0
1.8523028409999824,0.17238251953125,-9.548076220703125,1.8243816650390623,0,0,0,0
1.8536188869998114,-0.3184288208007812,-9.524134204101562,1.429338391113281,0,0,0,0
1.8548620999999912,-0.7661445312499999,-9.7683427734375,1.1156979736328125,0,0,0,0
1.8560529070000484,-0.9457096557617187,-9.943119494628906,1.0438719238281249,0,0,0,0
1.8573011379999116,-0.086191259765625,-9.9981861328125,1.0486603271484374,0,0,0,0
1.8585638700001255,0.0718260498046875,-9.428366137695312,0.814028564453125,0,0,0,0
1.8597520280000026,-0.0047884033203125,-9.323021264648437,0.8786720092773437,0,0,0,0
1.8609261120000156,-0.9265560424804687,-9.17458076171875,0.8786720092773437,0,0,0,0
1.8620995300002505,-0.9959878906249999,-9.478644372558593,0.97683427734375,0,0,0,0
