Time,AccelX1,AccelY1,AccelZ1,AccelX2,AccelY2,AccelZ2
5.277979653328657e-06,0,0,1.2880804931640624,0,0,0.6115200000000001
0.0036848259915132076,0,0,1.5131354492187499,0,0,1.1465999999999998
0.007253727992065251,0,0,1.3766659545898436,0,0,1.45236
0.011440417991252616,0,0,1.2330138549804688,0,0,0.53508
0.01494854298653081,0,0,1.4891934326171874,0,0,0.7644
0.018605220975587144,0,0,0.9744400756835937,0,0,0.0
0.022306935978122056,0,0,1.2880804931640624,0,0,0.99372
0.025852244987618178,0,0,1.3000515014648437,0,0,0.7644
0.02951040500192903,0,0,1.1372457885742187,0,0,0.6115200000000001
0.03315195397590287,0,0,1.407790576171875,0,0,0.3822
0.03667879998101853,0,0,1.3431471313476562,0,0,0.91728
0.04019581398461014,0,0,1.1635820068359375,0,0,1.07016
0.043711901002097875,0,0,1.2425906616210938,0,0,0.68796
0.04722496998147108,0,0,1.369483349609375,0,0,1.1465999999999998
0.050739019992761314,0,0,1.2018892333984375,0,0,0.53508
0.054260496981441975,0,0,1.6112977172851561,0,0,0.45864
0.057773843000177294,0,0,1.3575123413085937,0,0,1.07016
0.061296633997699246,0,0,1.3335703247070312,0,0,0.84084
0.06481507298303768,0,0,1.5753846923828123,0,0,0.99372
0.06832866100012325,0,0,1.1420341918945311,0,0,0.3822
0.07192548798047937,0,0,1.2641384765625,0,0,0.84084
0.07569692400284111,0,0,1.5155296508789062,0,0,0.6115200000000001
0.07936437998432666,0,0,1.149216796875,0,0,1.60524
0.08296204099315219,0,0,1.3575123413085937,0,0,0.6115200000000001
0.0865273499803152,0,0,1.2593500732421874,0,0,0.91728
0.09003869598382153,0,0,0.928950244140625,0,0,0.15288000000000002
0.09359450597548857,0,0,1.3479355346679687,0,0,0.53508
0.09643137900275178,0,0,1.4030021728515625,0,0,0.91728
0.09923108600196429,0,0,1.1707646118164061,0,0,0.7644
0.10202910797670484,0,0,1.197100830078125,0,0,0.99372
0.10482716700062156,0,0,1.1037269653320312,0,0,1.2994800000000002
0.1076257259992417,0,0,1.24498486328125,0,0,1.1465999999999998
0.11051863597822376,0,0,1.177947216796875,0,0,1.1465999999999998
0.11330199099029414,0,0,1.407790576171875,0,0,0.6115200000000001
0.11610023499815725,0,0,1.5777788940429687,0,0,0.7644
0.1189536269812379,0,0,1.4700398193359374,0,0,0.6115200000000001
0.12175275999470614,0,0,1.1468225952148436,0,0,9.555
0.12456070797634311,0,0,1.2378022583007813,0,0,0.53508
0.1273597109830007,0,0,1.4101847778320311,0,0,0.91728
0.13015675198403187,0,0,1.2018892333984375,0,0,-8.867040000000001
0.13295964399003424,0,0,1.2856862915039062,0,0,0.84084
0.13575798098463565,0,0,1.2880804931640624,0,0,1.5288
0.1385581319918856,0,0,1.3718775512695311,0,0,0.91728
0.1413522649963852,0,0,1.0726023437499999,0,0,1.45236
0.14414841699181125,0,0,1.3311761230468748,0,0,0.91728
0.14694645698182285,0,0,1.4030021728515625,0,0,1.07016
0.14974144200095907,0,0,1.3168109130859373,0,0,0.7644
0.15253511199261993,0,0,1.0869675537109373,0,0,0.0
0.15533096800209023,0,0,1.3168109130859373,0,0,0.3822
0.15812741598347202,0,0,1.35990654296875,0,0,1.07016
0.16092436297913082,0,0,1.0845733520507812,0,0,1.07016
0.16372019998379983,0,0,1.2282254516601563,0,0,0.6115200000000001
0.166549073997885,0,0,1.3383587280273437,0,0,0.53508
0.1693477249937132,0,0,1.3551181396484375,0,0,0.99372
0.17214459899696521,0,0,1.0366893188476562,0,0,1.37592
0.17494367598555982,0,0,1.2306196533203124,0,0,0.91728
0.17773673599003814,0,0,1.4891934326171874,0,0,0.68796
0.18053366499952972,0,0,1.3455413330078123,0,0,0.84084
0.18332992799696513,0,0,1.0773907470703123,0,0,0.22932
0.1861415049934294,0,0,1.2617442749023438,0,0,0.7644
0.1889345450035762,0,0,1.24498486328125,0,0,0.84084
0.19184336200123653,0,0,1.1444283935546875,0,0,0.45864
0.1948234929877799,0,0,1.189918225097656,0,0,0.99372
0.19798030698439106,0,0,1.5107412475585937,0,0,0.6115200000000001
0.2010985660017468,0,0,1.254561669921875,0,0,1.07016
0.2042171770008281,0,0,1.3192051147460937,0,0,0.84084
0.20733308399212547,0,0,1.369483349609375,0,0,0.6115200000000001
0.21048637898638844,0,0,1.3670891479492187,0,0,0.6115200000000001
0.21360085997730494,0,0,1.13006318359375,0,0,-20
0.21671676699770615,0,0,1.3168109130859373,0,0,1.1465999999999998
0.21983076698961668,0,0,1.3072341064453123,0,0,0.99372
0.2229440809751395,0,0,1.1707646118164061,0,0,1.37592
0.22605654399376363,0,0,1.2976572998046874,0,0,0.45864
0.22916950698709115,0,0,1.484405029296875,0,0,0.99372
0.23228189497604035,0,0,1.1420341918945311,0,0,0.84084
0.2354268939816393,0,0,1.2976572998046874,0,0,0.3822
0.2385402089857962,0,0,1.388636962890625,0,0,0.91728
0.24165698597789742,0,0,1.24498486328125,0,0,0.7644
0.2447706339880824,0,0,1.0989385620117187,0,0,1.37592
0.2478834109788295,0,0,1.407790576171875,0,0,0.84084
0.2509985219803639,0,0,1.2306196533203124,0,0,0.84084
0.25411770699429326,0,0,1.2018892333984375,0,0,0.84084
0.2572327249799855,0,0,1.3551181396484375,0,0,0.84084
0.26041970498044975,0,0,1.4724340209960938,0,0,0.99372
0.26355933398008347,0,0,1.20667763671875,0,0,0.7644
0.2666749259806238,0,0,1.2617442749023438,0,0,0.68796
0.2698365739779547,0,0,1.4101847778320311,0,0,0.84084
0.2733681239769794,0,0,1.0773907470703123,0,0,0.6115200000000001
0.2765874929900747,0,0,1.35990654296875,0,0,0.7644
0.2797063069883734,0,0,1.4724340209960938,0,0,0.99372
0.28282175099593587,0,0,1.0989385620117187,0,0,0.84084
0.2859349909995217,0,0,1.3766659545898436,0,0,1.07016
0.28904473199509084,0,0,1.4149731811523436,0,0,0.6115200000000001
0.2922319899953436,0,0,1.235408056640625,0,0,0.91728
0.29534758199588396,0,0,1.1276689819335937,0,0,0.0
0.29846182197798043,0,0,1.2952630981445312,0,0,0.84084
0.3015753399813548,0,0,1.3000515014648437,0,0,0.7644
0.30468876598752104,0,0,1.1180921752929687,0,0,1.5288
0.3078035060025286,0,0,1.5083470458984374,0,0,0.30576000000000003
0.31091785797616467,0,0,1.3335703247070312,0,0,1.2230400000000001
0.3140283209795598,0,0,1.199495031738281,0,0,0.84084
0.31716674598283134,0,0,1.3192051147460937,0,0,0.6115200000000001
0.32028237500344403,0,0,1.43652099609375,0,0,0.7644
0.32345807799720205,0,0,1.3072341064453123,0,0,0.91728
0.3265732439758722,0,0,1.1252747802734375,0,0,1.07016
0.32968320697546005,0,0,1.5346832641601562,0,0,0.30576000000000003
0.3327956689754501,0,0,1.3407529296874998,0,0,0.6115200000000001
0.3359076689812355,0,0,0.9600748657226562,0,0,0.91728
0.33902305699302815,0,0,1.2378022583007813,0,0,0.45864
0.3421351129945833,0,0,1.3670891479492187,0,0,0.68796
0.34524829700239934,0,0,1.254561669921875,0,0,0.84084
0.3483607230009511,0,0,1.2569558715820313,0,0,0.6115200000000001
0.35150279599474743,0,0,1.4796166259765624,0,0,1.2994800000000002
0.3546187219908461,0,0,1.2306196533203124,0,0,0.68796
0.35772914698463865,0,0,1.3431471313476562,0,0,0.45864
0.3608618689759169,0,0,1.5442600708007812,0,0,0.45864
0.3639761459780857,0,0,1.2856862915039062,0,0,0.53508
0.3670902199810371,0,0,1.2018892333984375,0,0,0.53508
0.370227718987735,0,0,1.3766659545898436,0,0,0.99372
0.37334303397801705,0,0,1.1420341918945311,0,0,1.07016
0.37645449698902667,0,0,1.0893617553710937,0,0,0.68796
0.3795839590020478,0,0,1.39821376953125,0,0,0.30576000000000003
0.3826962359889876,0,0,1.3287819213867187,0,0,0.45864
0.3858439579780679,0,0,1.1707646118164061,0,0,0.45864
0.38895767999929376,0,0,1.3215993164062498,0,0,0.91728
0.39209773499169387,0,0,1.656787548828125,0,0,0.7644
0.3952476969861891,0,0,1.3311761230468748,0,0,1.07016
0.39836265897611156,0,0,1.1611878051757811,0,0,0.84084
0.4014754179806914,0,0,1.1348515869140625,0,0,0.45864
0.4046115840028506,0,0,1.2497732666015624,0,0,0.68796
0.40772793599171564,0,0,1.1276689819335937,0,0,0.0
0.41084239797783084,0,0,1.2473790649414063,0,0,1.2994800000000002
0.4139549160026945,0,0,1.350329736328125,0,0,0.84084
0.41706763798720203,0,0,1.3215993164062498,0,0,1.5288
0.42023639698163606,0,0,1.2785036865234374,0,0,0.30576000000000003
0.42335565498797223,0,0,1.5801730957031248,0,0,0.84084
0.4264699329796713,0,0,1.1923124267578125,0,0,0.45864
0.4295835059892852,0,0,1.3168109130859373,0,0,0.15288000000000002
0.4326968389796093,0,0,1.5873557006835937,0,0,0.68796
0.4358121349941939,0,0,1.2138602416992186,0,0,0.53508
0.4389268200029619,0,0,1.3766659545898436,0,0,0.99372
0.44203802398988046,0,0,1.149216796875,0,0,0.45864
0.44515105997561477,0,0,1.3215993164062498,0,0,0.7644
0.4482919109868817,0,0,0.9528922607421875,0,0,0.15288000000000002
0.4514616139931604,0,0,1.2904746948242187,0,0,0.99372
0.45458313199924305,0,0,1.3575123413085937,0,0,0.91728
0.45769657599157654,0,0,1.1180921752929687,0,0,1.1465999999999998
0.4608299459796399,0,0,1.3048399047851562,0,0,0.7644
0.46394516798318364,0,0,1.3838485595703125,0,0,1.07016
0.46706051897490397,0,0,1.1468225952148436,0,0,0.7644
0.4701726299826987,0,0,1.2473790649414063,0,0,0.84084
0.4733199439942837,0,0,1.4125789794921875,0,0,0.91728
0.4764330549805891,0,0,1.2569558715820313,0,0,0.68796
0.4795454620034434,0,0,1.216254443359375,0,0,0.15288000000000002
0.4826579989749007,0,0,1.2665326782226562,0,0,0.91728
0.48577088699676096,0,0,1.438915197753906,0,0,0.68796
0.48887879398535006,0,0,1.0079588989257813,0,0,1.45236
0.49202538598910905,0,0,1.2856862915039062,0,0,0.30576000000000003
0.4951803110016044,0,0,1.4101847778320311,0,0,0.7644
0.49837751299492083,0,0,1.13006318359375,0,0,0.45864
0.5014967169845477,0,0,1.2521674682617188,0,0,0.91728
0.5140620659803972,0,0,1.2282254516601563,0,0,0.91728
0.5173145819862839,0,0,1.4963760375976562,0,0,0.6115200000000001
0.5205314509803429,0,0,1.2689268798828124,0,0,0.99372
0.5237100239901338,0,0,1.3192051147460937,0,0,1.07016
0.5268221349979285,0,0,1.2737152832031249,0,0,0.84084
0.5299187459750101,0,0,1.1563994018554686,0,0,0.15288000000000002
0.5331075039866846,0,0,1.3718775512695311,0,0,0.6115200000000001
0.5365677029767539,0,0,1.2904746948242187,0,0,0.91728
0.5396707579784561,0,0,1.1707646118164061,0,0,1.2230400000000001
0.5427697019767947,0,0,1.2904746948242187,0,0,0.7644
0.5458650169894099,0,0,1.4053963745117186,0,0,0.99372
0.5490329789754469,0,0,1.2617442749023438,0,0,0.53508
0.5521401639853138,0,0,1.2330138549804688,0,0,0.53508
0.5552840519812889,0,0,1.448492004394531,0,0,0.68796
0.5583926260005683,0,0,1.2665326782226562,0,0,0.7644
0.5614887919800822,0,0,1.2497732666015624,0,0,0.68796
0.564585754997097,0,0,1.2473790649414063,0,0,1.1465999999999998
0.5677425509784371,0,0,1.2856862915039062,0,0,0.68796
0.5708569579874165,0,0,1.177947216796875,0,0,0.22932
0.5739501979842316,0,0,1.3287819213867187,0,0,0.45864
0.5770709200005513,0,0,1.3359645263671873,0,0,0.7644
0.5801849199924618,0,0,1.2617442749023438,0,0,1.07016
0.5832989189948421,0,0,1.2473790649414063,0,0,0.45864
0.5872983159788419,0,0,1.4628572143554686,0,0,0.6115200000000001
0.5906916819803882,0,0,1.0989385620117187,0,0,1.1465999999999998
0.5938205709971953,0,0,1.2880804931640624,0,0,0.6115200000000001
0.597049457981484,0,0,1.6831237670898436,0,0,1.07016
0.5996853709802963,0,0,1.3120225097656248,0,0,0.7644
0.602273636002792,0,0,1.177947216796875,0,0,0.30576000000000003
0.6058969809964765,0,0,1.426944189453125,0,0,0.91728
0.6084900429996196,0,0,1.3383587280273437,0,0,0.7644
0.6110304189787712,0,0,1.1133037719726562,0,0,0.84084
0.6135646479960997,0,0,1.3383587280273437,0,0,0.6115200000000001
0.6161005619796924,0,0,1.3431471313476562,0,0,0.99372
0.618634383979952,0,0,1.369483349609375,0,0,0.91728
0.6211671679920983,0,0,1.0726023437499999,0,0,0.7644
0.6236998779932037,0,0,1.2976572998046874,0,0,0.99372
0.6262329409946688,0,0,1.1444283935546875,0,0,1.2230400000000001
0.628765242989175,0,0,1.2808978881835937,0,0,0.6115200000000001
0.6313000459922478,0,0,1.0893617553710937,0,0,0.99372
0.6338381639798172,0,0,1.3096283081054687,0,0,1.2230400000000001
0.6363836329837795,0,0,1.5466542724609373,0,0,0.99372
0.6389174179930706,0,0,1.3287819213867187,0,0,0.6115200000000001
0.6414481649990194,0,0,1.1013327636718748,0,0,0.53508
0.6439801719971001,0,0,1.0941501586914062,0,0,0.99372
0.6465144559915643,0,0,1.4341267944335936,0,0,0.91728
0.6490724619943649,0,0,1.3383587280273437,0,0,0.68796
0.6516124689951539,0,0,1.2641384765625,0,0,0.99372
0.6541514379787259,0,0,1.0749965454101562,0,0,0.91728
0.6567116299993359,0,0,1.3287819213867187,0,0,1.1465999999999998
0.6592446549911983,0,0,1.2497732666015624,0,0,0.45864
0.661780957976589,0,0,1.1228805786132812,0,0,1.07016
0.6643195939832367,0,0,1.2832920898437499,0,0,0.7644
0.6668517119833268,0,0,1.3359645263671873,0,0,0.91728
0.6693840889784042,0,0,1.3359645263671873,0,0,0.84084
0.671920502994908,0,0,1.1947066284179686,0,0,0.91728
0.6744528239942156,0,0,1.2425906616210938,0,0,1.07016
0.676983682991704,0,0,1.3623007446289062,0,0,0.7644
0.6795182079949882,0,0,1.2473790649414063,0,0,1.1465999999999998
0.682049269991694,0,0,1.35990654296875,0,0,0.7644
0.6845822769973893,0,0,1.3383587280273437,0,0,0.6115200000000001
0.6871187090000603,0,0,1.3168109130859373,0,0,0.84084
0.6896531419770326,0,0,1.3096283081054687,0,0,0.7644
0.6921869259967934,0,0,1.2018892333984375,0,0,0.84084
0.6947220989968628,0,0,1.1875240234375,0,0,0.6115200000000001
0.6973412339866627,0,0,1.2928688964843749,0,0,1.1465999999999998
0.7002007929841056,0,0,1.37906015625,0,0,0.91728
0.7033079959801398,0,0,1.0773907470703123,0,0,1.2230400000000001
0.7064121069852263,0,0,1.484405029296875,0,0,0.53508
0.7095176439906936,0,0,1.4700398193359374,0,0,0.84084
0.7126204209926073,0,0,1.2904746948242187,0,0,0.68796
0.715724383975612,0,0,1.3670891479492187,0,0,0.3822
0.7188811789965257,0,0,1.6735469604492186,0,0,0.91728
0.7219849379907828,0,0,1.3670891479492187,0,0,0.91728
0.7250885679968633,0,0,1.3168109130859373,0,0,1.2994800000000002
0.7281936229846906,0,0,1.4317325927734375,0,0,0.7644
0.7312962159921881,0,0,1.3383587280273437,0,0,0.84084
0.7344010300002992,0,0,1.0749965454101562,0,0,0.30576000000000003
0.7375043630017899,0,0,1.3144167114257812,0,0,0.84084
0.7406081779918168,0,0,1.3335703247070312,0,0,0.7644
0.7437355849833693,0,0,1.1276689819335937,0,0,1.2230400000000001
0.7468413619790226,0,0,1.3383587280273437,0,0,0.7644
0.7499412139877677,0,0,1.6400281372070311,0,0,0.99372
0.7530445839802269,0,0,1.3742717529296875,0,0,1.07016
0.7561471389781218,0,0,1.22583125,0,0,0.7644
0.7592533610004466,0,0,1.5203180541992187,0,0,0.6115200000000001
0.7623542499786709,0,0,1.2401964599609374,0,0,0.45864
0.765455230983207,0,0,1.2234370483398436,0,0,0.30576000000000003
0.7685556009819265,0,0,1.2569558715820313,0,0,0.53508
0.7726299969945103,0,0,1.37906015625,0,0,0.7644
0.7765833750017919,0,0,1.2042834350585936,0,0,0.99372
0.7797467079944909,0,0,1.407790576171875,0,0,0.6115200000000001
0.7828689479792956,0,0,1.484405029296875,0,0,0.91728
0.785983021982247,0,0,1.158793603515625,0,0,0.0
0.7890986319980584,0,0,1.3024457031249999,0,0,0.91728
0.7922478349937592,0,0,1.235408056640625,0,0,0.68796
0.7953666129906196,0,0,1.2114660400390624,0,0,1.45236
0.798532222979702,0,0,1.2737152832031249,0,0,0.3822
0.801649389002705,0,0,1.4341267944335936,0,0,0.99372
0.8047691289975774,0,0,1.3431471313476562,0,0,0.53508
0.8078962579893414,0,0,1.3646949462890625,0,0,0.7644
0.8110494799911976,0,0,1.5179238525390624,0,0,0.7644
0.8141649419849273,0,0,1.2904746948242187,0,0,0.91728
0.8173202189791482,0,0,1.3144167114257812,0,0,1.07016
0.8204388860031031,0,0,1.407790576171875,0,0,0.53508
0.823555643990403,0,0,1.3934253662109375,0,0,0.7644
0.8266706999856979,0,0,1.1180921752929687,0,0,0.0
0.8297825699846726,0,0,1.2737152832031249,0,0,0.91728
0.8328991989837959,0,0,1.3359645263671873,0,0,0.7644
0.8360137169947848,0,0,1.1444283935546875,0,0,0.84084
0.8391305309778545,0,0,1.2593500732421874,0,0,0.6115200000000001
0.8422424570017029,0,0,1.458068811035156,0,0,1.07016
0.8453571790014394,0,0,1.3239935180664062,0,0,0.3822
0.8484729009796865,0,0,1.1923124267578125,0,0,0.22932
0.8520538389857393,0,0,1.407790576171875,0,0,1.1465999999999998
0.8551689680025447,0,0,1.1731588134765625,0,0,0.91728
0.8582671899930574,0,0,1.1755530151367186,0,0,0.84084
0.8614176900009625,0,0,1.4772224243164063,0,0,0.84084
0.8646236700005829,0,0,1.2641384765625,0,0,0.91728
0.8677301139978226,0,0,1.0797849487304687,0,0,0.0
0.8708297249977477,0,0,1.2928688964843749,0,0,0.53508
0.8739266509946901,0,0,1.35990654296875,0,0,0.45864
0.8770245949854143,0,0,1.1516109985351561,0,0,1.45236
0.8801246319781058,0,0,1.2832920898437499,0,0,-9.172799999999999
0.8832251309941057,0,0,1.6543933471679686,0,0,0.99372
0.8863502609892748,0,0,1.0845733520507812,0,0,0.91728
0.8894460379960947,0,0,1.3239935180664062,0,0,0.68796
0.8925911669794004,0,0,1.618480322265625,0,0,0.68796
0.8957075189973693,0,0,1.5227122558593749,0,0,0.84084
0.8988635359855834,0,0,1.1707646118164061,0,0,0.91728
0.9019780730013736,0,0,1.5203180541992187,0,0,0.53508
0.9051173499901779,0,0,1.419761584472656,0,0,1.07016
0.9082356829894707,0,0,1.209071838378906,0,0,0.07644000000000001
0.9113524970016442,0,0,1.3000515014648437,0,0,0.84084
0.9144661820027977,0,0,1.3311761230468748,0,0,0.68796
0.91758095897967,0,0,1.199495031738281,0,0,0.7644
0.920695643988438,0,0,1.2952630981445312,0,0,0.7644
0.9238101619994268,0,0,1.5538368774414062,0,0,0.99372
0.9269255689869169,0,0,1.2497732666015624,0,0,0.68796
0.9300374399754219,0,0,1.3455413330078123,0,0,0.68796
0.9331534759839997,0,0,1.6615759521484375,0,0,0.7644
0.9362669760012068,0,0,1.35990654296875,0,0,0.84084
0.9393827349995263,0,0,1.177947216796875,0,0,0.45864
0.9424972159904428,0,0,1.3072341064453123,0,0,0.6115200000000001
0.9456896769988816,0,0,1.1755530151367186,0,0,0.68796
0.9488053619861603,0,0,1.0869675537109373,0,0,1.60524
0.9519199909991585,0,0,1.4772224243164063,0,0,0.45864
0.9550351949874312,0,0,1.1611878051757811,0,0,0.7644
0.9581496199825779,0,0,1.1156979736328125,0,0,0.6115200000000001
0.9612671200011391,0,0,1.3192051147460937,0,0,0.6115200000000001
0.9643833229783922,0,0,1.618480322265625,0,0,1.07016
0.9674961929849815,0,0,1.3527239379882812,0,0,1.1465999999999998
0.9706114889995661,0,0,1.1252747802734375,0,0,1.07016
0.9737233409832697,0,0,1.2234370483398436,0,0,0.53508
0.9768370439996943,0,0,1.2832920898437499,0,0,0.91728
0.9799519880034495,0,0,1.1228805786132812,0,0,0.0
0.9830660059815273,0,0,1.3239935180664062,0,0,0.7644
0.986209542985307,0,0,1.2114660400390624,0,0,0.7644
0.989323189976858,0,0,1.1348515869140625,0,0,1.45236
0.9925385410024319,0,0,1.3742717529296875,0,0,0.30576000000000003
0.9956565769971348,0,0,1.5969325073242187,0,0,1.2994800000000002
0.9988096320012119,0,0,1.2018892333984375,0,0,0.53508
1.002637715981109,0,0,1.3048399047851562,0,0,0.7644
1.0058803989959415,0,0,1.448492004394531,0,0,0.91728
1.0091429149906617,0,0,1.1755530151367186,0,0,0.6115200000000001
1.0123787469929084,0,0,1.35990654296875,0,0,0.68796
1.0155799679923803,0,0,1.5059528442382812,0,0,0.91728
1.0188206879829522,0,0,1.158793603515625,0,0,1.1465999999999998
1.0221101850038394,0,0,1.1827356201171875,0,0,0.68796
1.0262970049807336,0,0,1.419761584472656,0,0,1.1465999999999998
1.0294582639762666,0,0,1.1013327636718748,0,0,0.68796
1.0326386519882362,0,0,1.3742717529296875,0,0,0.6115200000000001
1.035823446989525,0,0,1.484405029296875,0,0,0.84084
1.0389550569816492,0,0,1.3479355346679687,0,0,0.84084
1.0420710199978203,0,0,1.3718775512695311,0,0,0.99372
1.0451897599850781,0,0,1.2856862915039062,0,0,0.7644
1.0483112229849212,0,0,1.2713210815429687,0,0,0.99372
1.0514819439849816,0,0,1.1085153686523437,0,0,-0.6115200000000001
1.0546429980022367,0,0,1.235408056640625,0,0,0.6115200000000001
1.057809238001937,0,0,1.2928688964843749,0,0,0.68796
1.0609811629983597,0,0,1.1755530151367186,0,0,1.5288
1.0641515689785592,0,0,1.2617442749023438,0,0,0.30576000000000003
1.067320809001103,0,0,1.47482822265625,0,0,0.91728
1.070515492989216,0,0,1.2617442749023438,0,0,1.5288
1.0747885709861293,0,0,1.2330138549804688,0,0,0.3822
1.0781203829974402,0,0,1.2497732666015624,0,0,1.2230400000000001
1.0820608909998555,0,0,1.0821791503906248,0,0,0.22932
1.0852861489984207,0,0,1.3335703247070312,0,0,0.7644
1.0886726269964129,0,0,1.2880804931640624,0,0,0.68796
1.0918929209874477,0,0,1.1156979736328125,0,0,1.45236
1.0951063269749284,0,0,1.4173673828125,0,0,0.3822
1.0983933249954134,0,0,1.4604630126953124,0,0,0.45864
1.1016863779805135,0,0,1.16837041015625,0,0,0.91728
1.1038778509828262,0,0,1.218648645019531,0,0,1.07016
1.1053575369878672,0,0,1.2425906616210938,0,0,0.30576000000000003
1.1068351119756699,0,0,1.5251064575195312,0,0,-9.40212
1.1083102429984137,0,0,1.4867992309570313,0,0,0.45864
1.109758762002457,0,0,1.3096283081054687,0,0,0.84084
1.1112598369945772,0,0,1.177947216796875,0,0,0.84084
1.1127106709755026,0,0,1.1156979736328125,0,0,0.45864
1.1142027829773724,0,0,1.1875240234375,0,0,0.53508
1.1156725059845485,0,0,1.2425906616210938,0,0,0.99372
1.1170562119805254,0,0,1.4820108276367188,0,0,0.30576000000000003
1.1184433619782794,0,0,1.5586252807617187,0,0,0.30576000000000003
1.1198240859957878,0,0,1.3383587280273437,0,0,0.91728
1.1212041249964386,0,0,1.209071838378906,0,0,1.1465999999999998
1.12258564500371,0,0,1.1420341918945311,0,0,1.1465999999999998
1.123964554979466,0,0,1.2808978881835937,0,0,1.2230400000000001
1.1253444819885772,0,0,1.4963760375976562,0,0,1.45236
1.126810593996197,0,0,1.3575123413085937,0,0,0.84084
1.1281902629998513,0,0,1.8243816650390623,0,0,1.1465999999999998
1.1296141349885147,0,0,1.3742717529296875,0,0,0.91728
1.1309963219973724,0,0,1.3383587280273437,0,0,0.68796
1.132376008987194,0,0,1.20667763671875,0,0,0.53508
1.133755510993069,0,0,1.2497732666015624,0,0,0.45864
1.1351512349792756,0,0,1.2856862915039062,0,0,0.30576000000000003
1.1365302179765422,0,0,1.3670891479492187,0,0,0.45864
1.1379095169831999,0,0,1.5322890624999999,0,0,0.30576000000000003
1.139289832994109,0,0,1.2497732666015624,0,0,0.6115200000000001
1.1406688540009782,0,0,1.2904746948242187,0,0,0.68796
1.1420486150018405,0,0,1.1635820068359375,0,0,0.53508
1.1434293579950463,0,0,0.9864110839843749,0,0,0.84084
1.1448085449810605,0,0,1.3814543579101561,0,0,0.91728
1.146209120983258,0,0,1.2497732666015624,0,0,0.6115200000000001
1.1475988079910167,0,0,1.2665326782226562,0,0,0.30576000000000003
1.1489865689945873,0,0,1.4125789794921875,0,0,0.91728
1.1503745889931452,0,0,1.2425906616210938,0,0,1.1465999999999998
1.1517616839846596,0,0,1.2617442749023438,0,0,0.91728
1.1531492039794102,0,0,1.1372457885742187,0,0,0.91728
1.1545347060018685,0,0,1.1180921752929687,0,0,0.84084
1.1559125229832716,0,0,1.3383587280273437,0,0,0.99372
1.1572917469893582,0,0,1.2952630981445312,0,0,0.91728
1.1586775079776999,0,0,1.5418658691406248,0,0,0.7644
1.160063953982899,0,0,1.3000515014648437,0,0,0.99372
1.1614504189928994,0,0,1.3407529296874998,0,0,0.53508
1.162837216979824,0,0,1.1563994018554686,0,0,0.6115200000000001
1.1642234039900359,0,0,1.1420341918945311,0,0,0.7644
1.1656091649783775,0,0,1.350329736328125,0,0,0.15288000000000002
1.1669958339771256,0,0,1.3048399047851562,0,0,0.6115200000000001
1.1683828539971728,0,0,1.3646949462890625,0,0,0.68796
1.1697714669862762,0,0,1.2114660400390624,0,0,0.45864
1.1711578029789962,0,0,1.0726023437499999,0,0,0.99372
1.1725443229952361,0,0,1.3718775512695311,0,0,0.91728
1.1739313619909808,0,0,1.1755530151367186,0,0,0.99372
1.1753177899809089,0,0,1.3072341064453123,0,0,1.45236
1.1767056249955203,0,0,1.3455413330078123,0,0,0.68796
1.1780920529854484,0,0,1.2737152832031249,0,0,0.45864
1.1794787399994675,0,0,1.5849614990234373,0,0,0.84084
1.1808654449996538,0,0,1.3479355346679687,0,0,0.99372
1.1822530950012151,0,0,1.2497732666015624,0,0,1.2230400000000001
1.1836395229911432,0,0,1.1563994018554686,0,0,0.84084
1.185025710001355,0,0,1.199495031738281,0,0,0.53508
1.186413007992087,0,0,1.254561669921875,0,0,0.91728
1.1877991769870277,0,0,1.2761094848632812,0,0,0.84084
1.1891857339942362,0,0,1.5538368774414062,0,0,0.68796
1.1905724029929843,0,0,1.2904746948242187,0,0,0.30576000000000003
1.1919582189875655,0,0,1.2928688964843749,0,0,0.45864
1.1933445920003578,0,0,1.3024457031249999,0,0,0.6115200000000001
1.1947309819806833,0,0,1.1875240234375,0,0,0.6115200000000001
1.1961175949836615,0,0,1.2808978881835937,0,0,-9.24924
1.1975065419974271,0,0,1.2306196533203124,0,0,0.45864
1.198893117980333,0,0,1.465251416015625,0,0,0.15288000000000002
1.2002853969752323,0,0,1.446097802734375,0,0,0.3822
1.2016713990014978,0,0,1.39821376953125,0,0,0.99372
1.2030576969846152,0,0,1.2689268798828124,0,0,0.99372
1.2044441059988458,0,0,1.1516109985351561,0,0,1.07016
1.2058305339887738,0,0,1.2306196533203124,0,0,1.75812
1.2072163689881563,0,0,1.369483349609375,0,0,1.1465999999999998
1.2086027599871159,0,0,1.4173673828125,0,0,0.6115200000000001
1.209988094982691,0,0,1.5131354492187499,0,0,1.1465999999999998
1.2113760789798107,0,0,1.3455413330078123,0,0,1.07016
1.2127624879940413,0,0,1.199495031738281,0,0,0.84084
1.2141493049857672,0,0,1.3072341064453123,0,0,0.84084
1.215536287985742,0,0,1.2521674682617188,0,0,0.3822
1.2169219380011782,0,0,1.2880804931640624,0,0,0.22932
1.2183085319993552,0,0,1.3192051147460937,0,0,0.7644
1.2196946079784539,0,0,1.6424223388671875,0,0,0.68796
1.2210807029914577,0,0,1.3575123413085937,0,0,0.68796
1.2224674639874138,0,0,1.3359645263671873,0,0,0.91728
1.223852706985781,0,0,1.177947216796875,0,0,0.53508
1.2252391339861788,0,0,1.0462661254882812,0,0,0.84084
1.2266259509779047,0,0,1.2713210815429687,0,0,0.0
1.2280121379881166,0,0,1.3000515014648437,0,0,0.45864
1.2293986589938868,0,0,1.3766659545898436,0,0,0.22932
1.2307848269992974,0,0,1.3551181396484375,0,0,0.53508
1.2321714029822033,0,0,1.2665326782226562,0,0,1.2994800000000002
1.2335576829791535,0,0,1.1851298217773436,0,0,1.07016
1.2349452589987777,0,0,1.1085153686523437,0,0,0.91728
1.2363312969973776,0,0,1.1563994018554686,0,0,1.07016
1.2377173359855078,0,0,1.3958195678710936,0,0,0.68796
1.2391037269844674,0,0,1.4053963745117186,0,0,0.7644
1.2404898399836384,0,0,1.4508862060546874,0,0,0.84084
1.2422029679873958,0,0,1.254561669921875,0,0,0.99372
1.243623488000594,0,0,1.2856862915039062,0,0,0.84084
1.2453193929977715,0,0,1.1444283935546875,0,0,0.68796
1.246747505996609,0,0,1.20667763671875,0,0,0.68796
1.2481396189832594,0,0,1.2952630981445312,0,0,0.84084
1.2495281570008956,0,0,1.4987702392578124,0,0,0.6115200000000001
1.2509163999930024,0,0,1.5011644409179687,0,0,1.2994800000000002
1.2523097539960872,0,0,1.3192051147460937,0,0,1.37592
1.253697199979797,0,0,1.2114660400390624,0,0,0.99372
1.2550801089964807,0,0,1.1420341918945311,0,0,0.53508
1.2564598149911035,0,0,1.120486376953125,0,0,1.07016
1.2578388169931713,0,0,1.3479355346679687,0,0,0.53508
1.2592197449994273,0,0,1.2593500732421874,0,0,0.6115200000000001
1.2606001909880433,0,0,1.5753846923828123,0,0,0.7644
1.2619789519812912,0,0,1.3120225097656248,0,0,0.7644
1.263367362000281,0,0,1.35990654296875,0,0,0.91728
1.264756585995201,0,0,1.216254443359375,0,0,0.45864
1.266143809974892,0,0,1.1420341918945311,0,0,0.7644
1.2675291629857384,0,0,1.2928688964843749,0,0,20
1.2689094799861778,0,0,1.3359645263671873,0,0,0.3822
1.2703214999928605,0,0,1.3742717529296875,0,0,0.22932
1.2717175019788556,0,0,1.3455413330078123,0,0,0.30576000000000003
1.2734351299877744,0,0,1.3000515014648437,0,0,0.6115200000000001
1.2748734460037667,0,0,1.24498486328125,0,0,0.84084
1.2762728729867376,0,0,0.9457096557617187,0,0,0.68796
1.2776588010019623,0,0,1.35990654296875,0,0,0.3822
1.2790444699930958,0,0,1.2880804931640624,0,0,0.84084
1.280428359983489,0,0,1.2569558715820313,0,0,0.6115200000000001
1.2818119549774565,0,0,1.35990654296875,0,0,0.7644
1.2831954749999568,0,0,1.3670891479492187,0,0,1.07016
1.28457942197565,0,0,1.209071838378906,0,0,0.84084
1.2859629049780779,0,0,1.139639990234375,0,0,0.99372
1.287347276986111,0,0,1.3335703247070312,0,0,1.2994800000000002
1.2887313349929173,0,0,1.3838485595703125,0,0,0.68796
1.290114559000358,0,0,1.1061211669921875,0,0,0.68796
1.2914929679827765,0,0,1.4125789794921875,0,0,1.07016
1.292867006995948,0,0,1.3359645263671873,0,0,0.68796
1.294282934977673,0,0,1.5251064575195312,0,0,0.84084
1.295667306985706,0,0,1.0821791503906248,0,0,0.68796
1.2970494389883243,0,0,1.1563994018554686,0,0,0.7644
1.29843331099255,0,0,1.4245499877929686,0,0,0.0
1.2998154419765342,0,0,1.3215993164062498,0,0,0.91728
1.301198758999817,0,0,1.5298948608398437,0,0,0.22932
1.302583260985557,0,0,1.2569558715820313,0,0,0.3822
1.3039668919809628,0,0,1.446097802734375,0,0,0.84084
1.3053490610036533,0,0,1.3431471313476562,0,0,0.6115200000000001
1.3067310439946596,0,0,1.1156979736328125,0,0,0.84084
1.3081128060002811,0,0,1.3479355346679687,0,0,0.91728
1.3094948079960886,0,0,1.2593500732421874,0,0,0.91728
1.310876642994117,0,0,1.2952630981445312,0,0,0.68796
1.312258699996164,0,0,1.5610194824218748,0,0,0.68796
1.3136399060022086,0,0,1.419761584472656,0,0,1.07016
1.3150220749957953,0,0,1.3335703247070312,0,0,1.2230400000000001
1.3164037249807734,0,0,1.1252747802734375,0,0,1.07016
1.3178732249944005,0,0,1.1851298217773436,0,0,1.45236
1.3192645979870576,0,0,1.1731588134765625,0,0,0.7644
1.3206478219944984,0,0,1.2952630981445312,0,0,0.84084
1.3220308789750561,0,0,1.6472107421875,0,0,1.07016
1.3234140849963296,0,0,1.2785036865234374,0,0,0.99372
1.3247977349965367,0,0,1.3383587280273437,0,0,0.7644
1.3261988110025413,0,0,1.369483349609375,0,0,0.68796
1.3275829420017544,0,0,1.1659762084960936,0,0,0.30576000000000003
1.3289650919905398,0,0,1.2880804931640624,0,0,0.0
1.330348019982921,0,0,1.24498486328125,0,0,0.3822
1.331733799976064,0,0,1.6256629272460936,0,0,0.7644
1.333116578985937,0,0,1.4796166259765624,0,0,0.68796
1.3345005259907339,0,0,1.3814543579101561,0,0,1.1465999999999998
1.335881712991977,0,0,1.2808978881835937,0,0,0.7644
1.3372664549970068,0,0,1.1923124267578125,0,0,0.7644
1.338650513003813,0,0,1.3263877197265623,0,0,1.07016
1.3400322739908006,0,0,1.4221557861328125,0,0,1.1465999999999998
1.3414145720016677,0,0,1.419761584472656,0,0,0.68796
1.3427978149848059,0,0,1.4820108276367188,0,0,0.7644
1.3441796129918657,0,0,1.2976572998046874,0,0,0.84084
1.3455618000007235,0,0,1.2880804931640624,0,0,0.91728
1.3469446539820638,0,0,1.3263877197265623,0,0,0.7644
1.348326396982884,0,0,1.13006318359375,0,0,1.1465999999999998
1.349708361987723,0,0,1.3215993164062498,0,0,0.3822
1.3510911779885646,0,0,1.22583125,0,0,0.68796
1.352475088002393,0,0,1.5418658691406248,0,0,0.7644
1.3538573859841563,0,0,1.218648645019531,0,0,0.84084
1.3552399429900106,0,0,1.3623007446289062,0,0,0.7644
1.3566226119874045,0,0,1.22583125,0,0,0.84084
1.3580044839764014,0,0,1.1947066284179686,0,0,0.45864
1.3593876709928736,0,0,1.3431471313476562,0,0,0.0
1.3607700059947092,0,0,1.407790576171875,0,0,0.45864
1.3621522859903052,0,0,1.2378022583007813,0,0,0.22932
1.3635350469849072,0,0,1.3192051147460937,0,0,0.45864
1.3649171789875254,0,0,1.35990654296875,0,0,0.99372
1.3663007729919627,0,0,1.1324573852539062,0,0,0.91728
1.3676816829829477,0,0,1.0749965454101562,0,0,0.91728
1.369064480997622,0,0,1.1228805786132812,0,0,1.37592
1.370448186993599,0,0,1.35990654296875,0,0,1.45236
1.3718293370038737,0,0,1.2785036865234374,0,0,0.91728
1.3732115239836276,0,0,1.599326708984375,0,0,0.99372
1.3745948220021091,0,0,1.2713210815429687,0,0,0.99372
1.3759761939872988,0,0,1.369483349609375,0,0,0.6115200000000001
1.3773584000009578,0,0,1.1875240234375,0,0,0.6115200000000001
1.3787405309849419,0,0,1.180341418457031,0,0,1.07016
1.3801226999785285,0,0,1.0917559570312498,0,0,0.22932
1.3815048309916165,0,0,1.199495031738281,0,0,0.84084
1.3828876109910198,0,0,1.6041151123046875,0,0,0.53508
1.3842697060026694,0,0,1.5275006591796874,0,0,0.45864
1.3856515410006978,0,0,1.37906015625,0,0,0.84084
1.3870840789750218,0,0,1.2808978881835937,0,0,1.1465999999999998
1.3884845249995124,0,0,1.1875240234375,0,0,0.99372
1.3898709350032732,0,0,1.2306196533203124,0,0,0.22932
1.3912552139954641,0,0,1.4724340209960938,0,0,0.68796
1.3926386609964538,0,0,1.4987702392578124,0,0,0.30576000000000003
1.3940226069826167,0,0,1.5538368774414062,0,0,0.22932
1.3954075349902268,0,0,1.3096283081054687,0,0,0.91728
1.396791184990434,0,0,1.3024457031249999,0,0,1.07016
1.398226833989611,0,0,1.1420341918945311,0,0,0.91728
1.399626428988995,0,0,1.2904746948242187,0,0,1.2994800000000002
1.401010633999249,0,0,1.4796166259765624,0,0,0.99372
1.4023969879781362,0,0,1.3958195678710936,0,0,0.84084
1.4037797679775394,0,0,1.5346832641601562,0,0,0.99372
1.4051629359892104,0,0,1.3742717529296875,0,0,1.07016
1.4065473079972435,0,0,1.2521674682617188,0,0,0.7644
1.4079307729844004,0,0,1.254561669921875,0,0,0.84084
1.409313904994633,0,0,1.216254443359375,0,0,0.68796
1.410700017993804,0,0,1.2617442749023438,0,0,0.0
1.4120829089952167,0,0,1.3311761230468748,0,0,0.68796
1.4134670399944298,0,0,1.6400281372070311,0,0,0.99372
1.4148506719793659,0,0,1.5059528442382812,0,0,0.45864
1.4162343589996453,0,0,1.3000515014648437,0,0,0.7644
1.4176183049858082,0,0,1.1827356201171875,0,0,0.91728
1.4190019919769838,0,0,1.0319009155273438,0,0,0.6115200000000001
1.4203858459950425,0,0,1.3096283081054687,0,0,0.91728
1.4217688479984645,0,0,1.3646949462890625,0,0,0.91728
1.4231521649926435,0,0,1.120486376953125,0,0,0.53508
1.424545739981113,0,0,1.3575123413085937,0,0,0.53508
1.4259290759800933,0,0,1.3551181396484375,0,0,0.99372
1.4273129479843192,0,0,1.2042834350585936,0,0,0.84084
1.4286958570010029,0,0,1.0797849487304687,0,0,0.84084
1.4300787480024155,0,0,1.2210428466796874,0,0,1.68168
1.431462101987563,0,0,1.4173673828125,0,0,0.53508
1.4328454189817421,0,0,1.3718775512695311,0,0,0.99372
1.434242382994853,0,0,1.5322890624999999,0,0,0.68796
1.4356261999928392,0,0,1.3000515014648437,0,0,0.7644
1.4370108869916294,0,0,1.2473790649414063,0,0,0.45864
1.4383955929952208,0,0,1.158793603515625,0,0,0.68796
1.439769038988743,0,0,1.1013327636718748,0,0,0.53508
1.4411417259834707,0,0,1.2330138549804688,0,0,0.0
1.442523320991313,0,0,1.2928688964843749,0,0,0.3822
1.4439067670027725,0,0,1.4149731811523436,0,0,0.6115200000000001
1.445289638999384,0,0,1.2761094848632812,0,0,0.7644
1.4466740670031868,0,0,1.3359645263671873,0,0,0.99372
1.4480559020012151,0,0,1.1228805786132812,0,0,0.91728
1.4494390710024163,0,0,1.0271125122070313,0,0,0.99372
1.4508231279905885,0,0,1.1755530151367186,0,0,1.07016
1.452207686001202,0,0,1.3407529296874998,0,0,0.84084
1.4535937799955718,0,0,1.2952630981445312,0,0,0.7644
1.4549777819775045,0,0,1.6424223388671875,0,0,0.68796
1.4563607290037908,0,0,1.350329736328125,0,0,0.91728
1.4577439709973987,0,0,1.3742717529296875,0,0,0.99372
1.4591291209799238,0,0,1.3048399047851562,0,0,0.53508
1.4605142709915526,0,0,1.2210428466796874,0,0,1.07016
1.4618975879857317,0,0,1.3048399047851562,0,0,0.07644000000000001
1.4632810339971911,0,0,1.2210428466796874,0,0,0.3822
1.4646650919748936,0,0,1.5682020874023437,0,0,0.45864
1.466048222995596,0,0,1.2856862915039062,0,0,0.68796
1.4674313360010274,0,0,1.388636962890625,0,0,0.7644
1.468816856999183,0,0,1.0989385620117187,0,0,0.91728
1.470200802985346,0,0,1.1516109985351561,0,0,0.68796
1.471584526996594,0,0,1.3168109130859373,0,0,0.0
1.4729716219881084,0,0,1.407790576171875,0,0,0.22932
1.47435467899777,0,0,1.5011644409179687,0,0,0.3822
1.4757375509943813,0,0,1.4604630126953124,0,0,0.3822
1.4771212009945884,0,0,1.2856862915039062,0,0,0.99372
1.4785041479917709,0,0,1.2928688964843749,0,0,0.99372
1.4798871309903916,0,0,1.1228805786132812,0,0,1.1465999999999998
1.4812703369825613,0,0,1.2665326782226562,0,0,1.1465999999999998
1.4826534499879926,0,0,1.3766659545898436,0,0,0.84084
1.4840365069976542,0,0,1.3239935180664062,0,0,0.91728
1.4854202679998707,0,0,1.4820108276367188,0,0,1.2230400000000001
1.4868037699779961,0,0,1.2617442749023438,0,0,0.99372
1.4881867349904496,0,0,1.20667763671875,0,0,0.7644
1.4895695890008938,0,0,1.1851298217773436,0,0,0.6115200000000001
1.4909540539956652,0,0,1.1037269653320312,0,0,0.68796
1.4923370739852544,0,0,1.3862427612304686,0,0,0.0
1.4937198539846577,0,0,1.2689268798828124,0,0,0.3822
1.49510415198165,0,0,1.4724340209960938,0,0,0.3822
1.4964875239820685,0,0,1.2832920898437499,0,0,0.6115200000000001
1.4978705449902918,0,0,1.2928688964843749,0,0,0.99372
1.499253953981679,0,0,1.1444283935546875,0,0,0.68796
1.50063712298288,0,0,1.0989385620117187,0,0,0.91728
1.5020200689905323,0,0,1.3144167114257812,0,0,0.15288000000000002
1.5034041269973386,0,0,1.3718775512695311,0,0,0.84084
1.5047866469831206,0,0,1.455674609375,0,0,0.22932
1.5061697969795205,0,0,1.199495031738281,0,0,0.84084
1.5075683169998229,0,0,1.2928688964843749,0,0,1.2230400000000001
1.508951486001024,0,0,1.2617442749023438,0,0,1.1465999999999998
1.510335987986764,0,0,1.1635820068359375,0,0,1.07016
1.511718766996637,0,0,1.0941501586914062,0,0,1.5288
1.51310160299181,0,0,1.3215993164062498,0,0,0.99372
1.5144858269777615,0,0,1.1875240234375,0,0,1.1465999999999998
1.5158681809843984,0,0,1.5322890624999999,0,0,0.91728
1.517251404991839,0,0,1.3431471313476562,0,0,0.91728
1.5186317210027482,0,0,1.3096283081054687,0,0,0.68796
1.5200045379751828,0,0,1.0726023437499999,0,0,0.6115200000000001
1.5213777069875505,0,0,1.1180921752929687,0,0,1.37592
1.523591087985551,0,0,1.3575123413085937,0,0,1.2230400000000001
1.5250459959788714,0,0,1.189918225097656,0,0,0.30576000000000003
1.5264373679819982,0,0,1.426944189453125,0,0,0.7644
1.5278422400006093,0,0,1.16837041015625,0,0,1.07016
1.5292246309982147,0,0,1.254561669921875,0,0,1.1465999999999998
1.5306090959929861,0,0,1.1109095703125,0,0,0.68796
1.5319905609940179,0,0,1.0271125122070313,0,0,1.2994800000000002
1.5333726739918347,0,0,1.3958195678710936,0,0,0.07644000000000001
1.5347554349864367,0,0,1.1707646118164061,0,0,0.84084
1.5361376219952945,0,0,1.5777788940429687,0,0,0.99372
1.5375200870039407,0,0,1.2042834350585936,0,0,0.6115200000000001
1.5389037559798453,0,0,1.3335703247070312,0,0,0.53508
1.540285386989126,0,0,1.1516109985351561,0,0,0.45864
1.541667684999993,0,0,0.9720458740234375,0,0,0.3822
1.5430503909883555,0,0,1.149216796875,0,0,-0.15288000000000002
1.5444343189883512,0,0,1.2665326782226562,0,0,0.53508
1.5458165619929787,0,0,1.3646949462890625,0,0,0.7644
1.548196088988334,0,0,1.388636962890625,0,0,1.2994800000000002
1.5495752939896192,0,0,1.254561669921875,0,0,0.7644
1.5509518699836917,0,0,1.2785036865234374,0,0,0.6115200000000001
1.552326353994431,0,0,1.2138602416992186,0,0,1.1465999999999998
1.553700984979514,0,0,1.5227122558593749,0,0,0.3822
1.5550751539994963,0,0,1.2928688964843749,0,0,0.84084
1.5564481189940125,0,0,1.5155296508789062,0,0,0.68796
1.5578217139991466,0,0,1.3311761230468748,0,0,0.6115200000000001
1.5591975489805918,0,0,1.2497732666015624,0,0,0.91728
1.5605712549877353,0,0,1.1611878051757811,0,0,0.6115200000000001
1.5619445339834783,0,0,1.1563994018554686,0,0,0.68796
1.5633374989847653,0,0,1.2785036865234374,0,0,0.0
1.5647107789991423,0,0,1.2928688964843749,0,0,0.6115200000000001
1.5660838179755956,0,0,1.6232687255859375,0,0,0.07644000000000001
1.5674579869955778,0,0,1.47482822265625,0,0,0.84084
1.5688319519977085,0,0,1.3096283081054687,0,0,1.07016
1.5702105649979785,0,0,1.2234370483398436,0,0,1.07016
1.5715940480004065,0,0,1.1444283935546875,0,0,0.84084
1.572977086994797,0,0,1.0726023437499999,0,0,1.5288
1.5743613669765182,0,0,1.3192051147460937,0,0,0.91728
1.5757444609771483,0,0,1.2473790649414063,0,0,0.45864
1.5772576279996429,0,0,1.5011644409179687,0,0,0.7644
1.578643500979524,0,0,1.3646949462890625,0,0,0.91728
1.5800162429804914,0,0,1.2569558715820313,0,0,0.84084
1.58139083799324,0,0,1.1827356201171875,0,0,0.3822
1.5828267469769344,0,0,0.9576806640625,0,0,0.91728
1.584208766988013,0,0,1.2761094848632812,0,0,0.3822
1.5855951579869725,0,0,1.1109095703125,0,0,0.53508
1.5869898259988986,0,0,1.5107412475585937,0,0,1.07016
1.5883721799764317,0,0,1.2569558715820313,0,0,0.6115200000000001
1.58975425598328,0,0,1.3551181396484375,0,0,0.68796
1.591151775995968,0,0,1.2018892333984375,0,0,0.91728
1.5925344999996014,0,0,1.0558429321289062,0,0,0.3822
1.593916668993188,0,0,1.2138602416992186,0,0,0.22932
1.5952992079837713,0,0,1.3000515014648437,0,0,0.7644
1.5966815619904082,0,0,1.407790576171875,0,0,0.53508
1.5980632299906574,0,0,1.3766659545898436,0,0,0.7644
1.5994456579792313,0,0,1.37906015625,0,0,1.2994800000000002
1.6008278639928903,0,0,1.2569558715820313,0,0,1.1465999999999998
1.602209883974865,0,0,1.2425906616210938,0,0,1.2994800000000002
1.6035917559929658,0,0,1.35990654296875,0,0,1.5288
1.6049737769935746,0,0,1.3742717529296875,0,0,1.37592
1.606364463979844,0,0,1.20667763671875,0,0,0.91728
1.6077473729965277,0,0,1.668758557128906,0,0,1.07016
1.609129819989903,0,0,1.2808978881835937,0,0,0.7644
1.6105131729855202,0,0,1.2785036865234374,0,0,0.45864
1.611894175002817,0,0,1.2689268798828124,0,0,0.22932
1.6132767509843688,0,0,1.1348515869140625,0,0,0.91728
1.614660085993819,0,0,1.2761094848632812,0,0,0.45864
1.6160415140038822,0,0,1.2282254516601563,0,0,0.45864
1.6174462199851405,0,0,1.5945383056640625,0,0,0.68796
1.6188316469779238,0,0,1.4604630126953124,0,0,0.22932
1.6202144089911599,0,0,1.3335703247070312,0,0,1.1465999999999998
1.6215966509771533,0,0,1.0821791503906248,0,0,0.84084
1.6229793379898183,0,0,1.1348515869140625,0,0,0.68796
1.6243616549763829,0,0,1.2378022583007813,0,0,0.15288000000000002
1.625743471988244,0,0,1.2306196533203124,0,0,0.68796
1.6271270479774103,0,0,1.4772224243164063,0,0,0.6115200000000001
1.628509549977025,0,0,1.4867992309570313,0,0,0.68796
1.6298914039798547,0,0,1.22583125,0,0,1.37592
1.6312741459987592,0,0,1.1085153686523437,0,0,0.91728
1.6326559809967875,0,0,1.218648645019531,0,0,1.07016
1.6340378169843461,0,0,1.2976572998046874,0,0,1.2994800000000002
1.6354207449767273,0,0,1.3814543579101561,0,0,0.84084
1.6368021169910207,0,0,1.3479355346679687,0,0,0.7644
1.6381951560033485,0,0,1.5011644409179687,0,0,0.7644
1.6395777689758688,0,0,1.369483349609375,0,0,0.84084
1.6409598079917487,0,0,1.2665326782226562,0,0,0.84084
1.6423430129943881,0,0,1.2617442749023438,0,0,0.6115200000000001
1.6437245149863884,0,0,1.0366893188476562,0,0,0.53508
1.645118646993069,0,0,1.3670891479492187,0,0,-0.3822
1.6465031300031114,0,0,1.4915876342773438,0,0,0.53508
1.6478850389830768,0,0,1.2832920898437499,0,0,0.30576000000000003
1.6492672079766635,0,0,1.2904746948242187,0,0,0.68796
1.6506574689992703,0,0,1.3024457031249999,0,0,0.84084
1.6520391189842485,0,0,1.2497732666015624,0,0,0.68796
1.6534253619902302,0,0,1.0558429321289062,0,0,0.91728
1.654808362975018,0,0,1.0869675537109373,0,0,0.15288000000000002
1.656190401990898,0,0,1.3263877197265623,0,0,0.91728
1.6575726640003268,0,0,1.3144167114257812,0,0,0.68796
1.6589548689953517,0,0,1.3670891479492187,0,0,0.84084
1.6603373709949665,0,0,1.3479355346679687,0,0,0.91728
1.6617200030013919,0,0,1.2832920898437499,0,0,0.99372
1.6631016339815687,0,0,1.16837041015625,0,0,0.68796
1.664483617991209,0,0,1.158793603515625,0,0,1.911
1.6658663419948425,0,0,1.3144167114257812,0,0,0.6115200000000001
1.6672481589775998,0,0,1.2282254516601563,0,0,1.2230400000000001
1.6686296419939026,0,0,1.6735469604492186,0,0,0.7644
1.6700122359907255,0,0,1.3575123413085937,0,0,0.84084
1.6713956639869139,0,0,1.2593500732421874,0,0,0.68796
1.6727773329766933,0,0,1.1827356201171875,0,0,0.68796
1.6741595939965919,0,0,1.1563994018554686,0,0,0.84084
1.6755412629863713,0,0,1.3359645263671873,0,0,-0.30576000000000003
1.6769247459887993,0,0,1.2832920898437499,0,0,0.53508
1.6783084519847762,0,0,1.4508862060546874,0,0,0.30576000000000003
1.6796906759846024,0,0,1.3838485595703125,0,0,0.53508
1.6810724739916623,0,0,1.3718775512695311,0,0,1.07016
1.6824544199917,0,0,1.3431471313476562,0,0,1.2230400000000001
1.683836051990511,0,0,1.0726023437499999,0,0,1.1465999999999998
1.6852181649883278,0,0,1.2713210815429687,0,0,0.91728
1.6866004259791225,0,0,1.4963760375976562,0,0,1.1465999999999998
1.6879820759932045,0,0,1.3814543579101561,0,0,0.84084
1.6893640229827724,0,0,1.6065093139648436,0,0,1.1465999999999998
1.6907671719964128,0,0,1.2713210815429687,0,0,0.99372
1.692151377996197,0,0,1.2808978881835937,0,0,0.68796
1.6935472869954538,0,0,1.1875240234375,0,0,0.91728
1.694930529978592,0,0,1.2737152832031249,0,0,0.45864
1.696312827989459,0,0,1.39821376953125,0,0,0.30576000000000003
1.6977839949831832,0,0,1.3120225097656248,0,0,0.7644
1.6991686080000363,0,0,1.5969325073242187,0,0,0.6115200000000001
1.7005506659916136,0,0,1.3000515014648437,0,0,0.30576000000000003
1.7019327229936607,0,0,1.1875240234375,0,0,0.53508
1.7033264469937421,0,0,1.2521674682617188,0,0,0.6115200000000001
1.7047091529821046,0,0,1.0486603271484374,0,0,0.68796
1.7060927099955734,0,0,1.3263877197265623,0,0,0.0
1.7074758049857337,0,0,1.3479355346679687,0,0,0.45864
1.7088587879843544,0,0,1.6615759521484375,0,0,0.22932
1.7102516229788307,0,0,1.3814543579101561,0,0,0.3822
1.7116370699950494,0,0,1.3000515014648437,0,0,0.99372
1.7130203679844271,0,0,1.1276689819335937,0,0,0.99372
1.714404147991445,0,0,1.1875240234375,0,0,0.84084
1.7157855760015082,0,0,1.13006318359375,0,0,1.2994800000000002
1.7171680219762493,0,0,1.2761094848632812,0,0,1.2994800000000002
1.7185514500015415,0,0,1.3527239379882812,0,0,0.6115200000000001
1.7199331180017907,0,0,1.5155296508789062,0,0,1.07016
1.721315490984125,0,0,1.3527239379882812,0,0,0.91728
1.722698566998588,0,0,1.3431471313476562,0,0,0.6115200000000001
1.7240799389837775,0,0,1.1707646118164061,0,0,0.45864
1.7254624409833923,0,0,1.2042834350585936,0,0,1.1465999999999998
1.7268447389942594,0,0,1.3407529296874998,0,0,0.45864
1.7282271299918648,0,0,1.2521674682617188,0,0,0.53508
1.7296092799806502,0,0,1.39821376953125,0,0,0.7644
1.7309916149824858,0,0,1.3072341064453123,0,0,0.84084
1.7323754869867116,0,0,1.2401964599609374,0,0,0.45864
1.7337575260025915,0,0,1.2497732666015624,0,0,0.53508
1.7351415279845241,0,0,1.1540052001953125,0,0,0.6115200000000001
1.7365233449963853,0,0,1.1516109985351561,0,0,0.0
1.737917088001268,0,0,1.2832920898437499,0,0,0.7644
1.7392998859868385,0,0,1.3551181396484375,0,0,0.30576000000000003
1.7406817019800656,0,0,1.6017209106445311,0,0,0.6115200000000001
1.7420635749876965,0,0,1.3670891479492187,0,0,0.99372
1.7434478909999598,0,0,1.2018892333984375,0,0,0.99372
1.7448297450027894,0,0,1.0630255371093749,0,0,0.99372
1.7462125989841297,0,0,1.197100830078125,0,0,1.2994800000000002
1.7475944529869594,0,0,1.3024457031249999,0,0,1.2230400000000001
1.7489761769829784,0,0,1.3120225097656248,0,0,1.07016
1.7503596599854063,0,0,1.66636435546875,0,0,0.7644
1.7517409209976904,0,0,1.2665326782226562,0,0,0.99372
1.7531232749752235,0,0,1.3000515014648437,0,0,0.68796
1.7545061099808663,0,0,1.3048399047851562,0,0,0.6115200000000001
1.755887409002753,0,0,1.199495031738281,0,0,0.53508
1.7572692619869485,0,0,1.2593500732421874,0,0,0.15288000000000002
1.758652135002194,0,0,1.254561669921875,0,0,0.68796
1.7600336369941942,0,0,1.66636435546875,0,0,0.68796
1.761423878982896,0,0,1.2856862915039062,0,0,0.22932
1.7628066589822993,0,0,1.2593500732421874,0,0,0.68796
1.7641883829783183,0,0,1.1707646118164061,0,0,0.91728
1.7655704589851666,0,0,0.9888052856445312,0,0,1.07016
1.7669526279787533,0,0,1.3120225097656248,0,0,1.68168
1.7683343520038761,0,0,1.426944189453125,0,0,0.6115200000000001
1.769717260991456,0,0,1.3000515014648437,0,0,0.22932
1.7710944849823136,0,0,1.3646949462890625,0,0,0.68796
1.772467949980637,0,0,1.3527239379882812,0,0,0.84084
1.7750732339918613,0,0,1.1827356201171875,0,0,1.37592
1.7764841429889202,0,0,1.1228805786132812,0,0,1.2230400000000001
1.777868014993146,0,0,1.2928688964843749,0,0,0.30576000000000003
1.7792561469832435,0,0,1.2330138549804688,0,0,-8.943480000000001
1.7806394259969238,0,0,1.6472107421875,0,0,1.1465999999999998
1.7820423909870442,0,0,1.1468225952148436,0,0,0.6115200000000001
1.7834260039962828,0,0,1.3718775512695311,0,0,0.3822
1.7848081720003393,0,0,1.1923124267578125,0,0,0.3822
1.7862068959802855,0,0,1.1420341918945311,0,0,0.7644
1.787588509003399,0,0,1.16837041015625,0,0,0.07644000000000001
1.7889702709799167,0,0,1.2641384765625,0,0,0.22932
1.7903534949873574,0,0,1.2569558715820313,0,0,0.3822
1.7917795519751962,0,0,1.209071838378906,0,0,0.30576000000000003
1.7931634419946931,0,0,1.3263877197265623,0,0,0.84084
1.794785107980715,0,0,1.235408056640625,0,0,0.91728
1.796176072995877,0,0,1.0965443603515623,0,0,0.68796
1.797564666980179,0,0,1.2282254516601563,0,0,0.30576000000000003
1.798952779994579,0,0,1.2832920898437499,0,0,0.7644
1.8003393749822862,0,0,1.3407529296874998,0,0,0.15288000000000002
1.8017258949985262,0,0,1.2617442749023438,0,0,0.6115200000000001
1.803112544992473,0,0,1.2952630981445312,0,0,0.99372
1.8044988429755904,0,0,1.2593500732421874,0,0,0.99372
1.8058850299858022,0,0,1.1348515869140625,0,0,0.68796
1.8072723289951682,0,0,1.3311761230468748,0,0,1.37592
1.808658422989538,0,0,1.3479355346679687,0,0,1.07016
1.8100443689909298,0,0,1.24498486328125,0,0,1.07016
1.8114330009848345,0,0,1.608903515625,0,0,1.07016
1.81281876200228,0,0,1.4101847778320311,0,0,1.07016
1.814205096976366,0,0,1.3742717529296875,0,0,0.68796
1.8155919319833629,0,0,1.3263877197265623,0,0,0.6115200000000001
1.8169774529815186,0,0,1.1468225952148436,0,0,0.6115200000000001
1.8183641399955377,0,0,1.2138602416992186,0,0,0.07644000000000001
1.8197493449843023,0,0,1.180341418457031,0,0,0.53508
1.821152032003738,0,0,1.6232687255859375,0,0,0.84084
1.8225421449751593,0,0,1.4030021728515625,0,0,0.3822
1.8239272209757473,0,0,1.2856862915039062,0,0,1.07016
1.8253182229818776,0,0,1.2713210815429687,0,0,0.84084
1.8267142249969766,0,0,1.2282254516601563,0,0,0.84084
1.828099966980517,0,0,1.3024457031249999,0,0,0.99372
1.829492394987028,0,0,1.4101847778320311,0,0,0.91728
1.8309120079793502,0,0,1.5227122558593749,0,0,0.45864
1.8322991949971765,0,0,1.6112977172851561,0,0,0.3822
1.8336856969981454,0,0,1.3575123413085937,0,0,0.99372
1.8350752539990935,0,0,1.2018892333984375,0,0,1.07016
1.8364612559962552,0,0,1.1109095703125,0,0,0.91728
1.8378474429773632,0,0,1.2401964599609374,0,0,1.83456
1.8392333340016194,0,0,1.2282254516601563,0,0,1.1465999999999998
1.8406190389941912,0,0,1.3024457031249999,0,0,0.84084
1.8420052820001729,0,0,1.649604943847656,0,0,1.2230400000000001
1.8433908949955367,0,0,1.2330138549804688,0,0,0.6115200000000001
1.8447767479810864,0,0,1.2904746948242187,0,0,0.7644
1.846162990987068,0,0,1.3144167114257812,0,0,0.6115200000000001
1.8475488999974914,0,0,1.1420341918945311,0,0,0.6115200000000001
1.8489346429996658,0,0,1.4030021728515625,0,0,0.07644000000000001
1.8503204779990483,0,0,1.3168109130859373,0,0,0.68796
1.8517039059952367,0,0,1.7094599853515624,0,0,1.1465999999999998
1.8531135369848926,0,0,1.3383587280273437,0,0,0.6115200000000001
1.854498242988484,0,0,1.2401964599609374,0,0,0.91728
1.8558783189801034,0,0,1.1731588134765625,0,0,0.68796
1.857257875992218,0,0,1.0223241088867188,0,0,0.91728
1.8586384889786132,0,0,1.3096283081054687,0,0,0.99372
1.8600423979805782,0,0,1.3479355346679687,0,0,1.07016
1.86142386298161,0,0,1.3527239379882812,0,0,0.15288000000000002
1.8628060319751967,0,0,1.3646949462890625,0,0,0.53508
1.864185404003365,0,0,1.3623007446289062,0,0,1.07016
1.8655812949873507,0,0,1.1707646118164061,0,0,1.37592
1.8669635929982178,0,0,1.0917559570312498,0,0,0.7644
1.8683428909862414,0,0,1.1276689819335937,0,0,1.2230400000000001
1.869735263986513,0,0,1.3120225097656248,0,0,0.68796
1.8711168209847528,0,0,1.2330138549804688,0,0,0.84084
1.8724960639956407,0,0,1.5682020874023437,0,0,0.99372
1.8738751579949167,0,0,1.2306196533203124,0,0,0.68796
1.875254918995779,0,0,1.3407529296874998,0,0,0.53508
1.8766341249865945,0,0,1.0869675537109373,0,0,0.68796
1.878013015986653,0,0,1.0893617553710937,0,0,0.53508
1.8794020549976267,0,0,1.3575123413085937,0,0,-20
1.8807839459914248,0,0,1.2689268798828124,0,0,0.30576000000000003
1.882163373986259,0,0,1.5035586425781249,0,0,0.7644
1.8835510239878204,0,0,1.3814543579101561,0,0,0.45864
1.8849372109980322,0,0,1.2306196533203124,0,0,0.84084
1.886323063983582,0,0,1.2018892333984375,0,0,1.07016
1.8877064179978333,0,0,1.0965443603515623,0,0,0.84084
1.8890903269930277,0,0,1.197100830078125,0,0,0.91728
1.8904881989874411,0,0,1.2569558715820313,0,0,1.07016
1.8918751459859777,0,0,1.3958195678710936,0,0,0.30576000000000003
1.8932611109921709,0,0,1.6208745239257811,0,0,0.45864
1.8946478529833257,0,0,1.369483349609375,0,0,0.84084
1.8960328739776742,0,0,1.2713210815429687,0,0,0.99372
1.897419060987886,0,0,1.2306196533203124,0,0,0.91728
1.898804932978237,0,0,1.2306196533203124,0,0,1.68168
1.9001908049976919,0,0,1.3239935180664062,0,0,0.6115200000000001
1.9015764739888255,0,0,1.3072341064453123,0,0,0.91728
1.90296216099523,0,0,1.618480322265625,0,0,1.1465999999999998
1.9043467179872096,0,0,1.3742717529296875,0,0,0.68796
1.905739960988285,0,0,1.2761094848632812,0,0,0.6115200000000001
1.9071280369826127,0,0,1.2497732666015624,0,0,0.68796
1.9085142789990641,0,0,1.0821791503906248,0,0,0.22932
1.9099007069889922,0,0,1.39821376953125,0,0,-0.53508
1.9112887829833198,0,0,1.3072341064453123,0,0,0.53508
1.9126750069845002,0,0,1.6615759521484375,0,0,0.6115200000000001
1.914069471997209,0,0,1.3718775512695311,0,0,0.30576000000000003
1.9154561960021965,0,0,1.3527239379882812,0,0,1.2230400000000001
1.9168416789907496,0,0,1.218648645019531,0,0,0.7644
1.9182547359960154,0,0,1.2282254516601563,0,0,1.07016
1.9196417009807192,0,0,1.2737152832031249,0,0,1.07016
1.9210279809776694,0,0,1.3311761230468748,0,0,-8.63772
1.9224165199848358,0,0,1.2593500732421874,0,0,0.45864
1.9238005959778093,0,0,1.3623007446289062,0,0,0.84084
1.925186134991236,0,0,1.3479355346679687,0,0,1.1465999999999998
1.9265728030004539,0,0,1.22583125,0,0,0.91728
1.9279582309827674,0,0,1.2114660400390624,0,0,0.91728
1.9293437699961942,0,0,1.1420341918945311,0,0,1.37592
1.930730030988343,0,0,1.3958195678710936,0,0,0.07644000000000001
1.9321161999832839,0,0,1.0726023437499999,0,0,0.84084
1.9335018309939187,0,0,1.458068811035156,0,0,1.5288
1.934888036979828,0,0,1.189918225097656,0,0,0.68796
1.936397962999763,0,0,1.3623007446289062,0,0,0.7644
1.937830408976879,0,0,1.24498486328125,0,0,0.6115200000000001
1.939218761981465,0,0,1.1061211669921875,0,0,1.07016
1.9406054119754117,0,0,1.3670891479492187,0,0,0.22932
1.9419913029996678,0,0,1.2425906616210938,0,0,0.53508
1.9433772119809873,0,0,1.467645617675781,0,0,0.6115200000000001
1.9447634359821677,0,0,1.218648645019531,0,0,0.7644
1.9461489940003958,0,0,1.2952630981445312,0,0,0.53508
1.9475353290035855,0,0,1.199495031738281,0,0,0.84084
1.948921145987697,0,0,1.0749965454101562,0,0,0.99372
1.9503073329979088,0,0,1.1659762084960936,0,0,0.0
1.9516932609840296,0,0,1.1731588134765625,0,0,0.53508
1.9530799289932474,0,0,1.3527239379882812,0,0,0.45864
1.9544664869899862,0,0,1.3096283081054687,0,0,0.30576000000000003
1.9558518219855614,0,0,1.4149731811523436,0,0,1.1465999999999998
1.957276359986281,0,0,1.3024457031249999,0,0,0.91728
1.958665657992242,0,0,1.158793603515625,0,0,0.84084
1.9601811769825872,0,0,1.218648645019531,0,0,1.37592
1.9616333640005905,0,0,1.2593500732421874,0,0,0.84084
1.9630258469842374,0,0,1.350329736328125,0,0,0.53508
1.9644129039952531,0,0,1.6256629272460936,0,0,0.7644
1.9657994429871906,0,0,1.3359645263671873,0,0,0.99372
1.9671926669834647,0,0,1.3024457031249999,0,0,1.07016
1.9685788909846451,0,0,1.1444283935546875,0,0,0.84084
1.9699653559946455,0,0,1.218648645019531,0,0,1.2230400000000001
1.9713518579956144,0,0,1.3048399047851562,0,0,0.99372
1.9727375629881863,0,0,1.2138602416992186,0,0,1.07016
1.9741238619899377,0,0,1.678335363769531,0,0,1.07016
1.9755088450037874,0,0,1.2713210815429687,0,0,0.91728
1.9768951250007376,0,0,1.2713210815429687,0,0,0.7644
1.9782991079846397,0,0,1.1252747802734375,0,0,0.53508
1.9796855909808073,0,0,1.2713210815429687,0,0,0.07644000000000001
1.9810710559831932,0,0,1.3048399047851562,0,0,0.0
1.982457001984585,0,0,1.197100830078125,0,0,0.53508
1.9838429299998097,0,0,1.599326708984375,0,0,0.6115200000000001
1.9852286730019841,0,0,1.4796166259765624,0,0,0.30576000000000003
1.9866152859758586,0,0,1.369483349609375,0,0,0.6115200000000001
1.9879986759915482,0,0,1.3287819213867187,0,0,0.91728
1.9893828269850928,0,0,1.1755530151367186,0,0,1.07016
1.9908530679822434,0,0,1.2593500732421874,0,0,0.7644
1.9922402919910382,0,0,1.5155296508789062,0,0,0.84084
1.9936269789759535,0,0,1.5179238525390624,0,0,0.7644
1.9950200739840511,0,0,1.4532804077148436,0,0,0.45864
1.996422297990648,0,0,1.350329736328125,0,0,1.1465999999999998
1.997821892000502,0,0,1.254561669921875,0,0,1.07016
1.9992083940014709,0,0,1.0773907470703123,0,0,0.99372
2.000594265991822,0,0,1.177947216796875,0,0,1.83456
2.0019898419850506,0,0,1.2832920898437499,0,0,0.91728
2.0033766029810067,0,0,1.2282254516601563,0,0,0.84084
2.0047619749966543,0,0,1.5442600708007812,0,0,1.07016
2.0061476069968194,0,0,1.3120225097656248,0,0,0.99372
2.007533848984167,0,0,1.2018892333984375,0,0,0.6115200000000001
2.008919332991354,0,0,1.1923124267578125,0,0,0.22932
2.010305834992323,0,0,1.1659762084960936,0,0,0.7644
2.011692169995513,0,0,1.3287819213867187,0,0,0.0
2.0130780789768323,0,0,1.3575123413085937,0,0,0.84084
2.0144652659946587,0,0,1.6041151123046875,0,0,0.7644
2.0158501009864267,0,0,1.3168109130859373,0,0,0.6115200000000001
2.0172358989948407,0,0,1.4963760375976562,0,0,0.84084
2.0186229569953866,0,0,1.209071838378906,0,0,0.91728
2.020008069986943,0,0,1.1563994018554686,0,0,0.68796
2.021394163981313,0,0,1.3862427612304686,0,0,0.53508
2.0227799069834873,0,0,1.3383587280273437,0,0,0.84084
2.0241959819977637,0,0,1.3455413330078123,0,0,0.3822
2.0256348729890306,0,0,1.3575123413085937,0,0,0.45864
2.0270310409832746,0,0,1.3048399047851562,0,0,1.2230400000000001
2.0284170609957073,0,0,1.1851298217773436,0,0,0.7644
2.0298033599974588,0,0,1.1228805786132812,0,0,0.99372
2.0311897689825855,0,0,1.1324573852539062,0,0,1.2230400000000001
2.0325759739789646,0,0,1.2761094848632812,0,0,0.7644
2.0339618279831484,0,0,1.2018892333984375,0,0,0.45864
2.03534782998031,0,0,1.3263877197265623,0,0,0.7644
2.0367373319750186,0,0,1.3670891479492187,0,0,0.91728
2.0381267229968216,0,0,1.429338391113281,0,0,1.1465999999999998
2.0395121869805735,0,0,1.1923124267578125,0,0,0.7644
2.0408977449988015,0,0,1.1731588134765625,0,0,0.68796
2.0423282089759596,0,0,1.2425906616210938,0,0,0.0
2.0437147299817298,0,0,1.2473790649414063,0,0,0.53508
2.0451179719821084,0,0,1.6112977172851561,0,0,0.7644
2.0465054369997233,0,0,1.209071838378906,0,0,0.45864
2.0478905309864786,0,0,1.3910311645507811,0,0,0.68796
2.0492755890008993,0,0,1.22583125,0,0,0.45864
2.0506614609912504,0,0,1.197100830078125,0,0,0.6115200000000001
2.052044684998691,0,0,1.2497732666015624,0,0,-0.30576000000000003
2.0535218339937273,0,0,1.2282254516601563,0,0,0.6115200000000001
2.0549205759889446,0,0,1.455674609375,0,0,0.30576000000000003
2.056299449002836,0,0,1.4437036010742186,0,0,0.45864
2.0576782839780208,0,0,1.4006079711914061,0,0,0.84084
2.059058618993731,0,0,1.2880804931640624,0,0,0.53508
2.0605097499792464,0,0,1.139639990234375,0,0,0.84084
2.0618891780031845,0,0,1.3742717529296875,0,0,0.6115200000000001
2.0632699949783273,0,0,1.2785036865234374,0,0,0.84084
2.064745680982014,0,0,1.4125789794921875,0,0,0.3822
2.066127719997894,0,0,1.6400281372070311,0,0,0.53508
2.0675093329919036,0,0,1.3479355346679687,0,0,1.2230400000000001
2.0688881120004226,0,0,1.369483349609375,0,0,0.84084
2.0702681329858024,0,0,1.0917559570312498,0,0,0.99372
2.0716481719864532,0,0,1.2378022583007813,0,0,1.2230400000000001
2.073126153991325,0,0,1.24498486328125,0,0,0.99372
2.0745990989962593,0,0,1.2832920898437499,0,0,0.68796
2.076040285988711,0,0,1.5682020874023437,0,0,1.07016
2.077436472987756,0,0,1.2330138549804688,0,0,1.1465999999999998
2.078819955990184,0,0,1.1516109985351561,0,0,0.91728
2.080202383978758,0,0,1.2042834350585936,0,0,0.84084
2.081581385980826,0,0,1.180341418457031,0,0,1.83456
2.0829680360038765,0,0,1.3431471313476562,0,0,0.68796
2.084354519000044,0,0,1.2785036865234374,0,0,0.99372
2.085740224982146,0,0,1.599326708984375,0,0,0.91728
2.0871252639917657,0,0,1.3144167114257812,0,0,0.68796
2.0885097839927766,0,0,1.3096283081054687,0,0,0.45864
2.089913859992521,0,0,1.3670891479492187,0,0,0.6115200000000001
2.0913149539846927,0,0,1.177947216796875,0,0,0.7644
2.0927022519754246,0,0,1.3120225097656248,0,0,0.0
2.094087938981829,0,0,1.4125789794921875,0,0,0.30576000000000003
2.095472588989651,0,0,1.5801730957031248,0,0,0.3822
2.0968585169757716,0,0,1.235408056640625,0,0,0.53508
2.098245075001614,0,0,1.3072341064453123,0,0,1.07016
2.099629890988581,0,0,1.2593500732421874,0,0,1.2994800000000002
2.101015837979503,0,0,1.0726023437499999,0,0,0.91728
2.1024020619806834,0,0,1.3096283081054687,0,0,1.2994800000000002
2.1037866749975365,0,0,1.369483349609375,0,0,0.99372
2.105172583978856,0,0,1.2018892333984375,0,0,0.53508
2.106559270992875,0,0,1.438915197753906,0,0,0.53508
2.1079442729824223,0,0,1.3646949462890625,0,0,1.2230400000000001
2.109330366976792,0,0,1.1923124267578125,0,0,1.07016
2.110766497993609,0,0,1.2114660400390624,0,0,0.30576000000000003
2.1121523519977927,0,0,1.158793603515625,0,0,1.5288
2.113547427987214,0,0,1.3718775512695311,0,0,0.6115200000000001
2.1149339849944226,0,0,1.0749965454101562,0,0,0.7644
2.1163673939881846,0,0,1.5322890624999999,0,0,0.91728
2.1178010249859653,0,0,1.149216796875,0,0,0.91728
2.1192322860006243,0,0,1.2641384765625,0,0,0.7644
2.1206749719858635,0,0,1.2904746948242187,0,0,0.7644
2.1221200290019624,0,0,1.2210428466796874,0,0,1.1465999999999998
2.1235747519822326,0,0,1.3335703247070312,0,0,0.53508
2.125021271989681,0,0,1.158793603515625,0,0,0.30576000000000003
2.126886174984975,0,0,1.5562310791015623,0,0,0.68796
2.1283349540026393,0,0,1.350329736328125,0,0,1.07016
2.1297936769842636,0,0,1.1109095703125,0,0,1.2230400000000001
2.1312734370003454,0,0,1.1037269653320312,0,0,0.91728
2.132716937980149,0,0,1.1731588134765625,0,0,1.2994800000000002
2.134277289995225,0,0,1.3311761230468748,0,0,0.91728
2.1357229209970683,0,0,1.3311761230468748,0,0,0.6115200000000001
2.1371050890011247,0,0,1.6352397338867186,0,0,0.45864
2.1384997759887483,0,0,1.448492004394531,0,0,1.1465999999999998
2.139878777990816,0,0,1.2761094848632812,0,0,0.99372
2.1412580019969027,0,0,1.1707646118164061,0,0,0.45864
2.1426376899762545,0,0,1.2497732666015624,0,0,1.68168
2.144016209989786,0,0,1.2737152832031249,0,0,0.99372
2.145395267987624,0,0,1.2473790649414063,0,0,1.07016
2.1467799179954454,0,0,1.5753846923828123,0,0,1.37592
2.148158826981671,0,0,1.3910311645507811,0,0,0.91728
2.1495374589867424,0,0,1.2761094848632812,0,0,0.45864
2.1509224599867593,0,0,1.1156979736328125,0,0,0.6115200000000001
2.15230144400266,0,0,1.218648645019531,0,0,0.7644
2.1536804089846555,0,0,1.254561669921875,0,0,-0.30576000000000003
2.155064225982642,0,0,1.448492004394531,0,0,0.45864
2.156443746003788,0,0,1.5969325073242187,0,0,0.22932
2.157822432985995,0,0,1.3670891479492187,0,0,0.30576000000000003
2.1592018049850594,0,0,1.2785036865234374,0,0,0.84084
2.160580529976869,0,0,1.1731588134765625,0,0,1.2994800000000002
2.1619591240014415,0,0,1.2904746948242187,0,0,0.91728
2.1633397190016694,0,0,1.2593500732421874,0,0,0.7644
2.1647178689891007,0,0,1.3215993164062498,0,0,0.7644
2.166096518980339,0,0,1.1133037719726562,0,0,0.45864
2.1674782059853896,0,0,1.448492004394531,0,0,1.07016
2.168857023003511,0,0,1.2976572998046874,0,0,1.37592
2.170263931999216,0,0,1.13006318359375,0,0,0.68796
2.1716437669820152,0,0,1.1827356201171875,0,0,0.6115200000000001
2.1730367690033745,0,0,1.0917559570312498,0,0,0.68796
2.174424122989876,0,0,1.3838485595703125,0,0,1.1465999999999998
2.175810475979233,0,0,1.369483349609375,0,0,20
2.177196829987224,0,0,1.5610194824218748,0,0,0.0
2.178590516996337,0,0,1.2234370483398436,0,0,0.7644
2.1799767409975175,0,0,1.2880804931640624,0,0,0.6115200000000001
2.181362649978837,0,0,1.189918225097656,0,0,0.53508
2.1827492629818153,0,0,1.1061211669921875,0,0,0.91728
2.1841349869791884,0,0,1.3718775512695311,0,0,0.07644000000000001
2.185520433995407,0,0,1.2378022583007813,0,0,0.30576000000000003
2.18690591698396,0,0,1.465251416015625,0,0,0.30576000000000003
2.188291288999608,0,0,1.2928688964843749,0,0,0.30576000000000003
2.1896771989995614,0,0,1.4173673828125,0,0,0.91728
2.1910649409983307,0,0,1.2665326782226562,0,0,0.84084
2.1924500169989187,0,0,1.1061211669921875,0,0,0.99372
2.1938358519983012,0,0,1.1563994018554686,0,0,0.68796
2.195221446978394,0,0,1.1468225952148436,0,0,0.91728
2.1966066519962624,0,0,1.2761094848632812,0,0,0.53508
2.1979923399921972,0,0,1.5897499023437498,0,0,0.84084
2.199377803975949,0,0,1.3670891479492187,0,0,1.2230400000000001
2.200763028988149,0,0,1.3479355346679687,0,0,0.84084
2.202150344994152,0,0,1.0414777221679687,0,0,0.68796
2.2035359209985472,0,0,1.1348515869140625,0,0,0.3822
2.204921200987883,0,0,1.2306196533203124,0,0,0.68796
2.2063074429752305,0,0,1.35990654296875,0,0,1.07016
2.2076928530004807,0,0,1.6639701538085936,0,0,0.91728
2.2090783729800023,0,0,1.3096283081054687,0,0,0.99372
2.2104649120010436,0,0,1.3048399047851562,0,0,0.68796
2.2118501919903792,0,0,1.3024457031249999,0,0,0.53508
2.213235248986166,0,0,1.2306196533203124,0,0,0.53508
2.214621844002977,0,0,1.3431471313476562,0,0,-0.6115200000000001
2.216008048999356,0,0,1.3623007446289062,0,0,0.45864
2.2174102919816505,0,0,1.6017209106445311,0,0,0.22932
2.21879533000174,0,0,1.4101847778320311,0,0,0.53508
2.2201808509998955,0,0,1.37906015625,0,0,0.84084
2.2215777969977353,0,0,1.2761094848632812,0,0,0.99372
2.2229640769946855,0,0,1.1180921752929687,0,0,1.07016
2.2243505789956544,0,0,1.2832920898437499,0,0,0.6115200000000001
2.2257362099771854,0,0,1.43652099609375,0,0,1.07016
2.2271221929986496,0,0,1.4891934326171874,0,0,0.30576000000000003
2.228518288000487,0,0,1.5514426757812498,0,0,0.3822
2.2299039009958506,0,0,1.2689268798828124,0,0,1.1465999999999998
2.2312993279774673,0,0,1.20667763671875,0,0,1.1465999999999998
2.2326852929836605,0,0,1.1540052001953125,0,0,0.84084
2.2340711650031153,0,0,1.197100830078125,0,0,1.37592
2.2354569449962582,0,0,1.3646949462890625,0,0,1.1465999999999998
2.236843409977155,0,0,1.3000515014648437,0,0,0.91728
2.238257207995048,0,0,1.5634136840820312,0,0,1.2994800000000002
2.2396434499823954,0,0,1.2497732666015624,0,0,0.91728
2.24102937799762,0,0,1.3814543579101561,0,0,0.68796
2.2424160649825353,0,0,1.199495031738281,0,0,0.45864
2.2438013259961735,0,0,1.1420341918945311,0,0,0.68796
2.2451872729870956,0,0,1.3575123413085937,0,0,0.0
2.246573588985484,0,0,1.22583125,0,0,0.22932
2.2479586099798325,0,0,1.350329736328125,0,0,0.45864
2.2493441489932593,0,0,1.2689268798828124,0,0,0.45864
2.250729613995645,0,0,1.2665326782226562,0,0,0.68796
2.2521150969841983,0,0,1.20667763671875,0,0,0.91728
2.253500783990603,0,0,1.1061211669921875,0,0,0.99372
2.2548910639889073,0,0,1.1468225952148436,0,0,0.68796
2.25627684299252,0,0,1.2713210815429687,0,0,0.68796
2.257662714982871,0,0,1.2785036865234374,0,0,-9.172799999999999
2.2590501989761833,0,0,1.2689268798828124,0,0,0.6115200000000001
2.2604378489777446,0,0,1.2473790649414063,0,0,1.2994800000000002
2.26182342498214,0,0,1.3766659545898436,0,0,1.07016
2.2632093709835317,0,0,1.0989385620117187,0,0,0.91728
2.2645950769947376,0,0,1.1348515869140625,0,0,1.60524
2.2659909859939944,0,0,1.3527239379882812,0,0,1.07016
2.267377302981913,0,0,1.2330138549804688,0,0,1.1465999999999998
2.26876260098652,0,0,1.66636435546875,0,0,0.99372
2.2701478249800857,0,0,1.3024457031249999,0,0,0.99372
2.2715332160005346,0,0,1.2497732666015624,0,0,0.91728
2.272918865986867,0,0,1.1516109985351561,0,0,0.6115200000000001
2.274321829987457,0,0,1.1156979736328125,0,0,0.30576000000000003
2.2767328199988697,0,0,1.3239935180664062,0,0,0.68796
2.278144894982688,0,0,1.5514426757812498,0,0,0.84084
2.2795308049826417,0,0,1.4245499877929686,0,0,0.53508
2.280915120994905,0,0,1.3527239379882812,0,0,0.99372
2.282300122984452,0,0,1.2832920898437499,0,0,0.7644
2.2836827549908776,0,0,1.1228805786132812,0,0,0.91728
2.285066182987066,0,0,1.189918225097656,0,0,1.2994800000000002
2.286449665989494,0,0,1.2928688964843749,0,0,1.2230400000000001
2.287832353002159,0,0,1.3192051147460937,0,0,0.68796
2.2892147439997643,0,0,1.5658078857421873,0,0,0.6115200000000001
2.2906127639871556,0,0,1.2234370483398436,0,0,0.99372
2.2919970249931794,0,0,1.3120225097656248,0,0,0.84084
2.2933801009785384,0,0,1.189918225097656,0,0,0.84084
2.2947623069921974,0,0,1.1707646118164061,0,0,0.99372
2.2961449939757586,0,0,1.3096283081054687,0,0,0.45864
2.297620957979234,0,0,1.3287819213867187,0,0,0.91728
2.299006514978828,0,0,1.5179238525390624,0,0,1.07016
2.3003905910009053,0,0,1.254561669921875,0,0,0.91728
2.301773870975012,0,0,1.3551181396484375,0,0,0.6115200000000001
2.30315759498626,0,0,1.2114660400390624,0,0,0.68796
2.3045403379946947,0,0,1.1611878051757811,0,0,0.45864
2.305922950996319,0,0,1.3120225097656248,0,0,-0.3822
2.3073085449868813,0,0,1.2114660400390624,0,0,0.30576000000000003
2.3086921029898804,0,0,1.2497732666015624,0,0,0.53508
2.310086622979725,0,0,1.2425906616210938,0,0,0.3822
2.311469624983147,0,0,1.3215993164062498,0,0,0.91728
2.3128522749757394,0,0,1.1037269653320312,0,0,0.99372
2.3142526099982206,0,0,1.216254443359375,0,0,0.84084
2.3156278529786505,0,0,1.2880804931640624,0,0,1.1465999999999998
2.3170011320034973,0,0,1.3718775512695311,0,0,1.1465999999999998
2.318381060002139,0,0,1.388636962890625,0,0,0.45864
2.319762247003382,0,0,1.4628572143554686,0,0,0.45864
2.3211434349941555,0,0,1.3287819213867187,0,0,1.07016
2.3225261219777167,0,0,1.3192051147460937,0,0,0.6115200000000001
2.3239060310006607,0,0,1.1133037719726562,0,0,0.7644
2.325286810984835,0,0,1.2401964599609374,0,0,1.2230400000000001
2.3266689610027242,0,0,1.3670891479492187,0,0,0.53508
2.328045017988188,0,0,1.2808978881835937,0,0,0.68796
2.3294179090007674,0,0,1.62805712890625,0,0,1.2230400000000001
2.3307990589819383,0,0,1.3383587280273437,0,0,0.84084
2.3321804869920015,0,0,1.3287819213867187,0,0,0.53508
2.333561599982204,0,0,1.3263877197265623,0,0,0.6115200000000001
2.3349632129829843,0,0,1.2521674682617188,0,0,0.3822
2.33634714098298,0,0,1.2593500732421874,0,0,-0.30576000000000003
2.337729753984604,0,0,1.197100830078125,0,0,0.22932
2.3391124589834362,0,0,1.5897499023437498,0,0,0.45864
2.34049353498267,0,0,1.3670891479492187,0,0,0.45864
2.341874759993516,0,0,1.0941501586914062,0,0,0.99372
2.3432569099823013,0,0,1.2665326782226562,0,0,1.2230400000000001
2.3446380779787432,0,0,1.158793603515625,0,0,1.2994800000000002
2.3460193579958286,0,0,1.2569558715820313,0,0,0.99372
2.3474033229867928,0,0,1.2904746948242187,0,0,1.2994800000000002
2.348794805991929,0,0,1.1061211669921875,0,0,0.84084
2.350189288990805,0,0,1.4700398193359374,0,0,0.53508
2.351572216983186,0,0,1.22583125,0,0,0.91728
2.352953848981997,0,0,1.2617442749023438,0,0,0.7644
2.3543430540012196,0,0,1.1468225952148436,0,0,0.53508
2.3557243149844,0,0,1.0965443603515623,0,0,1.37592
2.3571053729974665,0,0,1.3048399047851562,0,0,0.68796
2.358488559984835,0,0,1.3407529296874998,0,0,0.91728
2.359869579988299,0,0,1.5107412475585937,0,0,0.7644
2.3612515639979392,0,0,1.209071838378906,0,0,0.84084
2.3626343249925412,0,0,1.407790576171875,0,0,0.45864
2.364015141996788,0,0,1.20667763671875,0,0,0.53508
2.3653965139819775,0,0,1.0869675537109373,0,0,0.53508
2.3667792009946425,0,0,1.2785036865234374,0,0,0.0
2.368160480982624,0,0,1.2521674682617188,0,0,0.3822
2.3695422419987153,0,0,1.4149731811523436,0,0,0.45864
2.3709242999902926,0,0,1.2665326782226562,0,0,0.6115200000000001
2.3723061719792895,0,0,1.4437036010742186,0,0,0.91728
2.3736875999893527,0,0,1.2306196533203124,0,0,1.07016
2.375069267989602,0,0,1.1324573852539062,0,0,1.07016
2.376450529001886,0,0,1.158793603515625,0,0,0.68796
2.377832234982634,0,0,1.22583125,0,0,1.07016
2.3792139959987253,0,0,1.22583125,0,0,0.68796
2.3805954979907256,0,0,1.5634136840820312,0,0,0.91728
2.381976926000789,0,0,1.3575123413085937,0,0,1.2230400000000001
2.3833696499932557,0,0,1.24498486328125,0,0,0.84084
2.384768206975423,0,0,1.2330138549804688,0,0,0.45864
2.386150727979839,0,0,1.20667763671875,0,0,0.3822
2.387532636988908,0,0,1.2617442749023438,0,0,0.7644
2.388914268987719,0,0,1.2737152832031249,0,0,0.84084
2.3902973079821095,0,0,1.618480322265625,0,0,0.7644
2.3916782540036365,0,0,1.369483349609375,0,0,0.99372
2.3930594229896087,0,0,1.3215993164062498,0,0,0.53508
2.3944426469970495,0,0,1.2761094848632812,0,0,0.7644
2.395823055994697,0,0,1.24498486328125,0,0,0.45864
2.397213816992007,0,0,1.3814543579101561,0,0,0.0
2.398596560000442,0,0,1.4820108276367188,0,0,0.3822
2.3999770429800265,0,0,1.6256629272460936,0,0,0.22932
2.4013581559993327,0,0,1.438915197753906,0,0,0.22932
2.4027393619762734,0,0,1.3383587280273437,0,0,0.84084
2.4041212529991753,0,0,1.2497732666015624,0,0,0.99372
2.4055022549873684,0,0,1.1444283935546875,0,0,1.07016
2.4068911819776986,0,0,1.2306196533203124,0,0,1.45236
2.408273424982326,0,0,1.3215993164062498,0,0,1.1465999999999998
2.409654574992601,0,0,1.1947066284179686,0,0,0.68796
2.411036150995642,0,0,1.446097802734375,0,0,0.84084
2.4124175229808316,0,0,1.2497732666015624,0,0,0.68796
2.4137985989800654,0,0,1.1923124267578125,0,0,0.91728
2.4151814529905096,0,0,1.1516109985351561,0,0,0.99372
2.416562992002582,0,0,1.2234370483398436,0,0,0.84084
2.4179444019973744,0,0,1.3000515014648437,0,0,0.99372
2.419326162984362,0,0,1.216254443359375,0,0,0.84084
2.4207072019926272,0,0,1.5418658691406248,0,0,0.91728
2.4220883889938705,0,0,1.2378022583007813,0,0,0.53508
2.423469909001142,0,0,1.4317325927734375,0,0,0.68796
2.4248511329933535,0,0,1.2234370483398436,0,0,0.53508
2.4262473569833674,0,0,1.2114660400390624,0,0,0.53508
2.4276289519912098,0,0,1.0917559570312498,0,0,-9.47856
2.429011508997064,0,0,1.2761094848632812,0,0,0.53508
2.430393992981408,0,0,1.3838485595703125,0,0,0.3822
2.431774679978844,0,0,1.177947216796875,0,0,0.22932
2.4331560889841057,0,0,1.2952630981445312,0,0,1.37592
2.4345387759967707,0,0,1.0773907470703123,0,0,0.91728
2.4359197040030267,0,0,1.1468225952148436,0,0,1.07016
2.437301038997248,0,0,1.2665326782226562,0,0,1.75812
2.4386836710036732,0,0,1.2737152832031249,0,0,1.07016
2.440064358001109,0,0,1.3431471313476562,0,0,0.53508
2.441453081992222,0,0,1.599326708984375,0,0,0.84084
2.4428352319810074,0,0,1.4341267944335936,0,0,0.91728
2.44421652998426,0,0,1.2234370483398436,0,0,1.2994800000000002
2.44559967998066,0,0,1.2856862915039062,0,0,0.68796
2.4471590319881216,0,0,1.158793603515625,0,0,0.91728
2.4485449779895134,0,0,1.2928688964843749,0,0,0.53508
2.4499273139808793,0,0,1.3455413330078123,0,0,0.91728
2.451310222997563,0,0,1.6448165405273436,0,0,0.91728
2.4526917429757304,0,0,1.3431471313476562,0,0,1.2230400000000001
2.4540736339986324,0,0,1.3144167114257812,0,0,0.84084
2.455461617995752,0,0,1.3072341064453123,0,0,0.53508
2.456844081985764,0,0,1.1923124267578125,0,0,0.45864
2.458246861991938,0,0,1.2425906616210938,0,0,0.0
2.4596301789861172,0,0,1.3120225097656248,0,0,0.53508
2.4610136989795137,0,0,1.5203180541992187,0,0,0.45864
2.462395441980334,0,0,1.39821376953125,0,0,0.3822
2.4637767399835866,0,0,1.3096283081054687,0,0,0.84084
2.4651695379870944,0,0,1.2569558715820313,0,0,0.84084
2.4665516509849112,0,0,1.2042834350585936,0,0,1.07016
2.4679338010028005,0,0,1.3359645263671873,0,0,0.15288000000000002
2.4693145619821735,0,0,1.3311761230468748,0,0,0.53508
2.470695934985997,0,0,1.1348515869140625,0,0,0.30576000000000003
2.472076937003294,0,0,1.448492004394531,0,0,0.68796
2.473458586988272,0,0,1.3311761230468748,0,0,0.84084
2.474839754984714,0,0,1.2617442749023438,0,0,1.1465999999999998
2.4762208499887493,0,0,1.2234370483398436,0,0,0.7644
2.477603128994815,0,0,1.120486376953125,0,0,0.91728
2.478986297996016,0,0,1.35990654296875,0,0,1.07016
2.480368021992035,0,0,1.0941501586914062,0,0,0.99372
2.481749245984247,0,0,1.5011644409179687,0,0,1.2230400000000001
2.4831461180001497,0,0,1.2330138549804688,0,0,0.84084
2.484533916984219,0,0,1.3455413330078123,0,0,0.53508
2.4859161589993164,0,0,1.1635820068359375,0,0,0.45864
2.487297605985077,0,0,1.177947216796875,0,0,0.45864
2.488678681984311,0,0,1.1755530151367186,0,0,-0.22932
2.4900626279995777,0,0,1.2617442749023438,0,0,0.53508
2.4914445739996154,0,0,1.465251416015625,0,0,0.3822
2.492825927998638,0,0,1.2928688964843749,0,0,0.15288000000000002
2.494208522984991,0,0,1.3646949462890625,0,0,0.7644
2.4955895989842247,0,0,1.2234370483398436,0,0,0.84084
2.496971044980455,0,0,1.1540052001953125,0,0,0.91728
2.4983538249798585,0,0,1.1755530151367186,0,0,1.75812
2.4997346040036064,0,0,1.2713210815429687,0,0,0.6115200000000001
2.5011155879765283,0,0,1.2521674682617188,0,0,0.53508
2.5024980529851746,0,0,1.3934253662109375,0,0,0.7644
2.503879239986418,0,0,1.3623007446289062,0,0,0.99372
2.505349796003429,0,0,1.1731588134765625,0,0,1.07016
2.5067440569982864,0,0,1.1109095703125,0,0,0.99372
2.5081257809943054,0,0,1.1947066284179686,0,0,1.45236
2.509507319977274,0,0,1.3287819213867187,0,0,1.2230400000000001
2.510889025987126,0,0,1.2737152832031249,0,0,0.91728
2.5122699349885806,0,0,1.426944189453125,0,0,0.7644
2.513651288987603,0,0,1.3048399047851562,0,0,0.99372
2.5150340129912365,0,0,1.24498486328125,0,0,0.84084
2.516415033984231,0,0,1.197100830078125,0,0,0.53508
2.5179227749758866,0,0,1.1875240234375,0,0,0.68796
2.519306220987346,0,0,1.3479355346679687,0,0,0.0
2.5206875930016395,0,0,1.2521674682617188,0,0,0.7644
2.522069205995649,0,0,1.5969325073242187,0,0,0.91728
2.52345826398232,0,0,1.4532804077148436,0,0,0.6115200000000001
2.524831913993694,0,0,1.5131354492187499,0,0,1.2230400000000001
2.527301255002385,0,0,0.9528922607421875,0,0,0.91728
2.5286937199998647,0,0,1.2210428466796874,0,0,1.2230400000000001
2.530094702990027,0,0,1.3168109130859373,0,0,0.68796
2.531482796999626,0,0,1.0941501586914062,0,0,0.30576000000000003
2.5328647429996636,0,0,1.438915197753906,0,0,0.91728
2.5342466709844302,0,0,1.3575123413085937,0,0,1.07016
2.535628229001304,0,0,1.180341418457031,0,0,0.91728
2.5370100459840614,0,0,1.1156979736328125,0,0,0.91728
2.538392454996938,0,0,1.1468225952148436,0,0,0.99372
2.539774678996764,0,0,1.37906015625,0,0,0.53508
2.541156088002026,0,0,1.2665326782226562,0,0,0.99372
2.542538034991594,0,0,1.4053963745117186,0,0,1.07016
2.5439195369835943,0,0,1.22583125,0,0,0.68796
2.5453009459888563,0,0,1.24498486328125,0,0,0.6115200000000001
2.546683299995493,0,0,1.139639990234375,0,0,1.07016
2.54908265999984,0,0,1.2282254516601563,0,0,1.07016
2.5504774949804414,0,0,1.4221557861328125,0,0,1.1465999999999998
2.551900181977544,0,0,1.467645617675781,0,0,0.3822
2.553290386975277,0,0,1.6041151123046875,0,0,0.53508
2.554676481988281,0,0,1.429338391113281,0,0,1.07016
2.5560560209851246,0,0,1.2856862915039062,0,0,0.7644
2.557434910995653,0,0,1.3527239379882812,0,0,0.84084
2.5588268759893253,0,0,1.2378022583007813,0,0,1.83456
2.5602235999831464,0,0,1.47482822265625,0,0,0.91728
2.561609917000169,0,0,1.3407529296874998,0,0,0.53508
2.562996825989103,0,0,1.6903063720703124,0,0,1.07016
2.5643824199796654,0,0,1.3575123413085937,0,0,0.68796
2.565768329979619,0,0,1.2665326782226562,0,0,0.68796
2.567154294985812,0,0,1.2665326782226562,0,0,0.6115200000000001
2.568540073989425,0,0,1.2210428466796874,0,0,0.53508
2.5699262979906052,0,0,1.39821376953125,0,0,0.0
2.571314947999781,0,0,1.448492004394531,0,0,-9.24924
2.5727033389848657,0,0,1.6232687255859375,0,0,0.7644
2.574106543994276,0,0,1.2689268798828124,0,0,0.6115200000000001
2.575493230979191,0,0,1.1085153686523437,0,0,0.7644
2.5768788259883877,0,0,1.2401964599609374,0,0,0.84084
2.5782653089845553,0,0,1.3120225097656248,0,0,0.53508
2.579651145002572,0,0,1.3263877197265623,0,0,0.91728
2.5810368129750714,0,0,1.3575123413085937,0,0,0.7644
2.582423388987081,0,0,1.3263877197265623,0,0,0.45864
2.5838179089769255,0,0,1.3670891479492187,0,0,0.6115200000000001
2.5852077069866937,0,0,1.2497732666015624,0,0,1.1465999999999998
2.5865942649834324,0,0,1.3168109130859373,0,0,0.91728
2.5879771189938765,0,0,1.1659762084960936,0,0,0.7644
2.5893606759782415,0,0,1.0797849487304687,0,0,1.60524
2.5908154729986563,0,0,1.43652099609375,0,0,0.99372
2.5922029569919687,0,0,1.2880804931640624,0,0,0.84084
2.5935919960029423,0,0,1.4508862060546874,0,0,0.6115200000000001
2.5949782939860597,0,0,1.3263877197265623,0,0,0.84084
2.59636475899606,0,0,1.3287819213867187,0,0,0.68796
2.597761630982859,0,0,1.1444283935546875,0,0,0.68796
2.5991469099826645,0,0,1.1109095703125,0,0,0.6115200000000001
2.6005307829764206,0,0,1.2952630981445312,0,0,9.631440000000001
2.6019498579844367,0,0,1.2306196533203124,0,0,1.07016
2.603367267001886,0,0,1.4508862060546874,0,0,0.68796
2.6047546949994285,0,0,1.2018892333984375,0,0,0.3822
2.606140844989568,0,0,1.2425906616210938,0,0,0.68796
2.607527532003587,0,0,1.3263877197265623,0,0,0.84084
2.608912996976869,0,0,1.1827356201171875,0,0,0.7644
2.6102999989816453,0,0,1.3479355346679687,0,0,-0.30576000000000003
2.6116870929836296,0,0,1.216254443359375,0,0,0.53508
2.6130733359896112,0,0,1.426944189453125,0,0,0.45864
2.614460133976536,0,0,1.5921441040039062,0,0,0.45864
2.6158459139987826,0,0,1.35990654296875,0,0,0.91728
2.617231803975301,0,0,1.1827356201171875,0,0,1.07016
2.6186343239969574,0,0,1.0558429321289062,0,0,0.99372
2.6200195489800535,0,0,1.22583125,0,0,1.1465999999999998
2.6214051989954896,0,0,1.235408056640625,0,0,0.91728
2.6227912369940896,0,0,1.2713210815429687,0,0,0.84084
2.6241771839850117,0,0,1.4149731811523436,0,0,1.07016
2.625563000998227,0,0,1.3670891479492187,0,0,1.2230400000000001
2.6269489099795464,0,0,1.2665326782226562,0,0,0.7644
2.628334615001222,0,0,1.1061211669921875,0,0,0.6115200000000001
2.6297205799783114,0,0,1.2234370483398436,0,0,0.45864
2.6311061379965395,0,0,1.3168109130859373,0,0,0.3822
2.6324920839979313,0,0,1.3215993164062498,0,0,0.53508
2.6338778639910743,0,0,1.5849614990234373,0,0,0.84084
2.6352637539966963,0,0,1.2952630981445312,0,0,1.1465999999999998
2.6366492559900507,0,0,1.37906015625,0,0,0.7644
2.638035240001045,0,0,1.209071838378906,0,0,0.84084
2.6394209819845855,0,0,0.9193734375,0,0,0.7644
2.6408063169801608,0,0,1.2952630981445312,0,0,0.0
2.64219931900152,0,0,1.4149731811523436,0,0,0.30576000000000003
2.643585340003483,0,0,1.5969325073242187,0,0,0.53508
2.6449712299800012,0,0,1.3527239379882812,0,0,0.3822
2.6463577509857714,0,0,1.2641384765625,0,0,1.1465999999999998
2.647742400993593,0,0,1.1755530151367186,0,0,0.91728
2.649127772980137,0,0,1.20667763671875,0,0,0.91728
2.6505143299873453,0,0,1.254561669921875,0,0,0.68796
2.651899702992523,0,0,1.2713210815429687,0,0,0.84084
2.6532853899989277,0,0,1.1228805786132812,0,0,0.45864
2.6549071109911893,0,0,1.37906015625,0,0,0.7644
2.656288316997234,0,0,1.2473790649414063,0,0,0.91728
2.6576672079972923,0,0,1.3287819213867187,0,0,0.91728
2.659047727996949,0,0,1.1061211669921875,0,0,0.84084
2.6604695259884465,0,0,1.2856862915039062,0,0,1.2994800000000002
2.661859101994196,0,0,1.3383587280273437,0,0,0.91728
2.6632397699868307,0,0,1.3455413330078123,0,0,0.53508
2.664618643000722,0,0,1.4867992309570313,0,0,0.7644
2.666031310975086,0,0,1.3263877197265623,0,0,-8.943480000000001
2.667413367977133,0,0,1.2593500732421874,0,0,0.68796
2.6687918699753936,0,0,1.1659762084960936,0,0,0.6115200000000001
2.670170445984695,0,0,1.1324573852539062,0,0,0.45864
2.671567243989557,0,0,1.3048399047851562,0,0,0.0
2.6729463019873947,0,0,1.2425906616210938,0,0,0.7644
2.6743270439910702,0,0,1.5203180541992187,0,0,0.6115200000000001
2.675706027977867,0,0,1.2713210815429687,0,0,0.7644
2.67708451100043,0,0,1.2785036865234374,0,0,0.53508
2.678469642996788,0,0,1.2521674682617188,0,0,0.53508
2.679856218979694,0,0,1.158793603515625,0,0,0.84084
2.6812420539790764,0,0,1.2401964599609374,0,0,0.68796
2.682629907998489,0,0,1.2880804931640624,0,0,0.6115200000000001
2.684014094993472,0,0,1.2952630981445312,0,0,0.30576000000000003
2.6854001519968733,0,0,1.5586252807617187,0,0,0.30576000000000003
2.6867841909988783,0,0,1.3359645263671873,0,0,0.99372
2.688167952001095,0,0,1.3527239379882812,0,0,0.7644
2.689551527990261,0,0,1.0773907470703123,0,0,0.99372
2.6909493079874665,0,0,1.1468225952148436,0,0,1.911
2.6923368469870184,0,0,1.3120225097656248,0,0,0.84084
2.6937232369964477,0,0,1.2808978881835937,0,0,0.91728
2.69511072098976,0,0,1.5370774658203123,0,0,0.91728
2.6964975369919557,0,0,1.39821376953125,0,0,0.91728
2.6978845759877004,0,0,1.3479355346679687,0,0,0.84084
2.699271466990467,0,0,1.3215993164062498,0,0,0.3822
2.7006680429913104,0,0,1.1611878051757811,0,0,0.45864
2.7020547860010993,0,0,1.3335703247070312,0,0,0.0
2.7034415469970554,0,0,1.2042834350585936,0,0,0.68796
2.7048286039789673,0,0,1.5298948608398437,0,0,0.53508
2.7062220129882917,0,0,1.43652099609375,0,0,0.45864
2.707608996977797,0,0,1.3646949462890625,0,0,0.84084
2.708996146975551,0,0,1.1444283935546875,0,0,0.53508
2.7103835369925946,0,0,1.1252747802734375,0,0,0.84084
2.711769594985526,0,0,1.1707646118164061,0,0,0.84084
2.713155947974883,0,0,1.22583125,0,0,0.68796
2.7145434870035388,0,0,1.5466542724609373,0,0,0.45864
2.7159296559984796,0,0,1.5370774658203123,0,0,0.53508
2.717316380003467,0,0,1.3215993164062498,0,0,0.84084
2.7187047519837506,0,0,1.120486376953125,0,0,0.91728
2.7200913279957604,0,0,1.1109095703125,0,0,0.99372
2.7214779969945084,0,0,1.2593500732421874,0,0,1.60524
2.722864720999496,0,0,1.3263877197265623,0,0,0.99372
2.7242507599876262,0,0,1.3670891479492187,0,0,0.53508
2.7256371499970555,0,0,1.4891934326171874,0,0,1.07016
2.7270242079976015,0,0,1.1755530151367186,0,0,1.07016
2.728410746989539,0,0,1.2473790649414063,0,0,0.99372
2.7297973039967474,0,0,1.2114660400390624,0,0,0.53508
2.7311778249859344,0,0,1.216254443359375,0,0,0.6115200000000001
2.732556326984195,0,0,1.3000515014648437,0,0,0.0
2.7339345880027395,0,0,1.3551181396484375,0,0,0.6115200000000001
2.7364831869781483,0,0,1.2976572998046874,0,0,0.53508
2.7378708369797096,0,0,1.3646949462890625,0,0,0.91728
2.7392580790037755,0,0,1.3215993164062498,0,0,0.84084
2.740645340993069,0,0,1.199495031738281,0,0,0.91728
2.74203121298342,0,0,1.3742717529296875,0,0,0.84084
2.74341754798661,0,0,1.3072341064453123,0,0,0.91728
2.744804401998408,0,0,1.2832920898437499,0,0,0.7644
2.7461912549915724,0,0,1.6807295654296874,0,0,0.68796
2.7475774429913145,0,0,1.2617442749023438,0,0,1.07016
2.7489638149854727,0,0,1.3670891479492187,0,0,0.53508
2.750359445984941,0,0,1.1516109985351561,0,0,-8.943480000000001
2.7517473549814895,0,0,1.2473790649414063,0,0,1.1465999999999998
2.7531338569824584,0,0,1.369483349609375,0,0,0.6115200000000001
2.754520803980995,0,0,1.1947066284179686,0,0,0.84084
2.7559065090026706,0,0,1.4125789794921875,0,0,0.91728
2.757292880996829,0,0,1.458068811035156,0,0,0.91728
2.7586796609975863,0,0,1.3407529296874998,0,0,0.99372
2.760072199977003,0,0,1.2713210815429687,0,0,0.84084
2.7614592390018515,0,0,1.2737152832031249,0,0,0.68796
2.762841480987845,0,0,1.2832920898437499,0,0,-0.22932
2.7642210019985214,0,0,1.3096283081054687,0,0,0.3822
2.7655993739899714,0,0,1.6328455322265625,0,0,0.53508
2.7682138980017044,0,0,1.2593500732421874,0,0,0.7644
2.769601492997026,0,0,1.3000515014648437,0,0,1.07016
2.7709884209907614,0,0,1.1635820068359375,0,0,0.68796
2.772374107997166,0,0,1.2018892333984375,0,0,1.2994800000000002
2.773759831994539,0,0,1.3096283081054687,0,0,0.99372
2.7751466299814638,0,0,1.3263877197265623,0,0,0.84084
2.7765816869796254,0,0,1.4101847778320311,0,0,1.07016
2.778052872978151,0,0,1.1923124267578125,0,0,0.91728
2.779467466985807,0,0,1.2617442749023438,0,0,0.7644
2.7808536169759464,0,0,1.218648645019531,0,0,0.84084
2.782246470975224,0,0,1.1851298217773436,0,0,1.5288
2.783633621002082,0,0,1.369483349609375,0,0,0.53508
2.7850190669996664,0,0,1.3287819213867187,0,0,0.84084
2.786404994985787,0,0,1.5945383056640625,0,0,0.7644
2.7877878479775973,0,0,1.2808978881835937,0,0,1.07016
2.789171461976366,0,0,1.350329736328125,0,0,0.84084
2.790572666999651,0,0,1.1755530151367186,0,0,0.84084
2.79196027998114,0,0,1.0821791503906248,0,0,0.6115200000000001
2.793345836980734,0,0,1.3287819213867187,0,0,-0.15288000000000002
2.7947333389893174,0,0,1.3383587280273437,0,0,0.53508
2.7961290819803253,0,0,1.2785036865234374,0,0,0.3822
2.797514379984932,0,0,1.2928688964843749,0,0,0.45864
2.7989002149843145,0,0,1.3192051147460937,0,0,1.2230400000000001
2.8002860129927285,0,0,1.1180921752929687,0,0,0.99372
2.8016717929858714,0,0,1.0965443603515623,0,0,0.53508
2.8030570169794373,0,0,1.3144167114257812,0,0,0.84084
2.8044530189945363,0,0,1.2593500732421874,0,0,0.91728
2.805838483996922,0,0,1.2713210815429687,0,0,0.99372
2.8072244669892825,0,0,1.649604943847656,0,0,0.3822
2.808610060979845,0,0,1.3096283081054687,0,0,1.07016
2.8099960629770067,0,0,1.2904746948242187,0,0,0.91728
2.8113813980016857,0,0,1.1516109985351561,0,0,0.84084
2.8127672339905985,0,0,1.235408056640625,0,0,1.37592
2.8141526989929844,0,0,1.3048399047851562,0,0,0.68796
2.815538551978534,0,0,1.3718775512695311,0,0,0.68796
2.816926090978086,0,0,1.5562310791015623,0,0,1.1465999999999998
2.8183175189769827,0,0,1.2832920898437499,0,0,0.99372
2.819712538999738,0,0,1.3144167114257812,0,0,0.84084
2.8210992449894547,0,0,1.0726023437499999,0,0,0.84084
2.8224865429801866,0,0,1.1563994018554686,0,0,0.22932
2.8238731369783636,0,0,1.1444283935546875,0,0,-0.45864
2.825259972974891,0,0,1.209071838378906,0,0,0.30576000000000003
2.8266466969798785,0,0,1.5538368774414062,0,0,0.6115200000000001
2.828031568991719,0,0,1.5753846923828123,0,0,0.53508
2.8294171079760417,0,0,1.407790576171875,0,0,0.7644
2.830803738994291,0,0,1.3192051147460937,0,0,-8.63772
2.832189851993462,0,0,1.2018892333984375,0,0,0.99372
2.8335779279877897,0,0,1.3527239379882812,0,0,0.99372
2.834965392976301,0,0,1.3766659545898436,0,0,0.91728
2.836351061996538,0,0,1.4221557861328125,0,0,0.53508
2.83773652598029,0,0,1.5394716674804687,0,0,0.45864
2.839130138978362,0,0,1.3168109130859373,0,0,1.07016
2.8405161039845552,0,0,1.16837041015625,0,0,0.6115200000000001
2.8419016620027833,0,0,1.1659762084960936,0,0,0.99372
2.843286959978286,0,0,1.2737152832031249,0,0,0.91728
2.8446723129891325,0,0,1.2737152832031249,0,0,0.30576000000000003
2.8460576859943103,0,0,1.3024457031249999,0,0,0.7644
2.8474435769894626,0,0,1.6160861206054686,0,0,0.99372
2.8488291149842553,0,0,1.3479355346679687,0,0,0.7644
2.850214968988439,0,0,1.3431471313476562,0,0,0.7644
2.8516005269775633,0,0,1.24498486328125,0,0,0.68796
2.8529857689864,0,0,1.1468225952148436,0,0,0.45864
2.854371697001625,0,0,1.3024457031249999,0,0,-0.45864
2.855777680000756,0,0,1.43652099609375,0,0,0.30576000000000003
2.8571592929947656,0,0,1.3215993164062498,0,0,0.30576000000000003
2.8585406839847565,0,0,1.3718775512695311,0,0,0.68796
2.8599343149980996,0,0,1.3287819213867187,0,0,1.07016
2.861315650981851,0,0,1.177947216796875,0,0,0.68796
2.862695818999782,0,0,1.1372457885742187,0,0,0.84084
2.864074154989794,0,0,1.20667763671875,0,0,1.07016
2.865470489981817,0,0,1.2521674682617188,0,0,0.99372
2.866857416986022,0,0,1.2976572998046874,0,0,1.1465999999999998
2.868236012000125,0,0,1.37906015625,0,0,0.84084
2.8696145319845527,0,0,1.2952630981445312,0,0,1.07016
2.870994256983977,0,0,1.350329736328125,0,0,0.68796
2.8723729439952876,0,0,1.1707646118164061,0,0,0.84084
2.8737515199754853,0,0,1.0726023437499999,0,0,1.1465999999999998
2.875162835989613,0,0,1.3551181396484375,0,0,0.07644000000000001
2.8765413379878737,0,0,1.3383587280273437,0,0,0.84084
2.8779410069982987,0,0,1.5849614990234373,0,0,0.91728
2.879330675001256,0,0,1.2832920898437499,0,0,0.45864
2.8807166399783455,0,0,1.4173673828125,0,0,0.7644
2.882103123003617,0,0,1.2761094848632812,0,0,0.7644
2.883495846996084,0,0,1.0917559570312498,0,0,0.22932
2.8848816079844255,0,0,1.1659762084960936,0,0,0.15288000000000002
2.886268165981164,0,0,1.2785036865234374,0,0,0.68796
2.887652185978368,0,0,1.43652099609375,0,0,0.53508
2.889035817992408,0,0,1.5322890624999999,0,0,0.6115200000000001
2.890432152984431,0,0,1.2521674682617188,0,0,1.07016
2.8918195249862038,0,0,1.3168109130859373,0,0,0.68796
2.8932057119964156,0,0,1.1180921752929687,0,0,1.07016
2.8945923439750914,0,0,1.1875240234375,0,0,0.99372
2.895977326988941,0,0,1.2665326782226562,0,0,1.1465999999999998
2.897370457998477,0,0,1.4030021728515625,0,0,0.68796
2.898755515983794,0,0,1.6352397338867186,0,0,0.91728
2.90014116599923,0,0,1.3144167114257812,0,0,0.7644
2.9015269079827704,0,0,1.2138602416992186,0,0,0.6115200000000001
2.9029133549774997,0,0,0.9457096557617187,0,0,0.7644
2.904298930981895,0,0,1.2378022583007813,0,0,1.1465999999999998
2.9056842839927413,0,0,1.254561669921875,0,0,0.53508
2.9070816749881487,0,0,1.5107412475585937,0,0,0.99372
2.9084698249935172,0,0,1.5538368774414062,0,0,0.84084
2.9098564199812245,0,0,1.2880804931640624,0,0,0.68796
2.9112426989886444,0,0,1.2761094848632812,0,0,0.84084
2.9126292939763516,0,0,1.1827356201171875,0,0,0.7644
2.9140151839819737,0,0,1.1827356201171875,0,0,0.6115200000000001
2.915509332990041,0,0,1.3335703247070312,0,0,0.45864
2.9168990759935696,0,0,1.369483349609375,0,0,0.53508
2.9183038549963385,0,0,1.6615759521484375,0,0,0.91728
2.919690968003124,0,0,1.4341267944335936,0,0,0.53508
2.9210774139792193,0,0,1.3144167114257812,0,0,0.84084
2.9224644899950363,0,0,1.1109095703125,0,0,0.91728
2.9238496399775613,0,0,1.20667763671875,0,0,0.6115200000000001
2.9252356609795243,0,0,1.2880804931640624,0,0,1.07016
2.926635958981933,0,0,1.37906015625,0,0,0.68796
2.928022534993943,0,0,1.2497732666015624,0,0,0.3822
2.929408573982073,0,0,1.4341267944335936,0,0,-9.47856
2.9307960939768236,0,0,1.24498486328125,0,0,0.7644
2.932182391989045,0,0,1.2306196533203124,0,0,1.2994800000000002
2.9335683379904367,0,0,1.1444283935546875,0,0,0.7644
2.9349543399875984,0,0,1.1755530151367186,0,0,1.07016
2.936346323986072,0,0,1.35990654296875,0,0,0.91728
2.937732973980019,0,0,1.3072341064453123,0,0,0.99372
2.939119438000489,0,0,1.446097802734375,0,0,0.99372
2.940505384991411,0,0,1.3144167114257812,0,0,0.99372
2.9418917759903707,0,0,1.407790576171875,0,0,0.68796
2.943278313992778,0,0,1.180341418457031,0,0,0.7644
2.9446638349909335,0,0,1.0965443603515623,0,0,0.6115200000000001
2.946049817983294,0,0,1.3192051147460937,0,0,0.07644000000000001
2.9474358939914964,0,0,1.2042834350585936,0,0,0.45864
2.9488218589976896,0,0,1.3934253662109375,0,0,0.6115200000000001
2.950208230991848,0,0,1.2282254516601563,0,0,0.7644
2.951594696001848,0,0,1.3263877197265623,0,0,0.91728
2.952980864996789,0,0,1.1731588134765625,0,0,0.68796
2.9543681259965524,0,0,1.1013327636718748,0,0,0.68796
2.9557529790035915,0,0,1.1827356201171875,0,0,0.7644
2.9571386669995263,0,0,1.2856862915039062,0,0,0.84084
2.9585247979848646,0,0,1.2234370483398436,0,0,0.6115200000000001
2.959910170000512,0,0,1.659181750488281,0,0,0.99372
2.9612965239793994,0,0,1.3407529296874998,0,0,0.84084
2.9626830630004406,0,0,1.2904746948242187,0,0,0.84084
2.9640683059988078,0,0,1.0462661254882812,0,0,0.84084
2.96545395598514,0,0,1.2473790649414063,0,0,0.7644
2.9668401239905506,0,0,1.3192051147460937,0,0,0.68796
2.968226106982911,0,0,1.20667763671875,0,0,0.6115200000000001
2.969611812994117,0,0,1.5346832641601562,0,0,0.6115200000000001
2.9710048330016434,0,0,1.4006079711914061,0,0,0.84084
2.9723911689943634,0,0,1.3383587280273437,0,0,0.7644
2.9737771889776923,0,0,1.3359645263671873,0,0,0.84084
2.9751681719790213,0,0,1.2521674682617188,0,0,0.6115200000000001
2.976554266992025,0,0,1.3431471313476562,0,0,0.0
2.9779397129896097,0,0,1.4628572143554686,0,0,0.22932
2.979326158994809,0,0,1.608903515625,0,0,0.45864
2.9807124759827275,0,0,1.5011644409179687,0,0,0.7644
2.9820987739949487,0,0,1.3934253662109375,0,0,0.91728
2.9834852389758453,0,0,1.189918225097656,0,0,0.91728
2.984871499997098,0,0,1.1109095703125,0,0,-9.01992
2.9862584279908333,0,0,1.3144167114257812,0,0,1.37592
2.9876425589900464,0,0,1.4101847778320311,0,0,1.07016
2.989026894996641,0,0,1.4987702392578124,0,0,0.84084
2.990423693001503,0,0,1.5155296508789062,0,0,0.91728
2.991811621002853,0,0,1.35990654296875,0,0,0.84084
2.9931982519919984,0,0,1.2952630981445312,0,0,0.84084
2.994592308998108,0,0,1.0726023437499999,0,0,0.6115200000000001
2.9959782369842287,0,0,1.1827356201171875,0,0,1.37592
2.997364608978387,0,0,1.2785036865234374,0,0,0.68796
2.9987506670004223,0,0,1.3479355346679687,0,0,0.91728
3.0001368719968013,0,0,1.5107412475585937,0,0,0.84084
3.0015229479759,0,0,1.2761094848632812,0,0,0.6115200000000001
3.002908801980084,0,0,1.24498486328125,0,0,0.68796
3.0042943969892804,0,0,1.1061211669921875,0,0,0.91728
3.0056798239820637,0,0,1.1180921752929687,0,0,0.53508
3.0070660669880453,0,0,1.22583125,0,0,-20
3.008453179994831,0,0,1.3383587280273437,0,0,0.68796
3.009838847996434,0,0,1.3670891479492187,0,0,0.30576000000000003
3.011224923975533,0,0,1.2665326782226562,0,0,0.7644
3.012610796984518,0,0,1.2521674682617188,0,0,1.2994800000000002
3.0140031869814266,0,0,1.139639990234375,0,0,0.7644
3.015389966982184,0,0,1.0845733520507812,0,0,0.84084
3.0167757839953993,0,0,1.0797849487304687,0,0,1.07016
3.0181614339817315,0,0,1.2761094848632812,0,0,1.1465999999999998
3.0195477870001923,0,0,1.2689268798828124,0,0,0.68796
3.020932825980708,0,0,1.6472107421875,0,0,0.68796
3.022319235984469,0,0,1.20667763671875,0,0,0.99372
3.0237052369921003,0,0,1.3072341064453123,0,0,0.6115200000000001
3.025090849987464,0,0,1.0965443603515623,0,0,0.22932
3.0264927230018657,0,0,1.1731588134765625,0,0,0.99372
3.027944760979153,0,0,1.369483349609375,0,0,0.45864
3.0293525960005354,0,0,1.2665326782226562,0,0,0.7644
3.030745448981179,0,0,1.6328455322265625,0,0,0.91728
3.0321314329921734,0,0,1.3000515014648437,0,0,0.7644
3.0335176939843222,0,0,1.3287819213867187,0,0,0.7644
3.0349049549840856,0,0,1.0773907470703123,0,0,0.91728
3.0362906599766575,0,0,1.1875240234375,0,0,0.53508
3.037676643987652,0,0,1.2282254516601563,0,0,0.07644000000000001
3.0390624970023055,0,0,1.2401964599609374,0,0,0.45864
3.040448572981404,0,0,1.5035586425781249,0,0,0.6115200000000001
3.041834685980575,0,0,1.5538368774414062,0,0,0.6115200000000001
3.043220798979746,0,0,1.47482822265625,0,0,1.07016
3.0446073380007874,0,0,1.3263877197265623,0,0,0.84084
3.0459932659869082,0,0,1.1923124267578125,0,0,0.53508
3.0473791009862907,0,0,1.2904746948242187,0,0,1.2230400000000001
3.0487654549942818,0,0,1.3455413330078123,0,0,1.07016
3.050151271978393,0,0,1.388636962890625,0,0,0.6115200000000001
3.051537273975555,0,0,1.5514426757812498,0,0,0.84084
3.0529234790010378,0,0,1.3742717529296875,0,0,0.99372
3.0543287769833114,0,0,1.3168109130859373,0,0,0.99372
3.05571263100137,0,0,1.197100830078125,0,0,0.7644
3.0571520579978824,0,0,1.1731588134765625,0,0,0.99372
3.058545300998958,0,0,1.2952630981445312,0,0,0.99372
3.0599250059749465,0,0,1.2880804931640624,0,0,0.45864
3.061320025997702,0,0,1.5107412475585937,0,0,0.6115200000000001
3.06270056500216,0,0,1.3575123413085937,0,0,0.68796
3.0640794189821463,0,0,1.3575123413085937,0,0,0.91728
3.0654721799946856,0,0,1.0726023437499999,0,0,0.84084
3.066854256001534,0,0,1.216254443359375,0,0,0.45864
3.06823335099034,0,0,1.3096283081054687,0,0,-9.24924
3.0696135189791676,0,0,1.3479355346679687,0,0,0.6115200000000001
3.070994076988427,0,0,1.5610194824218748,0,0,0.53508
3.072374948998913,0,0,1.3814543579101561,0,0,0.68796
3.073852449975675,0,0,1.2473790649414063,0,0,1.1465999999999998
3.075327839993406,0,0,1.1851298217773436,0,0,0.84084
3.076766451995354,0,0,0.9864110839843749,0,0,0.84084
3.0781611209968105,0,0,1.2976572998046874,0,0,0.99372
3.0795422709779814,0,0,1.3455413330078123,0,0,0.99372
3.0809211430023424,0,0,1.4724340209960938,0,0,0.30576000000000003
3.0823129039781634,0,0,1.5442600708007812,0,0,0.84084
3.0836941649904475,0,0,1.3646949462890625,0,0,0.91728
3.0850731119862758,0,0,1.2593500732421874,0,0,0.91728
3.0864575390005484,0,0,1.1228805786132812,0,0,0.91728
3.0878477999940515,0,0,1.2210428466796874,0,0,1.37592
3.0892326359753497,0,0,1.3766659545898436,0,0,0.6115200000000001
3.090637062996393,0,0,1.2378022583007813,0,0,0.7644
3.092024212994147,0,0,1.5227122558593749,0,0,0.91728
3.093410696979845,0,0,1.2713210815429687,0,0,0.7644
3.094797198980814,0,0,1.4532804077148436,0,0,0.84084
3.096183329995256,0,0,1.0462661254882812,0,0,0.84084
3.097569368983386,0,0,1.0965443603515623,0,0,0.45864
3.098955870984355,0,0,1.3120225097656248,0,0,-0.22932
3.1003438729967456,0,0,1.3287819213867187,0,0,0.53508
3.10174789300072,0,0,1.3287819213867187,0,0,0.45864
3.1031511169858277,0,0,1.3000515014648437,0,0,0.45864
3.104541951994179,0,0,1.3479355346679687,0,0,1.07016
3.1059285090013873,0,0,1.1156979736328125,0,0,0.68796
3.1073172699834686,0,0,1.0390835205078124,0,0,0.7644
3.1087032349896617,0,0,1.3383587280273437,0,0,0.91728
3.1100890149828047,0,0,1.3623007446289062,0,0,1.07016
3.111475294979755,0,0,1.2761094848632812,0,0,0.30576000000000003
3.112871185003314,0,0,1.438915197753906,0,0,0.84084
3.1142583539767656,0,0,1.3096283081054687,0,0,0.91728
3.115644429984968,0,0,1.3527239379882812,0,0,0.91728
3.117034134978894,0,0,1.0654197387695312,0,0,1.1465999999999998
3.1184294699924067,0,0,1.158793603515625,0,0,0.99372
3.1198135089944117,0,0,1.369483349609375,0,0,0.30576000000000003
3.121200269990368,0,0,1.2473790649414063,0,0,0.3822
3.1225870130001567,0,0,1.6328455322265625,0,0,0.6115200000000001
3.1239723849867005,0,0,1.2761094848632812,0,0,0.53508
3.1253584059886634,0,0,1.3718775512695311,0,0,0.99372
3.126744573994074,0,0,1.0965443603515623,0,0,0.7644
3.1281302239804063,0,0,1.1923124267578125,0,0,0.7644
3.1295161889865994,0,0,1.3479355346679687,0,0,0.07644000000000001
3.130902282980969,0,0,1.2808978881835937,0,0,0.3822
3.132316395989619,0,0,1.419761584472656,0,0,0.7644
3.1337022869847715,0,0,1.5705962890624998,0,0,0.68796
3.1350884179992136,0,0,1.3431471313476562,0,0,1.07016
3.136474161001388,0,0,1.218648645019531,0,0,0.91728
3.1378600519965403,0,0,1.158793603515625,0,0,0.6115200000000001
3.139245997997932,0,0,1.3168109130859373,0,0,1.2230400000000001
3.1406321479880717,0,0,1.2689268798828124,0,0,0.6115200000000001
3.142017501988448,0,0,1.407790576171875,0,0,0.6115200000000001
3.14340368899866,0,0,1.5849614990234373,0,0,0.84084
3.1447894499870017,0,0,1.35990654296875,0,0,0.91728
3.1461901369912084,0,0,1.2665326782226562,0,0,0.91728
3.147576304996619,0,0,1.0965443603515623,0,0,1.07016
3.1489621219807304,0,0,1.2832920898437499,0,0,0.91728
3.1503489759925287,0,0,1.3048399047851562,0,0,0.6115200000000001
3.1517349219939206,0,0,1.2617442749023438,0,0,0.6115200000000001
3.1531204429920763,0,0,1.599326708984375,0,0,0.6115200000000001
3.154507425992051,0,0,1.3335703247070312,0,0,1.07016
3.155893427989213,0,0,1.3479355346679687,0,0,0.68796
3.157279243983794,0,0,1.1156979736328125,0,0,0.6115200000000001
3.1586652459809557,0,0,0.9409212524414062,0,0,0.7644
3.160050673992373,0,0,1.199495031738281,0,0,0.6115200000000001
3.161436212976696,0,0,1.22583125,0,0,0.3822
3.1628219739941414,0,0,1.5251064575195312,0,0,0.53508
3.164208123984281,0,0,1.4939818359375,0,0,0.68796
3.165594329999294,0,0,1.16837041015625,0,0,1.2230400000000001
3.166980738984421,0,0,1.2018892333984375,0,0,0.84084
3.168367036996642,0,0,1.1061211669921875,0,0,0.91728
3.1697527240030468,0,0,1.2234370483398436,0,0,1.1465999999999998
3.1711601330025587,0,0,1.3551181396484375,0,0,0.84084
3.1725457279826514,0,0,1.1635820068359375,0,0,0.84084
3.1739316929888446,0,0,1.5442600708007812,0,0,0.6115200000000001
3.1753173239994794,0,0,1.3192051147460937,0,0,0.68796
3.176703381992411,0,0,1.4053963745117186,0,0,0.99372
3.1780896059935912,0,0,1.0749965454101562,0,0,0.84084
3.17947562597692,0,0,0.9696516723632812,0,0,-9.24924
3.1808626650017686,0,0,1.2569558715820313,0,0,0.15288000000000002
3.1822502779832575,0,0,1.3742717529296875,0,0,0.30576000000000003
3.183636575995479,0,0,1.426944189453125,0,0,0.53508
3.185023003985407,0,0,1.2737152832031249,0,0,0.7644
3.186409227986587,0,0,1.3287819213867187,0,0,1.07016
3.187792951997835,0,0,1.2306196533203124,0,0,0.68796
3.189183582988335,0,0,1.0869675537109373,0,0,0.91728
3.19061508498271,0,0,1.0845733520507812,0,0,0.3822
3.192002419993514,0,0,1.3024457031249999,0,0,0.84084
3.193388662999496,0,0,1.2617442749023438,0,0,0.7644
3.1947750899998937,0,0,1.3359645263671873,0,0,0.22932
3.1961608519777656,0,0,1.3144167114257812,0,0,0.91728
3.1975531310017686,0,0,1.2976572998046874,0,0,0.7644
3.198938874003943,0,0,1.1516109985351561,0,0,0.84084
3.2003247269894928,0,0,1.2761094848632812,0,0,1.1465999999999998
3.2017108959844336,0,0,1.2665326782226562,0,0,0.7644
3.203097452991642,0,0,1.24498486328125,0,0,0.6115200000000001
3.204483232984785,0,0,1.5610194824218748,0,0,0.7644
3.2058689019759186,0,0,1.254561669921875,0,0,0.91728
3.2072554219921585,0,0,1.3479355346679687,0,0,0.68796
3.2086412759963423,0,0,1.2904746948242187,0,0,0.91728
3.210027351975441,0,0,1.158793603515625,0,0,0.45864
3.2114136869786307,0,0,1.3168109130859373,0,0,-0.07644000000000001
3.212823836976895,0,0,1.2138602416992186,0,0,0.3822
3.2142118199844845,0,0,1.5370774658203123,0,0,0.22932
3.2155986739962827,0,0,1.5346832641601562,0,0,0.53508
3.216984564001905,0,0,1.429338391113281,0,0,1.1465999999999998
3.2183721589972265,0,0,1.3024457031249999,0,0,1.1465999999999998
3.2197569199779537,0,0,1.1755530151367186,0,0,0.68796
3.221142995986156,0,0,1.24498486328125,0,0,0.68796
3.222529478982324,0,0,1.3455413330078123,0,0,0.7644
3.2239147029758897,0,0,1.3623007446289062,0,0,0.68796
3.2253006309911143,0,0,1.5179238525390624,0,0,0.68796
3.226687114976812,0,0,1.4053963745117186,0,0,1.2230400000000001
3.2280729679914657,0,0,1.2880804931640624,0,0,0.7644
3.2294738959753886,0,0,1.216254443359375,0,0,0.84084
3.230859656992834,0,0,1.2042834350585936,0,0,1.2230400000000001
3.232245380990207,0,0,1.2785036865234374,0,0,0.45864
3.23364679000224,0,0,1.3168109130859373,0,0,0.84084
3.2350347180035897,0,0,1.6328455322265625,0,0,0.91728
3.2364212749816943,0,0,1.5155296508789062,0,0,0.68796
3.23780722200172,0,0,1.3239935180664062,0,0,0.68796
3.239193778979825,0,0,1.180341418457031,0,0,2.06388
3.2405796329840086,0,0,1.1875240234375,0,0,0.6115200000000001
3.241965541994432,0,0,1.177947216796875,0,0,0.0
3.2433514329895843,0,0,1.3168109130859373,0,0,0.6115200000000001
3.244737064000219,0,0,1.5586252807617187,0,0,0.6115200000000001
3.246123010991141,0,0,1.3646949462890625,0,0,0.3822
3.247508808999555,0,0,1.3239935180664062,0,0,1.07016
3.248894106975058,0,0,1.0821791503906248,0,0,1.07016
3.2503027569910046,0,0,1.1540052001953125,0,0,0.7644
3.2516897219757084,0,0,1.254561669921875,0,0,1.60524
3.2530761869857088,0,0,1.3287819213867187,0,0,0.6115200000000001
3.25446224398911,0,0,1.2617442749023438,0,0,0.6115200000000001
3.2559982259990647,0,0,1.47482822265625,0,0,0.53508
3.2573799129750114,0,0,1.2689268798828124,0,0,0.68796
3.258761043980485,0,0,1.2593500732421874,0,0,0.6115200000000001
3.2601399539853446,0,0,1.0726023437499999,0,0,0.84084
3.261556343990378,0,0,1.1875240234375,0,0,0.68796
3.2629375499964226,0,0,1.2952630981445312,0,0,0.7644
3.2643164029868785,0,0,1.2785036865234374,0,0,0.68796
3.265710608975496,0,0,1.5658078857421873,0,0,0.68796
3.2670933149929624,0,0,1.2808978881835937,0,0,0.7644
3.268472241994459,0,0,1.3311761230468748,0,0,0.91728
3.2698506149754394,0,0,1.2306196533203124,0,0,0.3822
3.2712302829895634,0,0,1.1875240234375,0,0,0.7644
3.2726088039926253,0,0,1.216254443359375,0,0,0.07644000000000001
3.273987471999135,0,0,1.3742717529296875,0,0,0.68796
3.2753678629815113,0,0,1.2689268798828124,0,0,0.45864
3.2767652169859502,0,0,1.3168109130859373,0,0,0.45864
3.2783127349975985,0,0,1.4987702392578124,0,0,1.1465999999999998
3.279729200003203,0,0,1.22583125,0,0,0.91728
3.281110682990402,0,0,1.0749965454101562,0,0,0.45864
3.2824926109751686,0,0,1.2210428466796874,0,0,1.5288
3.2838721869920846,0,0,1.2952630981445312,0,0,1.1465999999999998
3.2852507259813137,0,0,1.3192051147460937,0,0,0.99372
3.286630949995015,0,0,1.3479355346679687,0,0,0.91728
3.2880305819853675,0,0,1.218648645019531,0,0,0.99372
3.289409083983628,0,0,1.3479355346679687,0,0,0.45864
3.2908351779915392,0,0,1.1085153686523437,0,0,0.84084
3.292222402000334,0,0,1.2473790649414063,0,0,0.53508
3.293608902982669,0,0,1.3048399047851562,0,0,0.0
3.294995090982411,0,0,1.254561669921875,0,0,0.68796
3.2963814809918404,0,0,1.4437036010742186,0,0,0.53508
3.297767223994015,0,0,1.2306196533203124,0,0,0.7644
3.2991526519763283,0,0,1.3718775512695311,0,0,0.99372
3.3005387089797296,0,0,1.158793603515625,0,0,0.53508
3.3019244329771027,0,0,1.1133037719726562,0,0,0.6115200000000001
3.3033105279901065,0,0,1.3144167114257812,0,0,0.6115200000000001
3.3046962700027507,0,0,1.3168109130859373,0,0,0.91728
3.3060819020029157,0,0,1.39821376953125,0,0,0.68796
3.3074675329844467,0,0,1.6519991455078125,0,0,0.68796
3.3088529059896246,0,0,1.3239935180664062,0,0,0.84084
3.3102470739977434,0,0,1.1468225952148436,0,0,1.07016
3.3116328539908864,0,0,1.0726023437499999,0,0,0.7644
3.3130184109904803,0,0,1.1659762084960936,0,0,1.2994800000000002
3.314405393990455,0,0,1.3215993164062498,0,0,0.68796
3.3157895259791985,0,0,1.3287819213867187,0,0,0.22932
3.3171755649964325,0,0,1.668758557128906,0,0,1.07016
3.318562029977329,0,0,1.43652099609375,0,0,0.53508
3.3199472909909673,0,0,1.3168109130859373,0,0,0.7644
3.3213464219879825,0,0,1.0821791503906248,0,0,0.91728
3.322731961001409,0,0,1.2617442749023438,0,0,0.45864
3.3241176849987824,0,0,1.3359645263671873,0,0,0.0
3.325502983003389,0,0,1.3551181396484375,0,0,0.6115200000000001
3.326889003976248,0,0,1.6232687255859375,0,0,0.53508
3.328274301980855,0,0,1.6543933471679686,0,0,0.45864
3.329659562994493,0,0,1.3215993164062498,0,0,1.07016
3.3310456209874246,0,0,1.22583125,0,0,1.07016
3.3324311779870186,0,0,1.1324573852539062,0,0,0.84084
3.333816123980796,0,0,1.1947066284179686,0,0,1.5288
3.335204533999786,0,0,1.3192051147460937,0,0,0.7644
3.3365904429811053,0,0,1.47482822265625,0,0,0.45864
3.3379756849899422,0,0,1.4867992309570313,0,0,0.68796
3.339362020982662,0,0,1.2306196533203124,0,0,0.99372
3.3407473739935085,0,0,1.2234370483398436,0,0,0.84084
3.342132801975822,0,0,1.0726023437499999,0,0,0.84084
3.3435190259770025,0,0,1.2018892333984375,0,0,0.84084
3.3449043989821803,0,0,1.3623007446289062,0,0,0.3822
3.3463001039926894,0,0,1.2378022583007813,0,0,0.68796
3.347685160988476,0,0,1.618480322265625,0,0,0.99372
3.3490701999980956,0,0,1.2569558715820313,0,0,0.6115200000000001
3.350456090993248,0,0,1.3192051147460937,0,0,0.6115200000000001
3.351841666997643,0,0,1.197100830078125,0,0,0.6115200000000001
3.353227279993007,0,0,1.218648645019531,0,0,0.6115200000000001
3.354613948991755,0,0,1.3670891479492187,0,0,0.3822
3.355999561987119,0,0,1.3742717529296875,0,0,0.6115200000000001
3.3573849519889336,0,0,1.2808978881835937,0,0,0.53508
3.3587708799750544,0,0,1.37906015625,0,0,0.68796
3.360156622977229,0,0,1.4508862060546874,0,0,1.1465999999999998
3.3615425689786207,0,0,1.2138602416992186,0,0,1.2994800000000002
3.362927829992259,0,0,1.1276689819335937,0,0,0.7644
3.3643198880017735,0,0,1.2497732666015624,0,0,1.5288
3.365705963980872,0,0,1.4341267944335936,0,0,0.7644
3.367091742984485,0,0,1.2713210815429687,0,0,0.68796
3.36847731898888,0,0,1.455674609375,0,0,1.07016
3.369863098982023,0,0,1.3431471313476562,0,0,0.84084
3.371248490002472,0,0,1.3024457031249999,0,0,0.7644
3.3726339909771923,0,0,1.1659762084960936,0,0,0.53508
3.374019437993411,0,0,1.0965443603515623,0,0,0.45864
3.3754052169970237,0,0,1.2401964599609374,0,0,9.631440000000001
3.376790403999621,0,0,1.3575123413085937,0,0,0.6115200000000001
3.378190868999809,0,0,1.6639701538085936,0,0,0.3822
3.37957703799475,0,0,1.3192051147460937,0,0,0.3822
3.380962447001366,0,0,1.369483349609375,0,0,0.68796
3.3823553929978516,0,0,1.0941501586914062,0,0,0.84084
3.383741042984184,0,0,1.209071838378906,0,0,0.7644
3.3851264900004026,0,0,1.3718775512695311,0,0,1.5288
3.3865129170008004,0,0,1.2761094848632812,0,0,0.99372
3.3879228629812133,0,0,1.2880804931640624,0,0,0.3822
3.389309124991996,0,0,1.6543933471679686,0,0,0.68796
3.390706866979599,0,0,1.39821376953125,0,0,1.2994800000000002
3.392093312984798,0,0,1.3670891479492187,0,0,0.91728
3.393479666992789,0,0,1.0773907470703123,0,0,0.99372
3.3948658169829287,0,0,1.209071838378906,0,0,1.1465999999999998
3.396251559985103,0,0,1.235408056640625,0,0,0.7644
3.3976369129959494,0,0,1.3311761230468748,0,0,0.6115200000000001
3.3990228039911017,0,0,1.6472107421875,0,0,0.7644
3.400408527988475,0,0,1.2808978881835937,0,0,0.91728
3.4017939009936526,0,0,1.2976572998046874,0,0,0.68796
3.4031793469912373,0,0,1.2521674682617188,0,0,0.6115200000000001
3.4045774599944707,0,0,1.1635820068359375,0,0,0.91728
3.405963183991844,0,0,1.2785036865234374,0,0,0.0
3.407359370990889,0,0,1.3168109130859373,0,0,0.45864
3.408754409989342,0,0,1.5490484741210937,0,0,0.53508
3.410140614985721,0,0,1.4030021728515625,0,0,0.68796
3.4115269320027437,0,0,1.254561669921875,0,0,1.1465999999999998
3.4129129339999054,0,0,1.0965443603515623,0,0,1.1465999999999998
3.4142995279980823,0,0,0.9600748657226562,0,0,0.7644
3.415685196989216,0,0,1.2689268798828124,0,0,0.84084
3.417078272992512,0,0,1.3766659545898436,0,0,0.84084
3.418473384983372,0,0,1.5777788940429687,0,0,0.3822
3.41985710998415,0,0,1.599326708984375,0,0,0.68796
3.4212434999935795,0,0,1.2473790649414063,0,0,1.1465999999999998
3.4226301689923275,0,0,1.2330138549804688,0,0,0.84084
3.4240175409941003,0,0,1.1276689819335937,0,0,0.91728
3.4254054129996803,0,0,1.2042834350585936,0,0,0.84084
3.4267913599906024,0,0,1.3718775512695311,0,0,0.45864
3.428177435998805,0,0,1.3575123413085937,0,0,0.6115200000000001
3.4295631229761057,0,0,1.6519991455078125,0,0,0.6115200000000001
3.4309493099863175,0,0,1.2952630981445312,0,0,0.53508
3.4323351999919396,0,0,1.3718775512695311,0,0,0.53508
3.4337210539961234,0,0,1.1324573852539062,0,0,0.7644
3.43510635200073,0,0,1.1827356201171875,0,0,0.53508
3.436491742992075,0,0,1.3000515014648437,0,0,0.0
3.4378777999954764,0,0,1.3168109130859373,0,0,0.84084
3.4392640059813857,0,0,1.2737152832031249,0,0,0.3822
3.4406498039897997,0,0,1.2928688964843749,0,0,0.7644
3.4420353989989962,0,0,1.2832920898437499,0,0,1.1465999999999998
3.4434213079803158,0,0,1.1827356201171875,0,0,0.91728
3.4448067729827017,0,0,1.0989385620117187,0,0,1.2994800000000002
3.4461932749836706,0,0,1.1875240234375,0,0,1.5288
3.447579442989081,0,0,1.3958195678710936,0,0,1.07016
3.448964889976196,0,0,1.3551181396484375,0,0,0.84084
3.4503528169880155,0,0,1.5275006591796874,0,0,1.1465999999999998
3.4517497639753856,0,0,1.235408056640625,0,0,0.99372
3.453136320982594,0,0,1.3383587280273437,0,0,0.53508
3.4545224889880046,0,0,1.177947216796875,0,0,0.68796
3.4559061210020445,0,0,1.0941501586914062,0,0,0.22932
3.4575270089844707,0,0,1.3287819213867187,0,0,0.68796
3.458909936976852,0,0,1.2473790649414063,0,0,0.68796
3.4602886979992036,0,0,1.3551181396484375,0,0,0.7644
3.461685051996028,0,0,1.2617442749023438,0,0,0.91728
3.4630758129933383,0,0,1.5131354492187499,0,0,0.7644
3.4644548329815734,0,0,1.1276689819335937,0,0,0.53508
3.4658491869922727,0,0,1.1156979736328125,0,0,0.53508
3.4672298549849074,0,0,1.1420341918945311,0,0,-0.22932
3.468610893993173,0,0,1.3335703247070312,0,0,0.3822
3.4699903409928083,0,0,1.3168109130859373,0,0,0.6115200000000001
3.471370379993459,0,0,1.3215993164062498,0,0,0.6115200000000001
3.4727493079844862,0,0,1.3623007446289062,0,0,0.91728
3.474127753986977,0,0,1.3431471313476562,0,0,0.84084
3.4755081449984573,0,0,1.0510545288085937,0,0,0.68796
3.4768866279919166,0,0,1.2138602416992186,0,0,0.91728
3.4782697600021493,0,0,1.2425906616210938,0,0,0.91728
3.4796554280037526,0,0,1.3383587280273437,0,0,0.68796
3.4810411149810534,0,0,1.5562310791015623,0,0,0.68796
3.482427746988833,0,0,1.3383587280273437,0,0,0.84084
3.483813008002471,0,0,1.388636962890625,0,0,0.84084
3.485199102986371,0,0,1.1109095703125,0,0,0.30576000000000003
3.4865842159779277,0,0,1.2282254516601563,0,0,0.6115200000000001
3.4879680319863837,0,0,1.2306196533203124,0,0,0.22932
3.489352829987183,0,0,1.3479355346679687,0,0,0.68796
3.4908076279971283,0,0,1.5370774658203123,0,0,0.53508
3.492194110993296,0,0,1.5275006591796874,0,0,0.7644
3.493580242997268,0,0,1.3072341064453123,0,0,0.99372
3.494965930003673,0,0,1.3479355346679687,0,0,0.99372
3.496361856989097,0,0,1.1540052001953125,0,0,0.91728
3.4977539329847787,0,0,1.2282254516601563,0,0,0.68796
3.4991550089907832,0,0,1.2976572998046874,0,0,0.84084
3.500540565990377,0,0,1.455674609375,0,0,0.68796
3.50192682800116,0,0,1.5849614990234373,0,0,0.68796
3.503313180990517,0,0,1.3646949462890625,0,0,0.99372
3.504698627977632,0,0,1.3335703247070312,0,0,0.68796
3.506084666994866,0,0,1.1420341918945311,0,0,0.68796
3.5074704459984787,0,0,1.2904746948242187,0,0,1.2994800000000002
3.508855854975991,0,0,1.3742717529296875,0,0,0.53508
3.5102423389907926,0,0,1.2378022583007813,0,0,1.07016
3.5116278219793458,0,0,1.7669208251953124,0,0,1.2994800000000002
3.513013138988754,0,0,1.4891934326171874,0,0,0.7644
3.5143999739957508,0,0,1.2521674682617188,0,0,0.53508
3.515785290976055,0,0,1.1611878051757811,0,0,0.7644
3.517171273997519,0,0,1.1180921752929687,0,0,0.7644
3.5185581089754123,0,0,1.3575123413085937,0,0,0.22932
3.51994348198059,0,0,1.2641384765625,0,0,0.7644
3.5213391869910993,0,0,1.5777788940429687,0,0,0.3822
3.5227255589852575,0,0,1.4101847778320311,0,0,0.7644
3.5241111719806213,0,0,1.24498486328125,0,0,1.1465999999999998
3.525496784975985,0,0,1.209071838378906,0,0,0.91728
3.526882823993219,0,0,1.1947066284179686,0,0,0.99372
3.528335380979115,0,0,1.2593500732421874,0,0,1.5288
3.529759789991658,0,0,1.4628572143554686,0,0,0.91728
3.5311477170034777,0,0,1.2521674682617188,0,0,0.68796
3.5325340529961977,0,0,1.5131354492187499,0,0,0.91728
3.533920183981536,0,0,1.3742717529296875,0,0,1.07016
3.5353067419782747,0,0,1.209071838378906,0,0,0.68796
3.5366925399866886,0,0,1.16837041015625,0,0,0.91728
3.5380784680019133,0,0,1.1540052001953125,0,0,0.53508
3.53948345099343,0,0,1.3000515014648437,0,0,9.47856
3.5408720639825333,0,0,1.2689268798828124,0,0,0.91728
3.542259120993549,0,0,1.5251064575195312,0,0,0.6115200000000001
3.5436452709836885,0,0,1.3215993164062498,0,0,0.30576000000000003
3.545030957990093,0,0,1.446097802734375,0,0,1.07016
3.546417626988841,0,0,1.2306196533203124,0,0,0.84084
3.5478083139751107,0,0,1.13006318359375,0,0,0.68796
3.549252388998866,0,0,1.426944189453125,0,0,-0.3822
3.550646538991714,0,0,1.3263877197265623,0,0,0.22932
3.5520339109934866,0,0,1.2282254516601563,0,0,0.15288000000000002
3.55342117199325,0,0,1.3431471313476562,0,0,0.68796
3.5548043040034827,0,0,1.3551181396484375,0,0,1.1465999999999998
3.556183490989497,0,0,1.1276689819335937,0,0,0.99372
3.5575721039786004,0,0,1.0773907470703123,0,0,0.99372
3.558961938979337,0,0,1.1276689819335937,0,0,1.37592
3.560348773986334,0,0,1.4987702392578124,0,0,1.07016
3.5617358129820786,0,0,1.3479355346679687,0,0,0.53508
3.5631181669887155,0,0,1.5322890624999999,0,0,1.1465999999999998
3.5644961319922004,0,0,1.3096283081054687,0,0,0.53508
3.5658746519766282,0,0,1.3766659545898436,0,0,0.6115200000000001
3.5672620800032746,0,0,1.1276689819335937,0,0,0.53508
3.568648062995635,0,0,1.0606313354492187,0,0,0.7644
