Time,AccelX1,AccelY1,AccelZ1,AccelX2,AccelY2,AccelZ2
3.944005584344268e-06,0,0,1.4987702392578124,0,0,0.7644
0.0036709679989144206,0,0,1.1324573852539062,0,0,0.84084
0.007245752000017092,0,0,1.22583125,0,0,0.99372
0.010857276996830478,0,0,1.3718775512695311,0,0,0.99372
0.014426099020056427,0,0,1.2785036865234374,0,0,0.7644
0.01793573601753451,0,0,1.4413093994140624,0,0,0.99372
0.021443225006805733,0,0,1.4628572143554686,0,0,2.14032
0.024948678008513525,0,0,1.2641384765625,0,0,0.45864
0.02845468500163406,0,0,1.3455413330078123,0,0,0.7644
0.03196160000516102,0,0,1.5155296508789062,0,0,0.7644
0.035470349015668035,0,0,1.3359645263671873,0,0,0.7644
0.03909296600613743,0,0,1.3718775512695311,0,0,0.84084
0.042608788004145026,0,0,1.2976572998046874,0,0,0.99372
0.046118500002194196,0,0,1.2785036865234374,0,0,0.99372
0.049623896018601954,0,0,1.2617442749023438,0,0,0.99372
0.053129145002458245,0,0,1.3670891479492187,0,0,0.68796
0.056634003994986415,0,0,1.3623007446289062,0,0,0.91728
0.060592358000576496,0,0,1.4173673828125,0,0,0.7644
0.06418401200789958,0,0,1.429338391113281,0,0,1.07016
0.06784729601349682,0,0,1.2952630981445312,0,0,0.6115200000000001
0.0713553219975438,0,0,1.3024457031249999,0,0,0.53508
0.07485081101185642,0,0,1.5059528442382812,0,0,0.84084
0.07838133702171035,0,0,1.3670891479492187,0,0,0.84084
0.08188688202062622,0,0,1.254561669921875,0,0,0.6115200000000001
0.08539296401431784,0,0,1.2593500732421874,0,0,0.7644
0.08889865700621158,0,0,1.350329736328125,0,0,0.7644
0.09240227501140907,0,0,1.149216796875,0,0,0.91728
0.09593032000702806,0,0,1.3766659545898436,0,0,1.07016
0.09946549401502125,0,0,1.3455413330078123,0,0,0.6115200000000001
0.10309175899601541,0,0,1.3551181396484375,0,0,0.99372
0.10612345801200718,0,0,1.369483349609375,0,0,1.1465999999999998
0.10891662401263602,0,0,1.139639990234375,0,0,0.45864
0.11193784201168455,0,0,1.2617442749023438,0,0,0.7644
0.11491980100981891,0,0,1.4437036010742186,0,0,0.7644
0.11818544199923053,0,0,1.4101847778320311,0,0,0.99372
0.1213385839946568,0,0,1.3048399047851562,0,0,1.07016
0.12427632202161476,0,0,1.3335703247070312,0,0,0.91728
0.12714193100691773,0,0,1.4604630126953124,0,0,0.84084
0.12992746700183488,0,0,1.189918225097656,0,0,0.84084
0.1327332060027402,0,0,1.0821791503906248,0,0,0.7644
0.13552576099755242,0,0,1.3814543579101561,0,0,0.84084
0.13836496300064027,0,0,1.2904746948242187,0,0,0.99372
0.1411650360096246,0,0,1.2138602416992186,0,0,0.99372
0.1439657199953217,0,0,1.1851298217773436,0,0,0.84084
0.14676510699791834,0,0,1.5227122558593749,0,0,0.91728
0.1495615320163779,0,0,1.4891934326171874,0,0,0.6115200000000001
0.1523607900016941,0,0,1.2234370483398436,0,0,0.84084
0.15519404801307246,0,0,1.1013327636718748,0,0,0.68796
0.15799260200583376,0,0,1.5275006591796874,0,0,0.84084
0.16077884202240966,0,0,1.4796166259765624,0,0,0.7644
0.16359410001314245,0,0,1.4891934326171874,0,0,0.7644
0.16640239499974996,0,0,1.2234370483398436,0,0,0.99372
0.16923089302144945,0,0,1.3144167114257812,0,0,1.1465999999999998
0.17203713301569223,0,0,1.3862427612304686,0,0,-8.7906
0.17484124301699921,0,0,1.3120225097656248,0,0,0.53508
0.17763883402221836,0,0,1.3623007446289062,0,0,0.84084
0.1804418510000687,0,0,1.3192051147460937,0,0,1.07016
0.18324038700666279,0,0,1.2665326782226562,0,0,0.68796
0.1860381820006296,0,0,1.2785036865234374,0,0,0.99372
0.18885442201280966,0,0,1.3048399047851562,0,0,0.45864
0.1916538650111761,0,0,1.2210428466796874,0,0,0.91728
0.19445273399469443,0,0,1.2425906616210938,0,0,1.1465999999999998
0.19724973299889825,0,0,1.1947066284179686,0,0,0.68796
0.2000484169984702,0,0,1.2952630981445312,0,0,0.7644
0.20287991600343958,0,0,1.3215993164062498,0,0,1.1465999999999998
0.20567800701246597,0,0,1.0845733520507812,0,0,0.84084
0.20847465400584042,0,0,1.2617442749023438,0,0,0.45864
0.21127391202026047,0,0,1.407790576171875,0,0,0.6115200000000001
0.214109243999701,0,0,1.2593500732421874,0,0,0.84084
0.21690829799626954,0,0,1.2330138549804688,0,0,0.68796
0.2197058160090819,0,0,1.2785036865234374,0,0,0.68796
0.2225063510122709,0,0,1.5155296508789062,0,0,0.84084
0.22530105401529,0,0,1.2473790649414063,0,0,0.7644
0.22809896001126617,0,0,1.2569558715820313,0,0,0.99372
0.23089968101703562,0,0,1.2785036865234374,0,0,0.53508
0.23369575399556197,0,0,1.4413093994140624,0,0,0.91728
0.23649340099655092,0,0,1.3168109130859373,0,0,1.07016
0.2392966220213566,0,0,1.5083470458984374,0,0,0.6115200000000001
0.2421373980178032,0,0,1.3287819213867187,0,0,0.68796
0.24493934199563228,0,0,1.5251064575195312,0,0,0.84084
0.24774867400992662,0,0,1.235408056640625,0,0,1.07016
0.2505877460062038,0,0,1.0965443603515623,0,0,0.91728
0.2533856340160128,0,0,1.3455413330078123,0,0,0.6115200000000001
0.25620126200374216,0,0,1.455674609375,0,0,0.99372
0.25902039001812227,0,0,1.2904746948242187,0,0,0.6115200000000001
0.26181613001972437,0,0,1.2282254516601563,0,0,0.6115200000000001
0.26461511000525206,0,0,1.4101847778320311,0,0,0.68796
0.26741288701305166,0,0,1.419761584472656,0,0,0.7644
0.27021246001822874,0,0,1.1133037719726562,0,0,0.99372
0.2730098660103977,0,0,1.2737152832031249,0,0,0.6115200000000001
0.275807624013396,0,0,1.2689268798828124,0,0,0.6115200000000001
0.27861069701611996,0,0,1.4700398193359374,0,0,0.7644
0.28140714002074674,0,0,1.2378022583007813,0,0,0.7644
0.28420747199561447,0,0,1.0941501586914062,0,0,0.91728
0.28701802701107226,0,0,1.47482822265625,0,0,0.99372
0.2898132660193369,0,0,1.4796166259765624,0,0,0.6115200000000001
0.29261163499904796,0,0,1.1947066284179686,0,0,0.6115200000000001
0.2954099120106548,0,0,1.3575123413085937,0,0,1.1465999999999998
0.2982152439944912,0,0,1.5203180541992187,0,0,1.07016
0.3010169280169066,0,0,1.4939818359375,0,0,1.07016
0.303828408010304,0,0,1.3239935180664062,0,0,0.6115200000000001
0.30695408800966106,0,0,1.2401964599609374,0,0,0.7644
0.3101157670025714,0,0,1.2497732666015624,0,0,0.7644
0.3132354650006164,0,0,1.2569558715820313,0,0,0.68796
0.31635197802097537,0,0,1.369483349609375,0,0,1.1465999999999998
0.31946778800920583,0,0,1.4772224243164063,0,0,1.2994800000000002
0.32257676401059143,0,0,1.2378022583007813,0,0,0.91728
0.32566951800254174,0,0,1.149216796875,0,0,0.68796
0.3287750860035885,0,0,1.2401964599609374,0,0,0.84084
0.33187558100325987,0,0,1.3072341064453123,0,0,0.99372
0.3349863170005847,0,0,1.3215993164062498,0,0,0.53508
0.33810323700890876,0,0,1.3479355346679687,0,0,0.91728
0.34121675000642426,0,0,1.3144167114257812,0,0,0.91728
0.3443309480207972,0,0,1.1133037719726562,0,0,0.99372
0.34744398001930676,0,0,1.1109095703125,0,0,0.68796
0.350580604019342,0,0,1.2904746948242187,0,0,0.7644
0.3536924130166881,0,0,1.3024457031249999,0,0,0.84084
0.3568049629975576,0,0,1.2880804931640624,0,0,0.99372
0.3599198650044855,0,0,1.3718775512695311,0,0,0.6115200000000001
0.36303563800174743,0,0,1.3670891479492187,0,0,1.07016
0.3661545020004269,0,0,1.1180921752929687,0,0,0.91728
0.3724784530058969,0,0,1.4030021728515625,0,0,1.07016
0.3756133730057627,0,0,1.2593500732421874,0,0,0.99372
0.3787353679945227,0,0,1.2904746948242187,0,0,0.6115200000000001
0.38185332500142977,0,0,1.1324573852539062,0,0,0.6115200000000001
0.38497280099545605,0,0,1.2928688964843749,0,0,0.84084
0.38809168501757085,0,0,1.2952630981445312,0,0,1.2230400000000001
0.3912114940176252,0,0,1.3215993164062498,0,0,0.68796
0.39437359900330193,0,0,1.4772224243164063,0,0,1.07016
0.3974958710023202,0,0,1.3263877197265623,0,0,0.91728
0.40061201399657875,0,0,1.2306196533203124,0,0,0.6115200000000001
0.4037481750128791,0,0,1.2401964599609374,0,0,1.1465999999999998
0.40686700202059,0,0,1.2713210815429687,0,0,0.68796
0.409979515010491,0,0,1.35990654296875,0,0,0.68796
0.4130946950172074,0,0,1.2521674682617188,0,0,1.2230400000000001
0.41621104200021364,0,0,1.235408056640625,0,0,0.84084
0.4193287210073322,0,0,1.2952630981445312,0,0,0.6115200000000001
0.4224457530071959,0,0,1.0893617553710937,0,0,0.84084
0.42556013600551523,0,0,1.2856862915039062,0,0,1.2230400000000001
0.42868070502299815,0,0,1.2617442749023438,0,0,0.84084
0.43180016201222315,0,0,1.0917559570312498,0,0,0.91728
0.4349184159946162,0,0,1.3024457031249999,0,0,0.91728
0.4380332620057743,0,0,1.4101847778320311,0,0,0.84084
0.4411845710128546,0,0,1.1348515869140625,0,0,0.7644
0.4443063060170971,0,0,1.149216796875,0,0,0.53508
0.44823662302223966,0,0,1.3958195678710936,0,0,0.99372
0.45138072801637463,0,0,1.2473790649414063,0,0,1.07016
0.45448446401860565,0,0,1.2234370483398436,0,0,0.84084
0.4577342900156509,0,0,1.35990654296875,0,0,0.6115200000000001
0.4612674640084151,0,0,1.455674609375,0,0,1.1465999999999998
0.46444068002165295,0,0,1.1947066284179686,0,0,1.07016
0.46754534100182354,0,0,1.1635820068359375,0,0,0.7644
0.4706602990045212,0,0,1.350329736328125,0,0,0.68796
0.47377795999636874,0,0,1.0797849487304687,0,0,0.91728
0.4768953059974592,0,0,1.1133037719726562,0,0,0.68796
0.4800151149975136,0,0,1.4915876342773438,0,0,1.07016
0.4831829979957547,0,0,1.5131354492187499,0,0,0.84084
0.4862831410137005,0,0,1.350329736328125,0,0,1.07016
0.4894803010101896,0,0,1.3287819213867187,0,0,0.7644
0.49258761102100834,0,0,1.35990654296875,0,0,0.45864
0.49576016000355594,0,0,1.1731588134765625,0,0,0.99372
0.49885693201213144,0,0,1.2689268798828124,0,0,1.1465999999999998
0.5019585200061556,0,0,1.4987702392578124,0,0,0.91728
0.5139226159953978,0,0,1.2401964599609374,0,0,0.07644000000000001
0.517822674009949,0,0,1.3718775512695311,0,0,0.84084
0.5206192470213864,0,0,1.3192051147460937,0,0,0.91728
0.5234028749982826,0,0,1.2665326782226562,0,0,0.7644
0.5262174660165329,0,0,1.24498486328125,0,0,1.07016
0.5289997619984206,0,0,1.2282254516601563,0,0,0.6115200000000001
0.531784779013833,0,0,1.2689268798828124,0,0,1.45236
0.5345707040105481,0,0,1.448492004394531,0,0,0.91728
0.5373488890181761,0,0,1.3670891479492187,0,0,0.91728
0.5401318140211515,0,0,1.1540052001953125,0,0,0.99372
0.5433578070078511,0,0,1.3766659545898436,0,0,1.07016
0.5464127089944668,0,0,1.3575123413085937,0,0,0.99372
0.5491968569986057,0,0,1.3024457031249999,0,0,0.68796
0.5519979480013717,0,0,1.218648645019531,0,0,0.68796
0.5547966320009436,0,0,1.3072341064453123,0,0,0.99372
0.557619686005637,0,0,1.22583125,0,0,0.7644
0.56041685200762,0,0,1.22583125,0,0,0.91728
0.5632142210088205,0,0,1.199495031738281,0,0,1.07016
0.5660097940126434,0,0,1.47482822265625,0,0,0.7644
0.5688062740082387,0,0,1.5179238525390624,0,0,0.91728
0.5716021429980174,0,0,1.2641384765625,0,0,0.91728
0.5743980310217012,0,0,1.2737152832031249,0,0,0.99372
0.577210251998622,0,0,1.4317325927734375,0,0,1.2994800000000002
0.5800377690175083,0,0,1.3239935180664062,0,0,1.1465999999999998
0.5828336940030567,0,0,1.3575123413085937,0,0,0.91728
0.5863733120204415,0,0,1.3718775512695311,0,0,0.84084
0.5892242730187718,0,0,1.2641384765625,0,0,0.84084
0.592029920022469,0,0,1.1013327636718748,0,0,0.53508
0.5948279930162244,0,0,1.2641384765625,0,0,0.91728
0.5976207880012225,0,0,1.3000515014648437,0,0,1.2230400000000001
0.6004177870054264,0,0,1.2306196533203124,0,0,1.1465999999999998
0.6045844340114854,0,0,1.3239935180664062,0,0,1.07016
0.6074434879992623,0,0,1.47482822265625,0,0,0.68796
0.6102513570222072,0,0,1.2401964599609374,0,0,0.84084
0.6130520040169358,0,0,1.3623007446289062,0,0,0.7644
0.6158600400085561,0,0,1.1635820068359375,0,0,-8.7906
0.6187159450200852,0,0,1.350329736328125,0,0,0.99372
0.6227387420076411,0,0,1.4796166259765624,0,0,0.68796
0.6255315740127116,0,0,1.1540052001953125,0,0,0.84084
0.6283306289988104,0,0,1.3766659545898436,0,0,1.1465999999999998
0.631121628015535,0,0,1.3120225097656248,0,0,0.53508
0.6338945900206454,0,0,1.2042834350585936,0,0,0.84084
0.6366872370126657,0,0,1.3623007446289062,0,0,0.68796
0.639478605997283,0,0,1.2521674682617188,0,0,0.6115200000000001
0.642274179001106,0,0,1.3431471313476562,0,0,1.07016
0.6451270109973848,0,0,1.2114660400390624,0,0,-8.867040000000001
0.6479474719963036,0,0,1.2018892333984375,0,0,0.6115200000000001
0.650742452009581,0,0,1.3072341064453123,0,0,0.99372
0.6535305810102727,0,0,1.2689268798828124,0,0,0.68796
0.6563071169948671,0,0,1.1133037719726562,0,0,1.1465999999999998
0.6590943390037864,0,0,1.3048399047851562,0,0,0.84084
0.6618812630185857,0,0,1.5011644409179687,0,0,0.68796
0.6646701330028009,0,0,1.2593500732421874,0,0,0.99372
0.6674744650081266,0,0,1.1875240234375,0,0,0.7644
0.6702623710152693,0,0,1.3000515014648437,0,0,0.84084
0.6730330559948925,0,0,1.429338391113281,0,0,0.99372
0.6758520170114934,0,0,1.419761584472656,0,0,1.07016
0.6786525899951812,0,0,1.3120225097656248,0,0,0.91728
0.6814435520209372,0,0,1.2737152832031249,0,0,0.84084
0.6842351439991035,0,0,1.5658078857421873,0,0,0.84084
0.6870189570181537,0,0,1.484405029296875,0,0,1.2230400000000001
0.6897886049991939,0,0,1.3000515014648437,0,0,0.91728
0.6925783450133167,0,0,1.0869675537109373,0,0,1.07016
0.6953650290088262,0,0,1.4987702392578124,0,0,0.91728
0.698204397020163,0,0,1.2713210815429687,0,0,0.91728
0.7009878780227154,0,0,1.35990654296875,0,0,0.99372
0.7039001900120638,0,0,1.2641384765625,0,0,1.07016
0.7067566330078989,0,0,1.2928688964843749,0,0,0.91728
0.7098799789964687,0,0,1.0869675537109373,0,0,0.99372
0.7130317139963154,0,0,1.1037269653320312,0,0,0.91728
0.7161271160002798,0,0,1.5107412475585937,0,0,0.84084
0.7192202220030595,0,0,1.388636962890625,0,0,0.68796
0.7223337159957737,0,0,1.2737152832031249,0,0,0.91728
0.7254181190219242,0,0,1.35990654296875,0,0,0.68796
0.728503410005942,0,0,1.369483349609375,0,0,0.6115200000000001
0.731607627007179,0,0,1.1133037719726562,0,0,0.7644
0.7347133810108062,0,0,1.2904746948242187,0,0,0.7644
0.7378124500100967,0,0,1.4939818359375,0,0,0.84084
0.7409419070172589,0,0,1.3479355346679687,0,0,1.1465999999999998
0.7440460130164865,0,0,1.1851298217773436,0,0,0.68796
0.7471508040034678,0,0,1.1061211669921875,0,0,0.84084
0.7502534090017434,0,0,1.3646949462890625,0,0,0.7644
0.7533567930222489,0,0,1.2785036865234374,0,0,0.99372
0.7564591210102662,0,0,1.3263877197265623,0,0,0.68796
0.7595609120035078,0,0,1.4628572143554686,0,0,0.99372
0.7626647220167797,0,0,1.3287819213867187,0,0,1.45236
0.7657653640198987,0,0,1.149216796875,0,0,0.3822
0.768963580019772,0,0,1.4149731811523436,0,0,1.1465999999999998
0.772998266009381,0,0,1.4508862060546874,0,0,1.1465999999999998
0.7762405550165568,0,0,1.235408056640625,0,0,0.6115200000000001
0.7793455500213895,0,0,1.350329736328125,0,0,1.37592
0.7824458040122408,0,0,1.3670891479492187,0,0,0.84084
0.7855519650038332,0,0,1.16837041015625,0,0,0.91728
0.7886421080038417,0,0,1.24498486328125,0,0,0.68796
0.7917475840076804,0,0,1.3479355346679687,0,0,1.07016
0.7948571339948103,0,0,1.3168109130859373,0,0,0.91728
0.7979587590089068,0,0,1.2234370483398436,0,0,0.7644
0.8010639010171872,0,0,1.2330138549804688,0,0,0.99372
0.8041951360064559,0,0,1.2473790649414063,0,0,0.68796
0.8073348340112716,0,0,1.1420341918945311,0,0,0.7644
0.8104411440144759,0,0,1.1851298217773436,0,0,1.07016
0.81354089800152,0,0,1.3120225097656248,0,0,1.07016
0.8166440589993726,0,0,1.1085153686523437,0,0,1.07016
0.8197461460076738,0,0,1.1947066284179686,0,0,0.84084
0.8228552710206714,0,0,1.3048399047851562,0,0,0.6115200000000001
0.8259534320095554,0,0,1.3335703247070312,0,0,0.91728
0.8290591670083813,0,0,1.2976572998046874,0,0,0.7644
0.8325493239972275,0,0,1.2689268798828124,0,0,0.6115200000000001
0.8356567260052543,0,0,1.2641384765625,0,0,0.99372
0.8387629610078875,0,0,1.0726023437499999,0,0,0.6115200000000001
0.8418671780091245,0,0,1.3383587280273437,0,0,0.99372
0.8449548770149704,0,0,1.3910311645507811,0,0,0.91728
0.848045427002944,0,0,1.438915197753906,0,0,1.1465999999999998
0.8511449960060418,0,0,1.3670891479492187,0,0,0.7644
0.8542487870145123,0,0,1.3048399047851562,0,0,0.22932
0.8573523370141629,0,0,1.235408056640625,0,0,0.91728
0.8604400730109774,0,0,1.2473790649414063,0,0,0.84084
0.863544271007413,0,0,1.3575123413085937,0,0,1.2230400000000001
0.8666499880200718,0,0,1.4724340209960938,0,0,1.2994800000000002
0.8698099449975416,0,0,1.407790576171875,0,0,0.91728
0.8730338080204092,0,0,1.209071838378906,0,0,1.07016
0.8761445620039012,0,0,1.4915876342773438,0,0,2.2167600000000003
0.879252353013726,0,0,1.7980454467773437,0,0,1.911
0.88235075501143,0,0,1.8842367065429686,0,0,1.68168
0.8854339719982818,0,0,2.896984008789062,0,0,1.45236
0.8885583190131001,0,0,1.668758557128906,0,0,0.84084
0.8916622390097473,0,0,1.5610194824218748,0,0,1.60524
0.8947664010047447,0,0,1.2689268798828124,0,0,1.2994800000000002
0.8978654140082654,0,0,1.8435352783203125,0,0,1.37592
0.9009539640101139,0,0,2.166752502441406,0,0,1.83456
0.9041360690025613,0,0,1.7310078002929687,0,0,1.1465999999999998
0.9072603039967362,0,0,1.7908628417968748,0,0,1.5288
0.9104971860069782,0,0,1.7405846069335937,0,0,0.99372
0.9135838660004083,0,0,1.6711527587890624,0,0,1.45236
0.9166734350146726,0,0,2.1021090576171875,0,0,1.68168
0.919760930002667,0,0,1.5346832641601562,0,0,0.91728
0.9228604990057647,0,0,1.944091748046875,0,0,1.911
0.9266687060007825,0,0,2.114080065917969,0,0,1.68168
0.9297872750030365,0,0,1.1228805786132812,0,0,1.37592
0.9328953060030472,0,0,2.2170307373046874,0,0,1.37592
0.9359903010190465,0,0,1.3718775512695311,0,0,1.75812
0.9390931480156723,0,0,1.8052280517578123,0,0,2.2931999999999997
0.9422236050013453,0,0,2.0254946044921875,0,0,2.14032
0.9453272660030052,0,0,2.501940734863281,0,0,1.2230400000000001
0.9484319089970086,0,0,1.7908628417968748,0,0,1.2230400000000001
0.9515252739947755,0,0,1.649604943847656,0,0,1.45236
0.9546290650032461,0,0,1.2832920898437499,0,0,1.37592
0.9577297820069361,0,0,1.5945383056640625,0,0,1.911
0.9608327030146029,0,0,2.061407629394531,0,0,1.98744
0.9639349380158819,0,0,1.8435352783203125,0,0,0.91728
0.9670491740107536,0,0,2.291250988769531,0,0,1.68168
0.9701546500145923,0,0,1.8363526733398436,0,0,0.7644
0.9732573670044076,0,0,0.6153098266601562,0,0,1.68168
0.9763587130000815,0,0,2.7150246826171873,0,0,2.36964
0.9794608750089537,0,0,1.0965443603515623,0,0,0.68796
0.9825644619995728,0,0,2.1260510742187497,0,0,0.7644
0.985663679020945,0,0,2.5450363647460934,0,0,1.07016
0.9888878939964343,0,0,0.699106884765625,0,0,0.84084
0.9920051289955154,0,0,2.310404602050781,0,0,1.75812
0.995111476018792,0,0,1.5825672973632812,0,0,0.91728
0.9982443960034288,0,0,2.2936451904296873,0,0,1.1465999999999998
1.002573300007498,0,0,1.199495031738281,0,0,1.911
1.005933291016845,0,0,1.637633935546875,0,0,2.36964
1.0091218590096105,0,0,2.1356278808593747,0,0,2.2167600000000003
1.0120200230157934,0,0,1.2713210815429687,0,0,0.68796
1.014938094012905,0,0,1.4604630126953124,0,0,1.911
1.0178552020224743,0,0,1.4030021728515625,0,0,0.91728
1.0207991439965554,0,0,1.2952630981445312,0,0,0.53508
1.023701438010903,0,0,1.8148048583984373,0,0,0.68796
1.0265675650152843,0,0,2.9544448486328125,0,0,2.06388
1.0294279330119025,0,0,1.8219874633789062,0,0,1.60524
1.0322917090088595,0,0,0.86191259765625,0,0,1.911
1.0351170409994666,0,0,2.1021090576171875,0,0,2.90472
1.037933390995022,0,0,1.944091748046875,0,0,2.06388
1.0407485380128492,0,0,0.6416460449218749,0,0,-1.37592
1.0435733890044503,0,0,1.656787548828125,0,0,1.68168
1.046390239003813,0,0,3.478775012207031,0,0,3.2869200000000003
1.0492387740232516,0,0,0.8355763793945312,0,0,-0.6115200000000001
1.052074180013733,0,0,0.009576806640625,0,0,-0.15288000000000002
1.0548897900152951,0,0,3.0909143432617188,0,0,3.51624
1.057728029001737,0,0,2.521094348144531,0,0,1.5288
1.0605701380118262,0,0,-0.15562310791015624,0,0,-0.3822
1.0634352659981232,0,0,3.835511059570312,0,0,3.21048
1.066386003018124,0,0,2.375048046875,0,0,-8.7906
1.0693015000142623,0,0,-0.40462008056640625,0,0,-0.6115200000000001
1.0722442010010127,0,0,2.6910826660156246,0,0,0.0
1.0751773280208,0,0,2.0542250244140625,0,0,0.6115200000000001
1.078028678020928,0,0,-1.1875240234375,0,0,0.30576000000000003
1.0822810090030544,0,0,2.6575638427734374,0,0,1.1465999999999998
1.085196469008224,0,0,-0.38307226562499996,0,0,0.84084
1.0881332989956718,0,0,1.649604943847656,0,0,0.99372
1.0910736290097702,0,0,2.4684219116210935,0,0,0.84084
1.0939431270235218,0,0,-0.8355763793945312,0,0,9.47856
1.096886050014291,0,0,2.039859814453125,0,0,2.06388
1.0997698630089872,0,0,1.7286135986328124,0,0,-0.15288000000000002
1.1027197480143514,0,0,-0.3016694091796875,0,0,0.7644
1.1056337080080993,0,0,3.153163586425781,0,0,1.07016
1.1085980939969886,0,0,0.6871358764648438,0,0,-0.3822
1.1107332310057245,0,0,-0.6344634399414062,0,0,0.07644000000000001
1.1121226200193632,0,0,0.7613561279296874,0,0,1.2230400000000001
1.1135038970096502,0,0,2.5234885498046875,0,0,0.3822
1.1148880819964688,0,0,2.29843359375,0,0,1.2994800000000002
1.116268026002217,0,0,0.9624690673828125,0,0,1.911
1.1176477300177794,0,0,0.16280571289062498,0,0,-0.30576000000000003
1.1190732100221794,0,0,0.19393033447265623,0,0,1.2230400000000001
1.1205274130043108,0,0,2.1547814941406247,0,0,2.14032
1.1219136340077966,0,0,2.3774422485351563,0,0,1.83456
1.1232975790044293,0,0,1.4724340209960938,0,0,0.7644
1.1246768929995596,0,0,0.9337386474609375,0,0,0.45864
1.1260562450042926,0,0,0.3711012573242187,0,0,0.0
1.127445707010338,0,0,2.0638018310546875,0,0,0.22932
1.1288508920115419,0,0,2.0278888061523435,0,0,2.14032
1.13023991000955,0,0,1.6112977172851561,0,0,1.37592
1.131624872010434,0,0,0.9193734375,0,0,0.45864
1.1330103900108952,0,0,0.11252747802734374,0,0,-0.6115200000000001
1.1343993530026637,0,0,-0.05985504150390625,0,0,0.84084
1.1357868160121143,0,0,1.4149731811523436,0,0,0.6115200000000001
1.1371720739989541,0,0,2.85388837890625,0,0,1.75812
1.1385584630188532,0,0,2.4492682983398435,0,0,2.2167600000000003
1.1399420920060948,0,0,1.8315642700195311,0,0,2.36964
1.1413258330139797,0,0,-0.040701428222656245,0,0,-0.45864
1.1427256099996157,0,0,0.023942016601562498,0,0,0.22932
1.1441312200040556,0,0,1.8124106567382812,0,0,0.3822
1.1455169609980658,0,0,2.7748797241210936,0,0,0.91728
1.1469029790023342,0,0,2.7581203125,0,0,1.45236
1.1482887559977826,0,0,1.2042834350585936,0,0,1.68168
1.1496748110221233,0,0,-0.23702596435546874,0,0,-0.15288000000000002
1.1510638479958288,0,0,-0.7206546997070312,0,0,0.15288000000000002
1.1524509029986802,0,0,0.9696516723632812,0,0,0.7644
1.1538361800194252,0,0,1.8602946899414061,0,0,0.6115200000000001
1.1552227540232707,0,0,1.944091748046875,0,0,0.91728
1.1566082540084608,0,0,1.5131354492187499,0,0,1.5288
1.1579938089998905,0,0,0.7876923461914062,0,0,0.53508
1.1593793450156227,0,0,1.7669208251953124,0,0,0.68796
1.1607649750076234,0,0,1.388636962890625,0,0,1.5288
1.1621504000213463,0,0,1.8243816650390623,0,0,1.07016
1.1635360479995143,0,0,1.687912170410156,0,0,-0.22932
1.1649220660037827,0,0,1.3311761230468748,0,0,0.0
1.1663099550059997,0,0,0.44532150878906246,0,0,0.45864
1.1676950470136944,0,0,1.675941162109375,0,0,0.30576000000000003
1.169080676016165,0,0,1.6112977172851561,0,0,1.1465999999999998
1.1704660830146167,0,0,1.5658078857421873,0,0,0.99372
1.1718519350106362,0,0,1.1875240234375,0,0,0.6115200000000001
1.173238618997857,0,0,0.1388636962890625,0,0,-0.53508
1.1746250260039233,0,0,0.296881005859375,0,0,0.99372
1.1760154330113437,0,0,1.8698714965820311,0,0,1.45236
1.1774011920206249,0,0,2.4396914916992185,0,0,1.75812
1.1787868399987929,0,0,2.1906945190429687,0,0,1.45236
1.1801724690012634,0,0,1.209071838378906,0,0,1.45236
1.1815580800175667,0,0,0.39743747558593745,0,0,-0.6115200000000001
1.1829442650196142,0,0,0.3136404174804687,0,0,0.7644
1.1843295239959843,0,0,1.927332336425781,0,0,0.84084
1.1857148940034676,0,0,2.1260510742187497,0,0,1.1465999999999998
1.187380351999309,0,0,1.2497732666015624,0,0,0.53508
1.1887677220220212,0,0,0.8690952026367187,0,0,0.22932
1.1901580179983284,0,0,0.1771709228515625,0,0,0.0
1.1915449810039718,0,0,1.7429788085937499,0,0,0.30576000000000003
1.192930591001641,0,0,1.5275006591796874,0,0,1.5288
1.1943169060104992,0,0,1.2497732666015624,0,0,0.91728
1.195701368007576,0,0,0.9983820922851562,0,0,0.91728
1.1970866640040185,0,0,0.3950432739257812,0,0,0.0
1.198473256023135,0,0,0.9121908325195311,0,0,1.2994800000000002
1.199857775005512,0,0,2.741360900878906,0,0,1.5288
1.2012430330214556,0,0,2.5378537597656248,0,0,1.911
1.2026292000082321,0,0,1.8650830932617186,0,0,0.99372
1.2040145700157154,0,0,0.8379705810546875,0,0,0.30576000000000003
1.2053995880123693,0,0,0.1580173095703125,0,0,-1.07016
1.206787939008791,0,0,0.9504980590820312,0,0,0.7644
1.2081735690007918,0,0,2.243366955566406,0,0,1.60524
1.2095591610122938,0,0,2.262520568847656,0,0,1.5288
1.21094556801836,0,0,1.3646949462890625,0,0,0.6115200000000001
1.212330678012222,0,0,-0.19153613281249998,0,0,0.84084
1.2137178080156446,0,0,-0.4477157104492187,0,0,-0.91728
1.2151049000094645,0,0,2.31758720703125,0,0,1.1465999999999998
1.2164903810189571,0,0,2.5522189697265625,0,0,2.06388
1.2178756770153996,0,0,2.8227637573242186,0,0,1.07016
1.2192613430088386,0,0,1.4700398193359374,0,0,0.53508
1.2206468060030602,0,0,0.7900865478515624,0,0,1.37592
1.2220325090165716,0,0,0.0047884033203125,0,0,0.15288000000000002
1.2234178979997523,0,0,1.7573440185546874,0,0,0.22932
1.2248033600044437,0,0,2.0278888061523435,0,0,1.45236
1.2261898230062798,0,0,2.032677209472656,0,0,1.1465999999999998
1.2275745079969056,0,0,1.1228805786132812,0,0,0.45864
1.2289596920018084,0,0,0.32561142578124996,0,0,-0.15288000000000002
1.230345785006648,0,0,0.0430956298828125,0,0,0.68796
1.2317308030033018,0,0,1.9321207397460936,0,0,1.1465999999999998
1.233116654009791,0,0,2.5737667846679684,0,0,1.5288
1.2345038939965889,0,0,1.9919757812499999,0,0,1.37592
1.235887653019745,0,0,1.2210428466796874,0,0,0.6115200000000001
1.2372732460207772,0,0,0.1771709228515625,0,0,-0.3822
1.2386582450126298,0,0,0.8164227661132812,0,0,1.45236
1.240041762997862,0,0,2.269703173828125,0,0,1.45236
1.2414256700139958,0,0,2.4684219116210935,0,0,1.1465999999999998
1.242824022017885,0,0,1.8315642700195311,0,0,0.68796
1.2442117440223228,0,0,-0.00239420166015625,0,0,0.22932
1.245598391018575,0,0,-0.14604630126953125,0,0,-1.2230400000000001
1.2469852979993448,0,0,2.2936451904296873,0,0,0.91728
1.2484214270079974,0,0,2.748543505859375,0,0,2.36964
1.249829000007594,0,0,2.607285607910156,0,0,2.2167600000000003
1.2512118520098738,0,0,0.5434837768554687,0,0,0.15288000000000002
1.2525909260148183,0,0,-0.08140285644531249,0,0,0.07644000000000001
1.253971703001298,0,0,0.08858546142578125,0,0,-0.53508
1.255352666019462,0,0,2.221819140625,0,0,0.3822
1.2567319060035516,0,0,3.0526071166992184,0,0,2.06388
1.2581135170185007,0,0,2.6982652709960937,0,0,1.98744
1.2594931280182209,0,0,1.448492004394531,0,0,1.45236
1.2608715899987146,0,0,0.26815058593749996,0,0,-9.32568
1.262256497022463,0,0,-0.7302315063476562,0,0,0.0
1.263642792997416,0,0,1.4173673828125,0,0,0.07644000000000001
1.2650281079986598,0,0,3.3542765258789062,0,0,1.83456
1.2664793840085622,0,0,2.5953145996093747,0,0,1.68168
1.2678685870196205,0,0,1.678335363769531,0,0,1.37592
1.2692549019993749,0,0,-1.0965443603515623,0,0,-0.84084
1.2706432720005978,0,0,-0.565031591796875,0,0,0.30576000000000003
1.2720300859946292,0,0,2.1835119140624997,0,0,1.37592
1.2734156039950904,0,0,3.0406361083984375,0,0,1.5288
1.2748012520023622,0,0,2.3391350219726563,0,0,1.1465999999999998
1.2761874739953782,0,0,0.6584054565429687,0,0,0.91728
1.2775729370187037,0,0,-0.21068974609375,0,0,-0.53508
1.2789599730167538,0,0,1.599326708984375,0,0,0.7644
1.2803456580149941,0,0,2.2768857788085937,0,0,2.06388
1.281731138995383,0,0,2.882618798828125,0,0,1.45236
1.2831168420088943,0,0,1.3623007446289062,0,0,1.2230400000000001
1.2845022680121474,0,0,0.5817910034179687,0,0,1.1465999999999998
1.2858872310025617,0,0,-0.612915625,0,0,8.7906
1.2872731930110604,0,0,1.4221557861328125,0,0,0.22932
1.2886589520203415,0,0,2.446874096679687,0,0,1.83456
1.2900448410073295,0,0,2.5378537597656248,0,0,1.68168
1.2914304510049988,0,0,1.7381904052734374,0,0,1.45236
1.2928154320106842,0,0,0.44532150878906246,0,0,0.0
1.2942020799964666,0,0,-0.9241618408203125,0,0,-0.99372
1.2955883020185865,0,0,1.0438719238281249,0,0,0.22932
1.296973913005786,0,0,3.4332851806640625,0,0,1.37592
1.2983601720188744,0,0,3.1196447631835937,0,0,1.68168
1.2997451340197586,0,0,2.5905261962890624,0,0,2.14032
1.3011301149963401,0,0,-0.86191259765625,0,0,0.53508
1.302531818015268,0,0,-1.22583125,0,0,0.3822
1.3039190960116684,0,0,1.5490484741210937,0,0,0.68796
1.305304966022959,0,0,3.201047619628906,0,0,1.37592
1.3066915390081704,0,0,3.162740393066406,0,0,1.37592
1.3080769090156537,0,0,1.6639701538085936,0,0,1.75812
1.3094627610116731,0,0,0.062249243164062495,0,0,-0.45864
1.310854964016471,0,0,-0.1771709228515625,0,0,9.631440000000001
1.312241575011285,0,0,1.4030021728515625,0,0,1.5288
1.3136269630049355,0,0,2.4301146850585935,0,0,0.6115200000000001
1.3150135180039797,0,0,1.8339584716796873,0,0,1.2994800000000002
1.3163990550092421,0,0,0.9217676391601562,0,0,0.84084
1.3177842030127067,0,0,-0.00718260498046875,0,0,-0.45864
1.3191693510161713,0,0,1.2497732666015624,0,0,0.0
1.3206043870013673,0,0,2.176329309082031,0,0,1.98744
1.3219927010068204,0,0,2.003946789550781,0,0,1.75812
1.3233795150008518,0,0,1.7836802368164062,0,0,1.5288
1.3247969590011053,0,0,0.86191259765625,0,0,-9.09636
1.3262022550043184,0,0,-0.02154781494140625,0,0,0.0
1.32758949502022,0,0,1.448492004394531,0,0,0.68796
1.328975384007208,0,0,2.8945898071289062,0,0,2.14032
1.3303615130134858,0,0,2.147598889160156,0,0,1.83456
1.3317469570029061,0,0,1.848323681640625,0,0,1.2230400000000001
1.3331345490005333,0,0,-0.5363011718749999,0,0,-0.3822
1.3345269370183814,0,0,-0.45010991210937495,0,0,-0.3822
1.335913585004164,0,0,1.924938134765625,0,0,0.68796
1.3372996399994008,0,0,2.6958710693359373,0,0,0.53508
1.3386846590146888,0,0,2.3582886352539063,0,0,1.98744
1.3400685290107504,0,0,1.446097802734375,0,0,2.14032
1.3414521390222944,0,0,-0.1005564697265625,0,0,-0.22932
1.3428513050021138,0,0,0.24181436767578124,0,0,-0.22932
1.3442442119994666,0,0,1.4508862060546874,0,0,0.3822
1.3456312490161508,0,0,2.750937707519531,0,0,0.68796
1.347014137019869,0,0,2.6001030029296874,0,0,1.75812
1.3483927480119746,0,0,1.70467158203125,0,0,1.911
1.3497710630181246,0,0,0.28969840087890625,0,0,0.0
1.352359342010459,0,0,0.7876923461914062,0,0,0.68796
1.3537475830235053,0,0,1.7788918334960937,0,0,0.22932
1.3551346930034924,0,0,2.123656872558594,0,0,1.07016
1.3565211560053285,0,0,1.5251064575195312,0,0,1.83456
1.3579079520131927,0,0,0.3184288208007812,0,0,0.30576000000000003
1.3592940439993981,0,0,1.5131354492187499,0,0,1.60524
1.3606806180032436,0,0,2.2553379638671873,0,0,2.36964
1.362081636005314,0,0,1.3479355346679687,0,0,1.37592
1.363468727999134,0,0,1.0893617553710937,0,0,0.22932
1.364855598018039,0,0,0.1005564697265625,0,0,0.0
1.3662424310168717,0,0,0.29448680419921874,0,0,-0.45864
1.3676291340088937,0,0,1.8100164550781248,0,0,0.22932
1.369015060015954,0,0,2.7174188842773437,0,0,1.5288
1.3704392810177524,0,0,1.886630908203125,0,0,2.2931999999999997
1.371904428000562,0,0,0.2561795776367187,0,0,1.1465999999999998
1.373297279002145,0,0,-0.6392518432617187,0,0,-0.53508
1.3746925930026919,0,0,-0.354341845703125,0,0,0.0
1.3760797410213854,0,0,2.1883003173828124,0,0,0.91728
1.377466407022439,0,0,3.0430303100585934,0,0,1.60524
1.37885357401683,0,0,1.905784521484375,0,0,1.60524
1.380238999001449,0,0,1.4006079711914061,0,0,1.60524
1.3816247580107301,0,0,0.612915625,0,0,-0.6115200000000001
1.3830117210163735,0,0,0.9552864624023437,0,0,-0.15288000000000002
1.3843979240045883,0,0,1.7357962036132812,0,0,1.1465999999999998
1.3857837750110775,0,0,2.473210314941406,0,0,0.53508
1.3871703119948506,0,0,1.675941162109375,0,0,0.6115200000000001
1.3885556450113654,0,0,0.9720458740234375,0,0,1.07016
1.3899414040206466,0,0,-0.0526724365234375,0,0,-0.22932
1.3913298660190776,0,0,1.0414777221679687,0,0,0.15288000000000002
1.3927159210143145,0,0,1.678335363769531,0,0,0.99372
1.3941026060201693,0,0,1.599326708984375,0,0,0.91728
1.3954884390113875,0,0,1.5873557006835937,0,0,1.1465999999999998
1.3968742540164385,0,0,0.8667010009765624,0,0,1.45236
1.398260364017915,0,0,0.9074024291992187,0,0,1.2994800000000002
1.39964545701514,0,0,1.5011644409179687,0,0,0.91728
1.4010310860176105,0,0,1.8818425048828125,0,0,1.1465999999999998
1.4024169000040274,0,0,1.22583125,0,0,0.84084
1.4038416590192355,0,0,0.7781155395507812,0,0,0.0
1.4052279170136899,0,0,0.6488286499023437,0,0,0.0
1.4066165840195026,0,0,0.9145850341796874,0,0,1.2230400000000001
1.4080020830151625,0,0,2.176329309082031,0,0,1.68168
1.4093886010232382,0,0,2.2002713256835937,0,0,1.45236
1.4107742860214785,0,0,0.74699091796875,0,0,1.5288
1.4121596380136907,0,0,-0.10773907470703124,0,0,0.68796
1.413545804010937,0,0,-0.22266075439453123,0,0,-0.68796
1.4149326000188012,0,0,2.142810485839844,0,0,0.99372
1.4163177290174644,0,0,3.105279553222656,0,0,2.06388
1.4177028950070962,0,0,3.7924154296875,0,0,1.83456
1.4190888949960936,0,0,1.5873557006835937,0,0,2.06388
1.4204739690176211,0,0,0.0383072265625,0,0,0.91728
1.421859135007253,0,0,-1.1563994018554686,0,0,-1.1465999999999998
1.4232587460137438,0,0,0.9409212524414062,0,0,-0.22932
1.4246456529945135,0,0,2.499546533203125,0,0,1.60524
1.4260314489947632,0,0,2.817975354003906,0,0,1.5288
1.427417022001464,0,0,1.7956512451171873,0,0,0.45864
1.4288022810069378,0,0,-0.6607996582031249,0,0,0.91728
1.4301898550183978,0,0,-0.5147533569335937,0,0,0.3822
1.4315756320138462,0,0,0.9600748657226562,0,0,0.68796
1.432961020997027,0,0,2.6815058593749996,0,0,1.45236
1.4343495939974673,0,0,2.389413256835937,0,0,1.2230400000000001
1.4357347610057332,0,0,1.0630255371093749,0,0,0.22932
1.4371200750174467,0,0,0.11013327636718749,0,0,0.0
1.438505833997624,0,0,0.5243301635742187,0,0,1.2994800000000002
1.439889260014752,0,0,2.789244934082031,0,0,1.83456
1.4412727410090156,0,0,2.7150246826171873,0,0,1.2230400000000001
1.4427437580015976,0,0,0.7398083129882812,0,0,1.60524
1.4441309420217294,0,0,-0.3711012573242187,0,0,-0.45864
1.4455191270099021,0,0,-0.967257470703125,0,0,-1.37592
1.4469077560061123,0,0,2.138022082519531,0,0,0.53508
1.4482935340201948,0,0,3.27526787109375,0,0,1.911
1.4496798299951479,0,0,3.4165257690429685,0,0,1.5288
1.451066551002441,0,0,0.9026140258789062,0,0,1.45236
1.452452680998249,0,0,-0.5410895751953124,0,0,0.68796
1.453839551017154,0,0,-0.9888052856445312,0,0,-1.2230400000000001
1.455228086997522,0,0,1.3287819213867187,0,0,0.0
1.4566148830053862,0,0,3.356670727539062,0,0,2.4460800000000003
1.458001087012235,0,0,3.4859576171874997,0,0,2.4460800000000003
1.4593875860155094,0,0,2.2290017456054687,0,0,1.83456
1.4607738820195664,0,0,-1.177947216796875,0,0,0.0
1.462162067007739,0,0,-1.5322890624999999,0,0,-0.53508
1.4635493810055777,0,0,0.8092401611328125,0,0,-0.68796
1.4649371030100156,0,0,3.5194764404296874,0,0,1.911
1.4663245099945925,0,0,2.8275521606445313,0,0,1.68168
1.4677100100088865,0,0,0.6703764648437499,0,0,0.3822
1.4690968430077191,0,0,-0.928950244140625,0,0,-0.22932
1.4704849529953208,0,0,-1.0390835205078124,0,0,0.45864
1.4718713790061884,0,0,1.8746598999023436,0,0,0.30576000000000003
1.473258045007242,0,0,2.8802245971679685,0,0,1.5288
1.4746443410112988,0,0,2.6791116577148437,0,0,1.60524
1.4760302850045264,0,0,1.218648645019531,0,0,1.2230400000000001
1.4774165989947505,0,0,-0.29448680419921874,0,0,-0.30576000000000003
1.4788040250132326,0,0,1.0941501586914062,0,0,0.30576000000000003
1.4801904130144976,0,0,2.0973206542968748,0,0,1.2994800000000002
1.4815768760163337,0,0,2.935291235351562,0,0,0.99372
1.482963598013157,0,0,2.1811177124023438,0,0,1.37592
1.4843498010013718,0,0,1.209071838378906,0,0,1.5288
1.485736356000416,0,0,-0.8547299926757812,0,0,-0.68796
1.4873904820124153,0,0,0.70868369140625,0,0,0.15288000000000002
1.4887802410230506,0,0,3.0214824951171875,0,0,2.14032
1.4901684439973906,0,0,2.8131869506835936,0,0,1.98744
1.4915637770027388,0,0,1.9680337646484374,0,0,0.99372
1.492950425017625,0,0,-0.8116343627929687,0,0,-0.6115200000000001
1.4943397020106204,0,0,-1.5897499023437498,0,0,-0.6115200000000001
1.4957266460114624,0,0,2.0087351928710935,0,0,0.45864
1.497113553021336,0,0,3.1507693847656246,0,0,1.98744
1.4985006269998848,0,0,3.327940307617187,0,0,2.2931999999999997
1.4998862190113869,0,0,1.6831237670898436,0,0,2.4460800000000003
1.5012721070088446,0,0,-0.20829554443359374,0,0,-9.40212
1.5026715330022853,0,0,-0.1484405029296875,0,0,-0.68796
1.504059013997903,0,0,2.2649147705078123,0,0,0.22932
1.5054459579987451,0,0,3.9049429077148434,0,0,1.2994800000000002
1.5068283830187283,0,0,2.6048914062499997,0,0,1.98744
1.5082069390045945,0,0,0.9959878906249999,0,0,1.45236
1.5095851609949023,0,0,-1.0271125122070313,0,0,-1.2994800000000002
1.510980216000462,0,0,-0.6081272216796875,0,0,-0.84084
1.5123668820015155,0,0,0.8714894042968749,0,0,1.07016
1.5137528630148154,0,0,3.095702746582031,0,0,1.07016
1.515139455004828,0,0,2.7629087158203123,0,0,2.14032
1.5165247700060718,0,0,2.1547814941406247,0,0,3.21048
1.5179102320107631,0,0,-1.0031704956054688,0,0,-0.15288000000000002
1.5192972689983435,0,0,-0.16280571289062498,0,0,0.0
1.5206839170132298,0,0,2.8850130004882812,0,0,1.98744
1.52208339801291,0,0,3.308786694335937,0,0,2.36964
1.5234856010065414,0,0,2.4947581298828125,0,0,1.1465999999999998
1.524872285022866,0,0,0.48123453369140623,0,0,0.7644
1.5262593410152476,0,0,-0.8978256225585937,0,0,-0.68796
1.5276461180183105,0,0,1.5921441040039062,0,0,-0.53508
1.5290323210065253,0,0,2.365471240234375,0,0,0.3822
1.5304184130218346,0,0,2.2074539306640624,0,0,1.5288
1.5318041540158447,0,0,1.149216796875,0,0,1.37592
1.533189616020536,0,0,0.0909796630859375,0,0,-0.7644
1.5345760790223721,0,0,-0.9720458740234375,0,0,0.6115200000000001
1.535962042020401,0,0,1.9201497314453124,0,0,0.6115200000000001
1.5373475970118307,0,0,2.5330653564453125,0,0,1.1465999999999998
1.5387318190187216,0,0,2.492363928222656,0,0,1.911
1.5401146149961278,0,0,1.89620771484375,0,0,2.4460800000000003
1.5414979290217161,0,0,0.5793968017578125,0,0,-0.7644
1.542905595008051,0,0,0.05027823486328125,0,0,-0.68796
1.5442940950160846,0,0,1.5346832641601562,0,0,1.2994800000000002
1.5456834270153195,0,0,2.93050283203125,0,0,1.1465999999999998
1.547070722997887,0,0,2.094926452636719,0,0,1.2230400000000001
1.548457722994499,0,0,1.2401964599609374,0,0,2.14032
1.549847871006932,0,0,-1.1707646118164061,0,0,-0.84084
1.5512366479961202,0,0,-0.03591302490234375,0,0,-0.45864
1.552624461997766,0,0,2.2960393920898436,0,0,0.99372
1.5540120550140273,0,0,3.1866824096679687,0,0,0.91728
1.555399610020686,0,0,2.779668127441406,0,0,1.83456
1.5567867759964429,0,0,1.3239935180664062,0,0,2.14032
1.5582016270200256,0,0,-0.229843359375,0,0,0.30576000000000003
1.55958971902146,0,0,0.86191259765625,0,0,-0.30576000000000003
1.5609769230068196,0,0,1.4772224243164063,0,0,0.22932
1.5623646810126957,0,0,2.01112939453125,0,0,0.45864
1.5637503850157373,0,0,2.0470424194335934,0,0,0.7644
1.5651370139967185,0,0,1.2282254516601563,0,0,0.0
1.5665459019946866,0,0,0.15083470458984374,0,0,1.68168
1.5679350130085368,0,0,1.3287819213867187,0,0,1.2230400000000001
1.5693221050023567,0,0,1.2569558715820313,0,0,0.99372
1.5707094940007664,0,0,0.9121908325195311,0,0,1.37592
1.572096178017091,0,0,0.9002198242187499,0,0,1.37592
1.5734825110121164,0,0,0.9145850341796874,0,0,-1.2994800000000002
1.5748697520175483,0,0,2.070984436035156,0,0,1.2994800000000002
1.5762563809985295,0,0,3.038241906738281,0,0,2.06388
1.5776422140188515,0,0,2.4109610717773435,0,0,1.68168
1.5790414910006803,0,0,1.6328455322265625,0,0,1.37592
1.5804278239957057,0,0,0.7110778930664062,0,0,1.68168
1.5818249900185037,0,0,-1.0271125122070313,0,0,-0.68796
1.5832140450074803,0,0,0.7709329345703124,0,0,-0.22932
1.5846010259992909,0,0,2.980781066894531,0,0,1.68168
1.585987730009947,0,0,2.710236279296875,0,0,1.2230400000000001
1.5873747110017575,0,0,1.4820108276367188,0,0,0.84084
1.5887606730102561,0,0,-0.09337386474609374,0,0,1.07016
1.5901485990034416,0,0,-0.6081272216796875,0,0,0.22932
1.5915359870123211,0,0,2.1021090576171875,0,0,0.30576000000000003
1.5929223760031164,0,0,2.442085693359375,0,0,1.45236
1.5943097830167972,0,0,2.4013842651367185,0,0,1.5288
1.595695744996192,0,0,1.2569558715820313,0,0,1.1465999999999998
1.5970823930110782,0,0,0.38786066894531246,0,0,-0.22932
1.5984703370195348,0,0,-0.11731588134765625,0,0,1.1465999999999998
1.5998570770025253,0,0,2.233790148925781,0,0,0.3822
1.6012438920151908,0,0,2.379836450195312,0,0,1.2230400000000001
1.602637372998288,0,0,1.3239935180664062,0,0,1.1465999999999998
1.6040310950193089,0,0,0.86191259765625,0,0,1.83456
1.6054675560153555,0,0,0.1580173095703125,0,0,-0.84084
1.606860908010276,0,0,1.235408056640625,0,0,1.07016
1.6082514809968416,0,0,2.166752502441406,0,0,1.5288
1.6096393880143296,0,0,2.4301146850585935,0,0,0.99372
1.6110470540006645,0,0,1.5203180541992187,0,0,0.53508
1.61243386901333,0,0,0.8571241943359375,0,0,1.2994800000000002
1.6138206280011218,0,0,-0.19393033447265623,0,0,-0.6115200000000001
1.615210146002937,0,0,1.4628572143554686,0,0,0.7644
1.616596831008792,0,0,2.8754361938476563,0,0,2.2931999999999997
1.617983941017883,0,0,2.4660277099609376,0,0,1.45236
1.6193705330078956,0,0,1.4532804077148436,0,0,0.91728
1.6207987180096097,0,0,-0.488417138671875,0,0,-0.45864
1.6222670680144802,0,0,-0.8379705810546875,0,0,0.0
1.6236992710037157,0,0,2.6958710693359373,0,0,0.53508
1.6250866040063556,0,0,3.4907460205078125,0,0,1.911
1.626473973999964,0,0,2.906560815429687,0,0,2.2167600000000003
1.627858695021132,0,0,0.6416460449218749,0,0,1.60524
1.62924458400812,0,0,-0.6847416748046875,0,0,-1.45236
1.6306314539979212,0,0,1.0989385620117187,0,0,0.91728
1.632017268013442,0,0,2.482787121582031,0,0,0.53508
1.6334024720126763,0,0,3.3542765258789062,0,0,0.99372
1.6347888419986703,0,0,1.848323681640625,0,0,1.5288
1.6361743040033616,0,0,0.928950244140625,0,0,1.68168
1.6375592300028075,0,0,-1.0295067138671874,0,0,-1.07016
1.6389450630231295,0,0,1.0223241088867188,0,0,0.84084
1.640347506996477,0,0,2.528276953125,0,0,1.83456
1.6417319510073867,0,0,2.559401574707031,0,0,1.1465999999999998
1.6431358020054176,0,0,1.2521674682617188,0,0,1.2230400000000001
1.6445221530157141,0,0,-0.9792284790039062,0,0,0.84084
1.6459161899983883,0,0,-0.8499415893554687,0,0,-0.3822
1.6473044120066334,0,0,1.1348515869140625,0,0,0.07644000000000001
1.6486899110022932,0,0,3.5529952636718747,0,0,1.98744
1.6500911330222152,0,0,3.1100679565429687,0,0,2.36964
1.6514778550190385,0,0,0.6009446166992187,0,0,1.45236
1.652863224997418,0,0,-1.1180921752929687,0,0,-9.01992
1.6542508350103162,0,0,-1.5801730957031248,0,0,0.15288000000000002
1.655636076000519,0,0,2.5067291381835934,0,0,-0.22932
1.657022149011027,0,0,3.5673604736328124,0,0,1.45236
1.6584082600020338,0,0,3.0645781249999997,0,0,1.1465999999999998
1.6597933520097286,0,0,1.5705962890624998,0,0,2.2931999999999997
1.6611968149954919,0,0,-0.21787235107421873,0,0,-0.3822
1.6625865740061272,0,0,-0.2537853759765625,0,0,0.15288000000000002
1.66405631302041,0,0,1.678335363769531,0,0,0.84084
1.6654428119945806,0,0,3.0214824951171875,0,0,0.3822
1.6668291820096783,0,0,2.243366955566406,0,0,2.06388
1.668219829996815,0,0,1.4173673828125,0,0,2.06388
1.6696089589968324,0,0,-1.4796166259765624,0,0,-0.68796
1.6709966259950306,0,0,-0.1867477294921875,0,0,0.22932
1.6723832180141471,0,0,1.3120225097656248,0,0,1.98744
1.673768698994536,0,0,2.8562825805664063,0,0,1.2994800000000002
1.675155086995801,0,0,2.583343591308594,0,0,1.5288
1.6765404760080855,0,0,0.5386953735351562,0,0,2.52252
1.6779258089954965,0,0,-0.7015010864257812,0,0,0.07644000000000001
1.6793119010108057,0,0,-0.1149216796875,0,0,0.07644000000000001
1.6806982520211022,0,0,2.559401574707031,0,0,1.5288
1.6820898080186453,0,0,2.7916391357421872,0,0,0.68796
1.6834756220050622,0,0,2.0542250244140625,0,0,1.07016
1.684861029003514,0,0,0.45968671875,0,0,0.7644
1.6862469729967415,0,0,-0.5793968017578125,0,0,0.84084
1.6876322129974142,0,0,1.216254443359375,0,0,0.0
1.689017546013929,0,0,2.133233679199219,0,0,1.2994800000000002
1.6904179530101828,0,0,2.0542250244140625,0,0,1.911
1.691802749002818,0,0,1.9943699829101562,0,0,1.5288
1.6931881930213422,0,0,0.15562310791015624,0,0,-1.60524
1.6945751190069132,0,0,-0.09576806640624999,0,0,0.45864
1.6959608220204245,0,0,1.68551796875,0,0,0.7644
1.6973460440058261,0,0,3.066972326660156,0,0,0.7644
1.6987392470182385,0,0,2.6575638427734374,0,0,2.06388
1.7001248949964065,0,0,2.001552587890625,0,0,2.14032
1.7015102280129213,0,0,-1.4772224243164063,0,0,-20
1.7029075419995934,0,0,-1.0438719238281249,0,0,-0.91728
1.7042949120223057,0,0,1.0702081420898437,0,0,1.45236
1.705679948994657,0,0,3.1771056030273437,0,0,0.68796
1.7070665410137735,0,0,2.9927520751953125,0,0,2.2931999999999997
1.7084523000230547,0,0,0.4572925170898437,0,0,2.14032
1.709842373005813,0,0,-0.7302315063476562,0,0,-0.53508
1.7112335580168292,0,0,-0.5626373901367188,0,0,-0.53508
1.7126223350060172,0,0,2.104503259277344,0,0,1.45236
1.7140074460185133,0,0,2.9041666137695312,0,0,1.911
1.7153938529954758,0,0,2.24097275390625,0,0,0.91728
1.7167796489957254,0,0,1.0295067138671874,0,0,2.36964
1.7181673340091947,0,0,-0.17956512451171874,0,0,0.0
1.719554222014267,0,0,1.01514150390625,0,0,-0.91728
1.7209402040170971,0,0,2.1068974609374997,0,0,1.60524
1.72232674001134,0,0,2.9089550170898435,0,0,1.2230400000000001
1.7237122950027697,0,0,2.0063409912109376,0,0,1.07016
1.7250978130032308,0,0,0.46686932373046874,0,0,0.0
1.726484034996247,0,0,-0.469263525390625,0,0,0.22932
1.7278704050113447,0,0,1.1444283935546875,0,0,0.3822
1.7292561829963233,0,0,1.9728221679687499,0,0,0.22932
1.7306415710190777,0,0,2.243366955566406,0,0,2.4460800000000003
1.7320267930044793,0,0,2.1356278808593747,0,0,1.83456
1.7334225520025939,0,0,-0.3854664672851562,0,0,-0.91728
1.734809514018707,0,0,-0.06943184814453125,0,0,0.07644000000000001
1.7361958470137324,0,0,1.426944189453125,0,0,0.6115200000000001
1.7375816800049506,0,0,2.6575638427734374,0,0,0.30576000000000003
1.7389655500010122,0,0,2.437297290039062,0,0,2.06388
1.7403485499962699,0,0,2.281674182128906,0,0,2.14032
1.7417323460103944,0,0,-0.5698199951171875,0,0,-0.84084
1.743136660021264,0,0,-0.7398083129882812,0,0,-1.60524
1.7445238080108538,0,0,2.051830822753906,0,0,1.5288
1.7459107890026644,0,0,2.7724855224609373,0,0,0.84084
1.7472963629988953,0,0,2.461239306640625,0,0,1.83456
1.748682250996353,0,0,0.584185205078125,0,0,1.911
1.7500830840144772,0,0,-0.316034619140625,0,0,0.0
1.751470565010095,0,0,0.5722141967773438,0,0,-0.84084
1.752856620005332,0,0,2.0159177978515626,0,0,1.2230400000000001
1.7542435270152055,0,0,3.2154128295898436,0,0,2.06388
1.7556283599988092,0,0,2.597708801269531,0,0,1.1465999999999998
1.7570137480215635,0,0,1.0845733520507812,0,0,2.14032
1.7584170440095477,0,0,-0.842758984375,0,0,0.22932
1.759803043998545,0,0,0.4477157104492187,0,0,-0.91728
1.7611890800180845,0,0,1.6136919189453125,0,0,0.30576000000000003
1.7625757470086683,0,0,2.1883003173828124,0,0,1.83456
1.763960117008537,0,0,2.152387292480469,0,0,1.68168
1.7653452090162318,0,0,-0.04548983154296875,0,0,0.0
1.7667313010024372,0,0,-0.16041151123046873,0,0,1.07016
1.7681700219982304,0,0,1.3383587280273437,0,0,0.68796
1.7697129090083763,0,0,2.308010400390625,0,0,1.911
1.7721221719984896,0,0,2.099714855957031,0,0,1.75812
1.7735217640001792,0,0,0.02154781494140625,0,0,-0.53508
1.7749117640196346,0,0,0.00718260498046875,0,0,0.45864
1.776298022014089,0,0,1.6017209106445311,0,0,1.1465999999999998
1.7776841150189284,0,0,2.5354595581054684,0,0,0.45864
1.7790908360038884,0,0,1.8052280517578123,0,0,0.99372
1.7804776139964815,0,0,0.11252747802734374,0,0,1.68168
1.7818635390140116,0,0,-0.4955997436523437,0,0,-1.2230400000000001
1.7832515760092065,0,0,0.0909796630859375,0,0,-0.22932
1.7846382610150613,0,0,2.518700146484375,0,0,2.14032
1.7860240750014782,0,0,2.4660277099609376,0,0,1.07016
1.787439556006575,0,0,1.2378022583007813,0,0,0.68796
1.7888269630202558,0,0,0.16759411621093748,0,0,1.68168
1.790213833010057,0,0,-0.40462008056640625,0,0,0.22932
1.7916010360058863,0,0,2.0183119995117185,0,0,0.0
1.792986924003344,0,0,3.086125939941406,0,0,2.36964
1.7943742200150155,0,0,2.0159177978515626,0,0,2.6754
1.7957595530024264,0,0,1.838746875,0,0,1.5288
1.7971452380006667,0,0,0.39743747558593745,0,0,0.53508
1.7985312750097364,0,0,-0.39983167724609375,0,0,9.32568
1.7999182190105785,0,0,1.5682020874023437,0,0,0.30576000000000003
1.8013042740058154,0,0,2.6910826660156246,0,0,0.22932
1.8026915510126855,0,0,1.7118541870117185,0,0,1.60524
1.804077403008705,0,0,1.7453730102539062,0,0,3.13404
1.8054632359999232,0,0,-0.19153613281249998,0,0,-1.07016
1.806850735010812,0,0,-0.143652099609375,0,0,0.99372
1.8082385500019882,0,0,1.5873557006835937,0,0,1.37592
1.8096309940156061,0,0,2.224213342285156,0,0,0.07644000000000001
1.8110169010178652,0,0,1.678335363769531,0,0,1.07016
1.8124020110117272,0,0,0.5027823486328125,0,0,2.2931999999999997
1.8137875109969173,0,0,-0.055066638183593745,0,0,8.25552
1.8151759920001496,0,0,0.5003881469726562,0,0,0.07644000000000001
1.8165799730049912,0,0,2.959233251953125,0,0,2.98116
1.8179812320158817,0,0,2.906560815429687,0,0,0.91728
1.8193679530231748,0,0,0.8044517578125,0,0,0.99372
1.8208128040132578,0,0,-0.74699091796875,0,0,0.68796
1.8222099150007125,0,0,-1.3670891479492187,0,0,8.4084
1.8236015810107347,0,0,2.521094348144531,0,0,-0.6115200000000001
1.8249892099993303,0,0,3.6343981201171873,0,0,2.2931999999999997
1.8263772100035567,0,0,1.9416975463867185,0,0,2.14032
1.8277620430162642,0,0,1.2976572998046874,0,0,1.83456
1.829147839016514,0,0,-0.4836287353515625,0,0,-0.6115200000000001
1.8305352830211632,0,0,-0.948103857421875,0,0,0.0
1.8319215410156175,0,0,1.70467158203125,0,0,9.631440000000001
1.8333073560206685,0,0,4.146757275390625,0,0,0.91728
1.8346930220141076,0,0,2.913743420410156,0,0,2.6754
1.8360789110010955,0,0,2.1068974609374997,0,0,2.4460800000000003
1.8374643179995473,0,0,-1.637633935546875,0,0,-0.45864
1.8388506140036043,0,0,-1.5107412475585937,0,0,-0.68796
1.8402357610175386,0,0,3.0071172851562498,0,0,0.30576000000000003
1.8416193910234142,0,0,3.7325603881835936,0,0,0.22932
1.8430192980158608,0,0,2.729389892578125,0,0,1.5288
1.84440631599864,0,0,0.2346317626953125,0,0,2.5989600000000004
1.845792797015747,0,0,-0.9840168823242187,0,0,-1.45236
1.8471803890133742,0,0,-0.9983820922851562,0,0,-9.784320000000001
1.8485678879951593,0,0,2.5043349365234375,0,0,1.60524
1.8499538880132604,0,0,3.3446997192382812,0,0,1.1465999999999998
1.8513401280215476,0,0,1.5370774658203123,0,0,1.2230400000000001
1.852725813019788,0,0,-0.07422025146484375,0,0,2.4460800000000003
1.8541151280223858,0,0,-0.9600748657226562,0,0,-0.45864
1.8555031090218108,0,0,1.8219874633789062,0,0,-0.3822
1.8568896450160537,0,0,3.337517114257812,0,0,2.4460800000000003
1.8582764040038455,0,0,2.9041666137695312,0,0,2.14032
1.8596610150125343,0,0,1.8052280517578123,0,0,1.37592
1.8610468660190236,0,0,-0.411802685546875,0,0,0.15288000000000002
1.8624337360088248,0,0,-1.5825672973632812,0,0,-0.6115200000000001
1.86382012499962,0,0,1.0845733520507812,0,0,-0.22932
1.8652061239990871,0,0,4.441244079589843,0,0,1.1465999999999998
1.8667607880197465,0,0,3.2154128295898436,0,0,2.6754
1.8681485470151529,0,0,2.128445275878906,0,0,2.4460800000000003
1.8695349729969166,0,0,-1.9823989746093749,0,0,-1.1465999999999998
1.8709387690178119,0,0,-2.3965958618164063,0,0,0.07644000000000001
1.8736029730062,0,0,3.8953661010742184,0,0,-0.15288000000000002
1.87499508401379,0,0,3.296815686035156,0,0,2.82828
1.8763822310138494,0,0,0.39743747558593745,0,0,1.37592
1.8777884530136362,0,0,-1.37906015625,0,0,-2.2931999999999997
1.8791764890193008,0,0,-0.584185205078125,0,0,-0.3822
1.8805642670195084,0,0,1.0726023437499999,0,0,-0.30576000000000003
1.8819509150052909,0,0,2.6312276245117188,0,0,0.0
1.883337859006133,0,0,2.0661960327148434,0,0,1.75812
1.884724488016218,0,0,0.5506663818359374,0,0,0.15288000000000002
1.8861123580136336,0,0,-0.8690952026367187,0,0,-1.2994800000000002
1.887503080011811,0,0,-1.0893617553710937,0,0,0.7644
1.8888899130106438,0,0,1.0965443603515623,0,0,-1.07016
1.8902769859996624,0,0,2.925714428710937,0,0,2.06388
1.8916623380209785,0,0,1.6328455322265625,0,0,2.90472
1.8930482260184363,0,0,1.8076222534179687,0,0,0.0
1.8944349670200609,0,0,-1.024718310546875,0,0,2.2931999999999997
1.8958210030104965,0,0,-1.5131354492187499,0,0,20
1.8972080210223794,0,0,2.8419173706054686,0,0,-1.2994800000000002
1.898595873004524,0,0,3.404554760742187,0,0,2.14032
1.8999820580065716,0,0,4.125209460449218,0,0,20
1.9013682240038179,0,0,1.1013327636718748,0,0,3.13404
1.902761649020249,0,0,-1.0989385620117187,0,0,-1.2230400000000001
1.904161815007683,0,0,-2.5570073730468748,0,0,-2.4460800000000003
1.9055504080024548,0,0,-1.1133037719726562,0,0,7.261800000000001
1.9069390920049045,0,0,2.0733786376953125,0,0,-0.6115200000000001
1.908336758002406,0,0,2.7581203125,0,0,3.13404
1.9097235170193017,0,0,1.6998831787109374,0,0,0.22932
1.9111254980089143,0,0,0.5578489868164063,0,0,3.59268
1.9125124239944853,0,0,-1.5849614990234373,0,0,-1.75812
1.9139003310119733,0,0,-1.22583125,0,0,0.30576000000000003
1.9152875150030013,0,0,1.3144167114257812,0,0,-2.2931999999999997
1.9166732559970114,0,0,4.446032482910156,0,0,1.1465999999999998
1.9180591439944692,0,0,3.5889082885742187,0,0,1.68168
1.9194473109964747,0,0,1.659181750488281,0,0,2.75184
1.9208337730087806,0,0,-0.4572925170898437,0,0,0.68796
1.9222203100216575,0,0,-1.8722656982421875,0,0,-2.4460800000000003
1.9236067910096608,0,0,-1.5514426757812498,0,0,-1.2230400000000001
1.924993660999462,0,0,0.5793968017578125,0,0,-2.4460800000000003
1.926380605000304,0,0,2.9281086303710935,0,0,1.37592
1.9277700490201823,0,0,2.760514514160156,0,0,1.37592
1.9291553260118235,0,0,0.37828386230468747,0,0,2.2931999999999997
1.9305444740166422,0,0,-0.7996633544921875,0,0,0.91728
1.9319470660120714,0,0,-1.448492004394531,0,0,0.0
1.9333318250137381,0,0,0.565031591796875,0,0,20
1.9348451560072135,0,0,1.4772224243164063,0,0,-0.91728
1.9362356930214446,0,0,2.250549560546875,0,0,0.7644
1.9376369880046695,0,0,1.9776105712890624,0,0,0.22932
1.9390569319948554,0,0,1.426944189453125,0,0,1.83456
1.940445839019958,0,0,-0.13407529296874998,0,0,0.0
1.9418321900011506,0,0,-0.6512228515624999,0,0,0.0
1.9432370050053578,0,0,0.3399766357421875,0,0,-0.68796
1.9446255229995586,0,0,0.9552864624023437,0,0,0.07644000000000001
1.9460126520134509,0,0,1.2473790649414063,0,0,-0.22932
1.947400392004056,0,0,0.5123591552734374,0,0,0.68796
1.948787094996078,0,0,0.1292868896484375,0,0,0.84084
1.950192465010332,0,0,0.7733271362304687,0,0,0.0
1.9515787980053574,0,0,1.5011644409179687,0,0,1.07016
1.9529652610071935,0,0,1.6017209106445311,0,0,1.1465999999999998
1.9543528899957892,0,0,1.1180921752929687,0,0,1.2230400000000001
1.955788648017915,0,0,0.7445967163085937,0,0,0.53508
1.9571757400117349,0,0,0.5889736083984375,0,0,0.15288000000000002
1.958563573018182,0,0,0.47165772705078124,0,0,-0.53508
1.9599501650081947,0,0,0.8834604125976562,0,0,-0.6115200000000001
1.961337276006816,0,0,1.0414777221679687,0,0,-0.99372
1.9627246460004244,0,0,0.6464344482421874,0,0,0.99372
1.9641112750105094,0,0,0.5985504150390625,0,0,0.22932
1.9654997379984707,0,0,0.0143652099609375,0,0,0.15288000000000002
1.966886238020379,0,0,-0.22026655273437498,0,0,0.7644
1.9682739039999433,0,0,0.4955997436523437,0,0,0.6115200000000001
1.9696600890019909,0,0,0.6368576416015624,0,0,0.0
1.9710463660012465,0,0,1.7597382202148437,0,0,0.99372
1.9724332170153502,0,0,2.080561242675781,0,0,0.99372
1.9738196980033536,0,0,1.7525556152343749,0,0,1.07016
1.9752060870232526,0,0,1.024718310546875,0,0,0.22932
1.9765925130050164,0,0,0.32561142578124996,0,0,-9.172799999999999
1.97797942001489,0,0,-0.36391865234375,0,0,-1.75812
1.9793675300024915,0,0,0.7302315063476562,0,0,20
1.9807539930043276,0,0,1.4604630126953124,0,0,-0.15288000000000002
1.9821412700111978,0,0,0.8092401611328125,0,0,1.07016
1.983527825010242,0,0,0.11731588134765625,0,0,0.91728
1.984914436005056,0,0,0.201112939453125,0,0,20
1.9863010840199422,0,0,0.5219359619140624,0,0,1.07016
1.9876873980101664,0,0,0.44532150878906246,0,0,0.0
1.9890742130228318,0,0,2.1404162841796874,0,0,0.53508
1.9904609530058224,0,0,1.7573440185546874,0,0,1.07016
1.991846416000044,0,0,1.3215993164062498,0,0,0.68796
1.9932329890143592,0,0,0.36631285400390623,0,0,0.7644
1.9946192479983438,0,0,0.4381389038085937,0,0,-20
1.9960137290181592,0,0,0.06464344482421874,0,0,-20
1.9974008210119791,0,0,0.7996633544921875,0,0,-0.3822
1.9987940239952877,0,0,1.0199299072265624,0,0,0.99372
2.0001801540201996,0,0,1.1947066284179686,0,0,0.3822
2.001566320017446,0,0,0.7613561279296874,0,0,-8.7906
2.00295263400767,0,0,0.0143652099609375,0,0,0.0
2.004338208003901,0,0,0.18435352783203124,0,0,-0.3822
2.0057250230165664,0,0,1.0630255371093749,0,0,0.0
2.0071114849997684,0,0,1.8626888916015625,0,0,0.6115200000000001
2.0084978920058347,0,0,1.2689268798828124,0,0,0.68796
2.0098837990080938,0,0,0.6943184814453125,0,0,0.84084
2.011270502000116,0,0,0.47884033203125,0,0,0.30576000000000003
2.0126567980041727,0,0,0.7565677246093749,0,0,0.0
2.01404303900199,0,0,1.2521674682617188,0,0,0.7644
2.015429963998031,0,0,1.0486603271484374,0,0,-0.3822
2.0168192790006287,0,0,0.6703764648437499,0,0,0.07644000000000001
2.018203056009952,0,0,0.584185205078125,0,0,0.0
2.019592778000515,0,0,0.5506663818359374,0,0,0.0
2.020970537007088,0,0,0.8307879760742187,0,0,0.15288000000000002
2.0223554620170034,0,0,0.718260498046875,0,0,0.45864
2.023742368997773,0,0,0.3902548706054687,0,0,0.15288000000000002
2.0251276650233194,0,0,0.15562310791015624,0,0,0.0
2.0265136280213483,0,0,0.6919242797851562,0,0,0.0
2.0278982570162043,0,0,1.0534487304687499,0,0,0.68796
2.0292836269945838,0,0,1.5442600708007812,0,0,0.6115200000000001
2.03067321900744,0,0,1.1755530151367186,0,0,1.2230400000000001
2.0320586080197245,0,0,0.33518823242187495,0,0,0.68796
2.0334442000021227,0,0,0.16280571289062498,0,0,0.0
2.034828366013244,0,0,0.04548983154296875,0,0,-20
2.036216033011442,0,0,1.350329736328125,0,0,20
2.037634550011717,0,0,1.6735469604492186,0,0,0.45864
2.039022365002893,0,0,1.3431471313476562,0,0,0.6115200000000001
2.0404064200120047,0,0,0.718260498046875,0,0,0.6115200000000001
2.0417900120082777,0,0,0.12449848632812499,0,0,0.0
2.04319971500081,0,0,-0.0143652099609375,0,0,20
2.0445888260146603,0,0,0.488417138671875,0,0,0.0
2.045975585002452,0,0,1.3670891479492187,0,0,0.15288000000000002
2.0473618429969065,0,0,1.2713210815429687,0,0,0.45864
2.048747954017017,0,0,1.024718310546875,0,0,0.99372
2.050135527999373,0,0,0.6392518432617187,0,0,0.45864
2.051521990011679,0,0,0.3687070556640625,0,0,0.22932
2.052908786019543,0,0,0.689530078125,0,0,0.3822
2.0543007670203224,0,0,1.0965443603515623,0,0,0.53508
2.0556864520185627,0,0,1.177947216796875,0,0,0.3822
2.0570801550056785,0,0,0.9696516723632812,0,0,0.30576000000000003
2.0584671550022904,0,0,0.93852705078125,0,0,0.53508
2.0598529140115716,0,0,0.7924807495117187,0,0,20
2.0612388949957676,0,0,1.1109095703125,0,0,0.3822
2.062625246006064,0,0,0.8451531860351562,0,0,0.0
2.064010875998065,0,0,0.4525041137695312,0,0,0.22932
2.0653967639955226,0,0,0.430956298828125,0,0,0.07644000000000001
2.0667831530154217,0,0,0.948103857421875,0,0,0.53508
2.068169245001627,0,0,0.9911994873046874,0,0,0.07644000000000001
2.0695554300036747,0,0,0.814028564453125,0,0,0.6115200000000001
2.0709417629987,0,0,0.8930372192382812,0,0,0.30576000000000003
2.072327892004978,0,0,1.0127473022460938,0,0,0.6115200000000001
2.073713873018278,0,0,1.1109095703125,0,0,1.07016
2.0750939279969316,0,0,1.3455413330078123,0,0,1.1465999999999998
2.076471798005514,0,0,1.235408056640625,0,0,1.1465999999999998
2.0778494460100774,0,0,0.9624690673828125,0,0,0.91728
2.079235890007112,0,0,1.1755530151367186,0,0,0.30576000000000003
2.0806214080075733,0,0,1.2521674682617188,0,0,0.7644
2.0820068340108264,0,0,1.917755529785156,0,0,0.7644
2.083392222004477,0,0,1.8243816650390623,0,0,1.1465999999999998
2.084777333016973,0,0,1.5969325073242187,0,0,0.7644
2.0863885330036283,0,0,1.0558429321289062,0,0,0.7644
2.087777514010668,0,0,0.9241618408203125,0,0,0.45864
2.089163513999665,0,0,1.2785036865234374,0,0,0.7644
2.090550588007318,0,0,1.4221557861328125,0,0,0.45864
2.0919355320220347,0,0,1.5059528442382812,0,0,0.99372
2.093320828018477,0,0,1.6065093139648436,0,0,1.07016
2.094706864008913,0,0,1.35990654296875,0,0,0.68796
2.0961160860024393,0,0,1.1923124267578125,0,0,0.99372
2.097502845019335,0,0,1.0869675537109373,0,0,0.53508
2.0988886039995123,0,0,1.1851298217773436,0,0,0.45864
2.100274362019263,0,0,1.2713210815429687,0,0,0.6115200000000001
2.101660009997431,0,0,1.3072341064453123,0,0,0.53508
2.103055158018833,0,0,1.458068811035156,0,0,0.6115200000000001
2.1044551570084877,0,0,1.5155296508789062,0,0,0.6115200000000001
2.1058412860147655,0,0,1.2018892333984375,0,0,0.91728
2.1072280820226297,0,0,1.1228805786132812,0,0,0.91728
2.108613988995785,0,0,1.0845733520507812,0,0,0.68796
2.1100053410045803,0,0,1.197100830078125,0,0,0.3822
2.111435284023173,0,0,1.2880804931640624,0,0,0.3822
2.1128755420213565,0,0,1.4245499877929686,0,0,0.68796
2.1143148010014556,0,0,1.5418658691406248,0,0,0.68796
2.1157705030054785,0,0,1.3910311645507811,0,0,0.91728
2.117230297997594,0,0,1.3359645263671873,0,0,1.1465999999999998
2.118705870001577,0,0,1.1372457885742187,0,0,0.7644
2.1201568320102524,0,0,1.0773907470703123,0,0,0.53508
2.12164218199905,0,0,1.1061211669921875,0,0,0.3822
2.123565267014783,0,0,1.4772224243164063,0,0,0.53508
2.125088005006546,0,0,1.5658078857421873,0,0,0.91728
2.1265814850048628,0,0,1.3287819213867187,0,0,0.84084
2.1280489840137307,0,0,1.22583125,0,0,0.91728
2.1295321110228542,0,0,1.0726023437499999,0,0,0.7644
2.1310334800218698,0,0,1.0869675537109373,0,0,0.53508
2.1324405720224604,0,0,1.3623007446289062,0,0,0.6115200000000001
2.133821719995467,0,0,1.3407529296874998,0,0,0.53508
2.1352039790072013,0,0,1.5083470458984374,0,0,0.68796
2.1365826450055465,0,0,1.7429788085937499,0,0,0.68796
2.1379613110038918,0,0,1.189918225097656,0,0,0.84084
2.139345941017382,0,0,1.1659762084960936,0,0,0.99372
2.1407246250018943,0,0,1.0510545288085937,0,0,0.99372
2.142104607017245,0,0,1.20667763671875,0,0,0.68796
2.143485069012968,0,0,1.3287819213867187,0,0,0.07644000000000001
2.144865402020514,0,0,1.39821376953125,0,0,0.84084
2.146244365023449,0,0,1.5634136840820312,0,0,0.6115200000000001
2.147622513002716,0,0,1.4508862060546874,0,0,0.84084
2.149000272009289,0,0,1.3024457031249999,0,0,0.99372
2.150383530999534,0,0,1.1875240234375,0,0,0.7644
2.1517613080213778,0,0,1.0079588989257813,0,0,0.91728
2.1531399009982124,0,0,1.1109095703125,0,0,0.53508
2.1545201780099887,0,0,1.2306196533203124,0,0,0.07644000000000001
2.1558982700225897,0,0,1.5418658691406248,0,0,0.53508
2.1572763069998473,0,0,1.714248388671875,0,0,0.84084
2.158656381012406,0,0,1.5059528442382812,0,0,1.37592
2.160034788015764,0,0,1.0702081420898437,0,0,0.84084
2.161412214016309,0,0,0.8690952026367187,0,0,0.45864
2.1627927130030002,0,0,1.1372457885742187,0,0,0.30576000000000003
2.1641704910143744,0,0,1.350329736328125,0,0,0.7644
2.1655488420219626,0,0,1.5131354492187499,0,0,0.84084
2.1669658230093773,0,0,1.4245499877929686,0,0,0.91728
2.16834676702274,0,0,1.5227122558593749,0,0,0.84084
2.169725471001584,0,0,1.1228805786132812,0,0,0.84084
2.1711150810006075,0,0,1.216254443359375,0,0,0.68796
2.172501025022939,0,0,1.1348515869140625,0,0,0.6115200000000001
2.173887266020756,0,0,1.3072341064453123,0,0,0.45864
2.175296376022743,0,0,1.3383587280273437,0,0,1.07016
2.1766826350067277,0,0,1.5155296508789062,0,0,0.53508
2.178084116021637,0,0,1.4030021728515625,0,0,0.84084
2.179471208015457,0,0,1.448492004394531,0,0,0.6115200000000001
2.180857208004454,0,0,1.2593500732421874,0,0,0.7644
2.1822486520104576,0,0,1.2785036865234374,0,0,0.91728
2.1836333550163545,0,0,1.1109095703125,0,0,0.7644
2.185018318006769,0,0,1.2473790649414063,0,0,0.99372
2.186405928019667,0,0,1.2641384765625,0,0,0.22932
2.1877901690022554,0,0,1.3742717529296875,0,0,0.7644
2.189175002014963,0,0,1.5083470458984374,0,0,0.6115200000000001
2.1905609460081905,0,0,1.407790576171875,0,0,0.7644
2.191945371014299,0,0,1.3168109130859373,0,0,0.99372
2.193330408015754,0,0,1.177947216796875,0,0,0.84084
2.1947162590222433,0,0,1.1109095703125,0,0,0.84084
2.196101017994806,0,0,1.2282254516601563,0,0,0.68796
2.197485776996473,0,0,1.4030021728515625,0,0,0.15288000000000002
2.1988706100091804,0,0,1.3527239379882812,0,0,0.53508
2.200255664996803,0,0,1.5298948608398437,0,0,0.68796
2.2016402760054916,0,0,1.2856862915039062,0,0,0.91728
2.2030377570190467,0,0,1.139639990234375,0,0,0.84084
2.204422553011682,0,0,1.1013327636718748,0,0,0.53508
2.205806775018573,0,0,1.139639990234375,0,0,0.53508
2.2071920150192454,0,0,1.2210428466796874,0,0,1.07016
2.2085773480066564,0,0,1.4891934326171874,0,0,0.6115200000000001
2.209961865999503,0,0,1.455674609375,0,0,0.68796
2.2113466809969395,0,0,1.6448165405273436,0,0,0.91728
2.212731606006855,0,0,1.3072341064453123,0,0,0.7644
2.2141288090206217,0,0,1.216254443359375,0,0,0.99372
2.2155143830168527,0,0,1.1563994018554686,0,0,0.91728
2.216899512015516,0,0,1.197100830078125,0,0,0.68796
2.2182858450105414,0,0,1.35990654296875,0,0,0.30576000000000003
2.2196799560042564,0,0,1.5083470458984374,0,0,0.68796
2.221065104007721,0,0,1.5203180541992187,0,0,0.68796
2.2224507330101915,0,0,1.5873557006835937,0,0,0.7644
2.223835233016871,0,0,1.2521674682617188,0,0,0.91728
2.2252206950215623,0,0,1.2521674682617188,0,0,0.53508
2.226616305997595,0,0,1.1420341918945311,0,0,0.53508
2.2280012679984793,0,0,1.2378022583007813,0,0,0.53508
2.2293862310179975,0,0,1.3646949462890625,0,0,0.22932
2.2307711010216735,0,0,1.3000515014648437,0,0,0.6115200000000001
2.2321556380193215,0,0,1.5514426757812498,0,0,0.7644
2.2335490999976173,0,0,1.2593500732421874,0,0,0.91728
2.234934489009902,0,0,1.2425906616210938,0,0,1.07016
2.2363191730109975,0,0,0.9911994873046874,0,0,0.7644
2.2377039510174654,0,0,1.1635820068359375,0,0,0.6115200000000001
2.2390888210211415,0,0,1.3479355346679687,0,0,1.2230400000000001
2.2404735060117673,0,0,1.5298948608398437,0,0,0.68796
2.241858431021683,0,0,1.3335703247070312,0,0,0.91728
2.2432436710223556,0,0,1.5658078857421873,0,0,-8.7906
2.2446297080023214,0,0,1.3144167114257812,0,0,0.68796
2.246015189011814,0,0,1.2737152832031249,0,0,0.7644
2.2473988000128884,0,0,1.1707646118164061,0,0,0.6115200000000001
2.249059000023408,0,0,1.1324573852539062,0,0,0.68796
2.2504594430211,0,0,1.2856862915039062,0,0,0.3822
2.251843017002102,0,0,1.3862427612304686,0,0,0.53508
2.2532224240130745,0,0,1.4724340209960938,0,0,0.91728
2.254616571997758,0,0,1.5418658691406248,0,0,0.84084
2.2559951270231977,0,0,1.426944189453125,0,0,0.99372
2.257373627013294,0,0,1.24498486328125,0,0,0.53508
2.258753923000768,0,0,1.1133037719726562,0,0,0.7644
2.260131626011571,0,0,1.1635820068359375,0,0,0.91728
2.261509385018144,0,0,1.5251064575195312,0,0,0.22932
2.2629077919991687,0,0,1.5227122558593749,0,0,0.68796
2.2642956810013857,0,0,1.6424223388671875,0,0,0.7644
2.2656818280229345,0,0,1.2521674682617188,0,0,0.91728
2.2670686060155276,0,0,1.209071838378906,0,0,0.84084
2.2684544020157773,0,0,1.218648645019531,0,0,0.68796
2.269840216002194,0,0,1.1851298217773436,0,0,-9.172799999999999
2.271228827012237,0,0,1.24498486328125,0,0,1.1465999999999998
2.272615345020313,0,0,1.2665326782226562,0,0,0.7644
2.2740014370065182,0,0,1.2952630981445312,0,0,0.68796
2.2753878440125845,0,0,1.6017209106445311,0,0,1.07016
2.2767736590176355,0,0,1.1755530151367186,0,0,0.84084
2.2781602879986167,0,0,1.2234370483398436,0,0,0.7644
2.279546361998655,0,0,1.0893617553710937,0,0,0.6115200000000001
2.280932046007365,0,0,1.2761094848632812,0,0,0.6115200000000001
2.2823189350019675,0,0,1.2737152832031249,0,0,0.84084
2.283704638015479,0,0,1.37906015625,0,0,0.68796
2.28509045302053,0,0,1.3910311645507811,0,0,0.7644
2.2864765080157667,0,0,1.3958195678710936,0,0,0.7644
2.2878619889961556,0,0,1.1923124267578125,0,0,0.84084
2.2892479520232882,0,0,1.218648645019531,0,0,0.6115200000000001
2.290634081000462,0,0,1.1755530151367186,0,0,0.53508
2.292029005999211,0,0,1.2808978881835937,0,0,0.6115200000000001
2.2934151170193218,0,0,1.4604630126953124,0,0,0.53508
2.29480200499529,0,0,1.3311761230468748,0,0,0.91728
2.2961886349949054,0,0,1.43652099609375,0,0,0.91728
2.297574505006196,0,0,1.4317325927734375,0,0,0.91728
2.2989604670146946,0,0,1.1827356201171875,0,0,0.91728
2.300346300005913,0,0,0.948103857421875,0,0,0.91728
2.3017320960061625,0,0,1.177947216796875,0,0,0.45864
2.3031271880026907,0,0,1.2713210815429687,0,0,1.1465999999999998
2.3045138170127757,0,0,1.3766659545898436,0,0,0.30576000000000003
2.305900353996549,0,0,1.2880804931640624,0,0,0.84084
2.307294965023175,0,0,1.659181750488281,0,0,0.84084
2.308681594004156,0,0,1.1923124267578125,0,0,1.07016
2.3100882600119803,0,0,1.1611878051757811,0,0,0.68796
2.311475944996346,0,0,1.1923124267578125,0,0,0.91728
2.3128620740026236,0,0,1.2306196533203124,0,0,0.6115200000000001
2.314249222021317,0,0,1.3479355346679687,0,0,1.07016
2.315634961996693,0,0,1.388636962890625,0,0,0.68796
2.3170205909991637,0,0,1.3431471313476562,0,0,0.7644
2.3184072760050185,0,0,1.4796166259765624,0,0,0.91728
2.319793554022908,0,0,1.1875240234375,0,0,0.84084
2.3211797940020915,0,0,1.350329736328125,0,0,0.68796
2.322566627000924,0,0,1.1755530151367186,0,0,0.68796
2.3239521450013854,0,0,1.1731588134765625,0,0,0.3822
2.3253380520036444,0,0,1.22583125,0,0,0.30576000000000003
2.326720329001546,0,0,1.35990654296875,0,0,0.45864
2.328098255005898,0,0,1.4030021728515625,0,0,0.68796
2.329476347018499,0,0,1.407790576171875,0,0,0.6115200000000001
2.33086192101473,0,0,1.2497732666015624,0,0,0.7644
2.33224736500415,0,0,1.0869675537109373,0,0,0.6115200000000001
2.3336325130076148,0,0,1.1324573852539062,0,0,0.84084
2.335018290003063,0,0,1.2928688964843749,0,0,0.53508
2.336404197005322,0,0,1.4700398193359374,0,0,0.3822
2.3377891599957366,0,0,1.3431471313476562,0,0,0.3822
2.3391728450078517,0,0,1.5011644409179687,0,0,0.53508
2.3405560300161596,0,0,1.2330138549804688,0,0,0.91728
2.341939417994581,0,0,1.2665326782226562,0,0,1.07016
2.343340140010696,0,0,1.1444283935546875,0,0,0.84084
2.3447286580048967,0,0,1.199495031738281,0,0,0.45864
2.3461163979955018,0,0,1.3263877197265623,0,0,0.91728
2.347503194003366,0,0,1.4006079711914061,0,0,0.91728
2.3488901570090093,0,0,1.3192051147460937,0,0,0.6115200000000001
2.3502944339998066,0,0,1.5490484741210937,0,0,0.7644
2.3516807109990623,0,0,1.22583125,0,0,0.84084
2.353067396004917,0,0,1.24498486328125,0,0,0.6115200000000001
2.3544546360208187,0,0,1.216254443359375,0,0,-9.32568
2.355842079996364,0,0,1.254561669921875,0,0,0.68796
2.357228691020282,0,0,1.3192051147460937,0,0,0.6115200000000001
2.358615561010083,0,0,1.3479355346679687,0,0,0.6115200000000001
2.360001838998869,0,0,1.3359645263671873,0,0,0.7644
2.361387912009377,0,0,1.3958195678710936,0,0,0.6115200000000001
2.3627744860132225,0,0,1.2713210815429687,0,0,1.07016
2.364160523022292,0,0,1.1851298217773436,0,0,0.91728
2.365546985005494,0,0,1.177947216796875,0,0,0.84084
2.366932466014987,0,0,1.20667763671875,0,0,0.68796
2.3683191140007693,0,0,1.5275006591796874,0,0,0.45864
2.3697051689960063,0,0,1.37906015625,0,0,0.99372
2.3710850210045464,0,0,1.4772224243164063,0,0,0.6115200000000001
2.372484371997416,0,0,1.429338391113281,0,0,0.68796
2.376034620014252,0,0,1.216254443359375,0,0,0.7644
2.3774240640050266,0,0,1.1061211669921875,0,0,0.53508
2.3788110080058686,0,0,1.37906015625,0,0,0.6115200000000001
2.380197007994866,0,0,1.4820108276367188,0,0,0.84084
2.3815824890043586,0,0,1.5634136840820312,0,0,0.84084
2.38296795100905,0,0,1.37906015625,0,0,0.6115200000000001
2.384353710018331,0,0,1.369483349609375,0,0,0.7644
2.3857387650059536,0,0,1.1037269653320312,0,0,0.45864
2.3871490610181354,0,0,1.1156979736328125,0,0,0.53508
2.388536116020987,0,0,1.3455413330078123,0,0,0.6115200000000001
2.389922264002962,0,0,1.446097802734375,0,0,0.6115200000000001
2.391308485995978,0,0,1.4101847778320311,0,0,0.7644
2.3926939670054708,0,0,1.4149731811523436,0,0,0.91728
2.3940809850173537,0,0,1.177947216796875,0,0,0.7644
2.3954662989999633,0,0,1.0941501586914062,0,0,0.7644
2.3968710390035994,0,0,1.1563994018554686,0,0,0.6115200000000001
2.398259372013854,0,0,1.3000515014648437,0,0,0.3822
2.3996441870112903,0,0,1.3958195678710936,0,0,0.84084
2.4010296310007107,0,0,1.4772224243164063,0,0,0.6115200000000001
2.402415631018812,0,0,1.4724340209960938,0,0,1.07016
2.403799888998037,0,0,1.3934253662109375,0,0,0.7644
2.4051962780067697,0,0,1.350329736328125,0,0,0.91728
2.406592092011124,0,0,1.2210428466796874,0,0,0.6115200000000001
2.4079772580007557,0,0,1.209071838378906,0,0,0.84084
2.4093628319969866,0,0,1.2306196533203124,0,0,0.53508
2.410761128005106,0,0,1.3934253662109375,0,0,0.53508
2.412146239017602,0,0,1.4053963745117186,0,0,0.53508
2.4135312940052245,0,0,1.5634136840820312,0,0,0.99372
2.414916997018736,0,0,1.350329736328125,0,0,0.7644
2.4163019970001187,0,0,1.189918225097656,0,0,0.91728
2.4176929040113464,0,0,1.1228805786132812,0,0,0.7644
2.4190770700224675,0,0,1.20667763671875,0,0,0.3822
2.420462514011888,0,0,1.350329736328125,0,0,0.6115200000000001
2.4218477540125605,0,0,1.467645617675781,0,0,0.15288000000000002
2.423233273002552,0,0,1.2713210815429687,0,0,0.68796
2.424618309014477,0,0,1.5442600708007812,0,0,0.91728
2.4260029940051027,0,0,1.2497732666015624,0,0,0.7644
2.427388623007573,0,0,1.3263877197265623,0,0,0.84084
2.4287738270068076,0,0,1.1635820068359375,0,0,0.7644
2.4301593260024674,0,0,1.0869675537109373,0,0,0.6115200000000001
2.431544659018982,0,0,1.429338391113281,0,0,0.91728
2.4329294740164187,0,0,1.5514426757812498,0,0,0.53508
2.4343149549968075,0,0,1.4221557861328125,0,0,1.07016
2.435699491004925,0,0,1.467645617675781,0,0,0.99372
2.437084510020213,0,0,1.2761094848632812,0,0,0.91728
2.4384697310160846,0,0,1.158793603515625,0,0,0.91728
2.4398612130025867,0,0,1.1827356201171875,0,0,0.99372
2.441244916000869,0,0,1.3072341064453123,0,0,0.53508
2.4427063400216866,0,0,1.419761584472656,0,0,0.68796
2.4440928770054597,0,0,1.458068811035156,0,0,0.6115200000000001
2.445478006004123,0,0,1.5705962890624998,0,0,0.6115200000000001
2.4468640240083914,0,0,1.455674609375,0,0,0.68796
2.4482492649985943,0,0,1.1540052001953125,0,0,1.07016
2.4496340610203333,0,0,1.1827356201171875,0,0,0.84084
2.4510204490215983,0,0,1.1540052001953125,0,0,0.68796
2.4524059670220595,0,0,1.3455413330078123,0,0,0.53508
2.4537908190104645,0,0,1.4532804077148436,0,0,0.68796
2.45517574402038,0,0,1.2521674682617188,0,0,0.68796
2.4565607260155957,0,0,1.467645617675781,0,0,0.68796
2.457946244016057,0,0,1.2114660400390624,0,0,0.99372
2.4593314840167295,0,0,1.0917559570312498,0,0,1.07016
2.460716224013595,0,0,1.1468225952148436,0,0,0.6115200000000001
2.462101983022876,0,0,1.2234370483398436,0,0,0.6115200000000001
2.463487464003265,0,0,1.3455413330078123,0,0,0.99372
2.464874408004107,0,0,1.455674609375,0,0,0.53508
2.4662773339950945,0,0,1.4317325927734375,0,0,0.7644
2.467665278003551,0,0,1.4820108276367188,0,0,0.7644
2.4690640369954053,0,0,1.2737152832031249,0,0,0.91728
2.4704510550072882,0,0,1.189918225097656,0,0,0.91728
2.4718335730140097,0,0,1.158793603515625,0,0,0.6115200000000001
2.473238867998589,0,0,1.120486376953125,0,0,0.45864
2.474627590010641,0,0,1.3670891479492187,0,0,0.99372
2.476014738000231,0,0,1.4915876342773438,0,0,0.7644
2.477401052019559,0,0,1.4245499877929686,0,0,0.91728
2.4787884220131673,0,0,1.4101847778320311,0,0,0.91728
2.480174070020439,0,0,1.216254443359375,0,0,0.68796
2.481560051004635,0,0,1.3096283081054687,0,0,0.99372
2.4829463100177236,0,0,1.1180921752929687,0,0,0.6115200000000001
2.4843426430015825,0,0,1.2282254516601563,0,0,0.68796
2.485728680010652,0,0,1.388636962890625,0,0,0.53508
2.4871148640231695,0,0,1.455674609375,0,0,0.68796
2.488500734005356,0,0,1.4796166259765624,0,0,0.6115200000000001
2.4898870490142144,0,0,1.2808978881835937,0,0,0.7644
2.4912737520062365,0,0,1.0726023437499999,0,0,0.91728
2.492659862997243,0,0,1.1563994018554686,0,0,0.6115200000000001
2.4940452330047265,0,0,1.3479355346679687,0,0,0.53508
2.495431584015023,0,0,1.2832920898437499,0,0,0.84084
2.4968178250128403,0,0,1.4604630126953124,0,0,0.15288000000000002
2.4982044540229253,0,0,1.4987702392578124,0,0,0.7644
2.4995901020010933,0,0,1.4724340209960938,0,0,1.07016
2.5009763610141817,0,0,1.3623007446289062,0,0,0.68796
2.5023629530041944,0,0,1.218648645019531,0,0,0.84084
2.5037556560127996,0,0,1.1468225952148436,0,0,0.91728
2.505141822010046,0,0,1.3024457031249999,0,0,0.6115200000000001
2.50652843300486,0,0,1.3910311645507811,0,0,0.91728
2.5079139140143525,0,0,1.43652099609375,0,0,0.68796
2.509308006003266,0,0,1.4628572143554686,0,0,1.1465999999999998
2.5106948949978687,0,0,1.4700398193359374,0,0,0.7644
2.5120810799999163,0,0,1.1324573852539062,0,0,0.68796
2.513467523996951,0,0,1.1061211669921875,0,0,0.30576000000000003
2.514854394015856,0,0,1.0582371337890624,0,0,0.6115200000000001
2.5162402450223453,0,0,1.0821791503906248,0,0,0.22932
2.5176264850015286,0,0,1.5418658691406248,0,0,0.68796
2.5190127069945447,0,0,1.4149731811523436,0,0,0.68796
2.5203985219995957,0,0,1.407790576171875,0,0,0.84084
2.521784540003864,0,0,1.2665326782226562,0,0,0.91728
2.523170928005129,0,0,1.1013327636718748,0,0,1.1465999999999998
2.5245571130071767,0,0,1.1755530151367186,0,0,0.7644
2.525943039014237,0,0,1.0797849487304687,0,0,0.68796
2.5273469270032365,0,0,1.3527239379882812,0,0,0.7644
2.5287337230111007,0,0,1.4508862060546874,0,0,0.3822
2.5301377960131504,0,0,1.5298948608398437,0,0,0.6115200000000001
2.531516870018095,0,0,1.4532804077148436,0,0,0.68796
2.532894555013627,0,0,1.3120225097656248,0,0,1.07016
2.534279351006262,0,0,1.1635820068359375,0,0,0.99372
2.5356653130147606,0,0,1.2138602416992186,0,0,0.68796
2.5370501650031656,0,0,1.2713210815429687,0,0,0.84084
2.538435868016677,0,0,1.3407529296874998,0,0,1.1465999999999998
2.5398189420229755,0,0,1.4700398193359374,0,0,0.30576000000000003
2.5412024420220405,0,0,1.3742717529296875,0,0,0.7644
2.5426069410168566,0,0,1.4245499877929686,0,0,0.7644
2.544052884011762,0,0,1.1324573852539062,0,0,0.6115200000000001
2.5454424759955145,0,0,1.20667763671875,0,0,0.68796
2.5468302170047536,0,0,1.1324573852539062,0,0,0.84084
2.5482167350128293,0,0,1.1707646118164061,0,0,0.84084
2.5496039380086586,0,0,1.4963760375976562,0,0,0.45864
2.5509914930153172,0,0,1.4604630126953124,0,0,0.53508
2.5523781230149325,0,0,1.4867992309570313,0,0,0.7644
2.553764789015986,0,0,1.4221557861328125,0,0,0.99372
2.555151806998765,0,0,1.2569558715820313,0,0,0.99372
2.5565386960224714,0,0,1.1659762084960936,0,0,0.84084
2.557925065018935,0,0,1.1707646118164061,0,0,0.6115200000000001
2.5593123430153355,0,0,1.3407529296874998,0,0,0.84084
2.5606995279958937,0,0,1.5729904907226562,0,0,0.0
2.5620865460077766,0,0,1.4221557861328125,0,0,0.7644
2.5634732310136314,0,0,1.5275006591796874,0,0,0.91728
2.5648602489964105,0,0,1.2856862915039062,0,0,0.91728
2.5662512480048463,0,0,1.2282254516601563,0,0,0.45864
2.567648285010364,0,0,1.1085153686523437,0,0,0.68796
2.5690384510089643,0,0,1.2976572998046874,0,0,0.3822
2.570426154008601,0,0,1.37906015625,0,0,0.91728
2.571829617023468,0,0,1.5275006591796874,0,0,0.68796
2.5732166719972156,0,0,1.2330138549804688,0,0,0.99372
2.574615542020183,0,0,1.5346832641601562,0,0,0.84084
2.5759938929986674,0,0,1.3646949462890625,0,0,0.68796
2.5773720040160697,0,0,1.3311761230468748,0,0,0.7644
2.578759615018498,0,0,1.1061211669921875,0,0,0.53508
2.58016489201691,0,0,1.0749965454101562,0,0,0.53508
2.5815522799966857,0,0,1.3048399047851562,0,0,0.68796
2.58293478001724,0,0,1.3024457031249999,0,0,0.6115200000000001
2.584313316998305,0,0,1.4724340209960938,0,0,0.6115200000000001
2.5857044639997184,0,0,1.4125789794921875,0,0,0.91728
2.58714394501294,0,0,1.2713210815429687,0,0,0.91728
2.5885316299973056,0,0,1.177947216796875,0,0,0.84084
2.5899187220202293,0,0,1.2210428466796874,0,0,0.84084
2.591305388021283,0,0,1.3048399047851562,0,0,0.68796
2.5926919800112955,0,0,1.37906015625,0,0,0.45864
2.5940803319972474,0,0,1.5131354492187499,0,0,0.68796
2.5954670350183733,0,0,1.5107412475585937,0,0,0.7644
2.5968535160063766,0,0,1.3551181396484375,0,0,1.1465999999999998
2.5982407930132467,0,0,1.2042834350585936,0,0,0.84084
2.599626238021301,0,0,1.1755530151367186,0,0,0.84084
2.601012385013746,0,0,1.3048399047851562,0,0,0.68796
2.6024002000049222,0,0,1.3048399047851562,0,0,0.91728
2.603786162013421,0,0,1.4341267944335936,0,0,0.68796
2.605208291002782,0,0,1.3335703247070312,0,0,0.91728
2.606719511008123,0,0,1.4125789794921875,0,0,0.91728
2.608145158010302,0,0,1.2234370483398436,0,0,0.68796
2.609534862014698,0,0,1.2904746948242187,0,0,0.3822
2.6109229720022995,0,0,1.2617442749023438,0,0,1.07016
2.6123101570119616,0,0,1.2282254516601563,0,0,-9.24924
2.613698711997131,0,0,1.3431471313476562,0,0,0.7644
2.6151136929984204,0,0,1.4939818359375,0,0,0.7644
2.6165062850050163,0,0,1.4796166259765624,0,0,0.84084
2.617892711015884,0,0,1.5155296508789062,0,0,0.7644
2.6192790070199408,0,0,1.20667763671875,0,0,0.6115200000000001
2.6206652840191964,0,0,1.1348515869140625,0,0,0.7644
2.622051134996582,0,0,1.1013327636718748,0,0,0.53508
2.62463971102261,0,0,1.407790576171875,0,0,0.45864
2.6260386000212748,0,0,1.6807295654296874,0,0,0.99372
2.627430840017041,0,0,1.4939818359375,0,0,0.68796
2.628816876997007,0,0,1.350329736328125,0,0,0.68796
2.630203339009313,0,0,1.218648645019531,0,0,0.91728
2.6315883390197996,0,0,1.189918225097656,0,0,0.6115200000000001
2.6329742270172574,0,0,1.2737152832031249,0,0,0.45864
2.6343605970032513,0,0,1.3934253662109375,0,0,0.53508
2.6357452450029086,0,0,1.369483349609375,0,0,0.53508
2.6371308930101804,0,0,1.3096283081054687,0,0,0.6115200000000001
2.638516763021471,0,0,1.5586252807617187,0,0,1.2230400000000001
2.639900170004694,0,0,1.2976572998046874,0,0,0.84084
2.6412851880013477,0,0,1.2234370483398436,0,0,0.84084
2.6427109650103375,0,0,1.0749965454101562,0,0,0.6115200000000001
2.644097316020634,0,0,1.0917559570312498,0,0,0.3822
2.6455194450099953,0,0,1.3575123413085937,0,0,0.91728
2.6469060740200803,0,0,1.4915876342773438,0,0,0.91728
2.6483088140084874,0,0,1.3670891479492187,0,0,0.99372
2.6496953510213643,0,0,1.429338391113281,0,0,0.53508
2.6510815170186106,0,0,1.2210428466796874,0,0,0.68796
2.652466554020066,0,0,1.2904746948242187,0,0,0.30576000000000003
2.6538521090114955,0,0,1.0941501586914062,0,0,0.7644
2.655238127015764,0,0,1.2330138549804688,0,0,0.68796
2.656622775015421,0,0,1.3934253662109375,0,0,0.45864
2.658007607999025,0,0,1.419761584472656,0,0,0.84084
2.6593929410155397,0,0,1.429338391113281,0,0,0.84084
2.6607881440140773,0,0,1.22583125,0,0,0.7644
2.6621977360046003,0,0,1.3120225097656248,0,0,0.99372
2.6635834950138815,0,0,1.22583125,0,0,0.84084
2.664969180012122,0,0,1.2018892333984375,0,0,0.68796
2.6663556980201975,0,0,1.2928688964843749,0,0,0.84084
2.667739883007016,0,0,1.4245499877929686,0,0,0.68796
2.669125234009698,0,0,1.2761094848632812,0,0,0.84084
2.6705108449968975,0,0,1.438915197753906,0,0,20
2.671895993000362,0,0,1.16837041015625,0,0,0.0
2.6732816960138734,0,0,1.2569558715820313,0,0,1.1465999999999998
2.674667084997054,0,0,1.0702081420898437,0,0,0.6115200000000001
2.6760521400137804,0,0,1.3431471313476562,0,0,0.6115200000000001
2.677436639001826,0,0,1.4437036010742186,0,0,1.2994800000000002
2.6788218980072998,0,0,1.5107412475585937,0,0,0.6115200000000001
2.6802073610015213,0,0,1.465251416015625,0,0,0.99372
2.681592212000396,0,0,1.5322890624999999,0,0,0.6115200000000001
2.6829813969961833,0,0,1.1851298217773436,0,0,0.68796
2.6843671560054645,0,0,1.1540052001953125,0,0,0.7644
2.6857522110221907,0,0,1.1324573852539062,0,0,0.7644
2.6871573220123537,0,0,1.3144167114257812,0,0,0.6115200000000001
2.6885443030041642,0,0,1.3431471313476562,0,0,0.53508
2.6899313580070157,0,0,1.3838485595703125,0,0,0.91728
2.691316728014499,0,0,1.4317325927734375,0,0,0.84084
2.6927018020069227,0,0,1.4796166259765624,0,0,0.91728
2.69408804201521,0,0,1.1947066284179686,0,0,0.84084
2.695473468018463,0,0,1.2138602416992186,0,0,0.53508
2.6968584670103155,0,0,1.199495031738281,0,0,0.84084
2.6982442820153665,0,0,1.2832920898437499,0,0,0.6115200000000001
2.6996281890023965,0,0,1.4006079711914061,0,0,0.68796
2.701012928999262,0,0,1.2497732666015624,0,0,0.7644
2.7023983920225874,0,0,1.4700398193359374,0,0,0.91728
2.7038089650159236,0,0,1.1755530151367186,0,0,0.84084
2.705196335009532,0,0,1.22583125,0,0,0.84084
2.7065822050208226,0,0,1.0869675537109373,0,0,0.53508
2.7079661680036224,0,0,1.3048399047851562,0,0,0.53508
2.70935100101633,0,0,1.3527239379882812,0,0,1.1465999999999998
2.7107430740143172,0,0,1.39821376953125,0,0,0.68796
2.712128295999719,0,0,1.3120225097656248,0,0,0.68796
2.7135132770054042,0,0,1.4604630126953124,0,0,0.7644
2.7149050540174358,0,0,1.2306196533203124,0,0,0.68796
2.7162893320200965,0,0,1.1923124267578125,0,0,0.68796
2.7176741280127317,0,0,1.0797849487304687,0,0,0.68796
2.719132477999665,0,0,1.3455413330078123,0,0,0.45864
2.720531237020623,0,0,1.43652099609375,0,0,0.84084
2.721917311020661,0,0,1.43652099609375,0,0,0.84084
2.7233029210183304,0,0,1.3551181396484375,0,0,0.84084
2.7246876429999247,0,0,1.3287819213867187,0,0,0.7644
2.7260897910164203,0,0,1.22583125,0,0,0.7644
2.7274756240076385,0,0,1.149216796875,0,0,0.6115200000000001
2.7288606600195635,0,0,1.199495031738281,0,0,0.7644
2.7302461600047536,0,0,1.2593500732421874,0,0,0.3822
2.731630566995591,0,0,1.5083470458984374,0,0,0.22932
2.7330150850175414,0,0,1.407790576171875,0,0,1.1465999999999998
2.734400954999728,0,0,1.4963760375976562,0,0,0.7644
2.7357853070134297,0,0,1.22583125,0,0,0.84084
2.737170028995024,0,0,1.1540052001953125,0,0,0.99372
2.7385541390103754,0,0,1.1085153686523437,0,0,0.91728
2.7399373060034122,0,0,1.1875240234375,0,0,0.45864
2.7413204530021176,0,0,1.2928688964843749,0,0,0.6115200000000001
2.7427176570054144,0,0,1.407790576171875,0,0,0.45864
2.744103378994623,0,0,1.3263877197265623,0,0,0.7644
2.745488397020381,0,0,1.4628572143554686,0,0,0.91728
2.7468734520080034,0,0,1.177947216796875,0,0,0.6115200000000001
2.748272266006097,0,0,1.2689268798828124,0,0,0.53508
2.7496576550183818,0,0,1.0965443603515623,0,0,0.91728
2.751042599003995,0,0,1.199495031738281,0,0,0.7644
2.752427728002658,0,0,1.369483349609375,0,0,-8.943480000000001
2.753814042021986,0,0,1.5203180541992187,0,0,0.68796
2.755199135019211,0,0,1.4053963745117186,0,0,0.7644
2.756584949005628,0,0,1.4700398193359374,0,0,0.68796
2.7579704860108905,0,0,1.1180921752929687,0,0,0.91728
2.759355800022604,0,0,1.1875240234375,0,0,0.91728
2.760740669997176,0,0,1.2832920898437499,0,0,0.91728
2.762145540007623,0,0,1.189918225097656,0,0,0.6115200000000001
2.763531299016904,0,0,1.3263877197265623,0,0,0.30576000000000003
2.7649162060115486,0,0,1.43652099609375,0,0,0.68796
2.76632000101381,0,0,1.429338391113281,0,0,0.91728
2.767706390004605,0,0,1.2856862915039062,0,0,0.99372
2.769090686022537,0,0,1.1875240234375,0,0,0.68796
2.7713321369956248,0,0,1.189918225097656,0,0,0.68796
2.7728956160135567,0,0,1.1420341918945311,0,0,0.84084
2.7743737430137116,0,0,1.4891934326171874,0,0,0.6115200000000001
2.7758045570226386,0,0,1.5179238525390624,0,0,0.84084
2.77718824200565,0,0,1.4628572143554686,0,0,0.7644
2.7785720380197745,0,0,1.3623007446289062,0,0,0.84084
2.779952316021081,0,0,1.2114660400390624,0,0,0.84084
2.781331834004959,0,0,1.0965443603515623,0,0,0.7644
2.782713037013309,0,0,1.369483349609375,0,0,0.45864
2.7840924260090105,0,0,1.429338391113281,0,0,0.99372
2.7854708140075672,0,0,1.5897499023437498,0,0,0.68796
2.786859498999547,0,0,1.3862427612304686,0,0,0.68796
2.788246832002187,0,0,1.4939818359375,0,0,0.6115200000000001
2.7896336470148526,0,0,1.2042834350585936,0,0,1.1465999999999998
2.7910210349946283,0,0,1.1755530151367186,0,0,-9.09636
2.7924284049950074,0,0,1.0989385620117187,0,0,0.91728
2.793816441000672,0,0,1.120486376953125,0,0,0.45864
2.795203440997284,0,0,1.3910311645507811,0,0,0.7644
2.7965901260031387,0,0,1.484405029296875,0,0,0.7644
2.7979756440036,0,0,1.5203180541992187,0,0,0.84084
2.7993619769986253,0,0,1.4030021728515625,0,0,0.91728
2.8007482910179533,0,0,1.2689268798828124,0,0,1.2230400000000001
2.8021371430077124,0,0,1.1013327636718748,0,0,0.53508
2.803573123004753,0,0,1.218648645019531,0,0,0.53508
2.804962512018392,0,0,1.3862427612304686,0,0,0.7644
2.806641358998604,0,0,1.4413093994140624,0,0,0.68796
2.8082035230181646,0,0,1.3215993164062498,0,0,0.91728
2.8095958000048995,0,0,1.3862427612304686,0,0,0.7644
2.810988466022536,0,0,1.1563994018554686,0,0,0.84084
2.8123747990175616,0,0,1.2497732666015624,0,0,0.68796
2.8137610770063475,0,0,1.218648645019531,0,0,0.68796
2.8151469280128367,0,0,1.3048399047851562,0,0,0.53508
2.816532908997033,0,0,1.4700398193359374,0,0,0.91728
2.817918576009106,0,0,1.2880804931640624,0,0,0.68796
2.8193023720232304,0,0,1.2880804931640624,0,0,0.91728
2.820686742023099,0,0,1.4939818359375,0,0,0.68796
2.8221767950162757,0,0,1.22583125,0,0,0.91728
2.823573332017986,0,0,1.0726023437499999,0,0,0.53508
2.8249602020077873,0,0,1.22583125,0,0,0.91728
2.826347590016667,0,0,1.3670891479492187,0,0,0.6115200000000001
2.8277324050141033,0,0,1.4796166259765624,0,0,0.7644
2.829117885994492,0,0,1.2737152832031249,0,0,0.91728
2.830504108016612,0,0,1.5083470458984374,0,0,0.99372
2.831904032995226,0,0,1.1755530151367186,0,0,0.7644
2.8332894220075104,0,0,1.2306196533203124,0,0,0.84084
2.834675366000738,0,0,1.20667763671875,0,0,0.6115200000000001
2.8360608470102306,0,0,1.3215993164062498,0,0,0.45864
2.8374550680164248,0,0,1.3623007446289062,0,0,0.84084
2.8388407159945928,0,0,1.3527239379882812,0,0,0.68796
2.840224660001695,0,0,1.2497732666015624,0,0,0.68796
2.8416084380005486,0,0,1.388636962890625,0,0,0.99372
2.843007474002661,0,0,1.2042834350585936,0,0,0.91728
2.8443944549944717,0,0,1.2378022583007813,0,0,0.84084
2.845780361996731,0,0,1.2234370483398436,0,0,0.6115200000000001
2.847166824998567,0,0,1.235408056640625,0,0,0.45864
2.8485522880218923,0,0,1.3239935180664062,0,0,0.84084
2.849938472005306,0,0,1.3383587280273437,0,0,0.53508
2.8513244350033347,0,0,1.3718775512695311,0,0,0.7644
2.8527096940088086,0,0,1.5035586425781249,0,0,0.99372
2.854096174996812,0,0,1.2330138549804688,0,0,0.91728
2.8554822120058816,0,0,1.3670891479492187,0,0,0.7644
2.85686793300556,0,0,1.2808978881835937,0,0,0.6115200000000001
2.85825508099515,0,0,1.3646949462890625,0,0,0.7644
2.8596399700036272,0,0,1.467645617675781,0,0,0.45864
2.8610255620151293,0,0,1.3263877197265623,0,0,1.07016
2.862412006012164,0,0,1.4772224243164063,0,0,0.84084
2.863796468998771,0,0,1.2880804931640624,0,0,0.6115200000000001
2.8651819310034625,0,0,1.2521674682617188,0,0,0.84084
2.866580931004137,0,0,1.1420341918945311,0,0,0.6115200000000001
2.8679657080210745,0,0,1.2521674682617188,0,0,0.45864
2.869350837019738,0,0,1.3646949462890625,0,0,0.84084
2.8707360780099407,0,0,1.6472107421875,0,0,0.6115200000000001
2.8721215029945597,0,0,1.2593500732421874,0,0,0.6115200000000001
2.874325492011849,0,0,1.2713210815429687,0,0,0.6115200000000001
2.875747380021494,0,0,1.0965443603515623,0,0,0.99372
2.8771359900129028,0,0,1.158793603515625,0,0,0.68796
2.8785264900070615,0,0,1.1109095703125,0,0,0.45864
2.879909637995297,0,0,1.3527239379882812,0,0,0.6115200000000001
2.8813215260161087,0,0,1.438915197753906,0,0,0.45864
2.8827093400177546,0,0,1.37906015625,0,0,0.91728
2.8840949140139855,0,0,1.4508862060546874,0,0,0.53508
2.8854809510230552,0,0,1.2282254516601563,0,0,0.91728
2.8868677279970143,0,0,1.3168109130859373,0,0,0.6115200000000001
2.8882538760080934,0,0,1.218648645019531,0,0,0.68796
2.889640078996308,0,0,1.2976572998046874,0,0,0.53508
2.8910568930150475,0,0,1.4101847778320311,0,0,0.7644
2.8924431150080636,0,0,1.3814543579101561,0,0,0.84084
2.893828652013326,0,0,1.3048399047851562,0,0,1.07016
2.8952149290125817,0,0,1.3958195678710936,0,0,0.6115200000000001
2.896600447013043,0,0,1.1228805786132812,0,0,0.7644
2.897986262018094,0,0,1.24498486328125,0,0,0.7644
2.8993722239974886,0,0,1.2018892333984375,0,0,0.68796
2.900757594004972,0,0,1.1252747802734375,0,0,0.7644
2.902144223015057,0,0,1.419761584472656,0,0,0.68796
2.9035386860196013,0,0,1.4939818359375,0,0,0.68796
2.90492440800881,0,0,1.4796166259765624,0,0,0.84084
2.906311722006649,0,0,1.2952630981445312,0,0,0.45864
2.9076971290051006,0,0,1.1827356201171875,0,0,0.99372
2.9090828690095805,0,0,1.1228805786132812,0,0,0.7644
2.910475425014738,0,0,1.0773907470703123,0,0,0.45864
2.911861405998934,0,0,1.3311761230468748,0,0,0.68796
2.913247072021477,0,0,1.4939818359375,0,0,0.45864
2.9147397740161978,0,0,1.4532804077148436,0,0,1.07016
2.916128384997137,0,0,1.5083470458984374,0,0,0.91728
2.9175138660066295,0,0,1.3311761230468748,0,0,0.99372
2.9188992730050813,0,0,1.1707646118164061,0,0,0.91728
2.9202849389985204,0,0,1.120486376953125,0,0,0.84084
2.921670161013026,0,0,1.2401964599609374,0,0,0.53508
2.9230565309990197,0,0,1.2928688964843749,0,0,0.7644
2.9244423640193418,0,0,1.438915197753906,0,0,0.91728
2.925842085009208,0,0,1.4413093994140624,0,0,1.07016
2.927227918000426,0,0,1.4149731811523436,0,0,0.53508
2.9286173620203044,0,0,1.1252747802734375,0,0,0.6115200000000001
2.9300028800207656,0,0,1.2282254516601563,0,0,0.7644
2.9313886210147757,0,0,1.0965443603515623,0,0,0.84084
2.9327742500172462,0,0,1.2330138549804688,0,0,0.30576000000000003
2.934166268008994,0,0,1.2904746948242187,0,0,0.68796
2.9355526750150602,0,0,1.3263877197265623,0,0,0.84084
2.936937674996443,0,0,1.5203180541992187,0,0,0.7644
2.9383241930045187,0,0,1.4820108276367188,0,0,0.84084
2.939719915011665,0,0,1.1851298217773436,0,0,0.91728
2.941106211015722,0,0,1.1348515869140625,0,0,0.91728
2.94249339500675,0,0,1.1635820068359375,0,0,0.68796
2.94387883899617,0,0,1.2617442749023438,0,0,0.6115200000000001
2.945264153997414,0,0,1.446097802734375,0,0,0.45864
2.9466502090217546,0,0,1.3814543579101561,0,0,0.68796
2.9480356160202064,0,0,1.4628572143554686,0,0,0.6115200000000001
2.949420523014851,0,0,1.3718775512695311,0,0,0.91728
2.9508067819988355,0,0,1.22583125,0,0,0.91728
2.952191856020363,0,0,1.1707646118164061,0,0,0.84084
2.9535769290232565,0,0,1.1037269653320312,0,0,0.53508
2.954962448013248,0,0,1.3814543579101561,0,0,1.07016
2.9563480770157184,0,0,1.426944189453125,0,0,0.30576000000000003
2.957758909004042,0,0,1.350329736328125,0,0,0.99372
2.959204186015995,0,0,1.4173673828125,0,0,0.84084
2.9605917780136224,0,0,1.3575123413085937,0,0,0.84084
2.961977815022692,0,0,1.2521674682617188,0,0,0.6115200000000001
2.9633643139968626,0,0,1.2018892333984375,0,0,0.84084
2.9647505360189825,0,0,1.1659762084960936,0,0,0.68796
2.966137258015806,0,0,1.3000515014648437,0,0,0.84084
2.9675228130072355,0,0,1.448492004394531,0,0,0.45864
2.968933552998351,0,0,1.4891934326171874,0,0,0.91728
2.9703205160039943,0,0,1.5251064575195312,0,0,0.91728
2.971706016018288,0,0,1.2473790649414063,0,0,1.2994800000000002
2.9730919970024843,0,0,1.1875240234375,0,0,0.45864
2.9744785700167995,0,0,1.16837041015625,0,0,0.45864
2.9758641440130305,0,0,1.2521674682617188,0,0,0.68796
2.9772498660022393,0,0,1.24498486328125,0,0,0.68796
2.978635588020552,0,0,1.4101847778320311,0,0,0.91728
2.980020550021436,0,0,1.4820108276367188,0,0,0.84084
2.981406124017667,0,0,1.3335703247070312,0,0,0.7644
2.982792105001863,0,0,1.2832920898437499,0,0,0.6115200000000001
2.984177697013365,0,0,1.199495031738281,0,0,0.7644
2.9855629189987667,0,0,1.3383587280273437,0,0,0.6115200000000001
2.986978289001854,0,0,1.3575123413085937,0,0,1.07016
2.9883673250151332,0,0,1.388636962890625,0,0,1.07016
2.989753269008361,0,0,1.4604630126953124,0,0,0.7644
2.9911405650200322,0,0,1.4939818359375,0,0,0.68796
2.992526046000421,0,0,1.3287819213867187,0,0,0.68796
2.9939113419968635,0,0,1.216254443359375,0,0,0.45864
2.9952970090089366,0,0,1.1947066284179686,0,0,0.7644
2.996682544995565,0,0,1.2593500732421874,0,0,0.45864
2.9980968220042996,0,0,1.3120225097656248,0,0,0.53508
2.999484839994693,0,0,1.4245499877929686,0,0,0.6115200000000001
3.0008700620091986,0,0,1.4030021728515625,0,0,0.7644
3.0022565250110347,0,0,1.3527239379882812,0,0,0.91728
3.003640932001872,0,0,1.3120225097656248,0,0,0.99372
3.005025969003327,0,0,1.2689268798828124,0,0,0.68796
3.006412487011403,0,0,1.1180921752929687,0,0,0.84084
3.0077975050080568,0,0,1.2641384765625,0,0,0.53508
3.009183040994685,0,0,1.2665326782226562,0,0,0.68796
3.0105694670055527,0,0,1.47482822265625,0,0,0.68796
3.01195411500521,0,0,1.448492004394531,0,0,0.84084
3.0133461329969577,0,0,1.2401964599609374,0,0,0.99372
3.014732299023308,0,0,1.2473790649414063,0,0,1.07016
3.016117743012728,0,0,1.1635820068359375,0,0,0.7644
3.0175031130202115,0,0,1.0917559570312498,0,0,0.68796
3.0188887800031807,0,0,1.2976572998046874,0,0,0.91728
3.020274242007872,0,0,1.3527239379882812,0,0,0.30576000000000003
3.021659501013346,0,0,1.3575123413085937,0,0,0.6115200000000001
3.0230453709955327,0,0,1.388636962890625,0,0,0.68796
3.024430834018858,0,0,1.3335703247070312,0,0,0.7644
3.0258160550147295,0,0,1.2928688964843749,0,0,0.84084
3.0272019440017175,0,0,1.209071838378906,0,0,0.53508
3.0285871289961506,0,0,1.2832920898437499,0,0,0.53508
3.0299725540098734,0,0,1.3311761230468748,0,0,0.7644
3.0313579800131265,0,0,1.4867992309570313,0,0,0.30576000000000003
3.0327429239987396,0,0,1.5083470458984374,0,0,0.68796
3.034140033996664,0,0,1.4867992309570313,0,0,0.84084
3.035525459999917,0,0,1.1085153686523437,0,0,0.99372
3.036910645023454,0,0,1.1731588134765625,0,0,0.7644
3.0382965700118802,0,0,1.2114660400390624,0,0,0.6115200000000001
3.039681310998276,0,0,1.2785036865234374,0,0,0.84084
3.0410670140117873,0,0,1.3120225097656248,0,0,0.91728
3.0424530140007846,0,0,1.5035586425781249,0,0,0.7644
3.04383823601529,0,0,1.4987702392578124,0,0,0.6115200000000001
3.045223569002701,0,0,1.4053963745117186,0,0,0.45864
3.0466105680097826,0,0,1.1420341918945311,0,0,0.68796
3.047995938017266,0,0,1.1013327636718748,0,0,0.68796
3.049381271004677,0,0,1.2306196533203124,0,0,0.53508
3.05076664101216,0,0,1.2497732666015624,0,0,0.7644
3.052151807001792,0,0,1.5059528442382812,0,0,0.53508
3.053537474013865,0,0,1.37906015625,0,0,0.91728
3.054922973009525,0,0,1.5442600708007812,0,0,0.68796
3.056321880023461,0,0,1.3551181396484375,0,0,0.45864
3.0577079720096663,0,0,1.3407529296874998,0,0,0.7644
3.0590942310227547,0,0,1.2473790649414063,0,0,0.6115200000000001
3.0604797860141844,0,0,1.3551181396484375,0,0,0.45864
3.061867490003351,0,0,1.2880804931640624,0,0,0.91728
3.0632533410098404,0,0,1.448492004394531,0,0,0.6115200000000001
3.0646386190201156,0,0,1.3215993164062498,0,0,1.1465999999999998
3.066024007013766,0,0,1.407790576171875,0,0,0.6115200000000001
3.0674292290059384,0,0,1.3168109130859373,0,0,0.53508
3.0688168950146064,0,0,1.2832920898437499,0,0,0.68796
3.070204061019467,0,0,1.1947066284179686,0,0,0.68796
3.07158906100085,0,0,1.2210428466796874,0,0,0.68796
3.072974579001311,0,0,1.3239935180664062,0,0,0.68796
3.074361412000144,0,0,1.5275006591796874,0,0,0.84084
3.0757464120106306,0,0,1.4724340209960938,0,0,0.91728
3.0771317630133126,0,0,1.429338391113281,0,0,0.84084
3.0785166330169886,0,0,1.1563994018554686,0,0,0.6115200000000001
3.0801175929955207,0,0,1.1875240234375,0,0,0.68796
3.0815109999966808,0,0,1.3024457031249999,0,0,0.45864
3.0828986290143803,0,0,1.2401964599609374,0,0,0.6115200000000001
3.084284573007608,0,0,1.3192051147460937,0,0,0.3822
3.0856702949968167,0,0,1.3670891479492187,0,0,0.84084
3.087056868011132,0,0,1.448492004394531,0,0,0.68796
3.088442775013391,0,0,1.2473790649414063,0,0,0.91728
3.0898288120224606,0,0,1.1923124267578125,0,0,0.7644
3.0912160520092584,0,0,1.1228805786132812,0,0,0.7644
3.0926016260054894,0,0,1.3168109130859373,0,0,0.45864
3.0939872180169914,0,0,1.22583125,0,0,0.68796
3.095372607000172,0,0,1.429338391113281,0,0,0.84084
3.0967582360026427,0,0,1.2952630981445312,0,0,0.99372
3.098145199008286,0,0,1.5011644409179687,0,0,0.99372
3.0995312170125544,0,0,1.2210428466796874,0,0,1.07016
3.100934698013589,0,0,1.218648645019531,0,0,0.53508
3.1023214750166517,0,0,1.0989385620117187,0,0,0.68796
3.103706586000044,0,0,1.2928688964843749,0,0,0.6115200000000001
3.105100863002008,0,0,1.4628572143554686,0,0,0.3822
3.1064899920020252,0,0,1.3215993164062498,0,0,0.7644
3.107875696005067,0,0,1.4173673828125,0,0,0.7644
3.1092610290215816,0,0,1.438915197753906,0,0,0.84084
3.1106517690059263,0,0,1.20667763671875,0,0,0.84084
3.112036602018634,0,0,1.2042834350585936,0,0,0.53508
3.113422509020893,0,0,1.20667763671875,0,0,0.6115200000000001
3.1148182490142062,0,0,1.2856862915039062,0,0,0.7644
3.1162048779951874,0,0,1.5298948608398437,0,0,0.22932
3.117591156013077,0,0,1.3814543579101561,0,0,0.68796
3.118977063015336,0,0,1.446097802734375,0,0,0.53508
3.1203626920178067,0,0,1.3048399047851562,0,0,0.7644
3.121748450997984,0,0,1.24498486328125,0,0,0.68796
3.1240719009947497,0,0,1.177947216796875,0,0,0.45864
3.125549899006728,0,0,1.2713210815429687,0,0,0.68796
3.1269388619984966,0,0,1.4724340209960938,0,0,0.3822
3.128325195022626,0,0,1.4101847778320311,0,0,0.68796
3.1297104350232985,0,0,1.3934253662109375,0,0,0.7644
3.13109700899804,0,0,1.1276689819335937,0,0,0.84084
3.132482342014555,0,0,1.2378022583007813,0,0,0.99372
3.1338678780011833,0,0,1.0917559570312498,0,0,0.6115200000000001
3.135262841009535,0,0,1.1037269653320312,0,0,0.45864
3.13664787702146,0,0,1.35990654296875,0,0,0.99372
3.1380332840199117,0,0,1.419761584472656,0,0,0.7644
3.139419617014937,0,0,1.4724340209960938,0,0,0.99372
3.14080480200937,0,0,1.438915197753906,0,0,0.91728
3.142192672006786,0,0,1.1516109985351561,0,0,0.91728
3.143590560008306,0,0,1.1947066284179686,0,0,0.84084
3.144994708010927,0,0,1.1827356201171875,0,0,0.7644
3.1463826340041123,0,0,1.139639990234375,0,0,0.68796
3.147768596012611,0,0,1.3000515014648437,0,0,0.6115200000000001
3.1491545220196713,0,0,1.35990654296875,0,0,0.99372
3.1505405030038673,0,0,1.438915197753906,0,0,0.91728
3.1519255390157923,0,0,1.4053963745117186,0,0,0.84084
3.1533114280027803,0,0,1.235408056640625,0,0,0.68796
3.1546984650194645,0,0,1.2497732666015624,0,0,0.53508
3.1560844460036606,0,0,1.2114660400390624,0,0,0.68796
3.1574702789948788,0,0,1.39821376953125,0,0,0.53508
3.1588557040086016,0,0,1.4604630126953124,0,0,0.7644
3.1602408699982334,0,0,1.3910311645507811,0,0,0.84084
3.161628277011914,0,0,1.446097802734375,0,0,0.91728
3.163014629011741,0,0,1.350329736328125,0,0,0.68796
3.1643999430234544,0,0,1.2138602416992186,0,0,0.91728
3.165785462013446,0,0,1.22583125,0,0,0.53508
3.1671709430229384,0,0,1.1276689819335937,0,0,0.53508
3.1685563500213902,0,0,1.3144167114257812,0,0,0.68796
3.1699533490173053,0,0,1.4700398193359374,0,0,0.53508
3.171339201013325,0,0,1.4628572143554686,0,0,0.7644
3.172724811010994,0,0,1.446097802734375,0,0,0.91728
3.174121626012493,0,0,1.1731588134765625,0,0,0.68796
3.1755083659954835,0,0,1.2138602416992186,0,0,0.53508
3.176894292002544,0,0,1.1420341918945311,0,0,0.7644
3.1782808840216603,0,0,1.158793603515625,0,0,0.84084
3.179671865014825,0,0,1.448492004394531,0,0,0.7644
3.1810564010229427,0,0,1.47482822265625,0,0,0.99372
3.1824431419954635,0,0,1.4101847778320311,0,0,0.53508
3.1838277710194234,0,0,1.43652099609375,0,0,0.84084
3.185212826007046,0,0,1.1348515869140625,0,0,0.84084
3.1866147149994504,0,0,1.2641384765625,0,0,0.68796
3.188000435999129,0,0,1.0941501586914062,0,0,1.2230400000000001
3.1893940280133393,0,0,1.2713210815429687,0,0,0.84084
3.190780047007138,0,0,1.4173673828125,0,0,0.7644
3.192165379994549,0,0,1.2521674682617188,0,0,0.6115200000000001
3.193550916010281,0,0,1.446097802734375,0,0,0.6115200000000001
3.194936564017553,0,0,1.2737152832031249,0,0,0.68796
3.196322155999951,0,0,1.3000515014648437,0,0,1.07016
3.197707562998403,0,0,1.2306196533203124,0,0,0.68796
3.1990929699968547,0,0,1.2904746948242187,0,0,0.45864
3.2004784510063473,0,0,1.3048399047851562,0,0,0.68796
3.2018638029985595,0,0,1.455674609375,0,0,0.45864
3.203248784004245,0,0,1.4628572143554686,0,0,0.45864
3.2046380800020415,0,0,1.455674609375,0,0,0.68796
3.206023246020777,0,0,1.1827356201171875,0,0,1.1465999999999998
3.2074087829969358,0,0,1.2473790649414063,0,0,0.91728
3.208794394013239,0,0,1.1731588134765625,0,0,0.6115200000000001
3.210190504003549,0,0,1.189918225097656,0,0,0.45864
3.211577041016426,0,0,1.3144167114257812,0,0,0.84084
3.2129625219968148,0,0,1.6041151123046875,0,0,0.91728
3.214349003013922,0,0,1.438915197753906,0,0,0.84084
3.2157336880045477,0,0,1.4604630126953124,0,0,0.84084
3.2171191690140404,0,0,1.0893617553710937,0,0,0.6115200000000001
3.2185051690030377,0,0,1.235408056640625,0,0,0.99372
3.2198896869958844,0,0,1.2042834350585936,0,0,0.84084
3.221275001007598,0,0,1.3455413330078123,0,0,0.45864
3.2226606300100684,0,0,1.4604630126953124,0,0,0.7644
3.2240458710002713,0,0,1.4173673828125,0,0,0.84084
3.225431519007543,0,0,1.3670891479492187,0,0,0.68796
3.226816314010648,0,0,1.3239935180664062,0,0,0.45864
3.228201240010094,0,0,1.1420341918945311,0,0,0.68796
3.2295861660095397,0,0,1.13006318359375,0,0,0.7644
3.230971536017023,0,0,1.0965443603515623,0,0,0.99372
3.23236979401554,0,0,1.2617442749023438,0,0,0.3822
3.233756183006335,0,0,1.3934253662109375,0,0,0.53508
3.2351421079947613,0,0,1.5011644409179687,0,0,0.68796
3.2365274780022446,0,0,1.4101847778320311,0,0,0.84084
3.2379129220207687,0,0,1.3718775512695311,0,0,0.84084
3.2392993480025325,0,0,1.2138602416992186,0,0,0.0
3.240684810996754,0,0,1.1420341918945311,0,0,0.68796
3.2420839770056773,0,0,1.2976572998046874,0,0,0.7644
3.2434766800142825,0,0,1.2904746948242187,0,0,0.7644
3.244862142018974,0,0,1.388636962890625,0,0,0.53508
3.2462479200039525,0,0,1.4772224243164063,0,0,0.91728
3.247630605008453,0,0,1.3814543579101561,0,0,0.53508
3.249553133995505,0,0,1.20667763671875,0,0,0.7644
3.2509432820079383,0,0,1.3120225097656248,0,0,0.53508
3.2523295410210267,0,0,1.22583125,0,0,0.68796
3.2537153550074436,0,0,1.3048399047851562,0,0,0.68796
3.2551010210008826,0,0,1.419761584472656,0,0,0.45864
3.256486632017186,0,0,1.3407529296874998,0,0,0.45864
3.2578721690224484,0,0,1.2521674682617188,0,0,0.53508
3.259258261008654,0,0,1.2401964599609374,0,0,0.84084
3.260643464018358,0,0,1.2808978881835937,0,0,0.84084
3.262028722994728,0,0,1.3000515014648437,0,0,0.68796
3.263414464017842,0,0,1.1923124267578125,0,0,0.6115200000000001
3.2647995190054644,0,0,1.2378022583007813,0,0,0.3822
3.2661860549997073,0,0,1.4245499877929686,0,0,0.45864
3.267571925010998,0,0,1.3431471313476562,0,0,0.91728
3.2689572400122415,0,0,1.458068811035156,0,0,0.53508
3.2703433140122797,0,0,1.16837041015625,0,0,0.91728
3.2717282210069243,0,0,1.197100830078125,0,0,0.91728
3.273113128001569,0,0,1.0726023437499999,0,0,0.7644
3.2744987570040394,0,0,1.2665326782226562,0,0,0.68796
3.275883923022775,0,0,1.254561669921875,0,0,0.53508
3.2772889040061273,0,0,1.3383587280273437,0,0,0.68796
3.2786738669965416,0,0,1.3192051147460937,0,0,0.99372
3.280059903016081,0,0,1.4053963745117186,0,0,0.84084
3.2814446990087163,0,0,1.2234370483398436,0,0,0.68796
3.2828303840069566,0,0,1.2856862915039062,0,0,0.91728
3.284215662017232,0,0,1.0845733520507812,0,0,0.7644
3.2856003460183274,0,0,1.2425906616210938,0,0,0.53508
3.2870149570226204,0,0,1.254561669921875,0,0,0.53508
3.288402642006986,0,0,1.3024457031249999,0,0,0.99372
3.2897881969984155,0,0,1.3551181396484375,0,0,0.6115200000000001
3.2911857520230114,0,0,1.3575123413085937,0,0,0.6115200000000001
3.2925721399951726,0,0,1.197100830078125,0,0,0.99372
3.2939577320066746,0,0,1.1228805786132812,0,0,0.53508
3.295343325007707,0,0,1.20667763671875,0,0,0.91728
3.2967286390194204,0,0,1.2689268798828124,0,0,0.84084
3.2981156570021994,0,0,1.43652099609375,0,0,0.6115200000000001
3.2995033790066373,0,0,1.3263877197265623,0,0,0.91728
3.300889027013909,0,0,1.388636962890625,0,0,0.68796
3.3022751190001145,0,0,1.235408056640625,0,0,0.84084
3.3036689150030725,0,0,1.2497732666015624,0,0,0.91728
3.3050539329997264,0,0,1.1444283935546875,0,0,0.53508
3.3064472100231797,0,0,1.199495031738281,0,0,0.53508
3.3078315060120076,0,0,1.2330138549804688,0,0,0.91728
3.3092159500229172,0,0,1.4413093994140624,0,0,0.84084
3.310619672003668,0,0,1.37906015625,0,0,1.07016
3.3120044490206055,0,0,1.4604630126953124,0,0,0.6115200000000001
3.3133890600001905,0,0,1.2401964599609374,0,0,0.68796
3.314774838014273,0,0,1.1923124267578125,0,0,0.84084
3.3161597629950847,0,0,1.20667763671875,0,0,0.68796
3.3175449480186217,0,0,1.2330138549804688,0,0,0.68796
3.3189301330130547,0,0,1.3575123413085937,0,0,0.6115200000000001
3.320324205997167,0,0,1.4341267944335936,0,0,0.7644
3.3217102250200696,0,0,1.369483349609375,0,0,0.99372
3.323096391017316,0,0,1.4867992309570313,0,0,0.68796
3.324481335002929,0,0,1.1324573852539062,0,0,0.84084
3.3258657050027978,0,0,1.0941501586914062,0,0,0.6115200000000001
3.3272512789990287,0,0,1.2042834350585936,0,0,0.68796
3.3286360560159665,0,0,1.369483349609375,0,0,0.7644
3.3300208330038004,0,0,1.426944189453125,0,0,0.53508
3.331406000012066,0,0,1.3455413330078123,0,0,0.53508
3.3327907769999,0,0,1.458068811035156,0,0,0.53508
3.334189109998988,0,0,1.218648645019531,0,0,0.91728
3.33557470201049,0,0,1.2234370483398436,0,0,0.84084
3.336959868000122,0,0,1.2234370483398436,0,0,0.6115200000000001
3.3383454240101855,0,0,1.35990654296875,0,0,0.84084
3.3397297199990135,0,0,1.2665326782226562,0,0,0.7644
3.3411147560109384,0,0,1.4939818359375,0,0,0.45864
3.3425002559961285,0,0,1.3120225097656248,0,0,0.99372
3.3438849590020254,0,0,1.5035586425781249,0,0,1.07016
3.345269626006484,0,0,1.2425906616210938,0,0,1.2230400000000001
3.3466546249983367,0,0,1.2282254516601563,0,0,0.91728
3.348039366013836,0,0,1.189918225097656,0,0,1.07016
3.3494316980068106,0,0,1.218648645019531,0,0,0.6115200000000001
3.3508176050090697,0,0,1.2593500732421874,0,0,0.91728
3.352202438021777,0,0,1.3838485595703125,0,0,0.6115200000000001
3.3535874010121915,0,0,1.2401964599609374,0,0,0.99372
3.3549722530005965,0,0,1.4221557861328125,0,0,0.7644
3.356356937001692,0,0,1.2569558715820313,0,0,0.45864
3.357741937012179,0,0,1.1156979736328125,0,0,0.68796
3.359126826020656,0,0,1.180341418457031,0,0,0.6115200000000001
3.3605116209946573,0,0,1.235408056640625,0,0,0.68796
3.3618969170202035,0,0,1.4939818359375,0,0,0.84084
3.363281880010618,0,0,1.350329736328125,0,0,0.6115200000000001
3.36467330501182,0,0,1.3359645263671873,0,0,0.7644
3.3662275620154105,0,0,1.1611878051757811,0,0,0.7644
3.3676188950194046,0,0,1.2497732666015624,0,0,0.68796
3.3690051910234615,0,0,1.209071838378906,0,0,0.7644
3.370391689997632,0,0,1.235408056640625,0,0,0.68796
3.3717756160185672,0,0,1.139639990234375,0,0,0.68796
3.3731608749949373,0,0,1.4317325927734375,0,0,0.84084
3.3752736239985097,0,0,1.4030021728515625,0,0,0.68796
3.3767146409954876,0,0,1.2952630981445312,0,0,0.53508
3.3781066219962668,0,0,1.2114660400390624,0,0,0.6115200000000001
3.379494307009736,0,0,1.1635820068359375,0,0,0.6115200000000001
3.380880436016014,0,0,1.1013327636718748,0,0,0.53508
3.3822671770176385,0,0,1.4173673828125,0,0,0.53508
3.383652491000248,0,0,1.4724340209960938,0,0,0.3822
3.38503813900752,0,0,1.484405029296875,0,0,0.7644
3.386424602009356,0,0,1.388636962890625,0,0,0.68796
3.3878095090040006,0,0,1.369483349609375,0,0,0.91728
3.3891954900173005,0,0,1.3215993164062498,0,0,0.68796
3.390581840998493,0,0,1.2234370483398436,0,0,0.7644
3.3919672850170173,0,0,1.2018892333984375,0,0,0.68796
3.393352989020059,0,0,1.209071838378906,0,0,0.68796
3.3947382290207315,0,0,1.3646949462890625,0,0,0.68796
3.396123469021404,0,0,1.3766659545898436,0,0,0.91728
3.397509099013405,0,0,1.429338391113281,0,0,0.84084
3.3988982459995896,0,0,1.2138602416992186,0,0,0.91728
3.4002847270166967,0,0,1.2689268798828124,0,0,0.7644
3.4016706340189558,0,0,1.1923124267578125,0,0,0.84084
3.4030560230021365,0,0,1.1611878051757811,0,0,0.7644
3.4044410600035917,0,0,1.3862427612304686,0,0,0.7644
3.405826356000034,0,0,1.4700398193359374,0,0,0.53508
3.4072119659977034,0,0,1.458068811035156,0,0,0.91728
3.4086215770221315,0,0,1.4030021728515625,0,0,0.53508
3.410008410020964,0,0,1.1875240234375,0,0,0.68796
3.4113941130053718,0,0,1.197100830078125,0,0,0.6115200000000001
3.4127793530060444,0,0,1.1133037719726562,0,0,0.7644
3.4141825750120915,0,0,1.3335703247070312,0,0,0.53508
3.4155687040183693,0,0,1.4604630126953124,0,0,0.6115200000000001
3.416953703999752,0,0,1.388636962890625,0,0,0.91728
3.418338648014469,0,0,1.4173673828125,0,0,1.07016
3.4197236850159243,0,0,1.2808978881835937,0,0,0.3822
3.4211088879965246,0,0,1.199495031738281,0,0,1.07016
3.4224948690098245,0,0,1.2234370483398436,0,0,0.91728
3.4238789980008733,0,0,1.1947066284179686,0,0,0.3822
3.4252660350175574,0,0,1.3359645263671873,0,0,0.53508
3.4266513860202394,0,0,1.4939818359375,0,0,0.3822
3.4280368680192623,0,0,1.3000515014648437,0,0,0.84084
3.429422182001872,0,0,1.5011644409179687,0,0,0.68796
3.430811978003476,0,0,1.3287819213867187,0,0,0.68796
3.4321969220181927,0,0,1.2234370483398436,0,0,0.68796
3.433581643999787,0,0,1.120486376953125,0,0,0.84084
3.4349669399962295,0,0,1.1252747802734375,0,0,0.6115200000000001
3.4363523650099523,0,0,1.3239935180664062,0,0,0.91728
3.4377372540184297,0,0,1.3838485595703125,0,0,0.68796
3.4391225680010393,0,0,1.3527239379882812,0,0,0.99372
3.4405076980183367,0,0,1.3814543579101561,0,0,0.45864
3.44189258600818,0,0,1.3455413330078123,0,0,0.68796
3.4432783640222624,0,0,1.177947216796875,0,0,0.30576000000000003
3.444663771020714,0,0,1.0917559570312498,0,0,0.53508
3.446049196005333,0,0,1.2761094848632812,0,0,0.45864
3.4474343070178293,0,0,1.3455413330078123,0,0,0.68796
3.4488192510034423,0,0,1.235408056640625,0,0,0.6115200000000001
3.4502053059986793,0,0,1.429338391113281,0,0,0.7644
3.4515893240168225,0,0,1.3455413330078123,0,0,0.7644
3.452985398005694,0,0,1.139639990234375,0,0,0.91728
3.4543713970051613,0,0,1.180341418457031,0,0,0.6115200000000001
3.4557561190158594,0,0,1.0821791503906248,0,0,0.84084
3.4571414710080717,0,0,1.2210428466796874,0,0,0.68796
3.4585269520175643,0,0,1.5059528442382812,0,0,0.53508
3.4599111920106225,0,0,1.467645617675781,0,0,0.53508
3.461296729015885,0,0,1.5155296508789062,0,0,1.1465999999999998
3.4626818770193495,0,0,1.3359645263671873,0,0,0.91728
3.46409326500725,0,0,1.2234370483398436,0,0,0.68796
3.4654790790227707,0,0,1.1252747802734375,0,0,0.6115200000000001
3.466873134020716,0,0,1.177947216796875,0,0,0.68796
3.4682593010074925,0,0,1.3311761230468748,0,0,0.7644
3.469644041004358,0,0,1.4125789794921875,0,0,0.6115200000000001
3.471051263011759,0,0,1.3311761230468748,0,0,0.99372
3.472436281008413,0,0,1.4532804077148436,0,0,1.07016
3.4738216510158964,0,0,1.1444283935546875,0,0,0.68796
3.475207131996285,0,0,1.216254443359375,0,0,0.7644
3.4765921870130114,0,0,1.0941501586914062,0,0,0.68796
3.477977483009454,0,0,1.2832920898437499,0,0,0.68796
3.4793629460036755,0,0,1.3742717529296875,0,0,0.7644
3.480747723020613,0,0,1.4413093994140624,0,0,0.7644
3.482134407997364,0,0,1.3120225097656248,0,0,0.7644
3.4835200190136675,0,0,1.3623007446289062,0,0,0.91728
3.4849052220233716,0,0,1.1707646118164061,0,0,0.53508
3.4862907960196026,0,0,1.1947066284179686,0,0,0.7644
3.4876752400014084,0,0,1.0749965454101562,0,0,0.53508
3.4890598689962644,0,0,1.2928688964843749,0,0,0.45864
3.4904454800125677,0,0,1.455674609375,0,0,0.53508
3.491830034996383,0,0,1.4772224243164063,0,0,0.68796
3.4932148859952576,0,0,1.4173673828125,0,0,0.84084
3.494615311996313,0,0,1.2976572998046874,0,0,0.68796
3.496007534005912,0,0,1.16837041015625,0,0,1.07016
3.497393589001149,0,0,1.139639990234375,0,0,0.91728
3.4987788290018216,0,0,1.3287819213867187,0,0,0.84084
3.5001638290123083,0,0,1.3910311645507811,0,0,0.91728
3.5015484770119656,0,0,1.4508862060546874,0,0,0.53508
3.502933291019872,0,0,1.2952630981445312,0,0,0.84084
3.504326438996941,0,0,1.47482822265625,0,0,1.07016
3.5057114380178973,0,0,1.350329736328125,0,0,0.91728
3.507096993998857,0,0,1.2689268798828124,0,0,0.68796
3.508481715020025,0,0,1.1516109985351561,0,0,0.68796
3.5098712150065694,0,0,1.3455413330078123,0,0,0.6115200000000001
3.511256622005021,0,0,1.3527239379882812,0,0,0.84084
3.5126414550177287,0,0,1.5107412475585937,0,0,0.84084
3.5140267140232027,0,0,1.3311761230468748,0,0,1.07016
3.5154122690146323,0,0,1.4413093994140624,0,0,0.68796
3.5167968980094884,0,0,1.2761094848632812,0,0,0.6115200000000001
3.518195842014393,0,0,1.1851298217773436,0,0,0.68796
3.519581360014854,0,0,1.1372457885742187,0,0,0.84084
3.520966397016309,0,0,1.3144167114257812,0,0,0.68796
3.522352841013344,0,0,1.4006079711914061,0,0,0.84084
3.5237377300218213,0,0,1.458068811035156,0,0,0.99372
3.5251329879974946,0,0,1.3958195678710936,0,0,0.84084
3.5265204140159767,0,0,1.3144167114257812,0,0,0.53508
3.527905227994779,0,0,1.209071838378906,0,0,0.84084
3.5292903759982437,0,0,1.216254443359375,0,0,0.84084
3.530675913003506,0,0,1.1324573852539062,0,0,0.68796
3.532065320003312,0,0,1.3455413330078123,0,0,0.6115200000000001
3.5334503750200383,0,0,1.429338391113281,0,0,0.22932
3.5348357260227203,0,0,1.3814543579101561,0,0,0.68796
3.5362210220191628,0,0,1.4867992309570313,0,0,0.7644
3.5376061150163878,0,0,1.3000515014648437,0,0,0.6115200000000001
3.5389914660190698,0,0,1.3359645263671873,0,0,0.7644
3.54038328002207,0,0,1.1372457885742187,0,0,0.7644
3.541768317023525,0,0,1.0965443603515623,0,0,0.6115200000000001
3.5431537060067058,0,0,1.3000515014648437,0,0,0.84084
3.544538687012391,0,0,1.438915197753906,0,0,0.53508
3.5459232790162787,0,0,1.369483349609375,0,0,0.91728
3.547308389999671,0,0,1.4317325927734375,0,0,0.91728
3.5486930010083597,0,0,1.1156979736328125,0,0,0.84084
3.550090258999262,0,0,1.235408056640625,0,0,0.68796
3.551476092019584,0,0,1.24498486328125,0,0,0.68796
3.5528611290210392,0,0,1.3000515014648437,0,0,0.22932
3.5542462580197025,0,0,1.3838485595703125,0,0,0.7644
3.555630054004723,0,0,1.4125789794921875,0,0,0.99372
3.5570140720228665,0,0,1.4101847778320311,0,0,0.99372
3.5583989419974387,0,0,1.455674609375,0,0,0.45864
3.5597831460181624,0,0,1.0989385620117187,0,0,1.07016
3.5611677929991856,0,0,1.2210428466796874,0,0,0.53508
3.562553571013268,0,0,1.180341418457031,0,0,0.91728
3.5639368109987117,0,0,1.235408056640625,0,0,0.53508
3.565322328999173,0,0,1.4437036010742186,0,0,0.53508
3.566706885001622,0,0,1.4796166259765624,0,0,0.53508
3.5680918100115377,0,0,1.3958195678710936,0,0,0.84084
3.569476310018217,0,0,1.235408056640625,0,0,1.1465999999999998
3.5708614390168805,0,0,1.1013327636718748,0,0,0.91728
3.5722460680117365,0,0,1.1444283935546875,0,0,0.84084
3.5736313270172104,0,0,1.1875240234375,0,0,0.6115200000000001
3.575015845010057,0,0,1.2401964599609374,0,0,0.68796
3.576400623016525,0,0,1.3862427612304686,0,0,0.91728
3.5777854560001288,0,0,1.455674609375,0,0,0.84084
3.579169955017278,0,0,1.4700398193359374,0,0,0.84084
