Time,AccelX1,AccelY1,AccelZ1,AccelX2,AccelY2,AccelZ2
2.2685009753331542e-05,0,0,1.2928688964843749,0,0,0.6115200000000001
0.003684412018628791,0,0,1.369483349609375,0,0,0.53508
0.007860317011363804,0,0,1.3048399047851562,0,0,0.99372
0.011435860011260957,0,0,1.3431471313476562,0,0,0.68796
0.015046865009935573,0,0,1.4006079711914061,0,0,0.3822
0.018621388997416943,0,0,1.0989385620117187,0,0,0.7644
0.022142822010209784,0,0,1.2497732666015624,0,0,0.68796
0.02569212400703691,0,0,1.4221557861328125,0,0,0.6115200000000001
0.030574445001548156,0,0,1.2952630981445312,0,0,0.68796
0.03440842899726704,0,0,1.4939818359375,0,0,0.91728
0.0380791180068627,0,0,1.3623007446289062,0,0,0.68796
0.04162408801494166,0,0,1.2713210815429687,0,0,0.84084
0.0452583699952811,0,0,1.2928688964843749,0,0,0.6115200000000001
0.048206163017312065,0,0,1.4987702392578124,0,0,0.7644
0.05099195701768622,0,0,1.2880804931640624,0,0,0.7644
0.05378908501006663,0,0,1.3551181396484375,0,0,0.45864
0.056588008999824524,0,0,1.3575123413085937,0,0,0.53508
0.059391173999756575,0,0,1.1659762084960936,0,0,0.7644
0.06219139401218854,0,0,1.22583125,0,0,0.45864
0.06498952201218344,0,0,1.35990654296875,0,0,0.84084
0.06776929800980724,0,0,1.3335703247070312,0,0,0.6115200000000001
0.07056679599918425,0,0,1.1156979736328125,0,0,0.53508
0.0733707009931095,0,0,1.2641384765625,0,0,0.45864
0.0762102180160582,0,0,1.3455413330078123,0,0,0.68796
0.07914123201044276,0,0,1.235408056640625,0,0,0.68796
0.08194736001314595,0,0,1.0821791503906248,0,0,0.6115200000000001
0.08474670999567024,0,0,1.3383587280273437,0,0,0.7644
0.08754650401533581,0,0,1.4724340209960938,0,0,0.6115200000000001
0.09033604001160711,0,0,1.3934253662109375,0,0,0.68796
0.09313203801866621,0,0,1.1085153686523437,0,0,0.7644
0.09593022099579684,0,0,1.197100830078125,0,0,0.99372
0.09872514501330443,0,0,1.2808978881835937,0,0,0.53508
0.10156875400571153,0,0,1.2282254516601563,0,0,0.91728
0.10440249199746177,0,0,1.2497732666015624,0,0,0.84084
0.10719019401585683,0,0,1.2425906616210938,0,0,0.6115200000000001
0.11002048800582998,0,0,1.5011644409179687,0,0,0.7644
0.11283946700859815,0,0,1.2569558715820313,0,0,0.84084
0.11563881702022627,0,0,1.1252747802734375,0,0,0.53508
0.11843683401821181,0,0,1.3144167114257812,0,0,0.7644
0.1212507949967403,0,0,1.2928688964843749,0,0,0.6115200000000001
0.12404575600521639,0,0,1.2210428466796874,0,0,0.68796
0.1268473649979569,0,0,1.1827356201171875,0,0,0.7644
0.12964651099173352,0,0,1.4604630126953124,0,0,0.91728
0.13244360199314542,0,0,1.3455413330078123,0,0,0.7644
0.13522974800434895,0,0,1.3096283081054687,0,0,0.7644
0.13804345001699403,0,0,1.369483349609375,0,0,0.53508
0.1408453549956903,0,0,1.3934253662109375,0,0,0.53508
0.14372955600265414,0,0,1.4532804077148436,0,0,0.6115200000000001
0.14658622001297772,0,0,1.2976572998046874,0,0,0.7644
0.14969758401275612,0,0,1.24498486328125,0,0,0.84084
0.1528354480105918,0,0,1.3766659545898436,0,0,0.91728
0.15598575602052733,0,0,1.2617442749023438,0,0,0.6115200000000001
0.1591057119949255,0,0,1.3024457031249999,0,0,0.6115200000000001
0.16222413201467134,0,0,1.5466542724609373,0,0,0.91728
0.1653395890025422,0,0,1.4724340209960938,0,0,0.6115200000000001
0.168459601001814,0,0,1.3718775512695311,0,0,0.53508
0.17157701999531128,0,0,1.189918225097656,0,0,0.22932
0.17469405100564472,0,0,1.2521674682617188,0,0,0.84084
0.17781104499590583,0,0,1.1180921752929687,0,0,0.68796
0.18098400000599213,0,0,1.0893617553710937,0,0,0.45864
0.18409999401774257,0,0,1.3814543579101561,0,0,0.7644
0.18721382101648487,0,0,1.3742717529296875,0,0,0.7644
0.19032907401560806,0,0,1.177947216796875,0,0,0.53508
0.19344440099666826,0,0,1.35990654296875,0,0,0.91728
0.19655600600526668,0,0,1.177947216796875,0,0,0.6115200000000001
0.19967201800318435,0,0,1.2210428466796874,0,0,0.68796
0.2027865300187841,0,0,1.2569558715820313,0,0,1.1465999999999998
0.20590172801166773,0,0,1.5011644409179687,0,0,0.6115200000000001
0.20901511001284234,0,0,1.37906015625,0,0,0.7644
0.2121265119931195,0,0,1.1420341918945311,0,0,0.45864
0.21523809799691662,0,0,1.3096283081054687,0,0,0.68796
0.21838127600494772,0,0,1.4245499877929686,0,0,0.6115200000000001
0.22158384299837053,0,0,1.3287819213867187,0,0,0.6115200000000001
0.22470302201691084,0,0,1.35990654296875,0,0,0.68796
0.22782021900638938,0,0,1.5035586425781249,0,0,0.84084
0.23093608301132917,0,0,1.350329736328125,0,0,0.91728
0.23405428099795245,0,0,1.0869675537109373,0,0,0.3822
0.23717633000342175,0,0,1.467645617675781,0,0,0.7644
0.24028991599334404,0,0,1.37906015625,0,0,0.7644
0.24340566899627447,0,0,1.0893617553710937,0,0,0.84084
0.2465528100146912,0,0,1.0749965454101562,0,0,0.3822
0.24966728599974886,0,0,1.3144167114257812,0,0,0.91728
0.2528043530182913,0,0,1.2018892333984375,0,0,0.6115200000000001
0.25595477200113237,0,0,1.35990654296875,0,0,2.4460800000000003
0.25906865499564447,0,0,1.4030021728515625,0,0,1.1465999999999998
0.2621819259948097,0,0,1.2330138549804688,0,0,0.84084
0.26538080800673924,0,0,1.1180921752929687,0,0,0.53508
0.2686296140018385,0,0,1.2808978881835937,0,0,0.84084
0.27175292299943976,0,0,1.0941501586914062,0,0,0.53508
0.2748731760075316,0,0,1.2282254516601563,0,0,0.68796
0.2779837060079444,0,0,1.2425906616210938,0,0,0.99372
0.28117175499210134,0,0,1.2497732666015624,0,0,0.91728
0.28428984101628885,0,0,1.2018892333984375,0,0,0.7644
0.28741009399527684,0,0,1.2401964599609374,0,0,1.68168
0.2905269210168626,0,0,1.43652099609375,0,0,0.53508
0.29363476601429284,0,0,1.5011644409179687,0,0,0.68796
0.29673044601804577,0,0,1.3000515014648437,0,0,0.53508
0.300131527998019,0,0,1.2904746948242187,0,0,0.30576000000000003
0.30324996600393206,0,0,1.2473790649414063,0,0,0.91728
0.30636416299967095,0,0,1.1659762084960936,0,0,0.6115200000000001
0.30947932400158606,0,0,1.2497732666015624,0,0,0.68796
0.31264903899864294,0,0,1.5179238525390624,0,0,0.84084
0.31576180999400094,0,0,1.4796166259765624,0,0,0.6115200000000001
0.3188763600192033,0,0,1.350329736328125,0,0,0.91728
0.32199935300741345,0,0,1.3862427612304686,0,0,0.68796
0.3251555130118504,0,0,1.2761094848632812,0,0,0.68796
0.3282708589977119,0,0,1.24498486328125,0,0,0.7644
0.3313872970174998,0,0,1.2737152832031249,0,0,1.07016
0.33449136500712484,0,0,1.5251064575195312,0,0,0.91728
0.3376035440014675,0,0,1.3168109130859373,0,0,0.7644
0.3407201480004005,0,0,1.3670891479492187,0,0,0.53508
0.3438365860201884,0,0,1.2880804931640624,0,0,0.68796
0.3470139499986544,0,0,1.37906015625,0,0,0.84084
0.35011935100192204,0,0,1.2904746948242187,0,0,0.6115200000000001
0.353251826018095,0,0,1.3072341064453123,0,0,0.68796
0.3563655600009952,0,0,1.3215993164062498,0,0,-9.01992
0.3594825350155588,0,0,1.1635820068359375,0,0,0.53508
0.3626064730051439,0,0,1.0821791503906248,0,0,0.91728
0.365721392998239,0,0,1.465251416015625,0,0,0.7644
0.36886594200041145,0,0,1.4796166259765624,0,0,0.68796
0.371986490994459,0,0,1.2114660400390624,0,0,0.7644
0.37512407699250616,0,0,1.3215993164062498,0,0,0.53508
0.37823777401354164,0,0,1.3096283081054687,0,0,0.68796
0.38141074901795946,0,0,1.3096283081054687,0,0,0.7644
0.38453055699937977,0,0,1.2282254516601563,0,0,0.7644
0.3876482550112996,0,0,1.5275006591796874,0,0,1.1465999999999998
0.39076471101725474,0,0,1.3910311645507811,0,0,0.91728
0.39388198300730437,0,0,1.1947066284179686,0,0,0.68796
0.3969972539925948,0,0,1.3958195678710936,0,0,0.53508
0.40011387699632905,0,0,1.2473790649414063,0,0,0.7644
0.4032292790070642,0,0,1.2785036865234374,0,0,0.84084
0.4063434760028031,0,0,1.3623007446289062,0,0,1.07016
0.4094595990027301,0,0,1.388636962890625,0,0,0.7644
0.41257350001251325,0,0,1.39821376953125,0,0,1.07016
0.41568949399515986,0,0,1.16837041015625,0,0,0.3822
0.4188052660028916,0,0,1.35990654296875,0,0,0.45864
0.4219139259948861,0,0,1.5155296508789062,0,0,0.68796
0.4250428639934398,0,0,1.3168109130859373,0,0,0.84084
0.42815956100821495,0,0,1.2761094848632812,0,0,0.68796
0.4312764070054982,0,0,1.4341267944335936,0,0,0.99372
0.43439114099601284,0,0,1.139639990234375,0,0,0.7644
0.4375080610043369,0,0,1.177947216796875,0,0,0.91728
0.44062049899366684,0,0,1.3479355346679687,0,0,0.68796
0.443806362018222,0,0,1.4125789794921875,0,0,0.91728
0.44695670701912604,0,0,1.2401964599609374,0,0,0.68796
0.45009179299813695,0,0,1.3000515014648437,0,0,0.68796
0.45320210201316513,0,0,1.2952630981445312,0,0,0.45864
0.45629502201336436,0,0,1.1420341918945311,0,0,0.6115200000000001
0.4594136259984225,0,0,1.3000515014648437,0,0,0.84084
0.4625303609936964,0,0,1.458068811035156,0,0,0.91728
0.46564757701708004,0,0,1.3838485595703125,0,0,0.84084
0.4687600890174508,0,0,1.1875240234375,0,0,0.7644
0.4718583240173757,0,0,1.446097802734375,0,0,0.84084
0.47506827901815996,0,0,1.467645617675781,0,0,0.84084
0.4781841060030274,0,0,1.2401964599609374,0,0,0.91728
0.48130193300312385,0,0,1.3718775512695311,0,0,0.7644
0.4844149819982704,0,0,1.4101847778320311,0,0,0.7644
0.48753619799390435,0,0,1.3359645263671873,0,0,0.84084
0.49065093300305307,0,0,1.1468225952148436,0,0,0.6115200000000001
0.49376698199193925,0,0,1.3862427612304686,0,0,0.68796
0.49688217899529263,0,0,1.4532804077148436,0,0,0.68796
0.4999978769919835,0,0,1.3742717529296875,0,0,0.53508
0.5031126480025705,0,0,1.35990654296875,0,0,0.53508
0.5163885560177732,0,0,1.4628572143554686,0,0,0.91728
0.5198356379987672,0,0,1.2018892333984375,0,0,-9.09636
0.5229823350091465,0,0,1.1468225952148436,0,0,0.53508
0.5261133650201373,0,0,1.2306196533203124,0,0,0.84084
0.5292211000050884,0,0,1.350329736328125,0,0,0.6115200000000001
0.5323493150062859,0,0,1.2785036865234374,0,0,0.68796
0.5356010110117495,0,0,1.3670891479492187,0,0,0.3822
0.5387943370151334,0,0,1.2976572998046874,0,0,0.7644
0.541890794003848,0,0,1.1061211669921875,0,0,0.3822
0.5450451200013049,0,0,1.3024457031249999,0,0,0.6115200000000001
0.5481952060072217,0,0,1.3000515014648437,0,0,0.99372
0.5512902369955555,0,0,1.4772224243164063,0,0,0.7644
0.5543971940060146,0,0,1.2952630981445312,0,0,0.68796
0.5574963540129829,0,0,1.2737152832031249,0,0,0.68796
0.5606124220066704,0,0,1.3311761230468748,0,0,0.7644
0.5638539700012188,0,0,1.2713210815429687,0,0,0.84084
0.5669685000029858,0,0,1.3000515014648437,0,0,0.99372
0.5701069009955972,0,0,1.43652099609375,0,0,0.68796
0.573207042994909,0,0,1.2641384765625,0,0,0.84084
0.5763774439983536,0,0,1.1085153686523437,0,0,0.6115200000000001
0.5795542510168161,0,0,1.3024457031249999,0,0,0.6115200000000001
0.5826541339920368,0,0,1.429338391113281,0,0,0.7644
0.5857829049928114,0,0,1.2880804931640624,0,0,0.84084
0.5888861209969036,0,0,1.2473790649414063,0,0,0.53508
0.5919889119977597,0,0,1.3359645263671873,0,0,0.53508
0.5950910540123004,0,0,1.1133037719726562,0,0,0.7644
0.5982685470080469,0,0,1.24498486328125,0,0,0.68796
0.6013866880093701,0,0,1.5059528442382812,0,0,0.84084
0.6044864419964142,0,0,1.4437036010742186,0,0,0.7644
0.6075906949990895,0,0,1.2808978881835937,0,0,0.45864
0.6107011880085338,0,0,1.484405029296875,0,0,0.30576000000000003
0.6138079600059427,0,0,1.1228805786132812,0,0,0.84084
0.6169094350188971,0,0,1.2952630981445312,0,0,0.84084
0.6200948909972794,0,0,1.3718775512695311,0,0,1.07016
0.6232124770176597,0,0,1.455674609375,0,0,0.7644
0.6263249159965198,0,0,1.3455413330078123,0,0,1.07016
0.6294368350063451,0,0,1.3670891479492187,0,0,0.84084
0.6325441439985298,0,0,1.426944189453125,0,0,0.91728
0.6358630050090142,0,0,1.2306196533203124,0,0,0.68796
0.6390729790145997,0,0,1.2880804931640624,0,0,0.91728
0.6421813250053674,0,0,1.3144167114257812,0,0,0.91728
0.6452892259985674,0,0,1.4939818359375,0,0,0.84084
0.648420626996085,0,0,1.35990654296875,0,0,0.7644
0.6515244540059939,0,0,1.2832920898437499,0,0,0.6115200000000001
0.6546277629968245,0,0,1.465251416015625,0,0,0.3822
0.6578078849997837,0,0,1.37906015625,0,0,1.83456
0.6609158230130561,0,0,1.3431471313476562,0,0,0.84084
0.6640251320204698,0,0,1.3096283081054687,0,0,0.3822
0.6671342549961992,0,0,1.3263877197265623,0,0,0.68796
0.6702419710054528,0,0,1.1372457885742187,0,0,0.45864
0.6733498730172869,0,0,1.20667763671875,0,0,0.53508
0.67645562600228,0,0,1.5251064575195312,0,0,0.6115200000000001
0.679562897013966,0,0,1.5059528442382812,0,0,0.68796
0.682669910020195,0,0,1.2928688964843749,0,0,0.91728
0.6857783110172022,0,0,1.1324573852539062,0,0,0.68796
0.6888851190160494,0,0,1.2832920898437499,0,0,0.68796
0.6919909839925822,0,0,1.0917559570312498,0,0,0.84084
0.6950973480124958,0,0,1.3431471313476562,0,0,0.84084
0.6982089529919904,0,0,1.446097802734375,0,0,0.7644
0.7013170210120734,0,0,1.5251064575195312,0,0,1.1465999999999998
0.7044207180151716,0,0,1.350329736328125,0,0,0.6115200000000001
0.7075292310037185,0,0,1.2497732666015624,0,0,0.7644
0.7106363170023542,0,0,1.3623007446289062,0,0,0.84084
0.7137456630007364,0,0,1.2569558715820313,0,0,0.68796
0.7168736190069467,0,0,1.3718775512695311,0,0,0.91728
0.7199705390085,0,0,1.419761584472656,0,0,0.84084
0.7230808850144967,0,0,1.3766659545898436,0,0,0.84084
0.7261882300081197,0,0,1.3239935180664062,0,0,0.45864
0.7292982430080883,0,0,1.3000515014648437,0,0,0.7644
0.7324015880003572,0,0,1.350329736328125,0,0,0.53508
0.7355112860095687,0,0,1.2808978881835937,0,0,0.84084
0.7386188720120117,0,0,1.2832920898437499,0,0,0.6115200000000001
0.7417273099999875,0,0,1.2497732666015624,0,0,0.7644
0.7448571739951149,0,0,1.2569558715820313,0,0,0.68796
0.7479927419917658,0,0,1.22583125,0,0,0.53508
0.7511003279942088,0,0,1.3383587280273437,0,0,0.6115200000000001
0.7542083960142918,0,0,1.5059528442382812,0,0,0.68796
0.7573338340152986,0,0,1.1037269653320312,0,0,0.6115200000000001
0.7604425130120944,0,0,1.3742717529296875,0,0,0.3822
0.7635503770143259,0,0,1.3718775512695311,0,0,0.84084
0.7667529250029474,0,0,1.2785036865234374,0,0,0.99372
0.7699696950148791,0,0,1.2641384765625,0,0,1.2994800000000002
0.7731549100135453,0,0,1.4915876342773438,0,0,0.7644
0.7762725340144243,0,0,1.43652099609375,0,0,0.84084
0.7793648790102452,0,0,1.2808978881835937,0,0,0.68796
0.7824722249933984,0,0,1.448492004394531,0,0,0.99372
0.7855713860190008,0,0,1.3910311645507811,0,0,0.68796
0.788656898017507,0,0,1.3144167114257812,0,0,0.91728
0.792533882020507,0,0,1.2713210815429687,0,0,0.53508
0.7956835600198247,0,0,1.3144167114257812,0,0,0.84084
0.7987937940051779,0,0,1.1659762084960936,0,0,0.91728
0.8019100840028841,0,0,1.3215993164062498,0,0,0.91728
0.8050169670023024,0,0,1.5442600708007812,0,0,1.07016
0.8081221650063526,0,0,1.5107412475585937,0,0,0.7644
0.8112283069931436,0,0,1.177947216796875,0,0,0.68796
0.8143331710016355,0,0,1.3144167114257812,0,0,0.68796
0.8174411460058764,0,0,1.2785036865234374,0,0,0.6115200000000001
0.8205773429945111,0,0,1.2904746948242187,0,0,0.6115200000000001
0.8237093180068769,0,0,1.2593500732421874,0,0,0.91728
0.8268155900004786,0,0,1.5227122558593749,0,0,0.91728
0.8299223429930862,0,0,1.3383587280273437,0,0,1.07016
0.8330325770075433,0,0,1.1276689819335937,0,0,0.68796
0.8361392939987127,0,0,1.2665326782226562,0,0,0.7644
0.8392274170182645,0,0,1.2689268798828124,0,0,0.7644
0.8423338180000428,0,0,1.2593500732421874,0,0,0.84084
0.8454416640161071,0,0,1.3096283081054687,0,0,0.7644
0.8485769169928972,0,0,1.5107412475585937,0,0,0.7644
0.8516829290019814,0,0,1.1061211669921875,0,0,0.7644
0.8547915160015691,0,0,1.3096283081054687,0,0,0.6115200000000001
0.8578982689941768,0,0,1.484405029296875,0,0,0.6115200000000001
0.8610034479934257,0,0,1.419761584472656,0,0,0.45864
0.8641073490143754,0,0,1.199495031738281,0,0,1.07016
0.8672153980005533,0,0,1.3072341064453123,0,0,0.30576000000000003
0.8703235030116048,0,0,1.218648645019531,0,0,0.84084
0.8734299420029856,0,0,1.1563994018554686,0,0,0.68796
0.8765345840074588,0,0,1.3766659545898436,0,0,0.84084
0.8796406880137511,0,0,2.1308394775390624,0,0,2.36964
0.8827494230063166,0,0,2.528276953125,0,0,1.98744
0.8858574909972958,0,0,2.482787121582031,0,0,1.2994800000000002
0.8889948550204281,0,0,2.403778466796875,0,0,0.0
0.8921111450181343,0,0,1.675941162109375,0,0,1.1465999999999998
0.8952616009919439,0,0,1.4820108276367188,0,0,1.5288
0.8984086129930802,0,0,1.6639701538085936,0,0,1.5288
0.9015173290099483,0,0,2.1739351074218747,0,0,1.45236
0.904623045003973,0,0,2.123656872558594,0,0,2.14032
0.9077289830020163,0,0,1.659181750488281,0,0,0.99372
0.9108364210114814,0,0,1.8650830932617186,0,0,1.1465999999999998
0.9139447300112806,0,0,1.6424223388671875,0,0,0.7644
0.9170510940020904,0,0,1.6543933471679686,0,0,1.45236
0.920156809996115,0,0,1.7621324218749999,0,0,1.45236
0.9232625260192435,0,0,1.687912170410156,0,0,0.99372
0.9263684460020158,0,0,1.9967641845703124,0,0,1.83456
0.9294859950023238,0,0,1.8746598999023436,0,0,1.2230400000000001
0.9325987670163158,0,0,1.407790576171875,0,0,0.6115200000000001
0.9357059460016899,0,0,2.01112939453125,0,0,1.2230400000000001
0.9388131060113665,0,0,1.254561669921875,0,0,1.60524
0.941921599995112,0,0,1.695094775390625,0,0,1.2230400000000001
0.945027112000389,0,0,2.0829554443359375,0,0,1.1465999999999998
0.9481328279944137,0,0,1.886630908203125,0,0,0.6115200000000001
0.9512701000203378,0,0,2.1212626708984375,0,0,1.07016
0.9543763530091383,0,0,1.4053963745117186,0,0,0.30576000000000003
0.9574851799989119,0,0,1.4820108276367188,0,0,0.7644
0.9605969880067278,0,0,2.2266075439453124,0,0,2.2167600000000003
0.9637068709998857,0,0,1.9800047729492187,0,0,1.07016
0.9668029390159063,0,0,1.7118541870117185,0,0,0.91728
0.9698977480002213,0,0,2.4684219116210935,0,0,1.37592
0.9729983530123718,0,0,1.7669208251953124,0,0,0.84084
0.9760833659966011,0,0,1.7118541870117185,0,0,1.83456
0.9791875630035065,0,0,2.4947581298828125,0,0,1.98744
0.9822904829925392,0,0,0.9313444458007812,0,0,1.07016
0.9853951620170847,0,0,2.4157494750976563,0,0,1.75812
0.9884955449961126,0,0,1.678335363769531,0,0,0.68796
0.9915990940062329,0,0,1.1635820068359375,0,0,1.37592
0.9947029399918392,0,0,2.250549560546875,0,0,1.1465999999999998
0.997808193002129,0,0,2.1164742675781247,0,0,1.60524
1.0009089829982258,0,0,2.906560815429687,0,0,1.2230400000000001
1.0041124389972538,0,0,1.3766659545898436,0,0,1.60524
1.0073281899967697,0,0,1.879448303222656,0,0,2.5989600000000004
1.010570849000942,0,0,1.8914193115234375,0,0,2.75184
1.0137656010047067,0,0,1.3024457031249999,0,0,1.07016
1.0171204610087443,0,0,2.521094348144531,0,0,2.52252
1.0219309130043257,0,0,1.8315642700195311,0,0,0.6115200000000001
1.0252655700023752,0,0,1.656787548828125,0,0,1.60524
1.028545284003485,0,0,3.057395520019531,0,0,2.98116
1.0318660339980852,0,0,1.8100164550781248,0,0,-9.32568
1.035211247013649,0,0,1.1875240234375,0,0,0.30576000000000003
1.0387647339957766,0,0,3.105279553222656,0,0,3.13404
1.0419124500185717,0,0,1.7860744384765623,0,0,-0.45864
1.0450527950015385,0,0,1.4796166259765624,0,0,1.1465999999999998
1.048164011008339,0,0,3.421314172363281,0,0,3.21048
1.0513875960023142,0,0,0.9911994873046874,0,0,-0.91728
1.0540767619968392,0,0,0.8595183959960937,0,0,-1.2994800000000002
1.0564781360153574,0,0,2.6527754394531247,0,0,2.36964
1.0588338630041108,0,0,2.8323405639648436,0,0,2.36964
1.061181941011455,0,0,0.7445967163085937,0,0,0.53508
1.0635717410186771,0,0,0.316034619140625,0,0,1.1465999999999998
1.0659109489934053,0,0,3.77326181640625,0,0,3.21048
1.0683834520168602,0,0,2.360682836914062,0,0,1.07016
1.070887047011638,0,0,-0.0383072265625,0,0,-1.07016
1.0733864940120839,0,0,1.9800047729492187,0,0,0.84084
1.0758396080054808,0,0,2.932897033691406,0,0,0.45864
1.0783499620156363,0,0,-0.0047884033203125,0,0,-0.6115200000000001
1.0807544470007997,0,0,-0.6368576416015624,0,0,0.99372
1.0831706350145396,0,0,2.6719290527343746,0,0,1.98744
1.0855546020029578,0,0,2.0733786376953125,0,0,1.83456
1.0879349579918198,0,0,-0.20829554443359374,0,0,0.45864
1.090330739010824,0,0,2.2481553588867187,0,0,1.2994800000000002
1.0927188539935742,0,0,2.6144682128906247,0,0,9.47856
1.0951144139980897,0,0,-0.603338818359375,0,0,-0.22932
1.097534047003137,0,0,1.3311761230468748,0,0,1.75812
1.0999425690097269,0,0,2.482787121582031,0,0,1.1465999999999998
1.1023520909948274,0,0,0.3399766357421875,0,0,-0.22932
1.104796168016037,0,0,-0.5410895751953124,0,0,0.91728
1.1072809670004062,0,0,3.3590649291992185,0,0,2.2931999999999997
1.1096028790052515,0,0,2.346317626953125,0,0,1.2994800000000002
1.1119146989949513,0,0,-0.5267243652343749,0,0,-9.784320000000001
1.1142319810169283,0,0,1.6112977172851561,0,0,0.22932
1.1165435599978082,0,0,2.346317626953125,0,0,0.68796
1.1188922130095307,0,0,0.6751648681640625,0,0,-0.3822
1.1212103470170405,0,0,1.5035586425781249,0,0,1.83456
1.1235220000089612,0,0,2.6958710693359373,0,0,1.83456
1.1258383200038224,0,0,1.848323681640625,0,0,-9.32568
1.1281509910186287,0,0,0.3495534423828125,0,0,1.60524
1.1304640890157316,0,0,2.147598889160156,0,0,1.45236
1.1327755380189046,0,0,1.7645266235351562,0,0,0.3822
1.1350882840051781,0,0,-0.488417138671875,0,0,-1.37592
1.1374144180153962,0,0,1.6065093139648436,0,0,1.5288
1.1397400709975045,0,0,2.7964275390625,0,0,2.36964
1.1420654090179596,0,0,0.6416460449218749,0,0,0.68796
1.1443898389989045,0,0,-0.45968671875,0,0,-0.45864
1.1467172139964532,0,0,2.2266075439453124,0,0,1.5288
1.149044738005614,0,0,2.2864625854492187,0,0,1.45236
1.1514535559981596,0,0,-0.5578489868164063,0,0,0.0
1.1538968550157733,0,0,0.9002198242187499,0,0,0.6115200000000001
1.1564371529966593,0,0,2.2074539306640624,0,0,1.2230400000000001
1.1589761920040473,0,0,0.603338818359375,0,0,0.7644
1.1615473040146753,0,0,1.5131354492187499,0,0,1.37592
1.1640789170050994,0,0,2.0733786376953125,0,0,0.0
1.1666506780020427,0,0,1.3838485595703125,0,0,-0.45864
1.1692050129931886,0,0,1.4700398193359374,0,0,1.2230400000000001
1.1717346440127585,0,0,1.9656395629882812,0,0,0.6115200000000001
1.174267405003775,0,0,0.7015010864257812,0,0,-0.53508
1.1767941850121133,0,0,-0.076614453125,0,0,1.1465999999999998
1.1793212420016062,0,0,2.530671154785156,0,0,1.37592
1.181850374006899,0,0,1.4939818359375,0,0,0.30576000000000003
1.1843743569916114,0,0,0.13168109130859373,0,0,0.3822
1.186900841013994,0,0,2.1595698974609374,0,0,-9.01992
1.1894309720082674,0,0,1.3623007446289062,0,0,0.91728
1.1919549189915415,0,0,0.2346317626953125,0,0,0.30576000000000003
1.1944953649945091,0,0,1.3814543579101561,0,0,0.7644
1.197037495992845,0,0,1.0007762939453124,0,0,1.07016
1.1995826089987531,0,0,0.4333505004882812,0,0,0.68796
1.2021223700139672,0,0,2.7078420776367187,0,0,2.36964
1.2046618160093203,0,0,1.9488801513671874,0,0,0.15288000000000002
1.2072016879974399,0,0,0.26336218261718747,0,0,0.68796
1.209743134008022,0,0,2.379836450195312,0,0,1.98744
1.212281525018625,0,0,1.5682020874023437,0,0,0.22932
1.21482039699913,0,0,-0.6392518432617187,0,0,8.7906
1.217366861004848,0,0,2.090138049316406,0,0,2.2167600000000003
1.2199059929989744,0,0,2.379836450195312,0,0,1.5288
1.2224778090021573,0,0,1.0031704956054688,0,0,-0.99372
1.2250414949958213,0,0,1.7693150268554687,0,0,0.91728
1.2275822749943472,0,0,2.7461493041992187,0,0,0.99372
1.2301244249974843,0,0,0.55545478515625,0,0,-0.84084
1.2326649260066915,0,0,-0.19871873779296872,0,0,0.6115200000000001
1.2352087979961652,0,0,2.7844565307617186,0,0,1.1465999999999998
1.2377487079938874,0,0,1.3383587280273437,0,0,0.0
1.2402881540183444,0,0,0.4740519287109375,0,0,0.99372
1.2428274330159184,0,0,2.5426421630859375,0,0,1.45236
1.2453685460204724,0,0,0.7326257080078125,0,0,-0.3822
1.2479070110130124,0,0,0.2753331909179687,0,0,0.84084
1.2504467529943213,0,0,2.7054478759765623,0,0,2.06388
1.2530765130068175,0,0,0.8212111694335937,0,0,0.0
1.256094951997511,0,0,-0.5674257934570313,0,0,0.53508
1.259210428019287,0,0,3.787627026367187,0,0,1.911
1.2623232360056136,0,0,0.5817910034179687,0,0,-0.30576000000000003
1.2654390450043138,0,0,1.4006079711914061,0,0,1.75812
1.268640852009412,0,0,3.0262708984374997,0,0,-9.40212
1.272171635995619,0,0,-1.0582371337890624,0,0,0.68796
1.2752907410031185,0,0,3.1747114013671873,0,0,1.5288
1.2784006420115475,0,0,1.139639990234375,0,0,0.0
1.281510653992882,0,0,1.1061211669921875,0,0,1.45236
1.2846146849915385,0,0,2.3032219970703123,0,0,0.3822
1.2877209199941717,0,0,-0.39743747558593745,0,0,0.0
1.2908340989961289,0,0,2.978386865234375,0,0,1.75812
1.2939469440025277,0,0,0.33518823242187495,0,0,-1.5288
1.2970878640189767,0,0,1.1013327636718748,0,0,1.83456
1.300192597991554,0,0,3.375824340820312,0,0,2.4460800000000003
1.3033010000071954,0,0,-0.8547299926757812,0,0,-0.6115200000000001
1.3064101230120286,0,0,1.5801730957031248,0,0,0.84084
1.309517006011447,0,0,2.906560815429687,0,0,0.15288000000000002
1.3126184630091302,0,0,-0.9696516723632812,0,0,0.91728
1.3157294380071107,0,0,2.3247698120117186,0,0,1.60524
1.3188348390103783,0,0,0.181959326171875,0,0,0.68796
1.3220053690019995,0,0,1.6735469604492186,0,0,1.07016
1.3252276570128743,0,0,1.8650830932617186,0,0,-0.53508
1.3284684639947955,0,0,-0.17956512451171874,0,0,1.07016
1.3315799580013845,0,0,2.8754361938476563,0,0,1.1465999999999998
1.3346859700104687,0,0,-0.41419688720703124,0,0,-0.45864
1.33779364899965,0,0,1.5801730957031248,0,0,0.3822
1.3410115860169753,0,0,2.592920397949219,0,0,1.911
1.344120171997929,0,0,-0.7302315063476562,0,0,-0.22932
1.3472411110124085,0,0,2.408566870117187,0,0,1.45236
1.3503883630037308,0,0,1.9943699829101562,0,0,0.07644000000000001
1.35359902199707,0,0,0.24899697265624998,0,0,0.53508
1.3564445569936652,0,0,1.7812860351562498,0,0,0.91728
1.3592339619935956,0,0,0.8930372192382812,0,0,1.1465999999999998
1.3620285350189079,0,0,2.1906945190429687,0,0,1.45236
1.364917383005377,0,0,1.1659762084960936,0,0,0.84084
1.3677210659952834,0,0,0.1771709228515625,0,0,-0.15288000000000002
1.3705062130175065,0,0,2.480392919921875,0,0,1.07016
1.37329824801418,0,0,1.3742717529296875,0,0,0.68796
1.3760883570066653,0,0,-0.8762778076171874,0,0,0.0
1.3788809110119473,0,0,2.7653029174804686,0,0,0.99372
1.3816732980194502,0,0,1.5298948608398437,0,0,0.68796
1.384462556015933,0,0,-0.13646949462890623,0,0,0.22932
1.3872549980005715,0,0,2.152387292480469,0,0,1.1465999999999998
1.3900451259978581,0,0,1.149216796875,0,0,-0.15288000000000002
1.392867198010208,0,0,1.0031704956054688,0,0,1.07016
1.3956586410058662,0,0,1.7693150268554687,0,0,1.1465999999999998
1.3984494910109788,0,0,1.0869675537109373,0,0,9.47856
1.4012409150018357,0,0,1.3910311645507811,0,0,1.75812
1.4040293580037542,0,0,1.43652099609375,0,0,0.07644000000000001
1.406819836993236,0,0,0.8044517578125,0,0,0.30576000000000003
1.4096099279995542,0,0,2.252943762207031,0,0,1.60524
1.412409019016195,0,0,1.6639701538085936,0,0,0.45864
1.4152027209929656,0,0,-0.2154781494140625,0,0,0.68796
1.4180034970049746,0,0,3.086125939941406,0,0,1.68168
1.420803735993104,0,0,1.936909143066406,0,0,1.2994800000000002
1.4236242700135335,0,0,-1.2569558715820313,0,0,-0.30576000000000003
1.4264181760081556,0,0,2.4253262817382812,0,0,1.2994800000000002
1.4292097110010218,0,0,1.956062756347656,0,0,1.60524
1.4319992279924918,0,0,-0.6775590698242188,0,0,0.30576000000000003
1.4347900970024057,0,0,2.29843359375,0,0,0.3822
1.4375817429972813,0,0,1.1635820068359375,0,0,0.07644000000000001
1.4403691490006167,0,0,0.24181436767578124,0,0,1.83456
1.4431587209983263,0,0,2.6982652709960937,0,0,1.5288
1.4459501639939845,0,0,-0.1484405029296875,0,0,-1.98744
1.4487411059963051,0,0,1.8411410766601561,0,0,1.37592
1.4515305300010368,0,0,2.3439234252929686,0,0,1.911
1.4544048050011043,0,0,-0.3806780639648437,0,0,-0.15288000000000002
1.4574340959952679,0,0,1.24498486328125,0,0,2.36964
1.4605384790047538,0,0,2.3343466186523436,0,0,2.14032
1.4636447319935542,0,0,-1.9776105712890624,0,0,-0.7644
1.466753985005198,0,0,3.670311145019531,0,0,1.83456
1.469862201018259,0,0,0.8714894042968749,0,0,-0.45864
1.4729680840100627,0,0,-0.040701428222656245,0,0,1.5288
1.4760584300092887,0,0,2.8012159423828122,0,0,2.14032
1.479167868004879,0,0,0.3687070556640625,0,0,0.7644
1.4822728440049104,0,0,1.915361328125,0,0,1.45236
1.4853797079995275,0,0,2.2361843505859373,0,0,-9.784320000000001
1.4884819790022448,0,0,0.49799394531249996,0,0,1.75812
1.4915862880006898,0,0,2.81558115234375,0,0,-20
1.494692208012566,0,0,-0.5003881469726562,0,0,-0.038220000000000004
1.4978002200077754,0,0,2.059013427734375,0,0,1.45236
1.5009143060015049,0,0,2.786850732421875,0,0,2.6754
1.504017892992124,0,0,-1.5849614990234373,0,0,-0.68796
1.5071253130154219,0,0,3.5625720703124997,0,0,1.68168
1.5102359180164058,0,0,1.1037269653320312,0,0,-0.99372
1.513341281999601,0,0,-0.9002198242187499,0,0,1.07016
1.5164550350164063,0,0,2.8754361938476563,0,0,9.631440000000001
1.5212913010036573,0,0,-0.21068974609375,0,0,1.5288
1.5244232389959507,0,0,2.959233251953125,0,0,1.45236
1.5275406769942492,0,0,-0.5602431884765625,0,0,9.32568
1.5306480780127458,0,0,2.4253262817382812,0,0,1.83456
1.5337633680028375,0,0,1.2904746948242187,0,0,-0.6115200000000001
1.5369247130001895,0,0,0.062249243164062495,0,0,2.06388
1.5401072610111441,0,0,2.9568390502929685,0,0,1.75812
1.5432269960001577,0,0,0.7637503295898437,0,0,-0.68796
1.5463359150162432,0,0,1.8195932617187498,0,0,1.45236
1.5494522800145205,0,0,1.4724340209960938,0,0,-0.6115200000000001
1.5525708470086101,0,0,-0.39983167724609375,0,0,0.45864
1.5557147290091962,0,0,2.935291235351562,0,0,1.911
1.5588294640183449,0,0,1.3048399047851562,0,0,0.91728
1.5619413100066595,0,0,0.6272808349609375,0,0,0.22932
1.5656137950136326,0,0,2.2074539306640624,0,0,9.24924
1.5689957849972416,0,0,0.354341845703125,0,0,1.37592
1.5720978530007415,0,0,1.2210428466796874,0,0,2.2931999999999997
1.5752019770152401,0,0,1.2425906616210938,0,0,1.68168
1.5783023039984982,0,0,2.925714428710937,0,0,1.911
1.5814150020014495,0,0,0.5961562133789062,0,0,-0.6115200000000001
1.5845151990070008,0,0,0.9145850341796874,0,0,1.07016
1.5876131560071371,0,0,2.8945898071289062,0,0,0.91728
1.5907112430140842,0,0,-0.3711012573242187,0,0,0.45864
1.5938270330079831,0,0,2.003946789550781,0,0,0.99372
1.596964600001229,0,0,2.0159177978515626,0,0,2.2167600000000003
1.6000801869959105,0,0,-0.06464344482421874,0,0,0.22932
1.6031976060185116,0,0,2.3822306518554686,0,0,1.07016
1.6063040260050911,0,0,0.8188169677734375,0,0,0.07644000000000001
1.6094150010030717,0,0,2.281674182128906,0,0,1.2994800000000002
1.6125270510092378,0,0,1.2641384765625,0,0,1.1465999999999998
1.6156401920015924,0,0,-0.16998831787109375,0,0,0.53508
1.6187552600167692,0,0,2.9927520751953125,0,0,1.83456
1.621868957998231,0,0,0.7302315063476562,0,0,-1.60524
1.624984043999575,0,0,0.47884033203125,0,0,2.06388
1.6280966860067565,0,0,3.1292215698242187,0,0,1.07016
1.6312108279962558,0,0,-0.6057330200195312,0,0,0.30576000000000003
1.6343266180192586,0,0,2.952050646972656,0,0,0.6115200000000001
1.637442519015167,0,0,1.0773907470703123,0,0,-0.3822
1.640555698017124,0,0,0.7158662963867187,0,0,1.911
1.643669747019885,0,0,2.6048914062499997,0,0,0.45864
1.6467831479967572,0,0,-1.0438719238281249,0,0,0.6115200000000001
1.6498996049922425,0,0,3.0334535034179684,0,0,1.2230400000000001
1.6530131910112686,0,0,2.070984436035156,0,0,-9.172799999999999
1.6561554440122563,0,0,-1.659181750488281,0,0,0.0
1.6592704560025595,0,0,3.3327287109375,0,0,1.45236
1.662384543014923,0,0,-0.05027823486328125,0,0,0.0
1.6655006660148501,0,0,1.5155296508789062,0,0,0.84084
1.668612067005597,0,0,2.0757728393554684,0,0,1.83456
1.671726578992093,0,0,-1.2785036865234374,0,0,-0.68796
1.6748433510074392,0,0,2.7557261108398436,0,0,1.83456
1.6779589930083603,0,0,2.0973206542968748,0,0,-0.84084
1.6811086340167094,0,0,-0.38307226562499996,0,0,1.911
1.6842252200003713,0,0,2.3319524169921872,0,0,1.45236
1.687338677002117,0,0,-0.7302315063476562,0,0,-0.3822
1.6904547449958045,0,0,2.059013427734375,0,0,1.911
1.6935697570152115,0,0,2.398990063476562,0,0,-0.84084
1.6966801950184163,0,0,-0.5243301635742187,0,0,2.14032
1.6997946519986726,0,0,3.1771056030273437,0,0,1.83456
1.7029088489944115,0,0,0.07900865478515624,0,0,-0.45864
1.706050213018898,0,0,0.8882488159179687,0,0,0.68796
1.7091649850190151,0,0,2.858676782226562,0,0,1.98744
1.7122752930154093,0,0,-1.0414777221679687,0,0,0.22932
1.715390824014321,0,0,3.327940307617187,0,0,1.98744
1.7185107440163847,0,0,1.01514150390625,0,0,-0.22932
1.7216319410072174,0,0,0.718260498046875,0,0,0.30576000000000003
1.724742435006192,0,0,2.7820623291015623,0,0,2.2167600000000003
1.7278554840013385,0,0,-0.48123453369140623,0,0,-0.91728
1.731007070018677,0,0,1.5849614990234373,0,0,3.21048
1.7341213040053844,0,0,2.1595698974609374,0,0,8.63772
1.7372352050151676,0,0,1.3455413330078123,0,0,1.1465999999999998
1.7403503289970104,0,0,2.0781670410156248,0,0,1.60524
1.7434635999961756,0,0,-0.507570751953125,0,0,-0.91728
1.7465891500178259,0,0,1.905784521484375,0,0,2.06388
1.7496988470084034,0,0,2.437297290039062,0,0,0.3822
1.752842765999958,0,0,-1.0031704956054688,0,0,1.68168
1.7559902039938606,0,0,3.414131567382812,0,0,1.2994800000000002
1.7591036980156787,0,0,1.2952630981445312,0,0,-9.172799999999999
1.7622069510107394,0,0,1.2042834350585936,0,0,0.0
1.7656207740074024,0,0,2.346317626953125,0,0,-0.7644
1.7692946860042866,0,0,1.1923124267578125,0,0,1.1465999999999998
1.7725026410189457,0,0,1.9297265380859374,0,0,1.37592
1.7756053390039597,0,0,0.14125789794921875,0,0,0.0
1.7787028330203611,0,0,2.540247961425781,0,0,1.68168
1.7818024560110644,0,0,1.5394716674804687,0,0,-1.37592
1.7849028200143948,0,0,-0.3711012573242187,0,0,2.2167600000000003
1.7880025549966376,0,0,2.8850130004882812,0,0,0.7644
1.7910983820038382,0,0,-0.38307226562499996,0,0,1.07016
1.7942154500051402,0,0,2.6312276245117188,0,0,0.45864
1.7973244070017245,0,0,1.946485949707031,0,0,1.2994800000000002
1.8004272340040188,0,0,-0.181959326171875,0,0,0.99372
1.8035503950086422,0,0,2.729389892578125,0,0,1.2994800000000002
1.8066631850088015,0,0,0.5195417602539062,0,0,0.3822
1.8097780859970953,0,0,1.4700398193359374,0,0,0.53508
1.8128905420016963,0,0,1.6519991455078125,0,0,2.06388
1.8160078880027868,0,0,-0.05027823486328125,0,0,0.53508
1.819163676991593,0,0,2.844311572265625,0,0,2.2931999999999997
1.8222848750010598,0,0,-0.4285620971679687,0,0,-1.83456
1.825400517001981,0,0,2.43250888671875,0,0,1.75812
1.8284929920046125,0,0,1.886630908203125,0,0,1.98744
1.8316132820036728,0,0,-1.7118541870117185,0,0,-0.6115200000000001
1.8347329790121876,0,0,3.478775012207031,0,0,2.36964
1.8378497319936287,0,0,2.0877438476562498,0,0,-1.2230400000000001
1.8409861150139477,0,0,-1.8722656982421875,0,0,0.68796
1.8440827199956402,0,0,3.1962592163085937,0,0,0.68796
1.8471977320150472,0,0,-1.1659762084960936,0,0,-0.15288000000000002
1.8503133180201985,0,0,2.4444798950195312,0,0,0.53508
1.8534264230111148,0,0,1.9297265380859374,0,0,-9.09636
1.8565728050016332,0,0,-0.8188169677734375,0,0,0.7644
1.859687151008984,0,0,3.845087866210937,0,0,1.37592
1.8628041630145162,0,0,-0.016759411621093748,0,0,-0.99372
1.8659216380037833,0,0,0.9888052856445312,0,0,1.68168
1.8690349660173524,0,0,2.0542250244140625,0,0,2.5989600000000004
1.872148180991644,0,0,-2.7150246826171873,0,0,-1.1465999999999998
1.8752649530069903,0,0,3.9935283691406247,0,0,2.5989600000000004
1.8783779280201998,0,0,0.8762778076171874,0,0,-1.68168
1.8814902740123216,0,0,-1.3048399047851562,0,0,0.6115200000000001
1.8846277669945266,0,0,2.896984008789062,0,0,-0.22932
1.8877442789962515,0,0,-0.8906430175781249,0,0,0.6115200000000001
1.8908603099989705,0,0,0.833182177734375,0,0,0.30576000000000003
1.8940043220063671,0,0,1.8411410766601561,0,0,0.7644
1.8972184809972532,0,0,-1.3910311645507811,0,0,1.1465999999999998
1.9003418270149268,0,0,3.086125939941406,0,0,-0.99372
1.9034452460182365,0,0,1.0773907470703123,0,0,-1.60524
1.906560906994855,0,0,-2.3630770385742186,0,0,1.2230400000000001
1.9096758630184922,0,0,2.806004345703125,0,0,2.5989600000000004
1.9127958010067232,0,0,0.16998831787109375,0,0,-2.2167600000000003
1.9159168690093793,0,0,-0.17477672119140625,0,0,0.07644000000000001
1.9190311779966578,0,0,3.787627026367187,0,0,4.66284
1.9221437830128707,0,0,-0.3327940307617187,0,0,0.0
1.9252578320156317,0,0,-1.697488977050781,0,0,7.03248
1.9283708440198097,0,0,2.990357873535156,0,0,1.2230400000000001
1.9314851709932555,0,0,0.5817910034179687,0,0,0.0
1.9345966090040747,0,0,-0.51714755859375,0,0,-0.45864
1.9377128250198439,0,0,1.9919757812499999,0,0,0.30576000000000003
1.9408705040114,0,0,1.9297265380859374,0,0,0.0
1.943985109013738,0,0,-0.679953271484375,0,0,-1.1465999999999998
1.9470992870046757,0,0,1.43652099609375,0,0,1.1465999999999998
1.950213336996967,0,0,0.3711012573242187,0,0,0.22932
1.95332564500859,0,0,1.1563994018554686,0,0,1.37592
1.956469583004946,0,0,1.2737152832031249,0,0,0.45864
1.95958172500832,0,0,0.6703764648437499,0,0,-0.91728
1.962691941007506,0,0,1.0223241088867188,0,0,0.53508
1.966063579020556,0,0,0.6655880615234374,0,0,0.22932
1.9693379410018679,0,0,-0.28012159423828126,0,0,0.45864
1.9724404720182065,0,0,1.2641384765625,0,0,1.2994800000000002
1.9755422809976153,0,0,2.0829554443359375,0,0,0.07644000000000001
1.9786411079985555,0,0,0.0430956298828125,0,0,-2.14032
1.9817414350109175,0,0,0.63206923828125,0,0,1.45236
1.9848672990046907,0,0,0.18914193115234373,0,0,0.68796
1.9879688860091846,0,0,-0.0909796630859375,0,0,-0.45864
1.991067880007904,0,0,2.4349030883789062,0,0,0.91728
1.9941834850178566,0,0,0.63206923828125,0,0,0.07644000000000001
1.9973011820111424,0,0,-0.14604630126953125,0,0,-0.91728
2.000417731003836,0,0,1.0510545288085937,0,0,0.30576000000000003
2.0035612620122265,0,0,0.8068459594726562,0,0,0.0
2.0066772370191757,0,0,-0.009576806640625,0,0,0.53508
2.0097953230142593,0,0,1.448492004394531,0,0,0.91728
2.0129094470175914,0,0,0.5506663818359374,0,0,0.15288000000000002
2.0160040890041273,0,0,1.2880804931640624,0,0,0.0
2.019173878012225,0,0,0.5722141967773438,0,0,0.0
2.0228095130005386,0,0,0.8954314208984374,0,0,0.0
2.02602922701044,0,0,0.239420166015625,0,0,0.45864
2.029413939017104,0,0,0.9050082275390624,0,0,0.84084
2.0327332260203548,0,0,0.9313444458007812,0,0,0.45864
2.035989811003674,0,0,0.4213794921875,0,0,0.0
2.0391570450155996,0,0,1.8028338500976562,0,0,0.53508
2.0422801120148506,0,0,0.5865794067382812,0,0,9.47856
2.0453967910143547,0,0,-0.13407529296874998,0,0,0.0
2.048519877018407,0,0,1.4173673828125,0,0,0.6115200000000001
2.0516373150167055,0,0,0.7326257080078125,0,0,0.30576000000000003
2.0547521430125926,0,0,0.8355763793945312,0,0,0.53508
2.0579725239949767,0,0,1.5107412475585937,0,0,9.631440000000001
2.0609604450000916,0,0,0.737414111328125,0,0,0.0
2.0637586470111273,0,0,0.679953271484375,0,0,-0.22932
2.0665567929972894,0,0,0.4333505004882812,0,0,9.631440000000001
2.0693524400121532,0,0,1.2856862915039062,0,0,0.7644
2.072144400997786,0,0,0.5315127685546874,0,0,0.45864
2.0750143050099723,0,0,1.0965443603515623,0,0,0.91728
2.0778147850069217,0,0,1.3551181396484375,0,0,0.7644
2.080610876000719,0,0,0.9864110839843749,0,0,0.45864
2.0834067260148004,0,0,1.4963760375976562,0,0,0.6115200000000001
2.0862026500108186,0,0,1.426944189453125,0,0,0.6115200000000001
2.089001129003009,0,0,1.0965443603515623,0,0,0.53508
2.0917939050123096,0,0,1.68551796875,0,0,0.7644
2.094727050018264,0,0,1.3862427612304686,0,0,0.84084
2.0975850649992935,0,0,1.1324573852539062,0,0,0.91728
2.1004238780005835,0,0,1.4101847778320311,0,0,1.07016
2.10327526400215,0,0,1.5155296508789062,0,0,0.84084
2.106077873002505,0,0,1.199495031738281,0,0,0.6115200000000001
2.1091780709975865,0,0,1.2378022583007813,0,0,0.68796
2.112297323998064,0,0,1.3263877197265623,0,0,0.91728
2.115180024993606,0,0,1.2785036865234374,0,0,0.84084
2.118039374006912,0,0,1.2737152832031249,0,0,0.68796
2.120991888019489,0,0,1.3670891479492187,0,0,0.53508
2.1238694410130847,0,0,1.5083470458984374,0,0,-9.09636
2.1268140110187232,0,0,1.2976572998046874,0,0,0.30576000000000003
2.129718951997347,0,0,1.20667763671875,0,0,1.2230400000000001
2.132593431015266,0,0,1.419761584472656,0,0,0.7644
2.135481372009963,0,0,1.5083470458984374,0,0,0.91728
2.1383566099975724,0,0,1.4101847778320311,0,0,0.91728
2.1412565690116026,0,0,1.0965443603515623,0,0,0.30576000000000003
2.1441438629990444,0,0,1.24498486328125,0,0,0.91728
2.1469724340131506,0,0,1.1037269653320312,0,0,0.68796
2.149756877013715,0,0,1.2042834350585936,0,0,0.45864
2.1525279869965743,0,0,1.1731588134765625,0,0,0.7644
2.1553255960170645,0,0,1.2330138549804688,0,0,0.91728
2.158113704994321,0,0,1.3479355346679687,0,0,0.91728
2.160752872005105,0,0,1.180341418457031,0,0,0.6115200000000001
2.163283522007987,0,0,0.9409212524414062,0,0,0.30576000000000003
2.1658452650008257,0,0,1.4604630126953124,0,0,0.91728
2.168377637019148,0,0,1.465251416015625,0,0,0.99372
2.170940027019242,0,0,1.0582371337890624,0,0,0.84084
2.173474843992153,0,0,1.177947216796875,0,0,0.68796
2.1759971050196327,0,0,1.4987702392578124,0,0,0.84084
2.1785325139935594,0,0,1.4245499877929686,0,0,0.7644
2.1810651080159005,0,0,1.3479355346679687,0,0,0.91728
2.1835953700065147,0,0,1.216254443359375,0,0,1.07016
2.1861265570041724,0,0,1.4341267944335936,0,0,0.68796
2.1886574840173125,0,0,1.5179238525390624,0,0,0.84084
2.1911890229966957,0,0,1.2497732666015624,0,0,0.84084
2.1937201360124163,0,0,1.2330138549804688,0,0,0.84084
2.1962511939927936,0,0,1.2832920898437499,0,0,0.45864
2.1987821770017035,0,0,1.6352397338867186,0,0,0.7644
2.20131334499456,0,0,1.2713210815429687,0,0,0.68796
2.203844884003047,0,0,1.0438719238281249,0,0,0.30576000000000003
2.2063767749932595,0,0,1.2880804931640624,0,0,0.68796
2.20893812799477,0,0,1.0989385620117187,0,0,0.99372
2.2114716859941836,0,0,1.2808978881835937,0,0,0.7644
2.2140033169998787,0,0,1.216254443359375,0,0,0.99372
2.2165344300155994,0,0,1.3431471313476562,0,0,0.45864
2.2190661909990013,0,0,1.4030021728515625,0,0,0.84084
2.221598749019904,0,0,1.235408056640625,0,0,0.91728
2.224163306003902,0,0,1.2904746948242187,0,0,1.1465999999999998
2.2267005479952786,0,0,1.2569558715820313,0,0,1.2230400000000001
2.229236012994079,0,0,1.4796166259765624,0,0,0.68796
2.23176995900576,0,0,1.3814543579101561,0,0,0.6115200000000001
2.2343036830134224,0,0,1.2114660400390624,0,0,0.84084
2.236839907011017,0,0,1.0726023437499999,0,0,0.6115200000000001
2.239380426995922,0,0,1.4628572143554686,0,0,0.84084
2.2419141879945528,0,0,1.4030021728515625,0,0,0.84084
2.2444614859996364,0,0,1.3311761230468748,0,0,0.53508
2.246994432003703,0,0,1.3000515014648437,0,0,0.84084
2.249527859996306,0,0,1.4317325927734375,0,0,0.6115200000000001
2.2520582510042004,0,0,1.426944189453125,0,0,0.99372
2.2545899570104666,0,0,1.4101847778320311,0,0,0.6115200000000001
2.2572040499944706,0,0,1.189918225097656,0,0,0.6115200000000001
2.259851309005171,0,0,1.2497732666015624,0,0,0.45864
2.2629563770024106,0,0,1.467645617675781,0,0,0.84084
2.2666314560046885,0,0,1.2210428466796874,0,0,0.91728
2.2699473169923294,0,0,1.1731588134765625,0,0,0.6115200000000001
2.2732546600163914,0,0,1.2641384765625,0,0,0.68796
2.2763827460003085,0,0,1.1923124267578125,0,0,0.99372
2.279502888006391,0,0,1.2210428466796874,0,0,0.91728
2.2826095480122603,0,0,1.455674609375,0,0,0.91728
2.285722764005186,0,0,1.3383587280273437,0,0,1.07016
2.288855924998643,0,0,1.2785036865234374,0,0,0.53508
2.2919725110114086,0,0,1.2497732666015624,0,0,0.7644
2.295091856009094,0,0,1.47482822265625,0,0,0.68796
2.2981962579942774,0,0,1.1635820068359375,0,0,0.7644
2.301306937006302,0,0,1.3192051147460937,0,0,0.68796
2.3044199669966474,0,0,1.3048399047851562,0,0,0.7644
2.307532831997378,0,0,1.1563994018554686,0,0,0.84084
2.3106459730188362,0,0,1.1516109985351561,0,0,0.6115200000000001
2.3137628750118893,0,0,1.2378022583007813,0,0,0.68796
2.316879535006592,0,0,1.4963760375976562,0,0,0.84084
2.3200050470186397,0,0,1.3287819213867187,0,0,0.84084
2.3231180220027454,0,0,1.3192051147460937,0,0,0.53508
2.3262308120029047,0,0,1.429338391113281,0,0,0.99372
2.3293817680096254,0,0,1.1516109985351561,0,0,0.7644
2.3324963920167647,0,0,1.2378022583007813,0,0,0.6115200000000001
2.335614534007618,0,0,1.4437036010742186,0,0,0.68796
2.3387188609922305,0,0,1.4867992309570313,0,0,0.99372
2.341863353998633,0,0,1.1635820068359375,0,0,0.6115200000000001
2.344998198997928,0,0,1.2401964599609374,0,0,0.68796
2.3481060079939198,0,0,1.35990654296875,0,0,0.84084
2.351207224011887,0,0,1.0893617553710937,0,0,0.6115200000000001
2.3543052549939603,0,0,1.254561669921875,0,0,1.2230400000000001
2.357437230006326,0,0,1.4724340209960938,0,0,0.91728
2.3605332610022742,0,0,1.3527239379882812,0,0,0.91728
2.3636311440204736,0,0,1.1731588134765625,0,0,1.5288
2.366848525009118,0,0,1.3646949462890625,0,0,0.7644
2.3699826110096183,0,0,1.3072341064453123,0,0,0.6115200000000001
2.3731336600030772,0,0,1.2617442749023438,0,0,0.91728
2.3762314500054345,0,0,1.2761094848632812,0,0,0.91728
2.3793299440003466,0,0,1.3431471313476562,0,0,0.84084
2.382431086007273,0,0,1.1228805786132812,0,0,-8.867040000000001
2.3855580060044304,0,0,1.2018892333984375,0,0,0.6115200000000001
2.388655129005201,0,0,1.5251064575195312,0,0,0.7644
2.3917731050169095,0,0,1.4245499877929686,0,0,0.84084
2.3948898760136217,0,0,1.2234370483398436,0,0,0.91728
2.3980105920054484,0,0,1.1156979736328125,0,0,0.45864
2.4011398630100302,0,0,1.5059528442382812,0,0,0.99372
2.4042490239953622,0,0,1.120486376953125,0,0,0.7644
2.4073644620075356,0,0,1.2856862915039062,0,0,0.3822
2.4104783819930162,0,0,1.4963760375976562,0,0,0.91728
2.4135943940200377,0,0,1.5083470458984374,0,0,0.68796
2.416707332013175,0,0,1.350329736328125,0,0,0.68796
2.419821843999671,0,0,1.3646949462890625,0,0,0.6115200000000001
2.4229359310120344,0,0,1.2976572998046874,0,0,0.6115200000000001
2.426053702016361,0,0,1.120486376953125,0,0,0.6115200000000001
2.429170214018086,0,0,1.0079588989257813,0,0,0.45864
2.4322826900170185,0,0,1.5490484741210937,0,0,0.68796
2.435396776010748,0,0,1.3120225097656248,0,0,0.68796
2.4385358250001445,0,0,1.3383587280273437,0,0,0.91728
2.4416532260074746,0,0,1.3168109130859373,0,0,0.3822
2.4447658860008232,0,0,1.3862427612304686,0,0,0.6115200000000001
2.447920213016914,0,0,1.0893617553710937,0,0,0.30576000000000003
2.4510344290174544,0,0,1.189918225097656,0,0,0.84084
2.4541488669929095,0,0,1.4149731811523436,0,0,0.68796
2.4572663239960093,0,0,1.3670891479492187,0,0,0.91728
2.460413149994565,0,0,1.0869675537109373,0,0,0.53508
2.4635308659926523,0,0,1.4772224243164063,0,0,0.68796
2.466646712011425,0,0,1.448492004394531,0,0,0.68796
2.469763724016957,0,0,1.3215993164062498,0,0,0.6115200000000001
2.472879755019676,0,0,1.2904746948242187,0,0,0.30576000000000003
2.475995545013575,0,0,1.5251064575195312,0,0,0.7644
2.4791111680096947,0,0,1.3072341064453123,0,0,0.91728
2.482226827996783,0,0,1.1875240234375,0,0,0.45864
2.4853429700015113,0,0,1.47482822265625,0,0,0.99372
2.488456816005055,0,0,1.678335363769531,0,0,0.6115200000000001
2.4915719389973674,0,0,1.0797849487304687,0,0,0.68796
2.4946875630121212,0,0,1.3024457031249999,0,0,0.3822
2.497824149002554,0,0,1.2761094848632812,0,0,0.68796
2.5009811790077947,0,0,1.1755530151367186,0,0,0.84084
2.5041001350036822,0,0,1.1707646118164061,0,0,0.68796
2.507214240002213,0,0,1.484405029296875,0,0,0.68796
2.5103289560065605,0,0,1.3455413330078123,0,0,1.07016
2.5134379870141856,0,0,1.2210428466796874,0,0,0.53508
2.516530277003767,0,0,1.2641384765625,0,0,0.68796
2.519653733994346,0,0,1.3144167114257812,0,0,0.84084
2.52337718202034,0,0,1.3718775512695311,0,0,0.91728
2.5265147869940847,0,0,1.3048399047851562,0,0,0.3822
2.5296340950008016,0,0,1.3407529296874998,0,0,0.91728
2.532954216003418,0,0,1.3072341064453123,0,0,0.68796
2.5360801909992006,0,0,1.235408056640625,0,0,0.6115200000000001
2.5393191640032455,0,0,1.4413093994140624,0,0,0.84084
2.5424430280108936,0,0,1.3862427612304686,0,0,1.1465999999999998
2.5455564850126393,0,0,1.1516109985351561,0,0,0.6115200000000001
2.5486716820159927,0,0,1.3048399047851562,0,0,0.6115200000000001
2.5517899350088555,0,0,1.2378022583007813,0,0,0.7644
2.554906633013161,0,0,1.1324573852539062,0,0,0.68796
2.5580536070046946,0,0,1.2378022583007813,0,0,1.07016
2.5611972119950224,0,0,1.4532804077148436,0,0,0.91728
2.564309706009226,0,0,1.0749965454101562,0,0,0.7644
2.567526346014347,0,0,1.1276689819335937,0,0,0.53508
2.5708943550125696,0,0,1.2856862915039062,0,0,0.84084
2.574019274004968,0,0,1.4317325927734375,0,0,0.68796
2.577149749005912,0,0,1.2138602416992186,0,0,0.7644
2.5802463550062384,0,0,1.3670891479492187,0,0,0.45864
2.5833448670164216,0,0,1.3120225097656248,0,0,0.7644
2.586443231004523,0,0,1.2689268798828124,0,0,0.53508
2.5895549840060994,0,0,1.0726023437499999,0,0,0.53508
2.5926708670158405,0,0,1.446097802734375,0,0,0.84084
2.596372390020406,0,0,1.2617442749023438,0,0,0.6115200000000001
2.599538345995825,0,0,1.199495031738281,0,0,0.45864
2.6026658760092687,0,0,1.2330138549804688,0,0,0.3822
2.6057743889978155,0,0,1.4125789794921875,0,0,0.7644
2.6089161040144973,0,0,1.1180921752929687,0,0,0.68796
2.6120345420204103,0,0,1.2330138549804688,0,0,0.53508
2.6151493320066947,0,0,1.4125789794921875,0,0,0.99372
2.61826762201963,0,0,1.3072341064453123,0,0,0.6115200000000001
2.621395616006339,0,0,1.1252747802734375,0,0,0.68796
2.6244897580181714,0,0,1.3934253662109375,0,0,0.7644
2.627607844013255,0,0,1.4221557861328125,0,0,0.91728
2.63075507801841,0,0,1.4437036010742186,0,0,1.07016
2.6338720170024317,0,0,1.1133037719726562,0,0,0.45864
2.6369991580140777,0,0,1.3215993164062498,0,0,0.84084
2.640110578009626,0,0,1.197100830078125,0,0,0.7644
2.6432222010043915,0,0,1.1731588134765625,0,0,0.68796
2.6463347320095636,0,0,1.3862427612304686,0,0,0.99372
2.649448782001855,0,0,1.2641384765625,0,0,0.99372
2.652558942005271,0,0,1.1276689819335937,0,0,0.53508
2.6556724359979853,0,0,1.2593500732421874,0,0,0.84084
2.658784800005378,0,0,1.3407529296874998,0,0,1.07016
2.6619343860074878,0,0,1.1755530151367186,0,0,0.91728
2.665050694020465,0,0,1.0941501586914062,0,0,0.84084
2.668168077012524,0,0,1.458068811035156,0,0,0.84084
2.671281329996418,0,0,1.2497732666015624,0,0,0.84084
2.6743938790168613,0,0,1.1348515869140625,0,0,0.45864
2.6775080030201934,0,0,1.2425906616210938,0,0,0.7644
2.6806183670123573,0,0,1.3479355346679687,0,0,0.68796
2.6837304159998894,0,0,1.209071838378906,0,0,0.6115200000000001
2.686844095005654,0,0,1.2330138549804688,0,0,0.68796
2.6899573300033808,0,0,1.2689268798828124,0,0,0.91728
2.6930987120140344,0,0,1.0845733520507812,0,0,0.6115200000000001
2.6962121130200103,0,0,1.120486376953125,0,0,0.6115200000000001
2.699328292015707,0,0,1.455674609375,0,0,0.68796
2.7024418039945886,0,0,1.4891934326171874,0,0,0.91728
2.7055567240167875,0,0,1.1156979736328125,0,0,0.84084
2.7086665510141756,0,0,1.24498486328125,0,0,0.22932
2.7117767489980906,0,0,1.484405029296875,0,0,0.84084
2.7148900759930257,0,0,1.2378022583007813,0,0,0.68796
2.7180059580132365,0,0,1.0893617553710937,0,0,0.68796
2.721118507994106,0,0,1.47482822265625,0,0,0.99372
2.724228723993292,0,0,1.43652099609375,0,0,0.68796
2.7273416060197633,0,0,1.1875240234375,0,0,0.84084
2.730454174015904,0,0,1.3479355346679687,0,0,0.45864
2.733568074996583,0,0,1.3455413330078123,0,0,0.6115200000000001
2.736701087007532,0,0,1.1540052001953125,0,0,2.06388
2.7398148770153057,0,0,1.2234370483398436,0,0,0.45864
2.7429285930120386,0,0,1.4987702392578124,0,0,0.68796
2.7460449200007133,0,0,1.3575123413085937,0,0,0.99372
2.749159896018682,0,0,1.158793603515625,0,0,0.53508
2.7522708710166626,0,0,1.35990654296875,0,0,0.0
2.7553837909945287,0,0,1.3096283081054687,0,0,0.6115200000000001
2.758497061993694,0,0,1.2928688964843749,0,0,0.7644
2.7616546110075433,0,0,1.139639990234375,0,0,0.99372
2.7647666599950753,0,0,1.3742717529296875,0,0,0.68796
2.7679129680036567,0,0,1.1109095703125,0,0,0.84084
2.7711259789939504,0,0,1.1324573852539062,0,0,0.7644
2.774797279998893,0,0,1.446097802734375,0,0,0.68796
2.7778985149925575,0,0,1.3215993164062498,0,0,0.22932
2.7809997310105246,0,0,1.2042834350585936,0,0,0.53508
2.7840948539960664,0,0,1.3407529296874998,0,0,0.53508
2.787190756003838,0,0,1.2808978881835937,0,0,0.68796
2.7903021390084177,0,0,1.1276689819335937,0,0,0.91728
2.7935081680188887,0,0,1.158793603515625,0,0,0.99372
2.7966236429929268,0,0,1.5203180541992187,0,0,0.68796
2.7997412669938058,0,0,1.0893617553710937,0,0,0.6115200000000001
2.802845594007522,0,0,1.0821791503906248,0,0,0.30576000000000003
2.805946790991584,0,0,1.5251064575195312,0,0,0.45864
2.8090517669916153,0,0,1.5011644409179687,0,0,0.99372
2.812164186994778,0,0,1.149216796875,0,0,0.68796
2.8152782730176114,0,0,1.0749965454101562,0,0,0.6115200000000001
2.8183904149918817,0,0,1.4724340209960938,0,0,0.68796
2.821503926999867,0,0,1.35990654296875,0,0,0.6115200000000001
2.8246136990201194,0,0,1.1276689819335937,0,0,0.68796
2.8277498219977133,0,0,1.419761584472656,0,0,1.07016
2.830869575001998,0,0,1.6256629272460936,0,0,1.07016
2.8340093640144914,0,0,1.0726023437499999,0,0,0.6115200000000001
2.8371187660086434,0,0,1.2785036865234374,0,0,0.3822
2.840212259994587,0,0,1.3215993164062498,0,0,0.6115200000000001
2.8433321609918494,0,0,1.0965443603515623,0,0,0.91728
2.8464502280112356,0,0,1.197100830078125,0,0,0.3822
2.8495676669990644,0,0,1.4796166259765624,0,0,0.99372
2.852681604999816,0,0,1.3670891479492187,0,0,0.99372
2.8557803950097878,0,0,1.2018892333984375,0,0,0.6115200000000001
2.8588939440087415,0,0,1.2976572998046874,0,0,1.07016
2.862075195997022,0,0,1.3575123413085937,0,0,0.84084
2.86518985699513,0,0,1.1947066284179686,0,0,0.68796
2.8682998880103696,0,0,1.1252747802734375,0,0,1.2230400000000001
2.871411714993883,0,0,1.4915876342773438,0,0,0.68796
2.8745249310159124,0,0,1.3862427612304686,0,0,1.1465999999999998
2.8776402389921714,0,0,1.1731588134765625,0,0,0.45864
2.8807513999927323,0,0,1.4867992309570313,0,0,0.68796
2.8838588570069987,0,0,1.4030021728515625,0,0,0.84084
2.8870261090050917,0,0,1.1923124267578125,0,0,0.68796
2.890424320998136,0,0,1.2880804931640624,0,0,0.15288000000000002
2.8935725550109055,0,0,1.2856862915039062,0,0,0.68796
2.8970168590021785,0,0,1.1827356201171875,0,0,0.84084
2.9001440750143956,0,0,1.1348515869140625,0,0,1.07016
2.903260124003282,0,0,1.4125789794921875,0,0,0.99372
2.9063736730022356,0,0,1.4437036010742186,0,0,0.84084
2.909487741009798,0,0,1.2737152832031249,0,0,0.53508
2.912600734998705,0,0,1.2282254516601563,0,0,0.7644
2.9157140440074727,0,0,1.5035586425781249,0,0,1.07016
2.9188309450109955,0,0,1.0917559570312498,0,0,0.3822
2.92194543799269,0,0,1.2737152832031249,0,0,1.1465999999999998
2.9251015610061586,0,0,1.5227122558593749,0,0,0.68796
2.928215388004901,0,0,1.4820108276367188,0,0,0.6115200000000001
2.9313287340046372,0,0,1.180341418457031,0,0,0.53508
2.9345429300155956,0,0,1.47482822265625,0,0,0.53508
2.937658294016728,0,0,1.426944189453125,0,0,0.84084
2.9407691580126993,0,0,1.3215993164062498,0,0,0.6115200000000001
2.94388350402005,0,0,1.0845733520507812,0,0,0.45864
2.946999498002697,0,0,1.2928688964843749,0,0,0.91728
2.9501128059928305,0,0,1.199495031738281,0,0,0.84084
2.9532269299961627,0,0,1.1923124267578125,0,0,0.7644
2.956338385993149,0,0,1.2761094848632812,0,0,0.7644
2.959455528005492,0,0,1.455674609375,0,0,0.84084
2.9626045580080245,0,0,1.209071838378906,0,0,0.68796
2.9657175519969314,0,0,1.2617442749023438,0,0,0.68796
2.9690383760025725,0,0,1.2832920898437499,0,0,0.7644
2.9722261470160447,0,0,1.24498486328125,0,0,0.53508
2.9753267890191637,0,0,1.1085153686523437,0,0,1.07016
2.9784261349996086,0,0,1.3910311645507811,0,0,0.91728
2.9815282030031085,0,0,1.2330138549804688,0,0,0.99372
2.984622493007919,0,0,0.9265560424804687,0,0,0.6115200000000001
2.9877199130132794,0,0,1.4891934326171874,0,0,0.91728
2.9908363330177963,0,0,1.4149731811523436,0,0,0.91728
2.9939532710122876,0,0,1.2569558715820313,0,0,0.3822
2.9971005599945784,0,0,1.254561669921875,0,0,0.99372
3.0002246840158477,0,0,1.4125789794921875,0,0,1.1465999999999998
3.003341122006532,0,0,1.5011644409179687,0,0,0.68796
3.006458634015871,0,0,1.3646949462890625,0,0,0.45864
3.009576498006936,0,0,1.448492004394531,0,0,0.6115200000000001
3.012689029012108,0,0,1.5586252807617187,0,0,0.91728
3.0158046710130293,0,0,1.209071838378906,0,0,0.7644
3.0189064430014696,0,0,1.197100830078125,0,0,0.3822
3.022139694017824,0,0,1.455674609375,0,0,0.45864
3.0257419029949233,0,0,1.3311761230468748,0,0,0.84084
3.028925877006259,0,0,1.2785036865234374,0,0,0.7644
3.032297441997798,0,0,1.5203180541992187,0,0,0.84084
3.0354968050087336,0,0,1.2330138549804688,0,0,0.68796
3.038986756000668,0,0,1.0726023437499999,0,0,0.7644
3.0421161010162905,0,0,1.3838485595703125,0,0,0.91728
3.0452343730139546,0,0,1.5682020874023437,0,0,0.91728
3.0483493670180906,0,0,1.1348515869140625,0,0,0.91728
3.051450361002935,0,0,1.2330138549804688,0,0,0.45864
3.054567428014707,0,0,1.2904746948242187,0,0,0.68796
3.0576853660168126,0,0,1.2210428466796874,0,0,1.1465999999999998
3.0608006010006648,0,0,1.2713210815429687,0,0,0.99372
3.0639864270051476,0,0,1.4125789794921875,0,0,0.68796
3.0670857730146963,0,0,1.4987702392578124,0,0,0.7644
3.0702025630162098,0,0,1.0821791503906248,0,0,0.45864
3.073321483010659,0,0,1.4341267944335936,0,0,0.68796
3.076437291019829,0,0,1.4939818359375,0,0,0.91728
3.0795528030139394,0,0,1.1276689819335937,0,0,0.3822
3.082668871007627,0,0,1.3575123413085937,0,0,0.91728
3.085786531009944,0,0,1.4700398193359374,0,0,0.7644
3.0889016180008184,0,0,1.1276689819335937,0,0,0.7644
3.0920175189967267,0,0,1.1923124267578125,0,0,0.6115200000000001
3.0951338640006725,0,0,1.4987702392578124,0,0,0.3822
3.0982497470104136,0,0,1.2928688964843749,0,0,1.07016
3.101368036994245,0,0,1.1420341918945311,0,0,0.84084
3.1044824380078353,0,0,1.3263877197265623,0,0,0.6115200000000001
3.1075972279941197,0,0,1.2785036865234374,0,0,0.84084
3.1107116480125114,0,0,1.3646949462890625,0,0,0.45864
3.1138295860146172,0,0,0.9983820922851562,0,0,0.68796
3.116986412991537,0,0,1.4101847778320311,0,0,0.7644
3.120108869014075,0,0,1.6424223388671875,0,0,0.68796
3.1232247150037438,0,0,1.1061211669921875,0,0,0.68796
3.1263400790048763,0,0,1.2401964599609374,0,0,0.84084
3.129945751017658,0,0,1.4796166259765624,0,0,0.68796
3.1331499100197107,0,0,1.1156979736328125,0,0,0.7644
3.136269163020188,0,0,1.2641384765625,0,0,0.45864
3.1393846750142984,0,0,1.2785036865234374,0,0,1.07016
3.1424991319945548,0,0,1.0726023437499999,0,0,0.7644
3.145612737018382,0,0,1.1707646118164061,0,0,1.07016
3.1487252679944504,0,0,1.4963760375976562,0,0,0.84084
3.151838410005439,0,0,1.5490484741210937,0,0,1.07016
3.154967144015245,0,0,1.1659762084960936,0,0,-8.943480000000001
3.158083638001699,0,0,1.1731588134765625,0,0,0.15288000000000002
3.16119768700446,0,0,1.2952630981445312,0,0,0.84084
3.1643498100165743,0,0,1.3551181396484375,0,0,0.45864
3.1674701549927704,0,0,1.1133037719726562,0,0,0.53508
3.170588389999466,0,0,1.5011644409179687,0,0,0.7644
3.173740161000751,0,0,1.4915876342773438,0,0,1.07016
3.176870488008717,0,0,1.3766659545898436,0,0,0.53508
3.179987315001199,0,0,1.22583125,0,0,0.68796
3.1831004199921153,0,0,1.2761094848632812,0,0,0.53508
3.18621428401093,0,0,1.3431471313476562,0,0,0.84084
3.1893264810205437,0,0,1.0821791503906248,0,0,1.1465999999999998
3.1924379559932277,0,0,1.5107412475585937,0,0,0.7644
3.1955503950011916,0,0,1.2785036865234374,0,0,0.91728
3.198671332997037,0,0,1.3718775512695311,0,0,0.45864
3.201786401012214,0,0,1.3287819213867187,0,0,0.3822
3.204897357005393,0,0,1.2473790649414063,0,0,0.7644
3.2080107770161703,0,0,1.1875240234375,0,0,0.6115200000000001
3.2111229750153143,0,0,1.13006318359375,0,0,0.91728
3.2142364130122587,0,0,1.3144167114257812,0,0,0.7644
3.217350721010007,0,0,1.1659762084960936,0,0,0.53508
3.2209943740163,0,0,1.1707646118164061,0,0,0.53508
3.2241445899999235,0,0,1.407790576171875,0,0,0.91728
3.2272581760189496,0,0,1.4604630126953124,0,0,0.7644
3.23039974400308,0,0,1.0773907470703123,0,0,0.45864
3.233540699991863,0,0,1.2832920898437499,0,0,0.45864
3.236654805019498,0,0,1.1085153686523437,0,0,0.6115200000000001
3.239767743012635,0,0,1.2234370483398436,0,0,0.68796
3.2428816439933144,0,0,1.1540052001953125,0,0,0.7644
3.2459938419924583,0,0,1.5107412475585937,0,0,0.53508
3.2491057430161163,0,0,1.1611878051757811,0,0,0.91728
3.252215700020315,0,0,1.209071838378906,0,0,0.68796
3.255327563994797,0,0,1.2880804931640624,0,0,0.53508
3.258438668999588,0,0,1.4604630126953124,0,0,0.7644
3.261552162002772,0,0,1.2378022583007813,0,0,0.45864
3.2647003040183336,0,0,1.3120225097656248,0,0,0.45864
3.2678121869976167,0,0,1.37906015625,0,0,0.68796
3.2709237539966125,0,0,1.2593500732421874,0,0,0.3822
3.27526643499732,0,0,1.2282254516601563,0,0,0.99372
3.2784023910062388,0,0,1.5227122558593749,0,0,0.7644
3.2815210150147323,0,0,1.3335703247070312,0,0,0.91728
3.284634397015907,0,0,1.1516109985351561,0,0,0.53508
3.287780353013659,0,0,1.388636962890625,0,0,0.7644
3.2908977920014877,0,0,1.3766659545898436,0,0,0.84084
3.294017063017236,0,0,1.2521674682617188,0,0,0.84084
3.297132667998085,0,0,1.2569558715820313,0,0,0.45864
3.300258217001101,0,0,1.4245499877929686,0,0,0.84084
3.303375432995381,0,0,1.1755530151367186,0,0,0.68796
3.3064932230045088,0,0,1.2234370483398436,0,0,0.30576000000000003
3.3096090870094486,0,0,1.4772224243164063,0,0,0.53508
3.312721562018851,0,0,1.4125789794921875,0,0,0.68796
3.315838723006891,0,0,1.209071838378906,0,0,0.6115200000000001
3.3189558089943603,0,0,1.177947216796875,0,0,0.6115200000000001
3.322068968991516,0,0,1.235408056640625,0,0,0.84084
3.3251844629994594,0,0,1.2234370483398436,0,0,0.99372
3.3282963639940135,0,0,1.1133037719726562,0,0,0.68796
3.331607817992335,0,0,1.4628572143554686,0,0,0.68796
3.334781700017629,0,0,1.4604630126953124,0,0,0.68796
3.3379025089961942,0,0,1.1252747802734375,0,0,0.53508
3.3411868890107144,0,0,1.4724340209960938,0,0,0.3822
3.344313420006074,0,0,1.4867992309570313,0,0,0.91728
3.3474310240126215,0,0,1.1324573852539062,0,0,0.84084
3.3505471110111102,0,0,1.120486376953125,0,0,0.7644
3.353662253008224,0,0,1.2856862915039062,0,0,0.7644
3.356777801993303,0,0,1.24498486328125,0,0,0.7644
3.35989287000848,0,0,1.0773907470703123,0,0,0.45864
3.3630591219989583,0,0,1.4891934326171874,0,0,0.99372
3.366312817001017,0,0,1.2904746948242187,0,0,0.7644
3.369450163008878,0,0,1.2689268798828124,0,0,0.91728
3.37256882301881,0,0,1.3575123413085937,0,0,0.53508
3.375671724003041,0,0,1.2928688964843749,0,0,0.6115200000000001
3.378790032991674,0,0,1.1444283935546875,0,0,1.1465999999999998
3.381905471003847,0,0,1.0797849487304687,0,0,1.2230400000000001
3.3850204090122133,0,0,1.4149731811523436,0,0,0.68796
3.388133533007931,0,0,1.2473790649414063,0,0,1.1465999999999998
3.3912477120175026,0,0,1.1516109985351561,0,0,0.6115200000000001
3.3943636680196505,0,0,1.2808978881835937,0,0,0.91728
3.3974819400173146,0,0,1.5083470458984374,0,0,0.91728
3.400592415011488,0,0,1.0869675537109373,0,0,0.91728
3.4037069090118166,0,0,1.1611878051757811,0,0,0.99372
3.406821698998101,0,0,1.3862427612304686,0,0,0.84084
3.409935674018925,0,0,1.0366893188476562,0,0,0.99372
3.4130521490005776,0,0,1.2569558715820313,0,0,0.53508
3.4161659209930804,0,0,1.465251416015625,0,0,0.22932
3.419308822019957,0,0,1.5394716674804687,0,0,0.91728
3.4224258520116564,0,0,1.2856862915039062,0,0,0.91728
3.4255426239978988,0,0,1.13006318359375,0,0,0.68796
3.4286710990127176,0,0,1.4413093994140624,0,0,0.91728
3.431771445000777,0,0,1.3623007446289062,0,0,0.53508
3.4348879379977006,0,0,1.180341418457031,0,0,0.91728
3.4380033400084358,0,0,1.467645617675781,0,0,0.99372
3.4411168700025883,0,0,1.419761584472656,0,0,0.99372
3.444229437998729,0,0,1.3000515014648437,0,0,0.6115200000000001
3.4473429130157456,0,0,1.2282254516601563,0,0,0.68796
3.4504558890184853,0,0,1.3527239379882812,0,0,0.68796
3.4535704190202523,0,0,1.1707646118164061,0,0,0.84084
3.4566830059920903,0,0,1.1875240234375,0,0,0.53508
3.459796722017927,0,0,1.3934253662109375,0,0,0.84084
3.462914253002964,0,0,1.3096283081054687,0,0,0.7644
3.466059967991896,0,0,1.0821791503906248,0,0,0.84084
3.469175628008088,0,0,1.5083470458984374,0,0,0.68796
3.472288140997989,0,0,1.5107412475585937,0,0,1.07016
3.4754028010065667,0,0,1.0869675537109373,0,0,0.7644
3.4785159250022843,0,0,1.3623007446289062,0,0,1.1465999999999998
3.481633696006611,0,0,1.6065093139648436,0,0,0.68796
3.4847462640027516,0,0,1.458068811035156,0,0,0.7644
3.487860202003503,0,0,1.1252747802734375,0,0,0.6115200000000001
3.491002140013734,0,0,1.3215993164062498,0,0,0.6115200000000001
3.494105189020047,0,0,1.3910311645507811,0,0,0.91728
3.4972135350108147,0,0,1.3575123413085937,0,0,0.7644
3.500327751011355,0,0,1.1635820068359375,0,0,0.84084
3.503442300017923,0,0,1.4820108276367188,0,0,0.68796
3.5065564980031922,0,0,1.2593500732421874,0,0,0.91728
3.5096709539939184,0,0,1.0869675537109373,0,0,0.68796
3.512785669998266,0,0,1.5083470458984374,0,0,0.68796
3.515902034996543,0,0,1.5298948608398437,0,0,1.2230400000000001
3.5190257130016107,0,0,1.3000515014648437,0,0,0.53508
3.5221537070174236,0,0,1.3479355346679687,0,0,0.68796
3.5253771069983486,0,0,1.3192051147460937,0,0,0.84084
3.5285488220106345,0,0,1.0749965454101562,0,0,0.6115200000000001
3.531665296992287,0,0,1.1659762084960936,0,0,0.84084
3.5347797170106787,0,0,1.5801730957031248,0,0,0.91728
3.537899043993093,0,0,1.3215993164062498,0,0,0.91728
3.5410870920168236,0,0,1.1659762084960936,0,0,0.45864
3.5442059189954307,0,0,1.2521674682617188,0,0,0.91728
3.5473219680134207,0,0,1.2593500732421874,0,0,1.07016
3.550459146994399,0,0,1.197100830078125,0,0,0.68796
3.553576158999931,0,0,1.2928688964843749,0,0,1.1465999999999998
3.556688431010116,0,0,1.3359645263671873,0,0,0.99372
3.559804406017065,0,0,1.1563994018554686,0,0,0.84084
3.5629183069977444,0,0,1.0773907470703123,0,0,0.53508
3.5660718000144698,0,0,1.2880804931640624,0,0,0.7644
3.5692005720047746,0,0,1.4317325927734375,0,0,0.7644
3.5723181390203536,0,0,1.369483349609375,0,0,0.91728
3.5754788180056494,0,0,1.180341418457031,0,0,0.45864
3.5785938299959525,0,0,1.5227122558593749,0,0,0.7644
3.5817067680181935,0,0,1.1563994018554686,0,0,0.3822
3.5848570759990253,0,0,1.1468225952148436,0,0,0.84084
3.5879744220001157,0,0,1.47482822265625,0,0,1.07016
3.591090638015885,0,0,1.4867992309570313,0,0,0.7644
3.594204132008599,0,0,1.3287819213867187,0,0,0.84084
3.597318977001123,0,0,1.3766659545898436,0,0,0.6115200000000001
3.600442193011986,0,0,1.2282254516601563,0,0,0.45864
3.603556871996261,0,0,1.2114660400390624,0,0,0.7644
3.606673458009027,0,0,1.1851298217773436,0,0,0.91728
3.6097886000061408,0,0,1.4628572143554686,0,0,0.53508
3.612901760992827,0,0,1.3120225097656248,0,0,0.99372
3.616016790998401,0,0,1.1851298217773436,0,0,0.68796
3.6191301369981375,0,0,1.2593500732421874,0,0,0.84084
3.6222448160115164,0,0,1.4700398193359374,0,0,0.99372
3.625395920011215,0,0,1.3335703247070312,0,0,0.68796
3.6285095250059385,0,0,1.2832920898437499,0,0,0.7644
3.631623204011703,0,0,1.3383587280273437,0,0,0.7644
3.6347373090102337,0,0,1.180341418457031,0,0,0.91728
3.637851987994509,0,0,1.0749965454101562,0,0,0.45864
3.640998499991838,0,0,1.3670891479492187,0,0,0.6115200000000001
3.6441132530162577,0,0,1.4053963745117186,0,0,0.84084
3.6472276170097757,0,0,1.3239935180664062,0,0,0.7644
3.6503425739938393,0,0,1.3670891479492187,0,0,0.30576000000000003
3.653459455992561,0,0,1.4101847778320311,0,0,1.1465999999999998
3.656571691011777,0,0,1.139639990234375,0,0,0.68796
3.659686425002292,0,0,1.0821791503906248,0,0,0.3822
3.662800641002832,0,0,1.5227122558593749,0,0,0.84084
3.665947783010779,0,0,1.4173673828125,0,0,0.84084
3.669088165013818,0,0,1.1947066284179686,0,0,0.68796
3.672202196001308,0,0,1.235408056640625,0,0,0.3822
3.675317985995207,0,0,1.3359645263671873,0,0,0.68796
3.6784310350194573,0,0,1.209071838378906,0,0,0.7644
3.681563621008536,0,0,1.2018892333984375,0,0,0.84084
3.684677262994228,0,0,1.4820108276367188,0,0,0.91728
3.6877914420037996,0,0,1.3144167114257812,0,0,0.7644
3.6909051400143653,0,0,1.1731588134765625,0,0,0.3822
3.694044595991727,0,0,1.3072341064453123,0,0,0.99372
3.6971602010016795,0,0,1.2976572998046874,0,0,0.7644
3.7002736210124567,0,0,1.0821791503906248,0,0,0.84084
3.703388318012003,0,0,1.180341418457031,0,0,0.91728
3.7065043860056903,0,0,1.4125789794921875,0,0,0.91728
3.70962160199997,0,0,1.2042834350585936,0,0,0.99372
3.7127350220107473,0,0,1.1372457885742187,0,0,0.6115200000000001
3.7158507379936054,0,0,1.3168109130859373,0,0,0.84084
3.718995786010055,0,0,1.4604630126953124,0,0,-8.943480000000001
3.722119409998413,0,0,1.3670891479492187,0,0,0.53508
3.7252535140141845,0,0,1.2234370483398436,0,0,0.3822
3.728367193019949,0,0,1.5729904907226562,0,0,0.84084
3.731482575996779,0,0,1.0845733520507812,0,0,0.6115200000000001
3.7345983470149804,0,0,1.209071838378906,0,0,0.6115200000000001
3.737714729999425,0,0,1.4628572143554686,0,0,0.99372
3.7408520939934533,0,0,1.4245499877929686,0,0,0.84084
3.7439679770031944,0,0,1.3263877197265623,0,0,0.7644
3.7470818220172077,0,0,1.2306196533203124,0,0,0.45864
3.750197631015908,0,0,1.4149731811523436,0,0,1.2230400000000001
3.7533138470025733,0,0,1.2042834350585936,0,0,0.68796
3.756427451997297,0,0,1.2713210815429687,0,0,0.53508
3.759543501015287,0,0,1.3838485595703125,0,0,0.91728
3.7626589949941263,0,0,1.438915197753906,0,0,0.91728
3.7657993030152284,0,0,1.139639990234375,0,0,0.7644
3.768922499992186,0,0,1.3239935180664062,0,0,0.68796
3.772042030992452,0,0,1.3407529296874998,0,0,0.53508
3.775238856993383,0,0,1.2042834350585936,0,0,0.68796
3.7784065540181473,0,0,1.2521674682617188,0,0,1.07016
3.7815243810182437,0,0,1.465251416015625,0,0,0.53508
3.784639004006749,0,0,1.1923124267578125,0,0,0.84084
3.787753276003059,0,0,1.2138602416992186,0,0,0.68796
3.7908672690100502,0,0,1.2785036865234374,0,0,0.7644
3.7939849850081373,0,0,1.4053963745117186,0,0,0.7644
3.7971009419998154,0,0,1.1180921752929687,0,0,0.6115200000000001
3.8002153059933335,0,0,1.3072341064453123,0,0,0.22932
3.8033302440016996,0,0,1.5562310791015623,0,0,0.84084
3.806449163996149,0,0,1.13006318359375,0,0,0.68796
3.809567287011305,0,0,1.2282254516601563,0,0,0.53508
3.8127151140070055,0,0,1.4604630126953124,0,0,0.3822
3.8158323300012853,0,0,1.6232687255859375,0,0,0.68796
3.818959360010922,0,0,1.3096283081054687,0,0,0.6115200000000001
3.822093576018233,0,0,1.350329736328125,0,0,0.30576000000000003
3.8252198480186053,0,0,1.4987702392578124,0,0,0.68796
3.828332434000913,0,0,1.1324573852539062,0,0,0.45864
3.831447817006847,0,0,1.2976572998046874,0,0,0.53508
3.8345620509935543,0,0,1.4700398193359374,0,0,1.68168
3.8376756560173817,0,0,1.4317325927734375,0,0,0.91728
3.840790760994423,0,0,1.0821791503906248,0,0,0.53508
3.843907847010996,0,0,1.2856862915039062,0,0,0.7644
3.84702293301234,0,0,1.2808978881835937,0,0,0.91728
3.850138056994183,0,0,1.1085153686523437,0,0,0.68796
3.853253384004347,0,0,1.1540052001953125,0,0,0.7644
3.8563680440129247,0,0,1.3838485595703125,0,0,0.7644
3.8594825570180546,0,0,1.2234370483398436,0,0,1.07016
3.8625974020105787,0,0,1.0869675537109373,0,0,0.68796
3.865713136998238,0,0,1.3958195678710936,0,0,0.6115200000000001
3.868858055997407,0,0,1.3215993164062498,0,0,0.68796
3.871973772009369,0,0,1.1037269653320312,0,0,0.6115200000000001
3.8750904140179045,0,0,1.1324573852539062,0,0,0.68796
3.878205834014807,0,0,1.4101847778320311,0,0,0.99372
3.8813298640016,0,0,1.180341418457031,0,0,0.7644
3.884448358003283,0,0,1.0534487304687499,0,0,0.53508
3.8875634809955955,0,0,1.37906015625,0,0,0.6115200000000001
3.89067893801257,0,0,1.448492004394531,0,0,0.91728
3.8937938020098954,0,0,1.2617442749023438,0,0,0.7644
3.896995721006533,0,0,1.1444283935546875,0,0,0.30576000000000003
3.9001226960099302,0,0,1.5275006591796874,0,0,0.84084
3.903239208011655,0,0,1.3359645263671873,0,0,0.6115200000000001
3.9063551280123647,0,0,1.3646949462890625,0,0,0.7644
3.909470862010494,0,0,1.5227122558593749,0,0,1.1465999999999998
3.912585059995763,0,0,1.4532804077148436,0,0,0.84084
3.915701887017349,0,0,1.2617442749023438,0,0,0.3822
3.9188161400088575,0,0,1.2210428466796874,0,0,0.91728
3.921963947999757,0,0,1.2880804931640624,0,0,0.68796
3.925108348019421,0,0,1.2234370483398436,0,0,0.3822
3.9282227310177404,0,0,1.3263877197265623,0,0,0.7644
3.931337206013268,0,0,1.39821376953125,0,0,0.91728
3.93445268200594,0,0,1.3551181396484375,0,0,2.2167600000000003
3.937569138011895,0,0,1.216254443359375,0,0,0.6115200000000001
3.94068116901326,0,0,1.2928688964843749,0,0,0.84084
3.943812754994724,0,0,1.3120225097656248,0,0,0.91728
3.9469288969994523,0,0,1.1228805786132812,0,0,0.3822
3.950047705991892,0,0,1.24498486328125,0,0,0.68796
3.9531628290133085,0,0,1.3144167114257812,0,0,0.84084
3.956274693016894,0,0,1.1420341918945311,0,0,0.6115200000000001
3.9593890760152135,0,0,1.0726023437499999,0,0,0.6115200000000001
3.962504273018567,0,0,1.2641384765625,0,0,0.84084
3.96562063699821,0,0,1.465251416015625,0,0,0.84084
3.9687643159995787,0,0,1.1827356201171875,0,0,0.68796
3.971893458015984,0,0,1.0749965454101562,0,0,0.22932
3.9750115250062663,0,0,1.2497732666015624,0,0,0.53508
3.978127537993714,0,0,1.2210428466796874,0,0,0.7644
3.9812451979960315,0,0,1.1563994018554686,0,0,0.6115200000000001
3.984358229005011,0,0,1.4724340209960938,0,0,0.91728
3.9874800739926286,0,0,1.66636435546875,0,0,0.91728
3.9905944199999794,0,0,1.209071838378906,0,0,0.30576000000000003
3.9937106170109473,0,0,1.2521674682617188,0,0,-9.24924
3.996860295999795,0,0,1.2785036865234374,0,0,0.84084
3.9999802710080985,0,0,1.1923124267578125,0,0,0.6115200000000001
4.003095302003203,0,0,1.3263877197265623,0,0,1.1465999999999998
4.0061990180111025,0,0,1.4006079711914061,0,0,0.7644
4.0093074750038795,0,0,1.3144167114257812,0,0,0.91728
4.0124212090158835,0,0,1.1947066284179686,0,0,0.53508
4.01553437000257,0,0,1.3335703247070312,0,0,0.6115200000000001
4.018670307996217,0,0,1.3000515014648437,0,0,0.7644
4.021785153017845,0,0,1.2473790649414063,0,0,0.68796
4.024993627012009,0,0,1.2689268798828124,0,0,0.91728
4.028196638013469,0,0,1.2473790649414063,0,0,0.84084
4.031454130017664,0,0,1.0893617553710937,0,0,0.7644
4.034697196009802,0,0,1.1037269653320312,0,0,0.84084
4.0379512250074185,0,0,1.4628572143554686,0,0,0.84084
4.041123606992187,0,0,1.2928688964843749,0,0,0.7644
4.0442379339947365,0,0,1.2042834350585936,0,0,0.53508
4.047351576009532,0,0,1.2856862915039062,0,0,0.7644
4.0504656250122935,0,0,1.3934253662109375,0,0,0.7644
4.053578249004204,0,0,1.1923124267578125,0,0,0.7644
4.056691075995332,0,0,1.1372457885742187,0,0,0.68796
4.059803809999721,0,0,1.3814543579101561,0,0,0.68796
4.062916860013502,0,0,1.5251064575195312,0,0,0.84084
4.066061223013094,0,0,1.2210428466796874,0,0,0.6115200000000001
4.069206217012834,0,0,1.3192051147460937,0,0,0.68796
4.0723191919969395,0,0,1.2856862915039062,0,0,0.84084
4.0754806289914995,0,0,1.1635820068359375,0,0,0.6115200000000001
4.078597475017887,0,0,1.2497732666015624,0,0,0.99372
4.08171237600618,0,0,1.388636962890625,0,0,0.7644
4.084849259001203,0,0,1.35990654296875,0,0,0.91728
4.087963697005762,0,0,1.1085153686523437,0,0,0.53508
4.091075467993505,0,0,1.4317325927734375,0,0,0.7644
4.094189407012891,0,0,1.5753846923828123,0,0,0.84084
4.09730330799357,0,0,1.3359645263671873,0,0,0.68796
4.100412802014034,0,0,1.2473790649414063,0,0,0.22932
4.103652534016874,0,0,1.3215993164062498,0,0,0.84084
4.106808139011264,0,0,1.2114660400390624,0,0,0.84084
4.1099244659999385,0,0,1.2928688964843749,0,0,0.68796
4.11303981099627,0,0,1.4915876342773438,0,0,0.84084
4.116155730996979,0,0,1.438915197753906,0,0,0.7644
4.11930361299892,0,0,1.2042834350585936,0,0,0.30576000000000003
4.122435551020317,0,0,1.2737152832031249,0,0,0.84084
4.125555581995286,0,0,1.2856862915039062,0,0,0.53508
4.128666816017358,0,0,1.1276689819335937,0,0,0.68796
4.131780383992009,0,0,1.1180921752929687,0,0,0.91728
4.134892304020468,0,0,1.4532804077148436,0,0,1.07016
4.138007909001317,0,0,1.235408056640625,0,0,0.7644
4.141122180008097,0,0,1.1109095703125,0,0,0.6115200000000001
4.144232822000049,0,0,1.4820108276367188,0,0,0.68796
4.147345927020069,0,0,1.2785036865234374,0,0,0.99372
4.150458588002948,0,0,1.199495031738281,0,0,0.84084
4.1535719520179555,0,0,1.2880804931640624,0,0,0.99372
4.156683149019955,0,0,1.4772224243164063,0,0,0.91728
4.159796457999619,0,0,1.180341418457031,0,0,1.1465999999999998
4.162909007020062,0,0,1.0989385620117187,0,0,0.68796
4.166049167019082,0,0,1.407790576171875,0,0,0.7644
4.169195549999131,0,0,1.465251416015625,0,0,0.68796
4.1723438579938374,0,0,1.1444283935546875,0,0,0.84084
4.175460850994568,0,0,1.22583125,0,0,0.22932
4.1785745859961025,0,0,1.4628572143554686,0,0,-8.943480000000001
4.181689876015298,0,0,1.1755530151367186,0,0,0.7644
4.1848033879941795,0,0,1.3383587280273437,0,0,0.84084
4.187950326013379,0,0,1.3144167114257812,0,0,0.84084
4.191063653008314,0,0,1.4772224243164063,0,0,0.99372
4.194175479991827,0,0,1.3766659545898436,0,0,0.7644
4.197487638011808,0,0,1.2401964599609374,0,0,0.68796
4.2006823340198025,0,0,1.2306196533203124,0,0,0.84084
4.203805494995322,0,0,1.3359645263671873,0,0,0.6115200000000001
4.206953340006294,0,0,1.3407529296874998,0,0,1.37592
4.210059981996892,0,0,1.3814543579101561,0,0,0.91728
4.213171809009509,0,0,1.2306196533203124,0,0,0.99372
4.216301173000829,0,0,1.13006318359375,0,0,0.53508
4.219413704006001,0,0,1.4867992309570313,0,0,0.84084
4.222524123004405,0,0,1.3311761230468748,0,0,0.99372
4.225668839004356,0,0,1.2401964599609374,0,0,0.68796
4.228764758998295,0,0,1.189918225097656,0,0,0.84084
4.231884475011611,0,0,1.3120225097656248,0,0,0.99372
4.235000431013759,0,0,1.158793603515625,0,0,1.1465999999999998
4.238112221995834,0,0,1.120486376953125,0,0,0.53508
4.241226140991785,0,0,1.5059528442382812,0,0,0.7644
4.2443590789916925,0,0,1.4149731811523436,0,0,0.84084
4.2474750360124744,0,0,1.1228805786132812,0,0,0.7644
4.250590548006585,0,0,1.2785036865234374,0,0,0.68796
4.253700949018821,0,0,1.3120225097656248,0,0,0.84084
4.25679368400597,0,0,1.3024457031249999,0,0,0.84084
4.259911030007061,0,0,1.1013327636718748,0,0,0.22932
4.263025560998358,0,0,1.5777788940429687,0,0,0.6115200000000001
4.266139962011948,0,0,1.448492004394531,0,0,0.84084
4.2692821029922925,0,0,1.3287819213867187,0,0,0.6115200000000001
4.272374338004738,0,0,1.2306196533203124,0,0,0.45864
4.275520739000058,0,0,1.369483349609375,0,0,0.7644
4.278757471998688,0,0,1.2282254516601563,0,0,0.7644
4.281886612996459,0,0,1.1707646118164061,0,0,0.99372
4.285000663017854,0,0,1.2785036865234374,0,0,0.68796
4.288117249001516,0,0,1.3383587280273437,0,0,1.1465999999999998
4.291216928017093,0,0,1.1420341918945311,0,0,0.53508
4.294332626013784,0,0,1.4939818359375,0,0,0.7644
4.2974503230070695,0,0,1.180341418457031,0,0,0.6115200000000001
4.300563908996992,0,0,1.0702081420898437,0,0,0.45864
4.3036791250051465,0,0,1.2665326782226562,0,0,0.99372
4.306782211991958,0,0,1.4963760375976562,0,0,0.91728
4.309892557997955,0,0,1.2976572998046874,0,0,0.7644
4.313010033016326,0,0,1.1875240234375,0,0,0.53508
4.31615430401871,0,0,1.5251064575195312,0,0,0.99372
4.319284112018067,0,0,1.3862427612304686,0,0,0.84084
4.3223969580139965,0,0,1.199495031738281,0,0,0.84084
4.325511174014537,0,0,1.3000515014648437,0,0,0.68796
4.328621760010719,0,0,1.3024457031249999,0,0,0.53508
4.331733291008277,0,0,1.2234370483398436,0,0,0.84084
4.334845211007632,0,0,1.2042834350585936,0,0,0.53508
4.338098462001653,0,0,1.4006079711914061,0,0,0.7644
4.341222196002491,0,0,1.484405029296875,0,0,0.91728
4.344334430992603,0,0,1.1947066284179686,0,0,0.68796
4.347448387998156,0,0,1.3527239379882812,0,0,0.7644
4.350554363016272,0,0,1.3670891479492187,0,0,0.6115200000000001
4.35366578301182,0,0,1.0773907470703123,0,0,0.6115200000000001
4.356780239002546,0,0,1.0749965454101562,0,0,0.7644
4.359894491994055,0,0,1.446097802734375,0,0,1.07016
4.363040744996397,0,0,1.4341267944335936,0,0,0.99372
4.366146350017516,0,0,1.1228805786132812,0,0,0.6115200000000001
4.3692835660185665,0,0,1.2473790649414063,0,0,0.7644
4.372659907996422,0,0,1.2641384765625,0,0,0.91728
4.375761994015193,0,0,1.1875240234375,0,0,0.68796
4.378861617995426,0,0,1.3215993164062498,0,0,0.7644
4.381959796999581,0,0,1.4796166259765624,0,0,0.91728
4.385105438006576,0,0,1.3431471313476562,0,0,0.84084
4.388241376000224,0,0,1.1659762084960936,0,0,0.45864
4.391353592014639,0,0,1.2306196533203124,0,0,0.68796
4.394465790013783,0,0,1.3910311645507811,0,0,0.84084
4.397578210016945,0,0,1.3431471313476562,0,0,0.22932
4.400687703018775,0,0,1.2665326782226562,0,0,0.6115200000000001
4.403799104999052,0,0,1.254561669921875,0,0,1.07016
4.406910117017105,0,0,1.2330138549804688,0,0,0.53508
4.410052794992225,0,0,1.180341418457031,0,0,0.6115200000000001
4.413196326000616,0,0,1.5011644409179687,0,0,0.91728
4.416308134008432,0,0,1.2808978881835937,0,0,0.99372
4.41943205401185,0,0,1.13006318359375,0,0,0.84084
4.422543566004606,0,0,1.2641384765625,0,0,0.91728
4.425655986007769,0,0,1.2306196533203124,0,0,0.7644
4.428765035001561,0,0,1.0749965454101562,0,0,0.53508
4.4318764000199735,0,0,1.2401964599609374,0,0,0.91728
4.43499209699803,0,0,1.5011644409179687,0,0,0.84084
4.438101035018917,0,0,1.4101847778320311,0,0,0.91728
4.441257232014323,0,0,1.2976572998046874,0,0,0.68796
4.4443715219968,0,0,1.3623007446289062,0,0,0.91728
4.447472035011742,0,0,1.4437036010742186,0,0,0.53508
4.450586936000036,0,0,1.2473790649414063,0,0,0.6115200000000001
4.453703541017603,0,0,1.2569558715820313,0,0,0.91728
4.456846942019183,0,0,1.426944189453125,0,0,0.91728
4.45996312101488,0,0,1.3096283081054687,0,0,0.84084
4.463078761997167,0,0,1.1420341918945311,0,0,0.53508
4.466193700995063,0,0,1.3192051147460937,0,0,0.6115200000000001
4.469334305002121,0,0,1.235408056640625,0,0,0.84084
4.472484224010259,0,0,1.1659762084960936,0,0,0.84084
4.47559968099813,0,0,1.2737152832031249,0,0,-9.40212
4.478717934020096,0,0,1.3910311645507811,0,0,0.7644
4.481833224010188,0,0,1.0869675537109373,0,0,0.7644
4.484983864997048,0,0,1.1037269653320312,0,0,0.68796
4.4880997110158205,0,0,1.3120225097656248,0,0,0.68796
4.491214501002105,0,0,1.4341267944335936,0,0,0.91728
4.4943291429954115,0,0,1.1563994018554686,0,0,0.68796
4.497443544009002,0,0,1.2952630981445312,0,0,0.30576000000000003
