Time,AccelX1,AccelY1,AccelZ1,AccelX2,AccelY2,AccelZ2
3.296008799225092e-06,0,0,1.3120225097656248,0,0,0.84084
0.002649280009791255,0,0,1.3670891479492187,0,0,0.99372
0.005211337993387133,0,0,1.2425906616210938,0,0,0.7644
0.008202149998396635,0,0,1.2473790649414063,0,0,0.45864
0.010781190008856356,0,0,1.3862427612304686,0,0,0.3822
0.013329823006642982,0,0,1.5610194824218748,0,0,0.7644
0.015875678014708683,0,0,1.3096283081054687,0,0,0.68796
0.018418440013192594,0,0,1.3575123413085937,0,0,0.68796
0.020986332005122676,0,0,1.455674609375,0,0,0.53508
0.023535076004918665,0,0,1.5849614990234373,0,0,0.68796
0.026144763018237427,0,0,1.0845733520507812,0,0,0.91728
0.02874515499570407,0,0,1.2808978881835937,0,0,0.68796
0.031295861990656704,0,0,1.4341267944335936,0,0,0.84084
0.03383573499741033,0,0,1.3766659545898436,0,0,0.99372
0.03638012701412663,0,0,1.16837041015625,0,0,0.53508
0.0389241490047425,0,0,1.2856862915039062,0,0,0.22932
0.04147646701312624,0,0,1.438915197753906,0,0,0.53508
0.04411939499550499,0,0,1.2473790649414063,0,0,0.68796
0.04699535600957461,0,0,1.2282254516601563,0,0,1.68168
0.05012022200389765,0,0,1.3359645263671873,0,0,-20
0.053243439993821084,0,0,1.199495031738281,0,0,0.91728
0.05636304701329209,0,0,1.2138602416992186,0,0,0.6115200000000001
0.059483393997652456,0,0,1.2976572998046874,0,0,1.2994800000000002
0.06260139000369236,0,0,1.43652099609375,0,0,0.68796
0.06572036701254547,0,0,1.426944189453125,0,0,1.2230400000000001
0.06885376901482232,0,0,1.1133037719726562,0,0,0.53508
0.0720488190127071,0,0,1.3311761230468748,0,0,0.7644
0.07528720199479721,0,0,1.5251064575195312,0,0,0.7644
0.07841005001682788,0,0,1.2617442749023438,0,0,0.68796
0.08152910100761801,0,0,1.438915197753906,0,0,0.84084
0.08464698499301448,0,0,1.3239935180664062,0,0,0.99372
0.08776488801231608,0,0,1.1061211669921875,0,0,0.99372
0.09088410600088537,0,0,1.3120225097656248,0,0,0.7644
0.09400493500288576,0,0,1.5179238525390624,0,0,0.68796
0.09712646700791083,0,0,1.149216796875,0,0,0.53508
0.10024372200132348,0,0,1.2689268798828124,0,0,0.45864
0.10336573599488474,0,0,1.3838485595703125,0,0,0.6115200000000001
0.10648086099536158,0,0,1.4508862060546874,0,0,1.07016
0.1095980050158687,0,0,1.1947066284179686,0,0,0.99372
0.11271627800306305,0,0,1.158793603515625,0,0,1.2230400000000001
0.11583842200343497,0,0,1.2234370483398436,0,0,0.3822
0.11898602801375091,0,0,1.1013327636718748,0,0,1.911
0.12212432001251727,0,0,1.2521674682617188,0,0,-9.784320000000001
0.12524368599406444,0,0,1.2593500732421874,0,0,0.53508
0.12836297799367458,0,0,1.1037269653320312,0,0,0.30576000000000003
0.1314957319991663,0,0,1.2306196533203124,0,0,0.7644
0.13461024599382654,0,0,1.3766659545898436,0,0,1.07016
0.13772824199986644,0,0,1.5682020874023437,0,0,1.07016
0.14084582999930717,0,0,1.0917559570312498,0,0,0.91728
0.14399684400996193,0,0,1.2473790649414063,0,0,0.7644
0.14711663499474525,0,0,1.4030021728515625,0,0,0.3822
0.15026505701825954,0,0,1.2880804931640624,0,0,0.6115200000000001
0.1533833300054539,0,0,1.2330138549804688,0,0,0.84084
0.15650391799863428,0,0,1.139639990234375,0,0,0.91728
0.15962163600488566,0,0,1.1228805786132812,0,0,1.2230400000000001
0.1627392609952949,0,0,1.3239935180664062,0,0,1.60524
0.165856164006982,0,0,1.4915876342773438,0,0,0.84084
0.1689741970039904,0,0,1.4772224243164063,0,0,0.6115200000000001
0.1721571359958034,0,0,1.2497732666015624,0,0,0.7644
0.17536088899942115,0,0,1.4125789794921875,0,0,0.68796
0.178475218010135,0,0,1.5370774658203123,0,0,0.6115200000000001
0.18159652900067158,0,0,1.2880804931640624,0,0,0.91728
0.18471393201616593,0,0,1.4149731811523436,0,0,1.2994800000000002
0.18783255701418966,0,0,1.1923124267578125,0,0,0.68796
0.1909830330114346,0,0,1.2880804931640624,0,0,0.84084
0.1941074549977202,0,0,1.3096283081054687,0,0,0.3822
0.19722711699432693,0,0,1.5131354492187499,0,0,0.68796
0.20034442699397914,0,0,1.199495031738281,0,0,0.7644
0.20347597799263895,0,0,1.369483349609375,0,0,0.84084
0.2065913999977056,0,0,1.5227122558593749,0,0,0.91728
0.20970924699213356,0,0,1.426944189453125,0,0,0.91728
0.2128317980095744,0,0,1.1252747802734375,0,0,0.68796
0.21595142301521264,0,0,1.2713210815429687,0,0,0.84084
0.21910164100700058,0,0,1.5107412475585937,0,0,0.68796
0.22222054400481284,0,0,1.3766659545898436,0,0,0.68796
0.22534183599054813,0,0,1.2282254516601563,0,0,20
0.2284599239937961,0,0,1.3407529296874998,0,0,0.99372
0.2315861410170328,0,0,1.1635820068359375,0,0,0.84084
0.2347038040170446,0,0,1.3359645263671873,0,0,1.1465999999999998
0.23782270701485686,0,0,1.37906015625,0,0,0.7644
0.2409407389932312,0,0,1.22583125,0,0,0.68796
0.2440991600160487,0,0,1.2665326782226562,0,0,0.7644
0.24727213600999676,0,0,1.3144167114257812,0,0,0.6115200000000001
0.2503938910085708,0,0,1.5969325073242187,0,0,0.45864
0.25351246100035496,0,0,1.3335703247070312,0,0,0.45864
0.25663156699738465,0,0,1.2569558715820313,0,0,0.91728
0.2597494520014152,0,0,1.3407529296874998,0,0,0.91728
0.26286702099605463,0,0,1.1851298217773436,0,0,0.7644
0.2659850360068958,0,0,1.3335703247070312,0,0,0.7644
0.26913423399673775,0,0,1.3910311645507811,0,0,0.53508
0.2722528229933232,0,0,1.1085153686523437,0,0,0.6115200000000001
0.27537055901484564,0,0,1.3096283081054687,0,0,0.53508
0.2784874060016591,0,0,1.5251064575195312,0,0,0.7644
0.2816065500082914,0,0,1.4173673828125,0,0,0.84084
0.2847241749987006,0,0,1.2665326782226562,0,0,1.07016
0.28783885599114,0,0,1.2497732666015624,0,0,0.99372
0.2909337220189627,0,0,1.4772224243164063,0,0,0.6115200000000001
0.2942569369915873,0,0,1.3000515014648437,0,0,0.53508
0.2973747290088795,0,0,1.3311761230468748,0,0,0.53508
0.3004922429972794,0,0,1.3120225097656248,0,0,0.68796
0.3036097570147831,0,0,1.1180921752929687,0,0,0.84084
0.30672451201826334,0,0,1.2114660400390624,0,0,0.84084
0.30986574801499955,0,0,1.5203180541992187,0,0,1.07016
0.3129815770080313,0,0,1.1516109985351561,0,0,0.7644
0.31609859099262394,0,0,1.149216796875,0,0,0.6115200000000001
0.31923814199399203,0,0,1.448492004394531,0,0,0.3822
0.32235380401834846,0,0,1.3814543579101561,0,0,0.30576000000000003
0.3255152990168426,0,0,1.2138602416992186,0,0,0.68796
0.3286384239909239,0,0,1.3215993164062498,0,0,0.84084
0.33175877199391834,0,0,1.3910311645507811,0,0,1.07016
0.33487358200363815,0,0,1.3383587280273437,0,0,1.1465999999999998
0.33799057800206356,0,0,1.369483349609375,0,0,1.1465999999999998
0.3411364800122101,0,0,1.3814543579101561,0,0,0.84084
0.3442816789902281,0,0,1.2210428466796874,0,0,0.45864
0.34742398900561966,0,0,1.3335703247070312,0,0,0.45864
0.35054070700425655,0,0,1.3407529296874998,0,0,0.99372
0.35370473901275545,0,0,1.438915197753906,0,0,0.91728
0.35682334599550813,0,0,1.0965443603515623,0,0,0.7644
0.359939990012208,0,0,1.2330138549804688,0,0,1.2230400000000001
0.36309816999710165,0,0,1.2713210815429687,0,0,0.99372
0.36622083201655187,0,0,1.218648645019531,0,0,0.3822
0.3693226060131565,0,0,1.2808978881835937,0,0,0.0
0.37244711999665014,0,0,1.350329736328125,0,0,0.53508
0.3755662449984811,0,0,1.1133037719726562,0,0,0.53508
0.3786814070190303,0,0,1.35990654296875,0,0,0.91728
0.38180608800030313,0,0,1.350329736328125,0,0,0.53508
0.3849211939959787,0,0,1.3479355346679687,0,0,0.91728
0.3880396530148573,0,0,1.1180921752929687,0,0,0.91728
0.3911563520086929,0,0,1.3670891479492187,0,0,0.84084
0.39427506999345496,0,0,1.5251064575195312,0,0,0.6115200000000001
0.3973918429983314,0,0,1.254561669921875,0,0,0.7644
0.40050850599072874,0,0,1.2713210815429687,0,0,0.07644000000000001
0.40362602000823244,0,0,1.2689268798828124,0,0,0.68796
0.4067401450010948,0,0,1.0749965454101562,0,0,0.84084
0.4098558629921172,0,0,1.3192051147460937,0,0,1.1465999999999998
0.41297239501727745,0,0,1.39821376953125,0,0,0.99372
0.41608985399943776,0,0,1.3168109130859373,0,0,0.99372
0.4192353860125877,0,0,1.3766659545898436,0,0,1.37592
0.4232718510029372,0,0,1.458068811035156,0,0,0.68796
0.4265402519959025,0,0,1.39821376953125,0,0,0.45864
0.42966541400528513,0,0,1.2617442749023438,0,0,0.45864
0.4327862990030553,0,0,1.4317325927734375,0,0,0.53508
0.4358999239921104,0,0,1.3814543579101561,0,0,0.91728
0.4390331970062107,0,0,1.1109095703125,0,0,0.53508
0.4421920250169933,0,0,1.2713210815429687,0,0,0.99372
0.44538179799565114,0,0,1.1923124267578125,0,0,0.7644
0.4484926449949853,0,0,1.0773907470703123,0,0,0.22932
0.4545538419915829,0,0,1.4053963745117186,0,0,0.45864
0.45767505999538116,0,0,1.2234370483398436,0,0,0.3822
0.4607938700064551,0,0,1.3000515014648437,0,0,0.45864
0.4639091440185439,0,0,1.5275006591796874,0,0,0.84084
0.46702373199514113,0,0,1.448492004394531,0,0,0.99372
0.47013765401788987,0,0,1.2306196533203124,0,0,0.84084
0.47326687100576237,0,0,1.2617442749023438,0,0,0.99372
0.4763803670066409,0,0,1.0941501586914062,0,0,1.2230400000000001
0.4795246580033563,0,0,1.1947066284179686,0,0,0.68796
0.48264643200673163,0,0,1.3287819213867187,0,0,20
0.48574892699252814,0,0,1.2497732666015624,0,0,0.7644
0.4888694600085728,0,0,1.2665326782226562,0,0,0.3822
0.4919899739907123,0,0,1.139639990234375,0,0,2.4460800000000003
0.49510878400178626,0,0,1.446097802734375,0,0,0.7644
0.49822474300162867,0,0,1.5275006591796874,0,0,0.91728
0.5016515309980605,0,0,1.2665326782226562,0,0,0.84084
0.5151124999974854,0,0,1.2761094848632812,0,0,0.91728
0.5185670469945762,0,0,1.3958195678710936,0,0,0.99372
0.5216873380122706,0,0,1.2473790649414063,0,0,0.84084
0.5247899820096791,0,0,1.3192051147460937,0,0,0.84084
0.5278927740000654,0,0,1.2952630981445312,0,0,1.07016
0.5310101220093202,0,0,1.2880804931640624,0,0,0.45864
0.5341103950049728,0,0,1.3383587280273437,0,0,0.53508
0.537212465016637,0,0,1.4245499877929686,0,0,0.68796
0.5403938489907887,0,0,1.1180921752929687,0,0,0.6115200000000001
0.5441608359979,0,0,1.3431471313476562,0,0,0.45864
0.547397551999893,0,0,1.419761584472656,0,0,0.91728
0.5502251620055176,0,0,1.426944189453125,0,0,1.2994800000000002
0.5530103110068012,0,0,1.1468225952148436,0,0,0.6115200000000001
0.5557933849922847,0,0,1.3168109130859373,0,0,0.68796
0.5586008469981607,0,0,1.2952630981445312,0,0,0.7644
0.5614069949951954,0,0,1.0821791503906248,0,0,0.84084
0.5642070320027415,0,0,1.24498486328125,0,0,0.3822
0.5670066619932186,0,0,1.24498486328125,0,0,0.99372
0.5698063470190391,0,0,1.3862427612304686,0,0,0.53508
0.5725940690026619,0,0,1.2234370483398436,0,0,0.3822
0.5753860319964588,0,0,1.1635820068359375,0,0,0.6115200000000001
0.5781778279924765,0,0,1.3958195678710936,0,0,0.7644
0.581074510992039,0,0,1.2904746948242187,0,0,0.99372
0.5842642649949994,0,0,1.350329736328125,0,0,0.6115200000000001
0.5871119869989343,0,0,1.3527239379882812,0,0,0.7644
0.5899124490097165,0,0,1.3311761230468748,0,0,0.91728
0.5927132460055873,0,0,1.3527239379882812,0,0,0.84084
0.595506559999194,0,0,1.3144167114257812,0,0,1.5288
0.5982864680117927,0,0,1.37906015625,0,0,1.07016
0.6010895229992457,0,0,1.4030021728515625,0,0,0.6115200000000001
0.6038909670023713,0,0,1.1611878051757811,0,0,0.53508
0.6066879300051369,0,0,1.2665326782226562,0,0,-9.707880000000001
0.6094769109913614,0,0,1.20667763671875,0,0,0.68796
0.6122632999904454,0,0,1.39821376953125,0,0,0.7644
0.6150811889965553,0,0,1.235408056640625,0,0,0.84084
0.6179092249949463,0,0,1.3766659545898436,0,0,0.91728
0.6207060950109735,0,0,1.4604630126953124,0,0,0.91728
0.6235040579922497,0,0,1.3096283081054687,0,0,0.6115200000000001
0.6263055950112175,0,0,1.3383587280273437,0,0,1.2994800000000002
0.6291347980150022,0,0,1.4891934326171874,0,0,1.07016
0.6319356310123112,0,0,1.4413093994140624,0,0,0.6115200000000001
0.634733890008647,0,0,1.139639990234375,0,0,0.53508
0.6375341120001394,0,0,1.2425906616210938,0,0,0.22932
0.6403230199939571,0,0,1.5131354492187499,0,0,0.53508
0.6431304080178961,0,0,1.3646949462890625,0,0,0.6115200000000001
0.6460535920050461,0,0,1.3000515014648437,0,0,0.91728
0.6489323129935656,0,0,1.3551181396484375,0,0,0.7644
0.6520513269933872,0,0,1.369483349609375,0,0,0.3822
0.6551625629945192,0,0,1.3168109130859373,0,0,0.6115200000000001
0.6582574479980394,0,0,1.3192051147460937,0,0,0.45864
0.6613767399976496,0,0,1.2401964599609374,0,0,1.07016
0.6644910320173949,0,0,1.2234370483398436,0,0,0.84084
0.6676058419980109,0,0,1.3359645263671873,0,0,1.37592
0.67071922699688,0,0,1.5251064575195312,0,0,0.6115200000000001
0.6739013880142011,0,0,1.3311761230468748,0,0,0.45864
0.6776115790125914,0,0,1.3120225097656248,0,0,1.07016
0.6807812039915007,0,0,1.419761584472656,0,0,1.07016
0.6839034400181845,0,0,1.2761094848632812,0,0,1.1465999999999998
0.6870213430083822,0,0,1.2928688964843749,0,0,0.84084
0.6901181169960182,0,0,1.3120225097656248,0,0,0.99372
0.6932397969940212,0,0,1.2976572998046874,0,0,0.6115200000000001
0.6963584780169185,0,0,1.2401964599609374,0,0,0.53508
0.6995132880110759,0,0,1.2401964599609374,0,0,0.0
0.7026500980136916,0,0,1.35990654296875,0,0,0.99372
0.7057522050163243,0,0,1.2665326782226562,0,0,0.84084
0.7089088300126605,0,0,1.3670891479492187,0,0,1.2994800000000002
0.7120247510029003,0,0,1.3862427612304686,0,0,0.7644
0.7151396170083899,0,0,1.5011644409179687,0,0,0.68796
0.7182528540142812,0,0,1.1755530151367186,0,0,0.6115200000000001
0.7216438460163772,0,0,1.47482822265625,0,0,0.84084
0.724779545009369,0,0,1.3862427612304686,0,0,0.7644
0.7281424629909452,0,0,1.3646949462890625,0,0,0.6115200000000001
0.7312617920106277,0,0,1.2761094848632812,0,0,1.07016
0.7343785089906305,0,0,1.4030021728515625,0,0,0.45864
0.7374788759916555,0,0,1.2018892333984375,0,0,0.84084
0.7405997790046968,0,0,1.2425906616210938,0,0,0.15288000000000002
0.7437196630053222,0,0,1.1875240234375,0,0,1.1465999999999998
0.7468926759902388,0,0,1.1947066284179686,0,0,1.2230400000000001
0.7500117649906315,0,0,1.3718775512695311,0,0,1.68168
0.7531157420016825,0,0,1.5203180541992187,0,0,0.84084
0.7562328109925147,0,0,1.465251416015625,0,0,0.99372
0.7593479920178652,0,0,1.2593500732421874,0,0,0.30576000000000003
0.7625033020158298,0,0,1.4317325927734375,0,0,0.84084
0.7656218350166455,0,0,1.6831237670898436,0,0,0.3822
0.7687370339990593,0,0,1.1156979736328125,0,0,0.7644
0.7718544180097524,0,0,1.3239935180664062,0,0,0.68796
0.7749969320138916,0,0,1.2042834350585936,0,0,1.2230400000000001
0.7781074460071977,0,0,1.1659762084960936,0,0,0.7644
0.7820413389999885,0,0,1.2785036865234374,0,0,0.68796
0.7851999080157839,0,0,1.3335703247070312,0,0,1.07016
0.7883168109983671,0,0,1.2856862915039062,0,0,0.7644
0.7914326030004304,0,0,1.218648645019531,0,0,1.45236
0.7945465430093464,0,0,1.484405029296875,0,0,0.6115200000000001
0.7976622229907662,0,0,1.2617442749023438,0,0,0.91728
0.800785015017027,0,0,1.3455413330078123,0,0,0.3822
0.8039526030188426,0,0,1.2689268798828124,0,0,0.91728
0.8071068380086217,0,0,1.37906015625,0,0,0.7644
0.8102228530042339,0,0,1.2138602416992186,0,0,0.45864
0.8133375699981116,0,0,1.2808978881835937,0,0,1.2230400000000001
0.8164517880068161,0,0,1.2641384765625,0,0,0.6115200000000001
0.8195675619936083,0,0,1.3766659545898436,0,0,0.84084
0.8226806500169914,0,0,1.3311761230468748,0,0,0.22932
0.8257946450030431,0,0,1.4628572143554686,0,0,0.6115200000000001
0.8289095110085327,0,0,1.120486376953125,0,0,0.68796
0.8320232109981589,0,0,1.0726023437499999,0,0,0.6115200000000001
0.8351402800180949,0,0,1.3407529296874998,0,0,0.91728
0.8382594980066642,0,0,1.3718775512695311,0,0,0.91728
0.8413744940189645,0,0,1.20667763671875,0,0,0.7644
0.8445026370172855,0,0,1.350329736328125,0,0,0.84084
0.8476228369981982,0,0,1.35990654296875,0,0,0.53508
0.8507370360021014,0,0,1.369483349609375,0,0,0.6115200000000001
0.8538522910093889,0,0,1.2808978881835937,0,0,20
0.8569676380138844,0,0,1.3838485595703125,0,0,0.91728
0.8600813930097502,0,0,1.209071838378906,0,0,0.91728
0.8632286850188393,0,0,1.1085153686523437,0,0,1.2994800000000002
0.8663425880076829,0,0,1.5035586425781249,0,0,0.84084
0.8694599170121364,0,0,1.3263877197265623,0,0,1.07016
0.8725744489929639,0,0,1.2497732666015624,0,0,0.91728
0.8756902780150995,0,0,1.2401964599609374,0,0,1.911
0.8787996630126145,0,0,2.2840683837890623,0,0,2.06388
0.881954084004974,0,0,2.123656872558594,0,0,1.5288
0.8850703019998036,0,0,2.5378537597656248,0,0,1.83456
0.8881883159920108,0,0,1.5346832641601562,0,0,0.99372
0.8913075700111222,0,0,1.429338391113281,0,0,1.37592
0.8944231770001352,0,0,1.426944189453125,0,0,2.4460800000000003
0.8975394130102359,0,0,1.7884686401367187,0,0,1.2994800000000002
0.9006565570016392,0,0,2.2936451904296873,0,0,1.2230400000000001
0.9037763680098578,0,0,1.905784521484375,0,0,0.91728
0.9068906780157704,0,0,1.7788918334960937,0,0,1.37592
0.9100143219984602,0,0,2.0925322509765625,0,0,1.37592
0.913311648007948,0,0,1.6304513305664061,0,0,1.37592
0.9165468270075507,0,0,1.9297265380859374,0,0,1.911
0.9200704290124122,0,0,1.7764976318359373,0,0,1.1465999999999998
0.9264667319948785,0,0,2.360682836914062,0,0,1.60524
0.9296771160152275,0,0,1.2234370483398436,0,0,0.7644
0.932785740995314,0,0,1.9584569580078124,0,0,1.2994800000000002
0.9358909589936957,0,0,1.4508862060546874,0,0,1.75812
0.9389964180008974,0,0,1.6998831787109374,0,0,2.06388
0.9420949690102134,0,0,1.7741034301757812,0,0,2.2167600000000003
0.9452212610049173,0,0,2.0781670410156248,0,0,1.07016
0.9484427180141211,0,0,1.8195932617187498,0,0,0.68796
0.9513984190125484,0,0,1.697488977050781,0,0,0.84084
0.9541981600050349,0,0,1.158793603515625,0,0,0.84084
0.9569992340111639,0,0,1.3192051147460937,0,0,1.75812
0.9597947889997158,0,0,2.7365724975585937,0,0,2.06388
0.9625739000039175,0,0,1.7645266235351562,0,0,0.7644
0.9653628820087761,0,0,1.6017209106445311,0,0,0.91728
0.9681482519954443,0,0,2.607285607910156,0,0,1.75812
0.9709286600118503,0,0,1.8004396484374998,0,0,0.91728
0.973744067014195,0,0,0.8643067993164062,0,0,1.5288
0.9765364920021966,0,0,2.463633508300781,0,0,2.36964
0.9793321030156221,0,0,1.9800047729492187,0,0,0.7644
0.9821320479968563,0,0,1.8770541015625,0,0,0.30576000000000003
0.9849318620108534,0,0,2.31758720703125,0,0,0.99372
0.9877339180093259,0,0,0.9959878906249999,0,0,0.68796
0.9905425469914917,0,0,1.47482822265625,0,0,1.5288
0.9933423610054888,0,0,2.1978771240234374,0,0,1.60524
0.9961419719911646,0,0,1.5514426757812498,0,0,0.7644
0.9989712130045518,0,0,2.422932080078125,0,0,0.45864
1.0017974530055653,0,0,1.5442600708007812,0,0,0.0
1.0047226920141838,0,0,1.7645266235351562,0,0,0.91728
1.0076279490021989,0,0,1.7860744384765623,0,0,1.45236
1.0105552810127847,0,0,2.882618798828125,0,0,0.3822
1.013451389997499,0,0,1.867477294921875,0,0,0.7644
1.0163527410186362,0,0,2.5617957763671875,0,0,1.37592
1.0193038870056625,0,0,1.7429788085937499,0,0,1.45236
1.0222728099906817,0,0,1.6065093139648436,0,0,1.45236
1.0251269020081963,0,0,1.7932570434570312,0,0,2.5989600000000004
1.0280064190155827,0,0,1.8124106567382812,0,0,2.14032
1.030873398995027,0,0,1.2114660400390624,0,0,8.63772
1.0337053989933338,0,0,1.0366893188476562,0,0,-0.53508
1.0365191019955091,0,0,2.4588451049804685,0,0,2.06388
1.0393318610149436,0,0,1.8315642700195311,0,0,0.68796
1.0421378420141991,0,0,1.1755530151367186,0,0,1.07016
1.0449839520151727,0,0,2.511517541503906,0,0,2.82828
1.0478300070099067,0,0,2.932897033691406,0,0,1.2230400000000001
1.0506308960029855,0,0,0.7350199096679687,0,0,9.47856
1.0532041210099123,0,0,1.0965443603515623,0,0,1.83456
1.0557709940185305,0,0,3.4739866088867184,0,0,3.66912
1.0583545150002465,0,0,1.8148048583984373,0,0,0.53508
1.0609244260122068,0,0,0.28012159423828126,0,0,-0.53508
1.0635501310171094,0,0,3.31357509765625,0,0,3.13404
1.066188985016197,0,0,3.0526071166992184,0,0,0.99372
1.068854504992487,0,0,0.41898529052734373,0,0,-1.45236
1.0715499510115478,0,0,1.350329736328125,0,0,0.68796
1.0741953790129628,0,0,2.6048914062499997,0,0,0.6115200000000001
1.0768200290040113,0,0,0.0909796630859375,0,0,0.22932
1.0805177580041345,0,0,1.6472107421875,0,0,1.2994800000000002
1.0831359820149373,0,0,2.731784094238281,0,0,1.5288
1.0870788560132496,0,0,0.928950244140625,0,0,1.45236
1.0897408570162952,0,0,2.6671406494140624,0,0,0.91728
1.092377174005378,0,0,0.8690952026367187,0,0,-0.99372
1.095026768016396,0,0,0.86191259765625,0,0,0.91728
1.0976490850152913,0,0,2.5905261962890624,0,0,2.14032
1.1002724390127696,0,0,0.8786720092773437,0,0,-0.22932
1.1028857009951025,0,0,0.8188169677734375,0,0,0.22932
1.1054674629995134,0,0,2.9472622436523435,0,0,2.2167600000000003
1.1080027620191686,0,0,1.24498486328125,0,0,0.53508
1.1105312099971343,0,0,-1.22583125,0,0,-1.1465999999999998
1.1130773430049885,0,0,2.1499930908203124,0,0,1.45236
1.1156120320083573,0,0,2.1164742675781247,0,0,1.911
1.118139294005232,0,0,-0.4740519287109375,0,0,0.84084
1.1206932420027442,0,0,1.905784521484375,0,0,1.2994800000000002
1.1232404299953487,0,0,2.3295582153320313,0,0,1.37592
1.125787914992543,0,0,0.5339069702148437,0,0,0.53508
1.1283333809988108,0,0,1.946485949707031,0,0,1.2994800000000002
1.1308814950170927,0,0,1.0965443603515623,0,0,0.0
1.133425869018538,0,0,-0.1005564697265625,0,0,9.47856
1.135972298012348,0,0,2.0470424194335934,0,0,2.2931999999999997
1.1385150600108318,0,0,2.31758720703125,0,0,1.45236
1.141059101006249,0,0,0.2753331909179687,0,0,-0.7644
1.1436109550122637,0,0,0.8020575561523438,0,0,1.1465999999999998
1.1461547549988609,0,0,3.0933085449218747,0,0,1.2230400000000001
1.1487646650057286,0,0,1.47482822265625,0,0,-0.6115200000000001
1.1513139090093318,0,0,-0.1149216796875,0,0,0.45864
1.15385883799172,0,0,2.269703173828125,0,0,1.60524
1.1564026930136606,0,0,1.4006079711914061,0,0,0.7644
1.1589701960037928,0,0,0.7613561279296874,0,0,1.60524
1.16151577301207,0,0,1.7884686401367187,0,0,1.37592
1.1640595350181684,0,0,1.5658078857421873,0,0,0.15288000000000002
1.1666019459953532,0,0,0.277727392578125,0,0,0.3822
1.1691453010134865,0,0,1.5825672973632812,0,0,1.68168
1.1716834520047996,0,0,1.209071838378906,0,0,1.2230400000000001
1.174232307006605,0,0,-0.0718260498046875,0,0,0.6115200000000001
1.1769318830047268,0,0,2.3295582153320313,0,0,2.06388
1.1794835519976914,0,0,2.051830822753906,0,0,1.75812
1.1820332590141334,0,0,-0.06703764648437499,0,0,0.91728
1.184577817999525,0,0,2.142810485839844,0,0,0.99372
1.1871237290033605,0,0,1.5155296508789062,0,0,1.5288
1.189666860998841,0,0,0.3112462158203125,0,0,0.7644
1.19220921699889,0,0,1.5370774658203123,0,0,1.07016
1.1947507199947722,0,0,1.2808978881835937,0,0,0.22932
1.197292427008506,0,0,0.6464344482421874,0,0,0.7644
1.1998365219915286,0,0,2.4516625,0,0,2.82828
1.202376452012686,0,0,1.7836802368164062,0,0,0.0
1.204917861992726,0,0,0.5985504150390625,0,0,-0.30576000000000003
1.2074904210167006,0,0,2.2768857788085937,0,0,2.5989600000000004
1.2100358869938646,0,0,1.8219874633789062,0,0,1.07016
1.212580908992095,0,0,-0.06943184814453125,0,0,-1.5288
1.2151293010101654,0,0,1.4437036010742186,0,0,0.45864
1.2176718960108701,0,0,3.208230224609375,0,0,1.75812
1.220214177010348,0,0,1.120486376953125,0,0,-0.30576000000000003
1.222757162002381,0,0,0.7924807495117187,0,0,0.7644
1.225298591016326,0,0,2.446874096679687,0,0,0.3822
1.2278448170109186,0,0,1.1013327636718748,0,0,1.07016
1.2303845419955906,0,0,-0.3232172241210937,0,0,0.91728
1.2329285640153103,0,0,2.1643583007812497,0,0,0.7644
1.235474159999285,0,0,1.4125789794921875,0,0,0.0
1.2380131440004334,0,0,0.2059013427734375,0,0,1.2230400000000001
1.2405554619908798,0,0,2.549824768066406,0,0,1.60524
1.2430979470082093,0,0,0.6847416748046875,0,0,0.0
1.245648821000941,0,0,-0.6727706665039062,0,0,0.3822
1.2482982670189813,0,0,3.0621839233398433,0,0,2.36964
1.251009101019008,0,0,1.2593500732421874,0,0,0.84084
1.2541293929971289,0,0,-1.1061211669921875,0,0,0.45864
1.2572471479943488,0,0,3.4093431640625,0,0,2.4460800000000003
1.2603617729910184,0,0,1.2761094848632812,0,0,8.56128
1.263477194996085,0,0,0.507570751953125,0,0,1.83456
1.2665930610091891,0,0,3.0166940917968748,0,0,0.99372
1.2697089260036591,0,0,-1.005564697265625,0,0,0.0
1.2728278290014714,0,0,2.655169641113281,0,0,1.1465999999999998
1.2759428989957087,0,0,0.9911994873046874,0,0,-0.84084
1.2790965610183775,0,0,1.180341418457031,0,0,2.2931999999999997
1.282215796993114,0,0,2.8275521606445313,0,0,0.68796
1.285330921993591,0,0,-0.3136404174804687,0,0,0.0
1.2884472139994614,0,0,1.8555062866210936,0,0,1.911
1.2915646730107255,0,0,2.1452046874999997,0,0,-9.555
1.2946784649975598,0,0,0.02154781494140625,0,0,0.99372
1.297793942008866,0,0,3.5434184570312497,0,0,2.06388
1.3009094560111407,0,0,0.22026655273437498,0,0,0.07644000000000001
1.3040243959985673,0,0,0.9504980590820312,0,0,0.84084
1.3071507250133436,0,0,2.7724855224609373,0,0,0.3822
1.310276183008682,0,0,-0.8954314208984374,0,0,0.07644000000000001
1.3134482339955866,0,0,1.9393033447265624,0,0,1.68168
1.3165697480144445,0,0,1.62805712890625,0,0,9.172799999999999
1.3196894470020197,0,0,1.8195932617187498,0,0,1.45236
1.3228476270160172,0,0,2.231395947265625,0,0,0.91728
1.3259683270007372,0,0,-0.5099649536132812,0,0,9.172799999999999
1.3290891920041759,0,0,2.8371289672851563,0,0,1.60524
1.332206021004822,0,0,1.37906015625,0,0,-0.91728
1.3353240360156633,0,0,0.0430956298828125,0,0,1.45236
1.3384371240099426,0,0,2.7150246826171873,0,0,2.2931999999999997
1.3415519339905586,0,0,0.8499415893554687,0,0,-9.707880000000001
1.3446693930018228,0,0,2.1308394775390624,0,0,1.07016
1.347785424994072,0,0,2.375048046875,0,0,0.30576000000000003
1.3509257170080673,0,0,0.2442085693359375,0,0,0.22932
1.3550632550031878,0,0,1.838746875,0,0,1.98744
1.3581847689929418,0,0,0.24660277099609373,0,0,1.75812
1.3613017830066383,0,0,2.6048914062499997,0,0,1.2994800000000002
1.3644163889985066,0,0,1.1659762084960936,0,0,-1.2230400000000001
1.367531718016835,0,0,2.360682836914062,0,0,1.5288
1.3706462510162964,0,0,1.7549498168945312,0,0,0.91728
1.37376015400514,0,0,-0.5817910034179687,0,0,0.0
1.3768792609917,0,0,2.588131994628906,0,0,1.1465999999999998
1.3799998490139842,0,0,1.9105729248046874,0,0,0.3822
1.3831189000047743,0,0,0.09576806640624999,0,0,0.99372
1.3862324329966214,0,0,2.29843359375,0,0,0.84084
1.389345706003951,0,0,0.5578489868164063,0,0,0.15288000000000002
1.3924612019909546,0,0,1.66636435546875,0,0,0.30576000000000003
1.395577179006068,0,0,1.2138602416992186,0,0,1.37592
1.398690397007158,0,0,1.1085153686523437,0,0,1.07016
1.4018531140172854,0,0,1.7621324218749999,0,0,0.0
1.4049717019952368,0,0,0.6631938598632812,0,0,1.07016
1.4080903830181342,0,0,2.2840683837890623,0,0,1.60524
1.41124952599057,0,0,1.139639990234375,0,0,0.68796
1.4143650399928447,0,0,-0.3806780639648437,0,0,0.15288000000000002
1.4174827210081276,0,0,3.375824340820312,0,0,1.5288
1.4206013460061513,0,0,-0.4644751220703125,0,0,8.17908
1.4237223970121704,0,0,1.7980454467773437,0,0,1.37592
1.4269148360181134,0,0,2.2026655273437497,0,0,1.68168
1.4300693130062427,0,0,-0.7015010864257812,0,0,0.7644
1.433189419010887,0,0,2.1715409057617188,0,0,1.5288
1.4363052480039187,0,0,1.707065783691406,0,0,0.22932
1.439422874012962,0,0,1.0534487304687499,0,0,2.2167600000000003
1.4425363689952064,0,0,1.3192051147460937,0,0,-0.45864
1.4456688459904399,0,0,0.00239420166015625,0,0,0.68796
1.4487886930000968,0,0,2.980781066894531,0,0,1.68168
1.451926484995056,0,0,0.24181436767578124,0,0,-1.75812
1.4550501100020483,0,0,0.5602431884765625,0,0,2.06388
1.4581685870070942,0,0,3.725377783203125,0,0,1.68168
1.461283064010786,0,0,-0.6823474731445313,0,0,-0.3822
1.4644007080059964,0,0,2.2864625854492187,0,0,0.91728
1.4675160560000222,0,0,1.5179238525390624,0,0,0.07644000000000001
1.4706377730180975,0,0,-0.4644751220703125,0,0,0.30576000000000003
1.4737556390173268,0,0,3.0526071166992184,0,0,1.45236
1.476877634995617,0,0,1.158793603515625,0,0,1.07016
1.4799935930059291,0,0,1.426944189453125,0,0,0.99372
1.4833338079915848,0,0,1.89620771484375,0,0,0.53508
1.4865418770059478,0,0,0.5913678100585937,0,0,0.84084
1.4896657610079274,0,0,3.0358477050781247,0,0,1.2230400000000001
1.4927853489934932,0,0,-0.19632453613281248,0,0,-1.2230400000000001
1.495909641002072,0,0,1.5346832641601562,0,0,1.60524
1.4990258589969017,0,0,2.770091320800781,0,0,2.5989600000000004
1.5021421690180432,0,0,-1.2330138549804688,0,0,-0.07644000000000001
1.5052638500055764,0,0,3.1364041748046874,0,0,2.4460800000000003
1.5083803269953933,0,0,0.3495534423828125,0,0,-0.45864
1.5114986560074612,0,0,0.105344873046875,0,0,0.6115200000000001
1.5146115960087627,0,0,2.6408044311523438,0,0,2.06388
1.5177287030091975,0,0,0.239420166015625,0,0,0.30576000000000003
1.5208459580026101,0,0,2.0973206542968748,0,0,2.14032
1.5239635829930194,0,0,1.8507178833007811,0,0,-1.37592
1.5271216520050075,0,0,-0.2346317626953125,0,0,2.6754
1.5302416289923713,0,0,2.3056161987304686,0,0,1.2230400000000001
1.533358421002049,0,0,-0.9433154541015625,0,0,0.22932
1.5364769349980634,0,0,2.3582886352539063,0,0,1.68168
1.53959524500533,0,0,2.2649147705078123,0,0,0.22932
1.5427092410100158,0,0,-1.0271125122070313,0,0,0.3822
1.5458263480104506,0,0,3.181894006347656,0,0,1.1465999999999998
1.5489425279956777,0,0,1.2210428466796874,0,0,0.3822
1.5520969860081095,0,0,0.7062894897460937,0,0,0.84084
1.5552373340178747,0,0,2.7365724975585937,0,0,2.98116
1.5583540330117103,0,0,-0.05985504150390625,0,0,0.0
1.5614696580159944,0,0,1.7621324218749999,0,0,-9.24924
1.5645841539953835,0,0,1.6352397338867186,0,0,-0.84084
1.5677029830112588,0,0,1.4628572143554686,0,0,1.1465999999999998
1.5708169040153734,0,0,1.0031704956054688,0,0,0.99372
1.5739313810190652,0,0,0.689530078125,0,0,0.45864
1.5770449330157135,0,0,2.806004345703125,0,0,1.911
1.5801873349992093,0,0,1.158793603515625,0,0,-1.75812
1.5833056459960062,0,0,1.944091748046875,0,0,1.37592
1.5864186779945157,0,0,2.2074539306640624,0,0,1.2230400000000001
1.5895349330094177,0,0,-0.22744915771484372,0,0,0.99372
1.5926510209974367,0,0,2.2002713256835937,0,0,1.60524
1.595767849998083,0,0,1.189918225097656,0,0,-0.53508
1.5988812900031917,0,0,0.3854664672851562,0,0,1.83456
1.6019968600012362,0,0,2.212242333984375,0,0,0.30576000000000003
1.605143096006941,0,0,0.296881005859375,0,0,1.98744
1.608257592015434,0,0,2.3822306518554686,0,0,1.1465999999999998
1.611374475993216,0,0,0.9720458740234375,0,0,-9.40212
1.61448904601275,0,0,0.35194764404296874,0,0,0.7644
1.6176062269951217,0,0,2.9640216552734375,0,0,1.37592
1.6207374810182955,0,0,0.0718260498046875,0,0,9.40212
1.6239038649946451,0,0,2.1811177124023438,0,0,0.91728
1.6270210460061207,0,0,2.2673089721679687,0,0,1.2994800000000002
1.6301392079913057,0,0,-1.2042834350585936,0,0,0.0
1.6332598890003283,0,0,3.1579519897460937,0,0,1.2994800000000002
1.6363744210102595,0,0,0.28490999755859375,0,0,-0.91728
1.6394925280183088,0,0,2.1212626708984375,0,0,1.68168
1.6426053020113613,0,0,1.7429788085937499,0,0,1.45236
1.645746574999066,0,0,-0.7948749511718749,0,0,-9.32568
1.648870884993812,0,0,3.1172505615234374,0,0,2.5989600000000004
1.6520262690028176,0,0,1.5203180541992187,0,0,-1.2994800000000002
1.6551441900082864,0,0,-0.46686932373046874,0,0,2.14032
1.6582613339996897,0,0,2.4756045166015626,0,0,1.83456
1.6613762000051793,0,0,-0.948103857421875,0,0,-9.631440000000001
1.6644942330021877,0,0,2.2744915771484373,0,0,1.2230400000000001
1.667609710013494,0,0,1.927332336425781,0,0,-1.5288
1.6707236870133784,0,0,-0.8858546142578124,0,0,0.7644
1.6738436449959408,0,0,2.7269956909179687,0,0,1.2994800000000002
1.67701669599046,0,0,1.1228805786132812,0,0,1.98744
1.6802475420117844,0,0,2.501940734863281,0,0,0.99372
1.6833669999905396,0,0,2.437297290039062,0,0,1.2230400000000001
1.6864808289974462,0,0,-0.8595183959960937,0,0,0.0
1.6895991030032746,0,0,3.1771056030273437,0,0,1.60524
1.692714745993726,0,0,0.9816226806640624,0,0,0.07644000000000001
1.695833872014191,0,0,0.5123591552734374,0,0,1.37592
1.6989902000059374,0,0,2.9089550170898435,0,0,2.4460800000000003
1.7022211200091988,0,0,-1.448492004394531,0,0,9.01992
1.7053662080143113,0,0,3.1675287963867187,0,0,2.06388
1.7084819260053337,0,0,1.3192051147460937,0,0,-0.7644
1.7116001060057897,0,0,0.5482721801757812,0,0,1.2230400000000001
1.7147150280070491,0,0,2.5617957763671875,0,0,2.14032
1.7178290240117349,0,0,0.0383072265625,0,0,-0.84084
1.7209457409917377,0,0,1.5370774658203123,0,0,2.2931999999999997
1.724060737004038,0,0,2.779668127441406,0,0,-0.6115200000000001
1.7271818440058269,0,0,0.3327940307617187,0,0,1.68168
1.7302983019908424,0,0,2.4061726684570313,0,0,1.45236
1.7334168530069292,0,0,0.05746083984375,0,0,-8.943480000000001
1.7365334409987554,0,0,1.4724340209960938,0,0,1.07016
1.7396497330046259,0,0,2.252943762207031,0,0,-0.15288000000000002
1.7427635249914601,0,0,-0.4261678955078125,0,0,1.07016
1.7458801130123902,0,0,2.6527754394531247,0,0,1.2994800000000002
1.7490482199937105,0,0,-0.16519991455078123,0,0,0.53508
1.7522530470159836,0,0,1.6472107421875,0,0,0.07644000000000001
1.7553716910188086,0,0,3.0526071166992184,0,0,2.06388
1.7584836680034641,0,0,-0.8834604125976562,0,0,-0.3822
1.7616048490162939,0,0,2.212242333984375,0,0,1.45236
1.7647206410183571,0,0,2.0087351928710935,0,0,0.30576000000000003
1.7678370070061646,0,0,0.5578489868164063,0,0,0.84084
1.7709775950061157,0,0,1.924938134765625,0,0,1.83456
1.7740927940176334,0,0,-0.0526724365234375,0,0,0.07644000000000001
1.7772087150078733,0,0,2.511517541503906,0,0,1.98744
1.7803213960141875,0,0,0.5746083984375,0,0,-1.2994800000000002
1.7834378730040044,0,0,1.3311761230468748,0,0,1.83456
1.7866834599990398,0,0,2.039859814453125,0,0,1.37592
1.7897990299970843,0,0,-0.7015010864257812,0,0,0.0
1.7929172659933101,0,0,2.8850130004882812,0,0,2.4460800000000003
1.7960332240036223,0,0,1.3934253662109375,0,0,-0.3822
1.7991500160133,0,0,0.3327940307617187,0,0,1.45236
1.802264660014771,0,0,2.262520568847656,0,0,0.7644
1.8053827109979466,0,0,-0.12689268798828124,0,0,0.99372
1.8084980589919724,0,0,1.7645266235351562,0,0,0.45864
1.8116141470090952,0,0,1.7980454467773437,0,0,-9.172799999999999
1.8147277719981503,0,0,0.01915361328125,0,0,1.83456
1.817852545005735,0,0,2.9759926635742184,0,0,0.68796
1.8209723930049222,0,0,-1.120486376953125,0,0,9.32568
1.8240920919924974,0,0,3.289633081054687,0,0,0.68796
1.8272389020130504,0,0,1.6998831787109374,0,0,2.2931999999999997
1.8303519900073297,0,0,-1.6136919189453125,0,0,-0.45864
1.833468819007976,0,0,4.096479040527344,0,0,2.4460800000000003
1.8365826480148826,0,0,1.1372457885742187,0,0,-1.1465999999999998
1.8396989589964505,0,0,-0.1292868896484375,0,0,0.91728
1.8428128430095967,0,0,3.1675287963867187,0,0,1.83456
1.8459425609908067,0,0,-1.5777788940429687,0,0,-0.30576000000000003
1.849065240996424,0,0,3.1364041748046874,0,0,2.4460800000000003
1.8522332360153086,0,0,0.4836287353515625,0,0,-1.1465999999999998
1.8553495650121477,0,0,0.6488286499023437,0,0,2.4460800000000003
1.858462728006998,0,0,3.919308117675781,0,0,2.06388
1.861577611998655,0,0,-1.6903063720703124,0,0,-1.2230400000000001
1.8646954970026854,0,0,2.4660277099609376,0,0,1.5288
1.8678109740139917,0,0,2.70065947265625,0,0,-0.3822
1.8709260250034276,0,0,-1.6711527587890624,0,0,9.631440000000001
1.8740858719975222,0,0,4.000710974121094,0,0,0.91728
1.8772008859959897,0,0,-0.3447650390625,0,0,0.15288000000000002
1.8803159930102993,0,0,0.3591302490234375,0,0,0.15288000000000002
1.8835386900173035,0,0,2.195482922363281,0,0,-9.24924
1.8876485800137743,0,0,-2.375048046875,0,0,0.22932
1.891023497999413,0,0,2.4205378784179685,0,0,2.4460800000000003
1.8941545310080983,0,0,-1.0103531005859374,0,0,6.1916400000000005
1.8972770819964353,0,0,1.8938135131835936,0,0,1.68168
1.9003855960036162,0,0,3.038241906738281,0,0,1.45236
1.9034981100121513,0,0,-2.2840683837890623,0,0,-3.7455600000000002
1.9066178840002976,0,0,0.9983820922851562,0,0,0.91728
1.9097291200014297,0,0,2.9185318237304685,0,0,4.28064
1.9129830400052015,0,0,-2.142810485839844,0,0,-3.822
1.916351421008585,0,0,3.430890979003906,0,0,0.91728
1.919629284995608,0,0,3.0741549316406247,0,0,2.82828
1.923010794998845,0,0,-2.2601263671875,0,0,-1.83456
1.926152956992155,0,0,2.0566192260742184,0,0,1.60524
1.9295917080016807,0,0,1.0079588989257813,0,0,0.0
1.932750758016482,0,0,-1.1133037719726562,0,0,9.172799999999999
1.9360466029902454,0,0,2.185906115722656,0,0,0.45864
1.939163061993895,0,0,1.407790576171875,0,0,20
1.9422829280083533,0,0,-0.6368576416015624,0,0,20
1.9453935160127003,0,0,1.0199299072265624,0,0,0.22932
1.9485128270171117,0,0,0.4644751220703125,0,0,0.3822
1.9516299889946822,0,0,0.7781155395507812,0,0,0.91728
1.9548706490022596,0,0,0.45968671875,0,0,0.15288000000000002
1.9577227600093465,0,0,0.7422025146484375,0,0,-0.6115200000000001
1.9605145000095945,0,0,1.43652099609375,0,0,-1.37592
1.9633063889923505,0,0,0.3327940307617187,0,0,0.53508
1.966104148013983,0,0,-0.1484405029296875,0,0,0.22932
1.9689054999907967,0,0,0.3854664672851562,0,0,9.32568
1.9717034999921452,0,0,1.6017209106445311,0,0,1.2230400000000001
1.9744983880082145,0,0,1.2713210815429687,0,0,0.6115200000000001
1.9772903700068127,0,0,-0.29927520751953124,0,0,-0.99372
1.980219423014205,0,0,1.6232687255859375,0,0,1.60524
1.9830197200062685,0,0,0.4333505004882812,0,0,0.99372
1.9858183310134336,0,0,-0.41898529052734373,0,0,-0.91728
1.9886171449907124,0,0,0.488417138671875,0,0,0.91728
1.9914144230133388,0,0,1.9632453613281249,0,0,0.45864
1.9942128490074538,0,0,0.14125789794921875,0,0,-0.6115200000000001
1.9970004039932974,0,0,0.5530605834960938,0,0,0.07644000000000001
1.999795051990077,0,0,1.5442600708007812,0,0,0.91728
2.002599180996185,0,0,0.6727706665039062,0,0,-9.784320000000001
2.0053972550085746,0,0,0.17477672119140625,0,0,0.53508
2.0082245139929,0,0,1.388636962890625,0,0,0.7644
2.0110237920016516,0,0,0.4860229370117187,0,0,0.6115200000000001
2.013819403015077,0,0,1.1875240234375,0,0,0.22932
2.016631791018881,0,0,0.5985504150390625,0,0,8.943480000000001
2.0196554549911525,0,0,0.718260498046875,0,0,0.15288000000000002
2.022471010015579,0,0,1.0989385620117187,0,0,0.0
2.025291472004028,0,0,-0.19393033447265623,0,0,0.0
2.028121490002377,0,0,1.3000515014648437,0,0,0.3822
2.0309137309959624,0,0,1.4341267944335936,0,0,0.3822
2.033713156997692,0,0,-0.00239420166015625,0,0,20
2.0365042310149875,0,0,0.8475473876953125,0,0,0.45864
2.0392949160013814,0,0,1.3431471313476562,0,0,0.53508
2.042079453007318,0,0,-0.0047884033203125,0,0,-9.784320000000001
2.044951507006772,0,0,0.7757213378906249,0,0,0.30576000000000003
2.0477695440058596,0,0,1.0726023437499999,0,0,0.68796
2.050576247012941,0,0,0.4644751220703125,0,0,0.22932
2.05344263499137,0,0,1.2114660400390624,0,0,0.3822
2.056291801010957,0,0,1.2904746948242187,0,0,0.22932
2.0593840189976618,0,0,0.5147533569335937,0,0,20
2.0624714780133218,0,0,0.8643067993164062,0,0,0.3822
2.065562066010898,0,0,0.3399766357421875,0,0,0.84084
2.0686677290068474,0,0,0.469263525390625,0,0,0.30576000000000003
2.071801501995651,0,0,1.1013327636718748,0,0,0.91728
2.0749044610129204,0,0,1.6735469604492186,0,0,1.2230400000000001
2.0780121970165055,0,0,1.0390835205078124,0,0,0.30576000000000003
2.0811195260030217,0,0,1.4149731811523436,0,0,0.7644
2.0842247630062047,0,0,2.0661960327148434,0,0,0.99372
2.087331296002958,0,0,1.024718310546875,0,0,0.30576000000000003
2.0904322169953957,0,0,1.1061211669921875,0,0,1.07016
2.093536139000207,0,0,1.407790576171875,0,0,0.30576000000000003
2.096640578994993,0,0,1.1659762084960936,0,0,0.7644
2.0997466669941787,0,0,1.2928688964843749,0,0,0.6115200000000001
2.1028476630162913,0,0,1.2641384765625,0,0,0.84084
2.106004158005817,0,0,1.3263877197265623,0,0,1.07016
2.109195783006726,0,0,1.3335703247070312,0,0,0.3822
2.1123664260085206,0,0,1.2641384765625,0,0,0.84084
2.1155410500068683,0,0,1.4724340209960938,0,0,1.2230400000000001
2.118730599991977,0,0,1.3192051147460937,0,0,0.84084
2.1219153729907703,0,0,1.3718775512695311,0,0,0.68796
2.125579490995733,0,0,1.5682020874023437,0,0,1.1465999999999998
2.1293251820025034,0,0,1.0965443603515623,0,0,0.53508
2.1325258430151735,0,0,1.3455413330078123,0,0,0.84084
2.1357339300157037,0,0,1.467645617675781,0,0,0.84084
2.139035033993423,0,0,1.2282254516601563,0,0,0.99372
2.1422203989932314,0,0,1.3575123413085937,0,0,0.30576000000000003
2.1457868330180645,0,0,1.4963760375976562,0,0,0.68796
2.1489434580144007,0,0,1.5131354492187499,0,0,0.91728
2.1520466940128244,0,0,1.2138602416992186,0,0,0.3822
2.1552727250091266,0,0,1.2832920898437499,0,0,0.7644
2.1580479110125452,0,0,1.2737152832031249,0,0,1.1465999999999998
2.1605771550093777,0,0,1.1085153686523437,0,0,0.6115200000000001
2.163181768002687,0,0,1.1468225952148436,0,0,0.91728
2.165709772001719,0,0,1.458068811035156,0,0,0.84084
2.1682430900109466,0,0,1.3096283081054687,0,0,0.84084
2.170792185992468,0,0,1.1731588134765625,0,0,0.45864
2.1733205410127994,0,0,1.2569558715820313,0,0,0.91728
2.175858878006693,0,0,1.4437036010742186,0,0,0.91728
2.1784490650170483,0,0,1.2042834350585936,0,0,0.84084
2.1810481790162157,0,0,1.1444283935546875,0,0,0.6115200000000001
2.183582274999935,0,0,1.3742717529296875,0,0,0.7644
2.1861089270096272,0,0,1.2713210815429687,0,0,0.53508
2.1886397630150896,0,0,1.0654197387695312,0,0,0.91728
2.1912132849975023,0,0,1.1707646118164061,0,0,0.7644
2.1937542509986088,0,0,1.254561669921875,0,0,0.45864
2.1962962730030995,0,0,1.3527239379882812,0,0,0.91728
2.1988388129975647,0,0,1.3048399047851562,0,0,0.68796
2.201381612016121,0,0,0.9241618408203125,0,0,0.99372
2.2039437080093194,0,0,1.1611878051757811,0,0,0.0
2.2064690820116084,0,0,1.2497732666015624,0,0,0.84084
2.2090123440138996,0,0,1.2665326782226562,0,0,0.99372
2.2115558290097397,0,0,1.1348515869140625,0,0,0.84084
2.2140937029907946,0,0,1.0845733520507812,0,0,0.0
2.216633964999346,0,0,1.369483349609375,0,0,0.84084
2.219175209000241,0,0,1.388636962890625,0,0,1.1465999999999998
2.221756175014889,0,0,1.1156979736328125,0,0,0.91728
2.224298621993512,0,0,1.3455413330078123,0,0,20
2.2268407740048133,0,0,1.2713210815429687,0,0,0.53508
2.2293833330040798,0,0,1.139639990234375,0,0,1.1465999999999998
2.2320317230187356,0,0,1.1180921752929687,0,0,0.68796
2.234580634016311,0,0,1.218648645019531,0,0,0.0
2.2371262480155565,0,0,1.3838485595703125,0,0,0.68796
2.239671121991705,0,0,1.1276689819335937,0,0,1.07016
2.2422134400112554,0,0,1.1109095703125,0,0,0.45864
2.2447648130182642,0,0,1.3646949462890625,0,0,0.22932
2.247351260011783,0,0,1.2713210815429687,0,0,0.6115200000000001
2.24992872599978,0,0,1.5298948608398437,0,0,1.07016
2.2524731369921938,0,0,1.2521674682617188,0,0,0.7644
2.2551014909986407,0,0,1.1348515869140625,0,0,0.0
2.2579390830069315,0,0,1.2306196533203124,0,0,0.91728
2.2610558370070066,0,0,1.0821791503906248,0,0,0.30576000000000003
2.2641775000083726,0,0,1.1061211669921875,0,0,1.07016
2.267293069016887,0,0,1.5658078857421873,0,0,0.7644
2.2704067500017118,0,0,1.0845733520507812,0,0,0.7644
2.2735224119969644,0,0,1.1348515869140625,0,0,0.3822
2.2766380379907787,0,0,1.2713210815429687,0,0,0.68796
2.2797535890131257,0,0,1.4724340209960938,0,0,0.84084
2.282868009991944,0,0,1.3383587280273437,0,0,0.68796
2.2859820059966296,0,0,1.1731588134765625,0,0,0.68796
2.2891372420126572,0,0,1.3551181396484375,0,0,0.53508
2.2925753440067638,0,0,1.3431471313476562,0,0,0.7644
2.2957370250078384,0,0,1.2042834350585936,0,0,0.07644000000000001
2.2988567980064545,0,0,1.4221557861328125,0,0,0.84084
2.3019918859936297,0,0,1.216254443359375,0,0,0.53508
2.305137140006991,0,0,1.2306196533203124,0,0,0.6115200000000001
2.308280413009925,0,0,1.3934253662109375,0,0,0.7644
2.3114024639944546,0,0,1.235408056640625,0,0,0.99372
2.3145162189903203,0,0,1.0797849487304687,0,0,0.7644
2.317632844991749,0,0,1.4891934326171874,0,0,0.53508
2.320749395992607,0,0,1.4173673828125,0,0,0.68796
2.323867280007107,0,0,1.350329736328125,0,0,0.45864
2.3269858870189637,0,0,1.1947066284179686,0,0,0.30576000000000003
2.3301031420123763,0,0,1.3048399047851562,0,0,0.91728
2.3332197109994013,0,0,1.189918225097656,0,0,0.7644
2.336336576991016,0,0,1.2234370483398436,0,0,1.2230400000000001
2.3394637210003566,0,0,1.407790576171875,0,0,0.84084
2.3425789939938113,0,0,1.3431471313476562,0,0,1.07016
2.3456971940177027,0,0,1.1827356201171875,0,0,0.6115200000000001
2.3488436700135935,0,0,1.2976572998046874,0,0,0.7644
2.3519703700148966,0,0,1.6543933471679686,0,0,0.91728
2.3551659749937244,0,0,1.2617442749023438,0,0,0.68796
2.358285471011186,0,0,1.369483349609375,0,0,0.99372
2.36140379999415,0,0,1.4963760375976562,0,0,0.68796
2.3645290360145736,0,0,1.2593500732421874,0,0,0.91728
2.3676451240025926,0,0,1.2952630981445312,0,0,0.45864
2.3707616750034504,0,0,1.2832920898437499,0,0,0.7644
2.373878782003885,0,0,1.2378022583007813,0,0,0.68796
2.3769952960137744,0,0,1.3742717529296875,0,0,0.7644
2.3801286249945406,0,0,1.3072341064453123,0,0,0.68796
2.383270527992863,0,0,1.4772224243164063,0,0,0.99372
2.3863848939945456,0,0,1.3383587280273437,0,0,0.6115200000000001
2.389500944991596,0,0,1.2856862915039062,0,0,0.6115200000000001
2.3926180330163334,0,0,1.4101847778320311,0,0,0.91728
2.3957348620169796,0,0,1.3024457031249999,0,0,0.6115200000000001
2.3988472830096725,0,0,1.1252747802734375,0,0,0.0
2.4019625569926575,0,0,1.5131354492187499,0,0,1.1465999999999998
2.4050801820121706,0,0,1.2330138549804688,0,0,-8.943480000000001
2.408199326018803,0,0,1.3742717529296875,0,0,1.2994800000000002
2.4113164879963733,0,0,1.2665326782226562,0,0,0.68796
2.4144304280052893,0,0,1.2306196533203124,0,0,1.07016
2.417545756994514,0,0,1.1635820068359375,0,0,0.45864
2.4206662340147886,0,0,1.5251064575195312,0,0,0.84084
2.4237834709929302,0,0,1.448492004394531,0,0,1.07016
2.4273660900071263,0,0,1.216254443359375,0,0,0.7644
2.4306189909984823,0,0,1.2210428466796874,0,0,0.84084
2.4337482819973957,0,0,1.2713210815429687,0,0,0.68796
2.4368648520030547,0,0,1.2713210815429687,0,0,0.68796
2.4399828480090946,0,0,1.2042834350585936,0,0,-20
2.4431144910049625,0,0,1.2976572998046874,0,0,1.07016
2.4462761160102673,0,0,1.2737152832031249,0,0,0.91728
2.4494100190058816,0,0,1.2042834350585936,0,0,1.5288
2.4525283480179496,0,0,1.2497732666015624,0,0,0.53508
2.4556465100031346,0,0,1.4149731811523436,0,0,1.07016
2.458760172012262,0,0,1.1611878051757811,0,0,0.53508
2.4618842790077906,0,0,1.3239935180664062,0,0,0.45864
2.4649990890175104,0,0,1.2641384765625,0,0,0.91728
2.4681126780051272,0,0,1.3168109130859373,0,0,0.7644
2.471228451002389,0,0,1.149216796875,0,0,0.30576000000000003
2.4743411499948706,0,0,1.2521674682617188,0,0,0.68796
2.477451461018063,0,0,1.2234370483398436,0,0,0.84084
2.480603103991598,0,0,1.1875240234375,0,0,1.2230400000000001
2.4837263399967924,0,0,1.458068811035156,0,0,0.68796
2.486842392012477,0,0,1.5059528442382812,0,0,1.07016
2.489964887005044,0,0,1.1516109985351561,0,0,0.3822
2.4930911230039783,0,0,1.3934253662109375,0,0,0.99372
2.4961974890029524,0,0,1.6472107421875,0,0,0.99372
2.5025806819903664,0,0,1.2330138549804688,0,0,1.1465999999999998
2.5056955110048875,0,0,1.2401964599609374,0,0,1.1465999999999998
2.5088110440119635,0,0,1.2856862915039062,0,0,0.7644
2.5119271319999825,0,0,1.1180921752929687,0,0,0.0
2.5150413869996555,0,0,1.1540052001953125,0,0,0.84084
2.518184086016845,0,0,1.3287819213867187,0,0,0.7644
2.5213180810096674,0,0,1.120486376953125,0,0,1.1465999999999998
2.524432039994281,0,0,1.4963760375976562,0,0,0.84084
2.527549424004974,0,0,1.484405029296875,0,0,0.91728
2.5306626050150953,0,0,1.177947216796875,0,0,0.6115200000000001
2.5337770270125475,0,0,1.2282254516601563,0,0,0.99372
2.5368916890001856,0,0,1.3527239379882812,0,0,0.30576000000000003
2.540006555005675,0,0,1.3623007446289062,0,0,0.53508
2.543122699018568,0,0,1.2330138549804688,0,0,0.53508
2.546237119997386,0,0,1.2330138549804688,0,0,0.84084
2.549445504002506,0,0,1.3144167114257812,0,0,0.68796
2.552561777003575,0,0,1.1635820068359375,0,0,1.45236
2.555721180018736,0,0,1.5777788940429687,0,0,0.53508
2.5588357679953333,0,0,1.4006079711914061,0,0,0.91728
2.561950486007845,0,0,1.0821791503906248,0,0,0.6115200000000001
2.565065296017565,0,0,1.3072341064453123,0,0,0.84084
2.568188903009286,0,0,1.5610194824218748,0,0,0.68796
2.571305398014374,0,0,1.3742717529296875,0,0,0.84084
2.5744239120103884,0,0,1.3575123413085937,0,0,0.6115200000000001
2.577534370997455,0,0,1.3527239379882812,0,0,0.84084
2.5806820889993105,0,0,1.0821791503906248,0,0,0.53508
2.583802047010977,0,0,1.1611878051757811,0,0,0.30576000000000003
2.586916858010227,0,0,1.1731588134765625,0,0,0.7644
2.5900371489988174,0,0,1.0773907470703123,0,0,0.6115200000000001
2.593176015012432,0,0,1.120486376953125,0,0,0.53508
2.5962949370150454,0,0,1.4030021728515625,0,0,0.7644
2.5994135799992364,0,0,1.5059528442382812,0,0,0.91728
2.602539835002972,0,0,1.209071838378906,0,0,0.84084
2.605657200998394,0,0,1.3359645263671873,0,0,0.68796
2.6088736029923894,0,0,1.6041151123046875,0,0,0.84084
2.612001413013786,0,0,1.3383587280273437,0,0,0.53508
2.6151175379927736,0,0,1.1061211669921875,0,0,0.0
2.618257830006769,0,0,1.369483349609375,0,0,0.84084
2.6213762699917424,0,0,1.209071838378906,0,0,0.53508
2.6244937280134764,0,0,1.0989385620117187,0,0,1.37592
2.627613779011881,0,0,1.5227122558593749,0,0,0.91728
2.630728257005103,0,0,1.675941162109375,0,0,1.2230400000000001
2.633844752010191,0,0,1.1540052001953125,0,0,0.6115200000000001
2.636961803014856,0,0,1.4101847778320311,0,0,0.3822
2.6400789660110604,0,0,1.5562310791015623,0,0,0.99372
2.643229256995255,0,0,1.0965443603515623,0,0,0.6115200000000001
2.6463920300011523,0,0,1.1372457885742187,0,0,0.91728
2.6495328579912893,0,0,1.197100830078125,0,0,1.07016
2.652653002005536,0,0,1.1923124267578125,0,0,0.7644
2.6557987380074337,0,0,1.2713210815429687,0,0,0.53508
2.658893475017976,0,0,1.2761094848632812,0,0,0.68796
2.6620124700129963,0,0,1.3096283081054687,0,0,0.84084
2.665127707005013,0,0,1.1061211669921875,0,0,0.22932
2.668241812993074,0,0,1.5059528442382812,0,0,0.84084
2.6713555500027724,0,0,1.5634136840820312,0,0,0.6115200000000001
2.674468507990241,0,0,1.2785036865234374,0,0,0.91728
2.6775964480184484,0,0,1.1085153686523437,0,0,0.30576000000000003
2.682440773001872,0,0,1.3383587280273437,0,0,0.6115200000000001
2.6855698240105994,0,0,1.1635820068359375,0,0,0.22932
2.6886927080049645,0,0,1.24498486328125,0,0,0.6115200000000001
2.691806999995606,0,0,1.5155296508789062,0,0,0.84084
2.694903402996715,0,0,1.1156979736328125,0,0,0.7644
2.69802663999144,0,0,1.16837041015625,0,0,1.07016
2.7012070789933205,0,0,1.2521674682617188,0,0,0.7644
2.7043250749993604,0,0,1.0726023437499999,0,0,0.6115200000000001
2.7074360150145367,0,0,1.2042834350585936,0,0,0.99372
2.7105329360056203,0,0,1.4772224243164063,0,0,0.84084
2.7136585059924982,0,0,1.5298948608398437,0,0,0.6115200000000001
2.716775945998961,0,0,1.0917559570312498,0,0,0.15288000000000002
2.7198947010037955,0,0,1.5131354492187499,0,0,0.91728
2.723009011009708,0,0,1.5298948608398437,0,0,0.91728
2.7261270619928837,0,0,1.3742717529296875,0,0,0.53508
2.72925976201077,0,0,1.1731588134765625,0,0,0.68796
2.7324508120073006,0,0,1.2306196533203124,0,0,0.6115200000000001
2.735576122009661,0,0,1.3718775512695311,0,0,0.7644
2.7386906360043213,0,0,1.2306196533203124,0,0,0.0
2.741792354005156,0,0,1.3287819213867187,0,0,1.1465999999999998
2.7449118310178164,0,0,1.1109095703125,0,0,0.7644
2.748063308012206,0,0,1.2114660400390624,0,0,1.1465999999999998
2.751214413990965,0,0,1.4604630126953124,0,0,0.7644
2.754333521006629,0,0,1.4987702392578124,0,0,0.84084
2.757471404998796,0,0,1.1468225952148436,0,0,0.3822
2.7605871410050895,0,0,1.1156979736328125,0,0,0.68796
2.763704711018363,0,0,1.6208745239257811,0,0,0.6115200000000001
2.7668185220099986,0,0,1.1923124267578125,0,0,0.68796
2.769933221017709,0,0,1.3623007446289062,0,0,0.53508
2.773048439004924,0,0,1.2378022583007813,0,0,0.7644
2.7761909709952306,0,0,1.3551181396484375,0,0,0.7644
2.779306782002095,0,0,1.2018892333984375,0,0,-8.71416
2.782443998992676,0,0,1.3934253662109375,0,0,0.53508
2.785560254007578,0,0,1.5251064575195312,0,0,1.07016
2.7886749530152883,0,0,1.1540052001953125,0,0,0.45864
2.7917916900187265,0,0,1.3814543579101561,0,0,0.6115200000000001
2.794904148002388,0,0,1.668758557128906,0,0,0.7644
2.7980180330050644,0,0,1.2880804931640624,0,0,0.7644
2.801132732012775,0,0,1.3646949462890625,0,0,0.91728
2.8042475240072235,0,0,1.2306196533203124,0,0,0.7644
2.8073652230086736,0,0,1.3144167114257812,0,0,0.68796
2.8104789229983,0,0,1.197100830078125,0,0,0.15288000000000002
2.8135939369967673,0,0,1.35990654296875,0,0,0.99372
2.8167090250062756,0,0,1.20667763671875,0,0,0.91728
2.8198239280027337,0,0,1.2617442749023438,0,0,0.84084
2.8229953669942915,0,0,1.4796166259765624,0,0,0.6115200000000001
2.8261147330049425,0,0,1.467645617675781,0,0,1.07016
2.8292315250146203,0,0,1.2138602416992186,0,0,0.84084
2.832347521005431,0,0,1.2401964599609374,0,0,0.91728
2.8354641649930272,0,0,1.2832920898437499,0,0,0.68796
2.838576957001351,0,0,1.0749965454101562,0,0,0.45864
2.8416935260174796,0,0,1.158793603515625,0,0,0.30576000000000003
2.844843280996429,0,0,1.3551181396484375,0,0,0.91728
2.847972332005156,0,0,1.3766659545898436,0,0,1.07016
2.851131475006696,0,0,1.2210428466796874,0,0,1.1465999999999998
2.8542280819965526,0,0,1.5227122558593749,0,0,0.84084
2.8573817620053887,0,0,1.39821376953125,0,0,0.99372
2.860487516998546,0,0,1.199495031738281,0,0,0.68796
2.863597142015351,0,0,1.4341267944335936,0,0,0.84084
2.866710916016018,0,0,1.4101847778320311,0,0,0.7644
2.869825319008669,0,0,1.1827356201171875,0,0,0.68796
2.872941740002716,0,0,1.3311761230468748,0,0,0.6115200000000001
2.8760583469993435,0,0,1.2306196533203124,0,0,0.99372
2.8791741949971765,0,0,1.3431471313476562,0,0,0.7644
2.8822907830181066,0,0,1.1875240234375,0,0,0.30576000000000003
2.885435203992529,0,0,1.419761584472656,0,0,0.91728
2.8885551810089964,0,0,1.2234370483398436,0,0,0.91728
2.8916757139959373,0,0,1.0510545288085937,0,0,0.15288000000000002
2.8947907090187073,0,0,1.4604630126953124,0,0,0.91728
2.8979093529924285,0,0,1.4604630126953124,0,0,0.91728
2.901558860001387,0,0,1.1324573852539062,0,0,0.7644
2.9046930780168623,0,0,1.2904746948242187,0,0,0.6115200000000001
2.907814555015648,0,0,1.4149731811523436,0,0,0.68796
2.9109306799946353,0,0,1.3072341064453123,0,0,0.53508
2.9142140070034657,0,0,1.177947216796875,0,0,0.91728
2.917499962990405,0,0,1.4820108276367188,0,0,0.99372
2.9211856730107684,0,0,1.1372457885742187,0,0,0.7644
2.924327817017911,0,0,1.2330138549804688,0,0,0.30576000000000003
2.9274442009918857,0,0,1.2401964599609374,0,0,0.68796
2.930642566003371,0,0,1.2952630981445312,0,0,0.91728
2.9338396530074533,0,0,1.1252747802734375,0,0,0.45864
2.9370716470002662,0,0,1.4413093994140624,0,0,0.99372
2.940185568993911,0,0,1.2976572998046874,0,0,0.3822
2.943296546000056,0,0,1.1372457885742187,0,0,0.53508
2.9464993739966303,0,0,1.458068811035156,0,0,0.68796
2.949607054993976,0,0,1.5035586425781249,0,0,0.99372
2.952713901991956,0,0,1.209071838378906,0,0,1.07016
2.9558235650183633,0,0,1.3192051147460937,0,0,0.68796
2.958991947991308,0,0,1.3838485595703125,0,0,0.6115200000000001
2.962098721996881,0,0,1.2425906616210938,0,0,0.68796
2.965214829018805,0,0,1.2234370483398436,0,0,-20
2.968324843008304,0,0,1.458068811035156,0,0,0.99372
2.9714342830120586,0,0,1.0965443603515623,0,0,0.84084
2.974537464004243,0,0,1.0869675537109373,0,0,1.07016
2.977671774016926,0,0,1.4149731811523436,0,0,0.6115200000000001
2.9807811030186713,0,0,1.2928688964843749,0,0,0.84084
2.9838900250033475,0,0,1.1324573852539062,0,0,0.45864
2.986995390994707,0,0,1.2689268798828124,0,0,0.07644000000000001
2.9901012570189778,0,0,1.4508862060546874,0,0,0.99372
2.99320642001112,0,0,1.3239935180664062,0,0,0.68796
2.9963121009932365,0,0,1.197100830078125,0,0,0.0
2.999420095991809,0,0,1.3455413330078123,0,0,0.7644
3.0025230550090782,0,0,1.2018892333984375,0,0,0.91728
3.0056293469970115,0,0,1.0893617553710937,0,0,1.1465999999999998
3.0087338240118697,0,0,1.4796166259765624,0,0,0.84084
3.0118405609973706,0,0,1.5251064575195312,0,0,1.1465999999999998
3.0149785010144114,0,0,1.1540052001953125,0,0,0.3822
3.0181207740097307,0,0,1.216254443359375,0,0,0.84084
3.0212241029948927,0,0,1.2306196533203124,0,0,0.7644
3.024408967990894,0,0,1.218648645019531,0,0,0.6115200000000001
3.0275181859906297,0,0,1.254561669921875,0,0,0.99372
3.0308100120164454,0,0,1.3766659545898436,0,0,0.7644
3.033934840990696,0,0,1.2497732666015624,0,0,0.84084
3.037041670002509,0,0,1.1635820068359375,0,0,0.0
3.0401799060055055,0,0,1.4053963745117186,0,0,0.84084
3.0433127350115683,0,0,1.1563994018554686,0,0,0.68796
3.0466439310112037,0,0,1.1348515869140625,0,0,1.60524
3.0499304800177924,0,0,1.429338391113281,0,0,0.6115200000000001
3.05306401301641,0,0,1.455674609375,0,0,1.2994800000000002
3.0561932860000525,0,0,1.120486376953125,0,0,0.45864
3.0593776699970476,0,0,1.350329736328125,0,0,0.53508
3.0622968719981145,0,0,1.5059528442382812,0,0,0.68796
3.0650711490015965,0,0,1.3623007446289062,0,0,0.7644
3.067859889997635,0,0,1.0965443603515623,0,0,1.2230400000000001
3.07064948300831,0,0,1.407790576171875,0,0,0.84084
3.0734242420003284,0,0,1.4125789794921875,0,0,0.91728
3.07621290901443,0,0,1.158793603515625,0,0,0.7644
3.0790255939937197,0,0,1.3287819213867187,0,0,0.15288000000000002
3.081814019009471,0,0,1.3048399047851562,0,0,0.84084
3.084602168004494,0,0,1.0917559570312498,0,0,0.84084
3.087390482018236,0,0,1.2401964599609374,0,0,0.3822
3.0901746489980724,0,0,1.2330138549804688,0,0,0.6115200000000001
3.092961407994153,0,0,1.3096283081054687,0,0,0.68796
3.0957504640100524,0,0,1.3383587280273437,0,0,0.99372
3.0985370379930828,0,0,1.1228805786132812,0,0,1.07016
3.10132600099314,0,0,1.5227122558593749,0,0,0.91728
3.104113519017119,0,0,1.4317325927734375,0,0,1.07016
3.1068997050169855,0,0,1.1827356201171875,0,0,0.68796
3.1096875560178887,0,0,1.139639990234375,0,0,0.30576000000000003
3.112471889995504,0,0,1.3383587280273437,0,0,0.7644
3.115481331013143,0,0,1.1563994018554686,0,0,0.68796
3.1186910110118333,0,0,1.1635820068359375,0,0,0.7644
3.1217185450077523,0,0,1.388636962890625,0,0,0.84084
3.124518230004469,0,0,1.6424223388671875,0,0,0.84084
3.127311969990842,0,0,1.1755530151367186,0,0,0.6115200000000001
3.1300985440029763,0,0,1.3359645263671873,0,0,0.07644000000000001
3.1328887660056353,0,0,1.4628572143554686,0,0,0.7644
3.1357078590081073,0,0,1.2521674682617188,0,0,1.1465999999999998
3.138493192003807,0,0,1.1947066284179686,0,0,0.91728
3.1412805069994647,0,0,1.3335703247070312,0,0,0.91728
3.1440687100111973,0,0,1.2641384765625,0,0,0.99372
3.1468559140048455,0,0,1.1252747802734375,0,0,0.7644
3.1496455809974577,0,0,1.0917559570312498,0,0,0.6115200000000001
3.152433025010396,0,0,1.5179238525390624,0,0,0.6115200000000001
3.155221969995182,0,0,1.5490484741210937,0,0,0.84084
3.158007007004926,0,0,1.2785036865234374,0,0,0.53508
3.160827728017466,0,0,1.13006318359375,0,0,0.07644000000000001
3.1636173950100783,0,0,1.3024457031249999,0,0,0.68796
3.1664232650073245,0,0,1.3215993164062498,0,0,1.07016
3.169211043015821,0,0,1.1180921752929687,0,0,0.84084
3.171998172008898,0,0,1.2641384765625,0,0,0.7644
3.174785358016379,0,0,1.2569558715820313,0,0,1.07016
3.1775735059927683,0,0,1.0749965454101562,0,0,0.45864
3.180412115994841,0,0,1.197100830078125,0,0,0.3822
3.183263467013603,0,0,1.438915197753906,0,0,0.6115200000000001
3.1860544859955553,0,0,1.2976572998046874,0,0,0.7644
3.18884254101431,0,0,1.3287819213867187,0,0,0.30576000000000003
3.191634485992836,0,0,1.2856862915039062,0,0,0.3822
3.194419800012838,0,0,1.4149731811523436,0,0,0.3822
3.1972060780099127,0,0,1.2330138549804688,0,0,0.84084
3.1999959480017424,0,0,1.1420341918945311,0,0,0.84084
3.2028790210024454,0,0,1.2473790649414063,0,0,0.68796
3.2056769840128254,0,0,1.3383587280273437,0,0,0.84084
3.2084662989946082,0,0,1.16837041015625,0,0,0.7644
3.211273891007295,0,0,1.120486376953125,0,0,0.3822
3.2140592799987644,0,0,1.4173673828125,0,0,0.53508
3.216846335999435,0,0,1.4891934326171874,0,0,0.53508
3.219635057990672,0,0,1.3623007446289062,0,0,0.53508
3.2224467240157537,0,0,1.120486376953125,0,0,0.45864
3.2252383349987213,0,0,1.4053963745117186,0,0,0.7644
3.228060612018453,0,0,1.2569558715820313,0,0,0.99372
3.2308470199932344,0,0,1.1133037719726562,0,0,0.91728
3.2336349640099797,0,0,1.2808978881835937,0,0,0.3822
3.2364230749954004,0,0,1.3455413330078123,0,0,0.99372
3.2393880170129705,0,0,1.20667763671875,0,0,0.6115200000000001
3.2421733690134715,0,0,1.1947066284179686,0,0,0.53508
3.24534764199052,0,0,1.4628572143554686,0,0,1.1465999999999998
3.248157252994133,0,0,1.484405029296875,0,0,0.53508
3.25098943701596,0,0,1.1156979736328125,0,0,0.7644
3.2537627709971275,0,0,1.1276689819335937,0,0,0.0
3.2565380860178266,0,0,1.3383587280273437,0,0,0.91728
3.2594111770158634,0,0,1.1516109985351561,0,0,0.45864
3.2622489540081006,0,0,1.1133037719726562,0,0,0.22932
3.2653398209949955,0,0,1.2808978881835937,0,0,0.7644
3.268440724001266,0,0,1.6807295654296874,0,0,0.84084
3.2715741080173757,0,0,1.3383587280273437,0,0,0.68796
3.27468341900385,0,0,1.0989385620117187,0,0,1.07016
3.277818339993246,0,0,1.35990654296875,0,0,0.7644
3.280962279997766,0,0,1.209071838378906,0,0,0.91728
3.284074627008522,0,0,1.1875240234375,0,0,0.07644000000000001
3.2872481780068483,0,0,1.4963760375976562,0,0,0.53508
3.290355320990784,0,0,1.3766659545898436,0,0,0.7644
3.293462410016218,0,0,1.1013327636718748,0,0,0.6115200000000001
3.296569219994126,0,0,1.4628572143554686,0,0,1.07016
3.2996784940187354,0,0,1.6543933471679686,0,0,1.1465999999999998
3.3027826930047013,0,0,1.1276689819335937,0,0,0.6115200000000001
3.30588870801148,0,0,1.2761094848632812,0,0,1.07016
3.3089953330054414,0,0,1.4006079711914061,0,0,0.84084
3.312103736010613,0,0,1.0917559570312498,0,0,-9.32568
3.3152852859930135,0,0,1.0965443603515623,0,0,-20
3.3184109299909323,0,0,1.5131354492187499,0,0,0.91728
3.321519426011946,0,0,1.1468225952148436,0,0,0.7644
3.324626087996876,0,0,1.3287819213867187,0,0,0.91728
3.327734527993016,0,0,1.455674609375,0,0,1.07016
3.3308376540080644,0,0,1.5682020874023437,0,0,1.2994800000000002
3.3339433899964206,0,0,1.218648645019531,0,0,0.84084
3.33704905299237,0,0,1.3287819213867187,0,0,0.53508
3.3401806780020706,0,0,1.429338391113281,0,0,0.91728
3.3432880809996277,0,0,1.3144167114257812,0,0,0.7644
3.346390095015522,0,0,1.1947066284179686,0,0,0.15288000000000002
3.3494983690034132,0,0,1.2928688964843749,0,0,1.2230400000000001
3.35260760501842,0,0,1.1468225952148436,0,0,0.84084
3.3558033220178913,0,0,1.1659762084960936,0,0,1.2230400000000001
3.358911318005994,0,0,1.4867992309570313,0,0,0.91728
3.362034424004378,0,0,1.3455413330078123,0,0,0.7644
3.3653113070176914,0,0,1.2210428466796874,0,0,0.45864
3.3685481529973913,0,0,1.22583125,0,0,0.84084
3.3716564630158246,0,0,1.6519991455078125,0,0,0.91728
3.3747556440066546,0,0,1.2425906616210938,0,0,0.68796
3.377859714004444,0,0,1.2952630981445312,0,0,0.91728
3.380961840011878,0,0,1.2569558715820313,0,0,0.45864
3.384069335006643,0,0,1.3623007446289062,0,0,0.68796
3.387172663991805,0,0,1.2808978881835937,0,0,0.68796
3.3902773080044426,0,0,1.484405029296875,0,0,0.6115200000000001
3.393380749010248,0,0,1.2904746948242187,0,0,0.53508
3.3964840410044417,0,0,1.0127473022460938,0,0,0.6115200000000001
3.3995887030032463,0,0,1.465251416015625,0,0,0.91728
3.402689142996678,0,0,1.429338391113281,0,0,0.84084
3.405792769015534,0,0,1.1444283935546875,0,0,0.6115200000000001
3.4088959130167495,0,0,1.3407529296874998,0,0,1.07016
3.4120016310189385,0,0,1.5059528442382812,0,0,0.68796
3.4151307930005714,0,0,1.2665326782226562,0,0,0.68796
3.4182500659953803,0,0,1.1611878051757811,0,0,0.15288000000000002
3.421393338998314,0,0,1.4149731811523436,0,0,1.1465999999999998
3.4244999829970766,0,0,1.3072341064453123,0,0,0.91728
3.4276048860047013,0,0,1.1180921752929687,0,0,0.6115200000000001
3.430733178014634,0,0,1.4053963745117186,0,0,0.91728
3.4339143770048395,0,0,1.2569558715820313,0,0,1.1465999999999998
3.4370271869993303,0,0,1.1228805786132812,0,0,0.7644
3.440137422992848,0,0,1.2928688964843749,0,0,0.45864
3.443241808010498,0,0,1.4963760375976562,0,0,0.45864
3.4466923360014334,0,0,1.3024457031249999,0,0,0.84084
3.4500377730000764,0,0,1.2904746948242187,0,0,0.91728
3.4531341580150183,0,0,1.2401964599609374,0,0,0.84084
3.4562243949912954,0,0,1.0869675537109373,0,0,0.91728
3.4593130760185886,0,0,1.1875240234375,0,0,0.0
3.462435016001109,0,0,1.5035586425781249,0,0,0.7644
3.46552519701072,0,0,1.3527239379882812,0,0,0.6115200000000001
3.4686305630020797,0,0,1.0797849487304687,0,0,0.45864
3.4717373180028517,0,0,1.4963760375976562,0,0,0.91728
3.474837387999287,0,0,1.4221557861328125,0,0,1.1465999999999998
3.477940865996061,0,0,1.1228805786132812,0,0,0.84084
3.4810458610008936,0,0,1.2856862915039062,0,0,1.1465999999999998
3.484183746011695,0,0,1.3455413330078123,0,0,0.84084
3.487289556011092,0,0,1.3575123413085937,0,0,0.53508
3.4903975700144656,0,0,1.1420341918945311,0,0,0.0
3.4935034179943614,0,0,1.47482822265625,0,0,0.68796
3.496607284003403,0,0,1.177947216796875,0,0,0.68796
3.4997127430106048,0,0,1.0893617553710937,0,0,1.45236
3.5028557570185512,0,0,1.4891934326171874,0,0,0.84084
3.505961140996078,0,0,1.4772224243164063,0,0,1.1465999999999998
3.509066711005289,0,0,1.2569558715820313,0,0,0.7644
3.512174503004644,0,0,1.3455413330078123,0,0,0.53508
3.515312461007852,0,0,1.2378022583007813,0,0,0.6115200000000001
3.5184134019946214,0,0,1.0797849487304687,0,0,0.53508
3.52151758299442,0,0,1.218648645019531,0,0,0.30576000000000003
3.5246280599967577,0,0,1.2904746948242187,0,0,0.99372
3.5277356670121662,0,0,1.1372457885742187,0,0,0.84084
3.5308368660043925,0,0,1.1061211669921875,0,0,1.07016
3.5339409180160146,0,0,1.4724340209960938,0,0,0.7644
3.537044839002192,0,0,1.2880804931640624,0,0,1.1465999999999998
3.540182463999372,0,0,1.139639990234375,0,0,0.45864
3.5432895900157746,0,0,1.4101847778320311,0,0,0.84084
3.5463898630114272,0,0,1.2282254516601563,0,0,0.7644
3.549516061990289,0,0,1.16837041015625,0,0,0.53508
3.5526203920016997,0,0,1.2737152832031249,0,0,0.53508
3.555726295016939,0,0,1.2617442749023438,0,0,0.99372
3.558825809013797,0,0,1.1659762084960936,0,0,1.1465999999999998
3.5619614710158203,0,0,1.1228805786132812,0,0,1.45236
3.5650651149917394,0,0,1.4006079711914061,0,0,0.53508
3.568170592014212,0,0,1.3670891479492187,0,0,1.1465999999999998
3.57127605099231,0,0,1.0941501586914062,0,0,0.53508
3.5743763990176376,0,0,1.3000515014648437,0,0,0.7644
3.577486524009146,0,0,1.2928688964843749,0,0,0.68796
3.580597446009051,0,0,1.0845733520507812,0,0,0.7644
3.583704996999586,0,0,1.2641384765625,0,0,0.68796
3.5868043820082676,0,0,1.2593500732421874,0,0,0.68796
3.589908229012508,0,0,1.3239935180664062,0,0,0.53508
3.5930114469956607,0,0,1.1348515869140625,0,0,0.91728
3.5961201839963906,0,0,1.4508862060546874,0,0,0.84084
3.5992237720056437,0,0,1.3239935180664062,0,0,0.6115200000000001
3.6023258790082764,0,0,1.209071838378906,0,0,0.45864
3.605427467991831,0,0,1.3527239379882812,0,0,0.91728
3.608531000005314,0,0,1.4796166259765624,0,0,1.1465999999999998
3.6116587000142317,0,0,1.0989385620117187,0,0,2.36964
3.6147607140010223,0,0,1.2641384765625,0,0,0.6115200000000001
3.617864025000017,0,0,1.2425906616210938,0,0,0.68796
3.6209676869912073,0,0,1.16837041015625,0,0,0.91728
3.624072848993819,0,0,1.0989385620117187,0,0,0.15288000000000002
3.6271761230018456,0,0,1.4413093994140624,0,0,0.6115200000000001
3.6302784150175285,0,0,1.4173673828125,0,0,0.6115200000000001
3.6333824660105165,0,0,1.1827356201171875,0,0,0.0
3.6364859250024892,0,0,1.455674609375,0,0,0.68796
3.639591143000871,0,0,1.5083470458984374,0,0,1.07016
3.6426933800103143,0,0,1.1420341918945311,0,0,0.84084
3.6458526530186646,0,0,1.3359645263671873,0,0,0.91728
3.6489760930126067,0,0,1.2737152832031249,0,0,0.68796
3.6520978469925467,0,0,1.1228805786132812,0,0,0.84084
3.6552217499993276,0,0,1.1348515869140625,0,0,-20
3.658311005012365,0,0,1.5155296508789062,0,0,0.7644
3.6614000200061128,0,0,1.2114660400390624,0,0,0.45864
3.6645214600139298,0,0,1.1875240234375,0,0,0.53508
3.6676231599994935,0,0,1.4628572143554686,0,0,1.07016
3.6707256739900913,0,0,1.448492004394531,0,0,0.84084
3.6738310400105547,0,0,1.216254443359375,0,0,-9.172799999999999
3.676935758005129,0,0,1.1468225952148436,0,0,0.7644
3.680106734012952,0,0,1.5083470458984374,0,0,0.68796
3.683284155005822,0,0,1.3311761230468748,0,0,0.22932
3.686442834994523,0,0,1.3000515014648437,0,0,0.30576000000000003
3.6895490720053203,0,0,1.3407529296874998,0,0,0.7644
3.6926530310011003,0,0,1.2856862915039062,0,0,0.99372
3.6957593230181374,0,0,1.13006318359375,0,0,0.99372
3.6988604110083543,0,0,1.3958195678710936,0,0,0.7644
3.702068461017916,0,0,1.350329736328125,0,0,0.91728
3.705177272000583,0,0,1.2761094848632812,0,0,0.45864
3.7082815270114224,0,0,1.2928688964843749,0,0,0.99372
3.7114180590142496,0,0,1.4820108276367188,0,0,0.7644
3.714520536013879,0,0,1.1276689819335937,0,0,0.68796
3.7176427170052193,0,0,1.0726023437499999,0,0,0.7644
3.7209469880035613,0,0,1.3742717529296875,0,0,0.68796
3.724070076015778,0,0,1.3455413330078123,0,0,0.68796
3.7271737570117693,0,0,1.1611878051757811,0,0,0.15288000000000002
3.730276642017998,0,0,1.4101847778320311,0,0,0.84084
3.7333809710107744,0,0,1.22583125,0,0,0.68796
3.736486170004355,0,0,1.1563994018554686,0,0,0.45864
3.7396038139995653,0,0,1.4772224243164063,0,0,0.99372
3.74270418001106,0,0,1.668758557128906,0,0,0.91728
3.745807880011853,0,0,1.2138602416992186,0,0,1.07016
3.748913135001203,0,0,1.2665326782226562,0,0,0.84084
3.752016704995185,0,0,1.3168109130859373,0,0,0.53508
3.7551221259927843,0,0,1.2282254516601563,0,0,0.45864
3.758224880992202,0,0,1.1348515869140625,0,0,0.0
3.7613287109998055,0,0,1.3096283081054687,0,0,0.84084
3.7644650760048535,0,0,1.1109095703125,0,0,0.91728
3.767571219999809,0,0,1.0965443603515623,0,0,0.68796
3.7706740309949964,0,0,1.446097802734375,0,0,0.99372
3.773777341004461,0,0,1.426944189453125,0,0,0.91728
3.776881374011282,0,0,1.2114660400390624,0,0,0.53508
3.779984555003466,0,0,1.3455413330078123,0,0,0.6115200000000001
3.7831218100036494,0,0,1.369483349609375,0,0,0.7644
3.7862243610143196,0,0,1.149216796875,0,0,0.3822
3.7893614679924212,0,0,1.235408056640625,0,0,0.22932
3.79246583400527,0,0,1.3407529296874998,0,0,0.7644
3.79557114400086,0,0,1.3168109130859373,0,0,0.7644
3.798675269994419,0,0,1.1731588134765625,0,0,1.2994800000000002
3.8018203020037618,0,0,1.4413093994140624,0,0,0.91728
3.804926926997723,0,0,1.465251416015625,0,0,0.91728
3.8080630710173864,0,0,1.2114660400390624,0,0,0.91728
3.811183529003756,0,0,1.3263877197265623,0,0,0.7644
3.81428700700053,0,0,1.5753846923828123,0,0,0.99372
3.8176390180015005,0,0,1.1851298217773436,0,0,0.99372
3.820769568992546,0,0,1.24498486328125,0,0,0.91728
3.8238900270080194,0,0,1.3311761230468748,0,0,0.68796
3.827009522996377,0,0,1.20667763671875,0,0,-20
3.8301117040100507,0,0,1.20667763671875,0,0,0.07644000000000001
3.833229718002258,0,0,1.3144167114257812,0,0,1.1465999999999998
3.836347991018556,0,0,1.0749965454101562,0,0,0.68796
3.8394676909956615,0,0,1.1061211669921875,0,0,0.7644
3.8425824450096115,0,0,1.43652099609375,0,0,0.99372
3.845683644991368,0,0,1.599326708984375,0,0,0.84084
3.848820307001006,0,0,1.180341418457031,0,0,0.84084
3.851935209997464,0,0,1.3120225097656248,0,0,0.53508
3.855037836008705,0,0,1.2904746948242187,0,0,0.68796
3.858158682996873,0,0,1.2306196533203124,0,0,0.68796
3.8612602339999285,0,0,1.3766659545898436,0,0,0.0
3.8644100630190223,0,0,1.3766659545898436,0,0,0.7644
3.867519744002493,0,0,1.2018892333984375,0,0,0.84084
3.87061475799419,0,0,1.199495031738281,0,0,1.07016
3.87373245699564,0,0,1.4532804077148436,0,0,0.53508
3.8769604150147643,0,0,1.5083470458984374,0,0,0.84084
3.880064688011771,0,0,1.1947066284179686,0,0,0.45864
3.8832261089992244,0,0,1.467645617675781,0,0,0.6115200000000001
3.886362993012881,0,0,1.6615759521484375,0,0,0.53508
3.889468008012045,0,0,1.1037269653320312,0,0,0.68796
3.8925723370048217,0,0,1.3407529296874998,0,0,0.7644
3.8956821839965414,0,0,1.2617442749023438,0,0,0.99372
3.898781513009453,0,0,1.0989385620117187,0,0,0.68796
3.9018858240160625,0,0,1.13006318359375,0,0,0.99372
3.9049911350011826,0,0,1.4341267944335936,0,0,0.68796
3.9081448150100186,0,0,1.2042834350585936,0,0,0.45864
3.911249144002795,0,0,1.1707646118164061,0,0,0.53508
3.914360510010738,0,0,1.4987702392578124,0,0,0.99372
3.917665187997045,0,0,1.6232687255859375,0,0,0.99372
3.9208495909988414,0,0,1.0726023437499999,0,0,0.45864
3.924020141013898,0,0,1.1707646118164061,0,0,0.53508
3.927127452014247,0,0,1.4125789794921875,0,0,0.84084
3.9302313730004244,0,0,1.3120225097656248,0,0,0.3822
3.9333765350165777,0,0,1.1707646118164061,0,0,0.45864
3.9365508260088973,0,0,1.3168109130859373,0,0,0.7644
3.939715635991888,0,0,1.139639990234375,0,0,0.53508
3.942820076015778,0,0,1.0941501586914062,0,0,0.99372
3.9459557569934987,0,0,1.426944189453125,0,0,0.68796
3.949065104010515,0,0,1.209071838378906,0,0,0.91728
3.952168971009087,0,0,1.1348515869140625,0,0,0.45864
3.9552763550018426,0,0,1.3479355346679687,0,0,0.6115200000000001
3.9583775179926306,0,0,1.5849614990234373,0,0,0.7644
3.9614827359910123,0,0,1.1468225952148436,0,0,0.68796
3.9646212870138697,0,0,1.3646949462890625,0,0,0.91728
3.967725911992602,0,0,1.369483349609375,0,0,0.91728
3.970830278005451,0,0,1.149216796875,0,0,0.6115200000000001
3.973933218017919,0,0,1.2425906616210938,0,0,2.14032
3.9770369729958475,0,0,1.3838485595703125,0,0,0.6115200000000001
3.980188579997048,0,0,1.149216796875,0,0,0.7644
3.9832950940181036,0,0,1.139639990234375,0,0,0.30576000000000003
3.9863952379964758,0,0,1.455674609375,0,0,0.84084
3.989498419017764,0,0,1.4437036010742186,0,0,1.911
3.992603822000092,0,0,1.1731588134765625,0,0,0.6115200000000001
3.9957098360173404,0,0,1.235408056640625,0,0,1.1465999999999998
3.9988106100063305,0,0,1.3551181396484375,0,0,0.84084
4.00191492101294,0,0,1.0845733520507812,0,0,0.68796
4.005040379008278,0,0,1.3168109130859373,0,0,-20
4.008186541002942,0,0,1.2832920898437499,0,0,1.07016
4.0112910919997375,0,0,1.0941501586914062,0,0,0.68796
4.014391514007002,0,0,1.2114660400390624,0,0,0.15288000000000002
4.0174948800122365,0,0,1.484405029296875,0,0,1.07016
4.0205982830084395,0,0,1.5298948608398437,0,0,0.7644
4.0237477970076725,0,0,1.1731588134765625,0,0,0.7644
4.026888663007412,0,0,1.3407529296874998,0,0,0.6115200000000001
4.029997955018189,0,0,1.4245499877929686,0,0,0.99372
4.0331392280058935,0,0,1.3168109130859373,0,0,0.45864
4.036235205014236,0,0,1.3311761230468748,0,0,0.3822
4.03934297899832,0,0,1.3024457031249999,0,0,0.91728
4.042436474992428,0,0,1.0821791503906248,0,0,0.6115200000000001
4.045537655998487,0,0,1.1563994018554686,0,0,1.1465999999999998
4.048674188001314,0,0,1.3862427612304686,0,0,0.7644
4.051855886995327,0,0,1.448492004394531,0,0,1.2994800000000002
4.054968123004073,0,0,1.1875240234375,0,0,0.68796
4.058056693000253,0,0,1.47482822265625,0,0,0.7644
4.061145504005253,0,0,1.6112977172851561,0,0,0.84084
4.0642517220112495,0,0,1.2401964599609374,0,0,0.7644
4.067394439014606,0,0,1.3383587280273437,0,0,0.84084
4.070495768013643,0,0,1.3766659545898436,0,0,0.68796
4.073602263990324,0,0,1.1133037719726562,0,0,0.68796
4.076733833993785,0,0,1.1947066284179686,0,0,0.7644
4.079840941005386,0,0,1.455674609375,0,0,0.53508
4.082974213990383,0,0,1.16837041015625,0,0,0.84084
4.08608020900283,0,0,1.13006318359375,0,0,0.53508
4.089187483012211,0,0,1.2593500732421874,0,0,0.84084
4.092292553017614,0,0,1.5490484741210937,0,0,0.84084
4.0953934930148534,0,0,1.3072341064453123,0,0,0.84084
4.098475545004476,0,0,1.2114660400390624,0,0,1.1465999999999998
4.101619429013226,0,0,1.2665326782226562,0,0,0.7644
4.104747923993273,0,0,1.158793603515625,0,0,0.7644
4.107854642003076,0,0,1.149216796875,0,0,0.68796
4.110986415995285,0,0,1.4915876342773438,0,0,0.84084
4.114089189009974,0,0,1.1348515869140625,0,0,0.68796
4.117192389006959,0,0,1.2210428466796874,0,0,-9.32568
4.120299570000498,0,0,1.4604630126953124,0,0,1.1465999999999998
4.123405121004907,0,0,1.5346832641601562,0,0,0.84084
4.126504579995526,0,0,1.1180921752929687,0,0,0.53508
4.129607298003975,0,0,1.2114660400390624,0,0,0.84084
4.132710775011219,0,0,1.254561669921875,0,0,0.68796
4.135816936992342,0,0,1.1923124267578125,0,0,0.6115200000000001
4.1389181739941705,0,0,1.2952630981445312,0,0,0.22932
4.14202431801823,0,0,1.2737152832031249,0,0,1.1465999999999998
4.145127480005613,0,0,1.0486603271484374,0,0,0.84084
4.14823188399896,0,0,1.0893617553710937,0,0,0.99372
4.151338119991124,0,0,1.4101847778320311,0,0,1.07016
4.15443850500742,0,0,1.6041151123046875,0,0,1.1465999999999998
4.157541555992793,0,0,1.0917559570312498,0,0,0.7644
4.160645404015668,0,0,1.2689268798828124,0,0,0.7644
4.163749344006646,0,0,1.678335363769531,0,0,0.68796
4.166877654002747,0,0,1.3144167114257812,0,0,0.68796
4.169981223996729,0,0,1.2808978881835937,0,0,0.0
4.173084868001752,0,0,1.3192051147460937,0,0,1.1465999999999998
4.176188012002967,0,0,1.1037269653320312,0,0,0.45864
4.179290322994348,0,0,1.1923124267578125,0,0,1.45236
4.182392743998207,0,0,1.4173673828125,0,0,0.68796
4.1855634239909705,0,0,1.5514426757812498,0,0,1.07016
4.188758845004486,0,0,1.139639990234375,0,0,0.6115200000000001
4.191864896012703,0,0,1.4963760375976562,0,0,0.6115200000000001
4.1950013549940195,0,0,1.637633935546875,0,0,0.6115200000000001
4.198106775991619,0,0,1.20667763671875,0,0,0.7644
4.201240363996476,0,0,1.20667763671875,0,0,0.30576000000000003
4.20434543400188,0,0,1.3192051147460937,0,0,0.99372
4.207468651991803,0,0,1.0869675537109373,0,0,0.84084
4.210570240014931,0,0,1.180341418457031,0,0,0.99372
4.213672921003308,0,0,1.3910311645507811,0,0,0.99372
4.216777491004905,0,0,0.9792284790039062,0,0,1.07016
4.219883061014116,0,0,1.0965443603515623,0,0,0.45864
4.2229857229976915,0,0,1.2689268798828124,0,0,0.91728
4.226087329996517,0,0,1.6065093139648436,0,0,0.68796
4.229190882004332,0,0,1.3215993164062498,0,0,0.7644
4.232294710993301,0,0,1.35990654296875,0,0,1.2230400000000001
4.235497593996115,0,0,1.3407529296874998,0,0,0.68796
4.2385980900144204,0,0,1.1372457885742187,0,0,0.68796
4.241700178012252,0,0,1.1013327636718748,0,0,-9.09636
4.244804748013848,0,0,1.2904746948242187,0,0,0.99372
4.2484169590170495,0,0,1.20667763671875,0,0,0.53508
4.251558640011353,0,0,1.235408056640625,0,0,1.45236
4.254646840010537,0,0,1.446097802734375,0,0,0.6115200000000001
4.257737965002889,0,0,1.3766659545898436,0,0,1.1465999999999998
4.260861479007872,0,0,1.2018892333984375,0,0,0.53508
4.263993789994856,0,0,1.2282254516601563,0,0,0.45864
4.2671316000050865,0,0,1.5011644409179687,0,0,0.3822
4.270237262011506,0,0,1.3431471313476562,0,0,0.99372
4.273342054017121,0,0,1.158793603515625,0,0,0.6115200000000001
4.276445143012097,0,0,1.2593500732421874,0,0,-9.01992
4.279549397993833,0,0,1.0366893188476562,0,0,0.84084
4.282691097003408,0,0,1.3024457031249999,0,0,0.68796
4.285796518001007,0,0,1.4700398193359374,0,0,0.45864
4.288901235995581,0,0,1.0917559570312498,0,0,0.91728
4.292015676008305,0,0,1.197100830078125,0,0,0.68796
4.295118728012312,0,0,1.2425906616210938,0,0,0.91728
4.298223001009319,0,0,1.6448165405273436,0,0,0.91728
4.301357496995479,0,0,1.3646949462890625,0,0,0.6115200000000001
4.304460881015984,0,0,1.199495031738281,0,0,0.91728
4.307566414005123,0,0,1.4245499877929686,0,0,0.84084
4.310666409990517,0,0,1.35990654296875,0,0,0.68796
4.313771406013984,0,0,1.2330138549804688,0,0,0.68796
4.316874790994916,0,0,1.484405029296875,0,0,0.91728
4.3199796010158025,0,0,1.1755530151367186,0,0,1.60524
4.323115597013384,0,0,1.16837041015625,0,0,0.68796
4.3262200000172015,0,0,1.4939818359375,0,0,0.68796
4.329323587997351,0,0,1.5155296508789062,0,0,0.7644
4.3324274540063925,0,0,1.1659762084960936,0,0,0.7644
4.335532227996737,0,0,1.3910311645507811,0,0,0.7644
4.33865733499988,0,0,1.4963760375976562,0,0,0.53508
4.3417615159996785,0,0,1.3718775512695311,0,0,0.68796
4.344865474005928,0,0,1.16837041015625,0,0,0.07644000000000001
4.347969802998705,0,0,1.2425906616210938,0,0,1.2230400000000001
4.3511682790121995,0,0,1.189918225097656,0,0,0.7644
4.35433357101283,0,0,1.139639990234375,0,0,0.84084
4.3574276590079535,0,0,1.2856862915039062,0,0,0.68796
4.360517063003499,0,0,1.2401964599609374,0,0,1.1465999999999998
4.363605559017742,0,0,1.024718310546875,0,0,0.53508
4.366689146991121,0,0,1.2976572998046874,0,0,0.53508
4.3698322720010765,0,0,1.484405029296875,0,0,0.99372
4.372975489997771,0,0,1.1133037719726562,0,0,0.6115200000000001
4.376087671000278,0,0,1.1444283935546875,0,0,1.75812
4.37922638800228,0,0,1.2785036865234374,0,0,0.91728
4.382333032001043,0,0,1.1563994018554686,0,0,0.84084
4.385425065003801,0,0,0.9888052856445312,0,0,-8.71416
4.388533487013774,0,0,1.5179238525390624,0,0,0.7644
4.391640018991893,0,0,1.254561669921875,0,0,0.91728
4.394744274992263,0,0,1.1755530151367186,0,0,0.45864
4.397873881011037,0,0,1.4724340209960938,0,0,0.6115200000000001
4.401141504000407,0,0,1.5610194824218748,0,0,0.68796
4.404247333004605,0,0,1.139639990234375,0,0,0.7644
4.4073550880129915,0,0,1.209071838378906,0,0,1.07016
4.4104576029931195,0,0,1.47482822265625,0,0,0.91728
4.413562432018807,0,0,1.3120225097656248,0,0,0.7644
4.4166670019913,0,0,1.3263877197265623,0,0,0.22932
4.419772886001738,0,0,1.3383587280273437,0,0,0.84084
4.422874437994324,0,0,1.2928688964843749,0,0,0.6115200000000001
4.42597776700859,0,0,1.216254443359375,0,0,0.68796
4.4290845220093615,0,0,1.2976572998046874,0,0,0.68796
4.432183944009012,0,0,1.3862427612304686,0,0,0.53508
4.435323921003146,0,0,1.235408056640625,0,0,0.68796
4.438499378011329,0,0,1.4508862060546874,0,0,0.68796
4.441640595992794,0,0,1.4891934326171874,0,0,0.7644
4.444744851003634,0,0,1.2282254516601563,0,0,0.6115200000000001
4.447848531999625,0,0,1.1444283935546875,0,0,0.0
4.451036323007429,0,0,1.3527239379882812,0,0,1.07016
4.4541259669931605,0,0,1.3215993164062498,0,0,0.6115200000000001
4.4572151669999585,0,0,1.3359645263671873,0,0,2.82828
4.46030370000517,0,0,1.4006079711914061,0,0,0.7644
4.463404565991368,0,0,1.35990654296875,0,0,0.84084
4.46650721001788,0,0,1.1468225952148436,0,0,1.1465999999999998
4.469644483004231,0,0,1.2808978881835937,0,0,0.91728
4.472752516012406,0,0,1.4341267944335936,0,0,0.45864
4.475858215009794,0,0,1.2761094848632812,0,0,0.45864
4.478990117990179,0,0,1.0869675537109373,0,0,0.30576000000000003
4.482095892017242,0,0,1.3742717529296875,0,0,0.99372
4.4852107019978575,0,0,1.2042834350585936,0,0,0.6115200000000001
4.488315716997022,0,0,1.1875240234375,0,0,0.99372
4.491422285995213,0,0,1.4628572143554686,0,0,0.68796
4.4945230779994745,0,0,1.2952630981445312,0,0,0.91728
4.497647000011057,0,0,1.216254443359375,0,0,0.68796
