Time,AccelX1,AccelY1,AccelZ1,AccelX2,AccelY2,AccelZ2
4.685018211603165e-06,0,0,1.0103531005859374,0,0,0.68796
0.0036939030105713755,0,0,1.2737152832031249,0,0,1.07016
0.008948660019086674,0,0,1.1659762084960936,0,0,0.91728
0.012482862017350271,0,0,1.1875240234375,0,0,1.45236
0.01606823000474833,0,0,1.2401964599609374,0,0,1.2994800000000002
0.019594747020164505,0,0,1.3287819213867187,0,0,0.91728
0.023223780997795984,0,0,1.2282254516601563,0,0,0.22932
0.02648911500000395,0,0,1.3263877197265623,0,0,0.68796
0.029607544012833387,0,0,1.3192051147460937,0,0,0.45864
0.03272476900019683,0,0,1.3072341064453123,0,0,1.2230400000000001
0.03584195699659176,0,0,1.465251416015625,0,0,0.99372
0.03895710801589303,0,0,1.2689268798828124,0,0,0.84084
0.042074722005054355,0,0,1.2665326782226562,0,0,0.0
0.0451920950144995,0,0,1.3646949462890625,0,0,1.2994800000000002
0.048307764023775235,0,0,1.197100830078125,0,0,1.2994800000000002
0.05142608200549148,0,0,1.2473790649414063,0,0,-8.943480000000001
0.05454571399604902,0,0,1.4437036010742186,0,0,0.3822
0.05774388200370595,0,0,1.0797849487304687,0,0,0.22932
0.06091723599820398,0,0,1.4317325927734375,0,0,1.37592
0.06402929499745369,0,0,1.3646949462890625,0,0,-8.867040000000001
0.06714826001552865,0,0,1.2641384765625,0,0,0.91728
0.07026352200773545,0,0,1.1851298217773436,0,0,0.45864
0.07337982099852525,0,0,1.254561669921875,0,0,0.99372
0.07652815702022053,0,0,1.43652099609375,0,0,0.99372
0.07965099302236922,0,0,1.1659762084960936,0,0,0.53508
0.08276892200228758,0,0,1.3646949462890625,0,0,0.45864
0.08588359100394882,0,0,1.678335363769531,0,0,0.68796
0.08899964901502244,0,0,1.1013327636718748,0,0,0.7644
0.09211313299601898,0,0,1.3048399047851562,0,0,1.2230400000000001
0.09522858101991005,0,0,1.3311761230468748,0,0,0.7644
0.09838760099955834,0,0,1.3814543579101561,0,0,0.53508
0.10157428900129162,0,0,1.4963760375976562,0,0,1.2230400000000001
0.10503006502403878,0,0,1.4939818359375,0,0,0.91728
0.1081310500157997,0,0,1.2306196533203124,0,0,0.84084
0.11123131201020442,0,0,1.2138602416992186,0,0,0.68796
0.11433488901820965,0,0,1.254561669921875,0,0,1.07016
0.11746891000075266,0,0,1.0893617553710937,0,0,1.2230400000000001
0.12061378301586956,0,0,1.0726023437499999,0,0,0.0
0.1237542669987306,0,0,1.139639990234375,0,0,0.30576000000000003
0.1268575660069473,0,0,1.0869675537109373,0,0,0.53508
0.12995738300378434,0,0,1.3766659545898436,0,0,1.2994800000000002
0.133062664011959,0,0,1.4053963745117186,0,0,0.99372
0.13615957400179468,0,0,1.4030021728515625,0,0,0.68796
0.13928061400656588,0,0,1.218648645019531,0,0,0.45864
0.1423971350013744,0,0,1.3024457031249999,0,0,0.91728
0.14561910001793876,0,0,1.2785036865234374,0,0,1.1465999999999998
0.14878263900754973,0,0,1.1659762084960936,0,0,0.99372
0.15190488201915286,0,0,1.3407529296874998,0,0,0.07644000000000001
0.1550362550187856,0,0,1.6328455322265625,0,0,0.22932
0.15815755401854403,0,0,1.0821791503906248,0,0,0.53508
0.16127729800064117,0,0,1.2593500732421874,0,0,1.07016
0.1643930040008854,0,0,1.254561669921875,0,0,0.6115200000000001
0.16750906201195903,0,0,1.3192051147460937,0,0,0.6115200000000001
0.17064286101958714,0,0,1.2473790649414063,0,0,1.07016
0.17377603001659736,0,0,1.2689268798828124,0,0,0.99372
0.17689581101876684,0,0,1.2521674682617188,0,0,0.84084
0.18001303600613028,0,0,1.1061211669921875,0,0,0.22932
0.18312927900115028,0,0,1.3096283081054687,0,0,0.68796
0.18625174500630237,0,0,1.1037269653320312,0,0,0.7644
0.1893937660206575,0,0,1.3670891479492187,0,0,0.68796
0.19254199002170935,0,0,1.2114660400390624,0,0,0.53508
0.1956624379963614,0,0,1.1635820068359375,0,0,0.3822
0.1987819220230449,0,0,1.254561669921875,0,0,1.2994800000000002
0.20189994300017133,0,0,1.3862427612304686,0,0,1.1465999999999998
0.2050192050228361,0,0,1.458068811035156,0,0,1.1465999999999998
0.20813579999958165,0,0,1.1731588134765625,0,0,0.91728
0.2112524700060021,0,0,1.2713210815429687,0,0,0.3822
0.21436821299721487,0,0,1.5035586425781249,0,0,0.68796
0.2174860119994264,0,0,1.1420341918945311,0,0,0.68796
0.2206021810125094,0,0,1.3551181396484375,0,0,0.6115200000000001
0.2237333880038932,0,0,1.6615759521484375,0,0,0.53508
0.22685122399707325,0,0,1.254561669921875,0,0,0.22932
0.22997837400180288,0,0,1.2952630981445312,0,0,1.2230400000000001
0.23309880300075747,0,0,1.3287819213867187,0,0,1.2994800000000002
0.2362141020130366,0,0,1.0917559570312498,0,0,0.99372
0.23935691901715472,0,0,1.2761094848632812,0,0,0.7644
0.24296569402213208,0,0,1.35990654296875,0,0,0.7644
0.24610473401844501,0,0,1.2713210815429687,0,0,0.68796
0.24922731099650264,0,0,1.3383587280273437,0,0,-0.15288000000000002
0.2523455360205844,0,0,1.2473790649414063,0,0,0.7644
0.25548124199849553,0,0,1.2401964599609374,0,0,0.3822
0.25860987399937585,0,0,1.3646949462890625,0,0,-8.867040000000001
0.2617507470131386,0,0,1.2928688964843749,0,0,0.6115200000000001
0.26487347201327793,0,0,1.2282254516601563,0,0,0.68796
0.26799012199626304,0,0,1.3215993164062498,0,0,0.7644
0.2710916990181431,0,0,1.3287819213867187,0,0,0.84084
0.2742091469990555,0,0,1.5011644409179687,0,0,1.1465999999999998
0.27733057501609437,0,0,1.180341418457031,0,0,0.53508
0.28044728201348335,0,0,1.3718775512695311,0,0,0.15288000000000002
0.28356409902335145,0,0,1.4101847778320311,0,0,0.6115200000000001
0.28668219401151873,0,0,1.2114660400390624,0,0,1.1465999999999998
0.2898000670247711,0,0,1.2904746948242187,0,0,0.84084
0.292919552011881,0,0,1.419761584472656,0,0,0.22932
0.29603749900707044,0,0,1.2761094848632812,0,0,0.45864
0.29915729802451096,0,0,1.1563994018554686,0,0,1.07016
0.30228204099694267,0,0,1.3383587280273437,0,0,0.84084
0.3054067100165412,0,0,1.2737152832031249,0,0,0.7644
0.30854313902091235,0,0,1.2808978881835937,0,0,0.0
0.3116418640129268,0,0,1.2138602416992186,0,0,0.84084
0.3147659410024062,0,0,1.16837041015625,0,0,0.6115200000000001
0.3178912950097583,0,0,1.3144167114257812,0,0,0.45864
0.3210460010159295,0,0,1.3287819213867187,0,0,0.53508
0.3241995779972058,0,0,1.3646949462890625,0,0,0.6115200000000001
0.3273013580183033,0,0,1.20667763671875,0,0,1.2994800000000002
0.3304214910021983,0,0,1.4532804077148436,0,0,1.2994800000000002
0.33353923400864005,0,0,1.369483349609375,0,0,1.1465999999999998
0.3366580510046333,0,0,1.3048399047851562,0,0,0.3822
0.339777054003207,0,0,1.2473790649414063,0,0,0.53508
0.3428943530016113,0,0,1.5251064575195312,0,0,0.7644
0.3460025780077558,0,0,1.1635820068359375,0,0,0.84084
0.3491124880092684,0,0,1.2713210815429687,0,0,0.7644
0.3522447870054748,0,0,1.3383587280273437,0,0,0.30576000000000003
0.3553602530155331,0,0,1.0773907470703123,0,0,0.30576000000000003
0.35847440399811603,0,0,1.24498486328125,0,0,1.07016
0.36163929500617087,0,0,1.39821376953125,0,0,0.7644
0.36479196400614455,0,0,1.254561669921875,0,0,0.6115200000000001
0.3679373180202674,0,0,1.3742717529296875,0,0,0.0
0.37105945000075735,0,0,1.3192051147460937,0,0,1.1465999999999998
0.3741777680115774,0,0,1.1563994018554686,0,0,1.1465999999999998
0.37729784499970265,0,0,1.2713210815429687,0,0,0.30576000000000003
0.38041442100075074,0,0,1.1133037719726562,0,0,0.7644
0.3835320720099844,0,0,1.3431471313476562,0,0,0.53508
0.38665401900652796,0,0,1.235408056640625,0,0,1.83456
0.38980479902238585,0,0,1.3958195678710936,0,0,0.45864
0.393084245006321,0,0,1.3862427612304686,0,0,0.30576000000000003
0.39631085700239055,0,0,1.3192051147460937,0,0,1.37592
0.3995497850119136,0,0,1.4125789794921875,0,0,0.91728
0.4027177680109162,0,0,1.4341267944335936,0,0,0.91728
0.4058388640114572,0,0,0.9840168823242187,0,0,0.45864
0.4089524029986933,0,0,1.3192051147460937,0,0,0.45864
0.41204959200695157,0,0,1.6041151123046875,0,0,0.84084
0.41517096501775086,0,0,1.0869675537109373,0,0,0.84084
0.41828963402076624,0,0,1.2856862915039062,0,0,0.68796
0.4214088400185574,0,0,1.5514426757812498,0,0,0.6115200000000001
0.4245615830004681,0,0,1.1875240234375,0,0,0.84084
0.4276617340219673,0,0,1.3407529296874998,0,0,1.1465999999999998
0.430783921998227,0,0,1.2808978881835937,0,0,0.53508
0.43390177699620835,0,0,1.235408056640625,0,0,0.53508
0.4370210019988008,0,0,1.3455413330078123,0,0,0.0
0.44013680101488717,0,0,1.3000515014648437,0,0,1.07016
0.4432540810084902,0,0,1.3072341064453123,0,0,0.99372
0.4463723619992379,0,0,1.2976572998046874,0,0,0.53508
0.4494907900225371,0,0,1.2425906616210938,0,0,0.7644
0.4526844220235944,0,0,1.16837041015625,0,0,0.6115200000000001
0.4558187020011246,0,0,1.1851298217773436,0,0,1.45236
0.4589411120105069,0,0,1.3814543579101561,0,0,0.53508
0.46206157800043,0,0,1.4317325927734375,0,0,0.68796
0.46517608102294616,0,0,1.1516109985351561,0,0,0.15288000000000002
0.4682710090128239,0,0,1.3814543579101561,0,0,0.7644
0.4713942900125403,0,0,1.3862427612304686,0,0,0.68796
0.4745125700137578,0,0,0.9193734375,0,0,0.68796
0.47763044299790636,0,0,1.369483349609375,0,0,0.53508
0.48076909402152523,0,0,1.419761584472656,0,0,0.7644
0.48386530100833625,0,0,1.13006318359375,0,0,0.91728
0.4869868590030819,0,0,1.235408056640625,0,0,1.2230400000000001
0.49013162101618946,0,0,1.1923124267578125,0,0,0.6115200000000001
0.49356686099781655,0,0,1.2928688964843749,0,0,0.68796
0.49670484400121495,0,0,1.3742717529296875,0,0,1.07016
0.49982238400843926,0,0,1.2569558715820313,0,0,0.91728
0.5029403310036287,0,0,1.2401964599609374,0,0,0.7644
0.5152426029962953,0,0,1.3479355346679687,0,0,0.84084
0.518726009002421,0,0,1.3263877197265623,0,0,0.53508
0.5218819930159952,0,0,1.3383587280273437,0,0,0.84084
0.5250858840008732,0,0,1.1611878051757811,0,0,1.60524
0.5282864970213268,0,0,1.3215993164062498,0,0,0.99372
0.5318483650044072,0,0,1.2808978881835937,0,0,0.91728
0.5346620560158044,0,0,1.2497732666015624,0,0,0.30576000000000003
0.5374637100030668,0,0,1.5011644409179687,0,0,0.3822
0.5402639390085824,0,0,1.388636962890625,0,0,0.99372
0.5430512040038593,0,0,1.3239935180664062,0,0,0.45864
0.5458506550057791,0,0,1.1180921752929687,0,0,0.0
0.548656569008017,0,0,1.2976572998046874,0,0,0.53508
0.551455964014167,0,0,1.218648645019531,0,0,0.22932
0.5542578960012179,0,0,1.235408056640625,0,0,0.53508
0.5570769020123407,0,0,1.43652099609375,0,0,0.3822
0.559856612002477,0,0,1.6065093139648436,0,0,0.68796
0.5626592850021552,0,0,1.3335703247070312,0,0,0.0
0.5654601060086861,0,0,1.3575123413085937,0,0,9.631440000000001
0.5682571860088501,0,0,1.35990654296875,0,0,0.91728
0.5710544890025631,0,0,1.2713210815429687,0,0,0.53508
0.5738551800022833,0,0,1.0773907470703123,0,0,0.45864
0.5766624820244033,0,0,1.0965443603515623,0,0,0.45864
0.5795946540019941,0,0,1.5394716674804687,0,0,0.7644
0.5823982160072774,0,0,1.2114660400390624,0,0,0.45864
0.5851994999975432,0,0,1.3096283081054687,0,0,0.0
0.5880206910078414,0,0,1.39821376953125,0,0,0.7644
0.5908081039960962,0,0,1.3215993164062498,0,0,0.3822
0.5936527030135039,0,0,1.3431471313476562,0,0,0.53508
0.5971212020085659,0,0,1.2521674682617188,0,0,0.68796
0.6003230000205804,0,0,1.3000515014648437,0,0,0.99372
0.6031267840007786,0,0,1.2018892333984375,0,0,1.2230400000000001
0.6059283080103341,0,0,1.2306196533203124,0,0,0.99372
0.6087778140208684,0,0,1.467645617675781,0,0,0.53508
0.611561135010561,0,0,1.3239935180664062,0,0,1.1465999999999998
0.6143627520068549,0,0,1.254561669921875,0,0,1.2994800000000002
0.6171863320050761,0,0,1.2497732666015624,0,0,0.3822
0.6200060420087539,0,0,1.1875240234375,0,0,0.6115200000000001
0.6228056219988503,0,0,1.0582371337890624,0,0,0.99372
0.6255997580010444,0,0,1.2713210815429687,0,0,1.07016
0.6283824680140242,0,0,1.4508862060546874,0,0,0.84084
0.6311881970032118,0,0,1.24498486328125,0,0,1.07016
0.6339930550020654,0,0,1.2832920898437499,0,0,0.91728
0.6367931540007703,0,0,1.43652099609375,0,0,0.53508
0.639593493018765,0,0,1.4245499877929686,0,0,0.7644
0.6423988330061547,0,0,1.139639990234375,0,0,0.68796
0.6452008390042465,0,0,1.4030021728515625,0,0,1.2230400000000001
0.6480293820204679,0,0,1.5801730957031248,0,0,0.7644
0.6508282400027383,0,0,1.2569558715820313,0,0,0.91728
0.6537365039985161,0,0,1.3718775512695311,0,0,-9.09636
0.6569040990143549,0,0,1.3215993164062498,0,0,0.45864
0.6597264570009429,0,0,1.3742717529296875,0,0,0.53508
0.6625288329960313,0,0,1.2234370483398436,0,0,0.84084
0.6653228760114871,0,0,1.2330138549804688,0,0,0.84084
0.6681030490144622,0,0,1.5370774658203123,0,0,0.53508
0.6709076480183285,0,0,1.0773907470703123,0,0,1.07016
0.6737077280122321,0,0,1.47482822265625,0,0,0.84084
0.6765387339983135,0,0,1.2497732666015624,0,0,0.3822
0.679343426018022,0,0,1.24498486328125,0,0,1.2994800000000002
0.682132284011459,0,0,1.0797849487304687,0,0,0.99372
0.6849407530098688,0,0,1.3000515014648437,0,0,0.53508
0.6877476110239513,0,0,1.1085153686523437,0,0,0.84084
0.6905474690138362,0,0,1.369483349609375,0,0,0.99372
0.6933437160041649,0,0,1.4724340209960938,0,0,0.30576000000000003
0.6963321460061707,0,0,1.2976572998046874,0,0,0.45864
0.6992587620043196,0,0,1.3359645263671873,0,0,0.7644
0.7020639900001697,0,0,1.3335703247070312,0,0,0.53508
0.7048780330223963,0,0,1.22583125,0,0,0.30576000000000003
0.7077109650126658,0,0,1.254561669921875,0,0,0.53508
0.7104973420209717,0,0,1.2497732666015624,0,0,1.37592
0.7132952370157,0,0,1.2330138549804688,0,0,0.07644000000000001
0.7160946880176198,0,0,1.2234370483398436,0,0,0.53508
0.718902638007421,0,0,1.3096283081054687,0,0,0.99372
0.7217064780124929,0,0,1.1635820068359375,0,0,0.6115200000000001
0.7246334820229094,0,0,1.2808978881835937,0,0,0.7644
0.7274851730035152,0,0,1.4030021728515625,0,0,0.68796
0.730605454009492,0,0,1.3215993164062498,0,0,0.30576000000000003
0.7337366790161468,0,0,1.3623007446289062,0,0,1.2230400000000001
0.736870088003343,0,0,1.5275006591796874,0,0,0.7644
0.7399997580214404,0,0,1.0893617553710937,0,0,0.6115200000000001
0.7437591790221632,0,0,1.3239935180664062,0,0,0.84084
0.7469604590150993,0,0,1.6711527587890624,0,0,0.53508
0.7500807760225143,0,0,1.2713210815429687,0,0,0.53508
0.7532000009960029,0,0,1.39821376953125,0,0,0.99372
0.7563166340114549,0,0,1.218648645019531,0,0,0.53508
0.7594210070092231,0,0,1.3239935180664062,0,0,0.99372
0.7625387870066334,0,0,1.2761094848632812,0,0,0.0
0.7656633080041502,0,0,1.4891934326171874,0,0,0.6115200000000001
0.768788385001244,0,0,1.2904746948242187,0,0,0.7644
0.7719054800109006,0,0,1.35990654296875,0,0,0.6115200000000001
0.7750223350012675,0,0,1.3383587280273437,0,0,0.45864
0.7781585970078595,0,0,1.158793603515625,0,0,0.3822
0.782078183023259,0,0,1.3527239379882812,0,0,0.30576000000000003
0.7853670540207531,0,0,1.2904746948242187,0,0,0.84084
0.7884884829982184,0,0,1.0726023437499999,0,0,0.99372
0.791638522001449,0,0,1.2425906616210938,0,0,1.37592
0.7947583210188895,0,0,1.4796166259765624,0,0,0.45864
0.7978663980029523,0,0,1.2928688964843749,0,0,0.68796
0.8009983640222345,0,0,1.350329736328125,0,0,0.6115200000000001
0.8041152180230711,0,0,1.3527239379882812,0,0,0.7644
0.8072337760240771,0,0,1.39821376953125,0,0,0.84084
0.8103380200045649,0,0,1.189918225097656,0,0,0.45864
0.8134545230132062,0,0,1.3383587280273437,0,0,0.7644
0.8165775250236038,0,0,1.5753846923828123,0,0,0.84084
0.8196975280006882,0,0,1.3766659545898436,0,0,0.68796
0.8228167530032806,0,0,1.4030021728515625,0,0,0.6115200000000001
0.8259585890045855,0,0,1.5083470458984374,0,0,1.07016
0.8290955730190035,0,0,1.2880804931640624,0,0,0.53508
0.8322123899997678,0,0,1.3575123413085937,0,0,2.06388
0.8353276709967759,0,0,1.1420341918945311,0,0,0.99372
0.838445839995984,0,0,1.2976572998046874,0,0,0.68796
0.8416965640208218,0,0,1.3407529296874998,0,0,0.0
0.8448477700003423,0,0,1.3120225097656248,0,0,0.99372
0.8479654389957432,0,0,1.4939818359375,0,0,1.1465999999999998
0.8510815710178576,0,0,1.2904746948242187,0,0,0.07644000000000001
0.8541990740050096,0,0,1.235408056640625,0,0,0.68796
0.8573156510246918,0,0,1.3000515014648437,0,0,0.84084
0.8604281720181461,0,0,1.3144167114257812,0,0,0.91728
0.8635431930015329,0,0,1.2689268798828124,0,0,0.91728
0.8666901960095856,0,0,1.3096283081054687,0,0,0.3822
0.8698310500185471,0,0,1.1635820068359375,0,0,0.3822
0.8729463310155552,0,0,1.2306196533203124,0,0,0.91728
0.8761244440102018,0,0,1.6208745239257811,0,0,2.2167600000000003
0.8792430760222487,0,0,1.8291700683593748,0,0,1.2230400000000001
0.8823597270238679,0,0,1.9871873779296874,0,0,1.1465999999999998
0.8854776190128177,0,0,2.8227637573242186,0,0,1.75812
0.8885924180212896,0,0,1.946485949707031,0,0,0.30576000000000003
0.8917079020175152,0,0,1.618480322265625,0,0,1.60524
0.8948215529962908,0,0,1.6256629272460936,0,0,1.2994800000000002
0.8979361850069836,0,0,1.6639701538085936,0,0,1.2994800000000002
0.9010511510132346,0,0,2.0183119995117185,0,0,0.91728
0.904165116022341,0,0,1.9225439331054686,0,0,1.75812
0.9073093040206004,0,0,1.8243816650390623,0,0,1.83456
0.910432529024547,0,0,1.8411410766601561,0,0,0.0
0.9135479950055014,0,0,1.9129671264648436,0,0,1.1465999999999998
0.9166645530203823,0,0,1.8124106567382812,0,0,1.83456
0.9197947780194227,0,0,1.8315642700195311,0,0,2.06388
0.922909058019286,0,0,1.8267758666992187,0,0,1.2230400000000001
0.926062059996184,0,0,2.1883003173828124,0,0,1.45236
0.9291783590160776,0,0,1.3910311645507811,0,0,0.68796
0.9322926769964397,0,0,1.8076222534179687,0,0,0.7644
0.9354082350037061,0,0,1.9967641845703124,0,0,1.45236
0.9385244970035274,0,0,1.3934253662109375,0,0,1.68168
0.9416405560041312,0,0,1.9752163696289062,0,0,1.07016
0.9447972990164999,0,0,2.674323254394531,0,0,1.2994800000000002
0.9479128009988926,0,0,1.6903063720703124,0,0,1.07016
0.9510287110169884,0,0,1.7166425903320313,0,0,1.07016
0.9541426220093854,0,0,1.5825672973632812,0,0,0.6115200000000001
0.9572595870122313,0,0,1.3000515014648437,0,0,2.06388
0.9603722940082662,0,0,2.4013842651367185,0,0,1.2230400000000001
0.9634902780235279,0,0,1.697488977050781,0,0,1.1465999999999998
0.966605003020959,0,0,2.269703173828125,0,0,2.14032
0.9697470420214813,0,0,1.8411410766601561,0,0,20
0.9728717670077458,0,0,0.7278373046875,0,0,0.0
0.9759860479971394,0,0,2.212242333984375,0,0,2.4460800000000003
0.979987170023378,0,0,1.5777788940429687,0,0,0.15288000000000002
0.9831143949995749,0,0,2.1021090576171875,0,0,1.45236
0.986231453018263,0,0,2.528276953125,0,0,0.7644
0.9893504010105971,0,0,0.6607996582031249,0,0,0.7644
0.9925431059964467,0,0,2.5474305664062498,0,0,1.75812
0.9957983299973421,0,0,1.6136919189453125,0,0,0.30576000000000003
0.9989167210005689,0,0,2.6886884643554687,0,0,0.45864
1.0021191670093685,0,0,1.7118541870117185,0,0,0.84084
1.005340336007066,0,0,2.212242333984375,0,0,1.75812
1.0086531880078837,0,0,1.9823989746093749,0,0,2.52252
1.011875301017426,0,0,1.8842367065429686,0,0,0.99372
1.0151158200169448,0,0,1.6352397338867186,0,0,1.83456
1.0183454890211578,0,0,1.1348515869140625,0,0,0.84084
1.021613545017317,0,0,2.023100402832031,0,0,0.30576000000000003
1.0248958239972126,0,0,1.7980454467773437,0,0,2.82828
1.028206101997057,0,0,2.3870190551757813,0,0,2.36964
1.031128755013924,0,0,1.1851298217773436,0,0,-0.6115200000000001
1.033983668021392,0,0,1.2976572998046874,0,0,-0.6115200000000001
1.0368043220078107,0,0,2.6910826660156246,0,0,0.68796
1.0396153100009542,0,0,1.956062756347656,0,0,0.22932
1.0424289460061118,0,0,1.2473790649414063,0,0,1.60524
1.0452455440245103,0,0,2.2098481323242187,0,0,3.21048
1.0480522910074797,0,0,2.6216508178710938,0,0,1.2230400000000001
1.0512012190010864,0,0,0.622492431640625,0,0,0.6115200000000001
1.0540361879975535,0,0,1.5586252807617187,0,0,2.36964
1.0568616760137957,0,0,2.7174188842773437,0,0,1.68168
1.059703700011596,0,0,0.8451531860351562,0,0,0.91728
1.062511465017451,0,0,1.446097802734375,0,0,1.68168
1.065383767010644,0,0,3.878606689453125,0,0,2.52252
1.068277772021247,0,0,1.68551796875,0,0,0.3822
1.0711990730196703,0,0,0.2920926025390625,0,0,0.91728
1.0741098560101818,0,0,3.0502129150390624,0,0,0.15288000000000002
1.0775352810160257,0,0,-0.9241618408203125,0,0,9.47856
1.080417101009516,0,0,1.848323681640625,0,0,0.91728
1.0833578650199343,0,0,2.834734765625,0,0,1.83456
1.0862927220005076,0,0,-0.016759411621093748,0,0,0.68796
1.089253689016914,0,0,2.281674182128906,0,0,1.1465999999999998
1.09217743499903,0,0,1.85790048828125,0,0,-9.784320000000001
1.095068958005868,0,0,-0.622492431640625,0,0,1.2230400000000001
1.0979761670168955,0,0,2.7461493041992187,0,0,2.4460800000000003
1.1009540230152197,0,0,0.7565677246093749,0,0,-0.84084
1.1038811019971035,0,0,1.467645617675781,0,0,2.06388
1.1068533100187778,0,0,2.770091320800781,0,0,0.45864
1.1098137960070744,0,0,-0.38307226562499996,0,0,-0.30576000000000003
1.1128619289956987,0,0,1.9536685546875,0,0,1.1465999999999998
1.1157346200197935,0,0,1.9129671264648436,0,0,1.2994800000000002
1.1185461440181825,0,0,-0.7422025146484375,0,0,9.40212
1.1213558170129545,0,0,2.039859814453125,0,0,1.37592
1.124142490007216,0,0,2.147598889160156,0,0,0.0
1.1270161810098216,0,0,-0.009576806640625,0,0,0.15288000000000002
1.1297381320036948,0,0,2.070984436035156,0,0,20
1.1318757380067836,0,0,1.3455413330078123,0,0,0.22932
1.134039622003911,0,0,-0.0909796630859375,0,0,-0.6115200000000001
1.1361746170150582,0,0,1.0031704956054688,0,0,1.911
1.138311186019564,0,0,2.2074539306640624,0,0,2.75184
1.1404431440168992,0,0,1.235408056640625,0,0,1.2230400000000001
1.142578676022822,0,0,0.0383072265625,0,0,0.0
1.1447206150041893,0,0,1.9225439331054686,0,0,1.07016
1.1468653330230154,0,0,2.913743420410156,0,0,0.99372
1.14901567902416,0,0,1.0917559570312498,0,0,-0.53508
1.151157915010117,0,0,-0.7900865478515624,0,0,-0.45864
1.1533045580144972,0,0,1.3551181396484375,0,0,0.6115200000000001
1.1554462570056785,0,0,1.7693150268554687,0,0,1.2994800000000002
1.1575895849964581,0,0,0.5722141967773438,0,0,0.22932
1.1597323760215659,0,0,1.2569558715820313,0,0,1.07016
1.161874370998703,0,0,2.2601263671875,0,0,1.83456
1.164017107017571,0,0,1.9393033447265624,0,0,1.60524
1.1661598610226065,0,0,0.74699091796875,0,0,-0.3822
1.168303263024427,0,0,1.3024457031249999,0,0,-0.15288000000000002
1.1704464990179986,0,0,1.7453730102539062,0,0,1.5288
1.17261230800068,0,0,0.7517793212890624,0,0,0.53508
1.1747530620195903,0,0,-0.3687070556640625,0,0,0.68796
1.1769157980161253,0,0,2.0183119995117185,0,0,1.68168
1.1790606260183267,0,0,2.360682836914062,0,0,1.98744
1.181205917004263,0,0,1.2593500732421874,0,0,-0.30576000000000003
1.1833537830098066,0,0,1.5298948608398437,0,0,0.22932
1.1854977030016016,0,0,2.059013427734375,0,0,0.84084
1.1876411060220562,0,0,1.3670891479492187,0,0,1.07016
1.189785323018441,0,0,0.4333505004882812,0,0,-0.68796
1.1919286330230534,0,0,1.5107412475585937,0,0,1.2230400000000001
1.1940720900020096,0,0,1.6831237670898436,0,0,0.7644
1.1962142520060297,0,0,0.7900865478515624,0,0,1.07016
1.1983571360178757,0,0,0.4070142822265625,0,0,0.30576000000000003
1.20051820500521,0,0,2.7246014892578123,0,0,2.5989600000000004
1.20266325501143,0,0,2.2002713256835937,0,0,1.07016
1.2048076200007927,0,0,0.6105214233398437,0,0,-9.784320000000001
1.2069553559995256,0,0,0.41419688720703124,0,0,0.68796
1.2091060540114995,0,0,2.5713725830078125,0,0,1.45236
1.2112481050135102,0,0,1.8243816650390623,0,0,0.30576000000000003
1.2133906000235584,0,0,-0.6248866333007812,0,0,-1.37592
1.2155360390024725,0,0,1.5921441040039062,0,0,0.15288000000000002
1.2176842560002115,0,0,2.978386865234375,0,0,1.37592
1.219827659020666,0,0,1.4724340209960938,0,0,1.83456
1.2219732090015896,0,0,0.239420166015625,0,0,0.0
1.224153629009379,0,0,1.1563994018554686,0,0,0.99372
1.2263032350165304,0,0,2.427720483398437,0,0,0.91728
1.2285166000074241,0,0,0.8786720092773437,0,0,-1.5288
1.2314474750019144,0,0,1.62805712890625,0,0,2.06388
1.2345637370017357,0,0,2.1452046874999997,0,0,-0.22932
1.2376829620043281,0,0,-0.2154781494140625,0,0,0.99372
1.2408185390231665,0,0,2.8467057739257813,0,0,1.83456
1.2440265400218777,0,0,0.6344634399414062,0,0,-1.07016
1.2472328940057196,0,0,1.7573440185546874,0,0,2.36964
1.2503525820211507,0,0,2.501940734863281,0,0,1.45236
1.253470121009741,0,0,-1.1851298217773436,0,0,0.45864
1.2565883829956874,0,0,2.3223756103515623,0,0,0.6115200000000001
1.2597034049977083,0,0,2.1308394775390624,0,0,1.2994800000000002
1.2628189260140061,0,0,-1.2018892333984375,0,0,0.68796
1.2659352990158368,0,0,3.0837317382812497,0,0,1.45236
1.269051320006838,0,0,0.9552864624023437,0,0,-0.6115200000000001
1.2721644160046708,0,0,1.0965443603515623,0,0,1.5288
1.2752751410007477,0,0,1.599326708984375,0,0,1.07016
1.278423958021449,0,0,-0.6488286499023437,0,0,0.99372
1.2815449790214188,0,0,3.4668040039062498,0,0,1.68168
1.2846612590074074,0,0,0.9313444458007812,0,0,-1.2994800000000002
1.2877762250136584,0,0,0.6464344482421874,0,0,-20
1.2908911350241397,0,0,3.23696064453125,0,0,3.51624
1.2940058420062996,0,0,-0.8212111694335937,0,0,9.01992
1.2971238260215614,0,0,1.618480322265625,0,0,1.83456
1.3002360320242587,0,0,2.1308394775390624,0,0,0.0
1.3033532940025907,0,0,-0.5267243652343749,0,0,0.99372
1.306490778020816,0,0,3.1579519897460937,0,0,2.2167600000000003
1.3096126140153501,0,0,0.5961562133789062,0,0,0.68796
1.3127262470079586,0,0,1.1755530151367186,0,0,0.99372
1.3158231569977943,0,0,1.924938134765625,0,0,-9.40212
1.3189452340011485,0,0,-0.201112939453125,0,0,1.2994800000000002
1.3220587180112489,0,0,2.6431986328124997,0,0,1.60524
1.3251708690077066,0,0,0.15562310791015624,0,0,0.30576000000000003
1.3283189820067491,0,0,2.114080065917969,0,0,1.37592
1.331435836997116,0,0,1.8650830932617186,0,0,0.53508
1.3345438399992418,0,0,-0.7733271362304687,0,0,9.172799999999999
1.3376570650143549,0,0,2.5139117431640625,0,0,2.4460800000000003
1.3407969929976389,0,0,2.3487118286132813,0,0,0.07644000000000001
1.3439120330149308,0,0,-0.4381389038085937,0,0,0.53508
1.3470287210075185,0,0,3.0166940917968748,0,0,1.68168
1.3501455200021155,0,0,-0.4213794921875,0,0,-0.15288000000000002
1.353265078010736,0,0,1.3646949462890625,0,0,0.99372
1.3563818400143646,0,0,1.8148048583984373,0,0,1.1465999999999998
1.3595178789983038,0,0,0.8882488159179687,0,0,2.4460800000000003
1.3628923420037609,0,0,2.1116858642578125,0,0,0.84084
1.3659937340125907,0,0,0.36152445068359373,0,0,0.7644
1.369088848005049,0,0,2.844311572265625,0,0,2.14032
1.3721765920054168,0,0,0.5315127685546874,0,0,-0.22932
1.3752745579986367,0,0,0.603338818359375,0,0,0.68796
1.3783847459999379,0,0,2.6575638427734374,0,0,1.68168
1.3814948040235322,0,0,0.7613561279296874,0,0,0.30576000000000003
1.3845985290245153,0,0,1.419761584472656,0,0,1.98744
1.387706662004348,0,0,1.8555062866210936,0,0,0.7644
1.39080896100495,0,0,0.08379705810546874,0,0,0.7644
1.3942214230191894,0,0,1.85790048828125,0,0,1.75812
1.3975628860061988,0,0,0.8667010009765624,0,0,0.84084
1.4009062380064279,0,0,2.0087351928710935,0,0,0.3822
1.4040393890172709,0,0,1.0199299072265624,0,0,0.30576000000000003
1.407145892007975,0,0,1.4437036010742186,0,0,1.911
1.4102494130202103,0,0,2.291250988769531,0,0,0.68796
1.4133532870037016,0,0,-0.5698199951171875,0,0,0.0
1.4164547710097395,0,0,2.6408044311523438,0,0,1.45236
1.4195758849964477,0,0,2.5474305664062498,0,0,0.84084
1.4226964060217142,0,0,-1.4628572143554686,0,0,0.30576000000000003
1.42581637200783,0,0,2.8203695556640622,0,0,0.91728
1.4290269470075145,0,0,0.3902548706054687,0,0,0.0
1.432146080012899,0,0,1.6328455322265625,0,0,0.53508
1.435268638015259,0,0,1.5179238525390624,0,0,1.83456
1.4383904370188247,0,0,0.2346317626953125,0,0,1.2994800000000002
1.4415101619961206,0,0,2.863465185546875,0,0,2.4460800000000003
1.4446590900188312,0,0,0.086191259765625,0,0,-2.4460800000000003
1.4477794260019436,0,0,1.1947066284179686,0,0,2.2167600000000003
1.4508992430055514,0,0,2.8107927490234372,0,0,1.2994800000000002
1.4540175790025387,0,0,-1.6256629272460936,0,0,-9.707880000000001
1.4571460080042016,0,0,4.029441394042968,0,0,2.06388
1.46026117700967,0,0,1.0749965454101562,0,0,-1.5288
1.463380105997203,0,0,-0.32561142578124996,0,0,1.45236
1.4664988490112592,0,0,3.5218706420898434,0,0,1.2230400000000001
1.4696166480134707,0,0,-0.14125789794921875,0,0,0.68796
1.4727672990120482,0,0,1.2952630981445312,0,0,0.84084
1.475886968022678,0,0,2.1787235107421874,0,0,0.15288000000000002
1.4790063600230496,0,0,0.7230489013671875,0,0,1.2994800000000002
1.4821246400242671,0,0,2.528276953125,0,0,0.91728
1.4852426610013936,0,0,0.0526724365234375,0,0,0.3822
1.4883588490192778,0,0,2.212242333984375,0,0,1.83456
1.4914767220034264,0,0,2.269703173828125,0,0,1.83456
1.4946886690158863,0,0,-1.9321207397460936,0,0,0.7644
1.4978711520088837,0,0,2.9568390502929685,0,0,2.4460800000000003
1.5009958030132111,0,0,0.20350714111328125,0,0,-0.7644
1.5041146200092044,0,0,1.3383587280273437,0,0,9.555
1.507577434007544,0,0,3.308786694335937,0,0,1.2994800000000002
1.5107145290239714,0,0,-2.013523596191406,0,0,9.24924
1.5138384950114414,0,0,1.6136919189453125,0,0,0.22932
1.5169569050194696,0,0,1.6160861206054686,0,0,9.555
1.520072148006875,0,0,1.1875240234375,0,0,1.07016
1.523201151023386,0,0,2.3726538452148436,0,0,1.83456
1.5263208569958806,0,0,-0.229843359375,0,0,-0.45864
1.5294792299973778,0,0,2.4349030883789062,0,0,1.83456
1.5326011770230252,0,0,1.3407529296874998,0,0,-0.99372
1.5357276610156987,0,0,-0.239420166015625,0,0,1.911
1.5388482380076312,0,0,3.593696691894531,0,0,2.36964
1.5419658890168648,0,0,-1.197100830078125,0,0,-0.6115200000000001
1.5450865020102356,0,0,2.1452046874999997,0,0,1.2230400000000001
1.5482087270065676,0,0,2.2266075439453124,0,0,-0.7644
1.551328100002138,0,0,-0.7302315063476562,0,0,0.07644000000000001
1.5544486959988717,0,0,2.5043349365234375,0,0,2.14032
1.557567772018956,0,0,1.8698714965820311,0,0,1.07016
1.5606838310195599,0,0,0.8355763793945312,0,0,9.631440000000001
1.5638001300103497,0,0,1.85790048828125,0,0,0.07644000000000001
1.5669184470025357,0,0,0.4525041137695312,0,0,1.68168
1.5700348570244387,0,0,1.22583125,0,0,-9.47856
1.5731545640155673,0,0,1.1563994018554686,0,0,0.0
1.5762729000125546,0,0,2.806004345703125,0,0,1.60524
1.5793979390000459,0,0,1.675941162109375,0,0,0.91728
1.5825150530145038,0,0,-1.209071838378906,0,0,0.53508
1.5856360190082341,0,0,2.9281086303710935,0,0,1.75812
1.5887924660055432,0,0,1.1348515869140625,0,0,-0.22932
1.5919123759958893,0,0,1.908178723144531,0,0,1.68168
1.5950297300005332,0,0,1.9632453613281249,0,0,1.2994800000000002
1.5981507880205754,0,0,0.12210428466796874,0,0,0.0
1.601294198015239,0,0,2.0829554443359375,0,0,0.99372
1.6044074789970182,0,0,0.9864110839843749,0,0,-1.07016
1.6075257410120685,0,0,0.8475473876953125,0,0,1.5288
1.6106476139975712,0,0,2.5761609863281247,0,0,0.6115200000000001
1.6138421900104731,0,0,-0.3232172241210937,0,0,1.5288
1.6169701180187985,0,0,3.0454245117187497,0,0,1.60524
1.6200861210236326,0,0,0.814028564453125,0,0,-0.45864
1.6232054750144016,0,0,0.1292868896484375,0,0,0.68796
1.6263232190103736,0,0,3.399766357421875,0,0,1.2230400000000001
1.6298441250110045,0,0,-1.2761094848632812,0,0,0.30576000000000003
1.633026127004996,0,0,2.6408044311523438,0,0,0.0
1.6361390000092797,0,0,1.5059528442382812,0,0,-0.6115200000000001
1.6392589650058653,0,0,0.0383072265625,0,0,1.911
1.642375561001245,0,0,3.0071172851562498,0,0,-9.09636
1.645494119002251,0,0,-0.34715924072265625,0,0,0.84084
1.6486539170145988,0,0,2.8850130004882812,0,0,1.45236
1.6517723650031257,0,0,0.9002198242187499,0,0,0.7644
1.654890071018599,0,0,0.076614453125,0,0,0.53508
1.6580065739981364,0,0,3.718195178222656,0,0,1.75812
1.6611236320168246,0,0,0.20829554443359374,0,0,-0.15288000000000002
1.6642402090074029,0,0,1.3311761230468748,0,0,1.45236
1.6673565260134637,0,0,2.6384102294921874,0,0,1.75812
1.6704724360024557,0,0,-1.3024457031249999,0,0,-0.99372
1.6735923280066345,0,0,2.0374656127929685,0,0,2.06388
1.6767075710231438,0,0,1.35990654296875,0,0,0.0
1.67982294401736,0,0,1.3144167114257812,0,0,1.68168
1.6829388920159545,0,0,1.8842367065429686,0,0,1.2994800000000002
1.6860550240089651,0,0,-0.5626373901367188,0,0,-0.6115200000000001
1.6891793600225355,0,0,2.114080065917969,0,0,1.37592
1.6922944740217645,0,0,2.418143676757812,0,0,-2.2167600000000003
1.6954127170029096,0,0,-0.8810662109374999,0,0,2.2931999999999997
1.69853097901796,0,0,3.545812658691406,0,0,2.06388
1.7016485370113514,0,0,0.5434837768554687,0,0,0.07644000000000001
1.704797114012763,0,0,2.2026655273437497,0,0,0.68796
1.7079240420134738,0,0,2.6599580444335937,0,0,1.5288
1.7110405639978126,0,0,-1.467645617675781,0,0,0.15288000000000002
1.7141601770126726,0,0,3.0166940917968748,0,0,1.60524
1.7172774390201084,0,0,1.8555062866210936,0,0,0.0
1.7203916640137322,0,0,0.16280571289062498,0,0,0.45864
1.7235131300112698,0,0,2.693476867675781,0,0,2.14032
1.7266295770241413,0,0,-0.7158662963867187,0,0,-0.91728
1.7298397830163594,0,0,2.398990063476562,0,0,1.75812
1.732960933004506,0,0,1.0917559570312498,0,0,0.0
1.7360759550065268,0,0,1.0941501586914062,0,0,1.1465999999999998
1.7391926800191868,0,0,2.29843359375,0,0,1.83456
1.7423091640230268,0,0,-0.277727392578125,0,0,-1.911
1.7455076470214408,0,0,1.455674609375,0,0,2.2931999999999997
1.7486923900141846,0,0,0.9193734375,0,0,0.0
1.7518102629983332,0,0,-0.03591302490234375,0,0,0.30576000000000003
1.7549302100087516,0,0,3.373430139160156,0,0,1.911
1.7580500089970883,0,0,0.3687070556640625,0,0,-0.84084
1.761185141018359,0,0,0.6488286499023437,0,0,1.75812
1.7643532910151407,0,0,2.808398547363281,0,0,-9.24924
1.7674746270058677,0,0,-0.10773907470703124,0,0,1.60524
1.770600371004548,0,0,1.8602946899414061,0,0,1.07016
1.7737767430080567,0,0,0.7230489013671875,0,0,0.45864
1.7769499120186083,0,0,2.5713725830078125,0,0,0.99372
1.7800703399989288,0,0,1.2976572998046874,0,0,-1.07016
1.7831889170047361,0,0,-0.7948749511718749,0,0,0.45864
1.7863079940143507,0,0,3.5889082885742187,0,0,1.5288
1.7894312930002343,0,0,0.5793968017578125,0,0,0.45864
1.7925501660211012,0,0,2.422932080078125,0,0,0.84084
1.7956650020205416,0,0,2.5617957763671875,0,0,1.911
1.7987836340034846,0,0,-0.6296750366210937,0,0,9.24924
1.801905415020883,0,0,2.4947581298828125,0,0,1.60524
1.8050211580120958,0,0,1.0486603271484374,0,0,0.6115200000000001
1.8081911420158576,0,0,1.0319009155273438,0,0,1.45236
1.8113207000133116,0,0,1.6328455322265625,0,0,0.91728
1.8144341470033396,0,0,0.20829554443359374,0,0,0.22932
1.817567890015198,0,0,3.2154128295898436,0,0,1.60524
1.8207237260066904,0,0,-0.00718260498046875,0,0,20
1.8241106700152159,0,0,1.6328455322265625,0,0,1.2230400000000001
1.8272925979981665,0,0,2.4684219116210935,0,0,2.52252
1.8304508410219569,0,0,-1.4030021728515625,0,0,-0.30576000000000003
1.8336058990098536,0,0,4.206612316894531,0,0,2.82828
1.8367239200160839,0,0,0.612915625,0,0,-0.7644
1.839841608016286,0,0,-0.055066638183593745,0,0,1.45236
1.8429607770231087,0,0,3.181894006347656,0,0,1.98744
1.846076298999833,0,0,-0.44532150878906246,0,0,-9.784320000000001
1.849198227020679,0,0,1.9009961181640624,0,0,1.911
1.8523125080100726,0,0,2.104503259277344,0,0,-9.631440000000001
1.8554309550090693,0,0,-0.842758984375,0,0,1.45236
1.858549976022914,0,0,3.438073583984375,0,0,1.2230400000000001
1.8616684970038477,0,0,-1.7980454467773437,0,0,-0.6115200000000001
1.864790741004981,0,0,3.009511486816406,0,0,0.84084
1.8679075770196505,0,0,2.5546131713867184,0,0,2.2931999999999997
1.871024098014459,0,0,-2.7174188842773437,0,0,-1.37592
1.874140897009056,0,0,3.5506010620117183,0,0,1.83456
1.8772891030239407,0,0,0.9959878906249999,0,0,-1.2230400000000001
1.8804091610072646,0,0,0.3806780639648437,0,0,-0.45864
1.883526627003448,0,0,2.4684219116210935,0,0,20
1.8866469070198946,0,0,-1.9752163696289062,0,0,-9.784320000000001
1.88976716902107,0,0,1.216254443359375,0,0,0.3822
1.8928843199973926,0,0,2.300827795410156,0,0,1.2994800000000002
1.895996842009481,0,0,-0.7972691528320313,0,0,0.53508
1.8991142520098947,0,0,2.4899697265625,0,0,-0.84084
1.9022296059993096,0,0,1.5131354492187499,0,0,8.7906
1.9053465350007173,0,0,-1.8938135131835936,0,0,1.07016
1.908475519012427,0,0,2.4851813232421875,0,0,1.2994800000000002
1.9115943360084202,0,0,0.19393033447265623,0,0,-1.2994800000000002
1.9146999689983204,0,0,0.2920926025390625,0,0,1.2230400000000001
1.9178224159986712,0,0,4.285620971679688,0,0,5.42724
1.9209443260042462,0,0,-0.4381389038085937,0,0,-0.68796
1.9240601990022697,0,0,-2.2553379638671873,0,0,7.10892
1.927200961014023,0,0,2.6886884643554687,0,0,1.2230400000000001
1.9303196490218397,0,0,0.5434837768554687,0,0,-0.99372
1.9334663730114698,0,0,0.13646949462890623,0,0,0.45864
1.9365941169962753,0,0,2.8467057739257813,0,0,0.53508
1.9397142300149426,0,0,0.7445967163085937,0,0,0.0
1.9428308260103222,0,0,-0.8714894042968749,0,0,-0.99372
1.945949125016341,0,0,1.5610194824218748,0,0,0.84084
1.949068146001082,0,0,0.08379705810546874,0,0,0.3822
1.9521815560001414,0,0,1.120486376953125,0,0,1.1465999999999998
1.9552969290234614,0,0,1.0558429321289062,0,0,0.7644
1.958412413019687,0,0,0.12689268798828124,0,0,-1.07016
1.961529527005041,0,0,1.2521674682617188,0,0,9.707880000000001
1.9646745480131358,0,0,1.024718310546875,0,0,0.07644000000000001
1.9677890690218192,0,0,-0.43574470214843747,0,0,0.22932
1.9709063680202235,0,0,1.0390835205078124,0,0,1.60524
1.9740180750086438,0,0,2.147598889160156,0,0,0.45864
1.977157077024458,0,0,0.3016694091796875,0,0,-2.2167600000000003
1.9803411530156154,0,0,1.5634136840820312,0,0,1.37592
1.9834979709994514,0,0,0.22505495605468748,0,0,0.07644000000000001
1.986617232003482,0,0,-0.143652099609375,0,0,9.24924
1.989726846019039,0,0,2.1643583007812497,0,0,0.6115200000000001
1.9928478120127693,0,0,0.8954314208984374,0,0,0.3822
1.9960451840015594,0,0,-0.06943184814453125,0,0,-0.45864
1.9992528709990438,0,0,1.6543933471679686,0,0,-9.40212
2.002377577009611,0,0,0.16041151123046873,0,0,-0.15288000000000002
2.00550802401267,0,0,0.19393033447265623,0,0,0.45864
2.008666303998325,0,0,1.659181750488281,0,0,1.2230400000000001
2.011784289003117,0,0,0.5913678100585937,0,0,0.30576000000000003
2.0149012360197958,0,0,1.24498486328125,0,0,0.3822
2.0180307010014076,0,0,0.4740519287109375,0,0,0.0
2.0211422970169224,0,0,0.7350199096679687,0,0,0.0
2.024234559008619,0,0,0.28012159423828126,0,0,0.22932
2.027365987014491,0,0,0.6272808349609375,0,0,0.68796
2.0304833600239363,0,0,1.2904746948242187,0,0,0.22932
2.033635678002611,0,0,0.612915625,0,0,-0.22932
2.036783921008464,0,0,1.0654197387695312,0,0,0.0
2.0398980720201507,0,0,1.1420341918945311,0,0,0.91728
2.043058352021035,0,0,-0.1484405029296875,0,0,-0.45864
2.046192631998565,0,0,1.2497732666015624,0,0,0.6115200000000001
2.0493158379977103,0,0,0.7254431030273437,0,0,0.0
2.0524299520184286,0,0,0.5123591552734374,0,0,0.22932
2.0555445840000175,0,0,1.3072341064453123,0,0,0.6115200000000001
2.058691735001048,0,0,0.6368576416015624,0,0,-1.1465999999999998
2.0618069780175574,0,0,0.7709329345703124,0,0,-9.784320000000001
2.0649260740028694,0,0,0.7541735229492187,0,0,0.53508
2.068038058001548,0,0,1.1324573852539062,0,0,1.60524
2.0711830600048415,0,0,0.5865794067382812,0,0,-9.32568
2.0742953960143495,0,0,1.446097802734375,0,0,1.2994800000000002
2.0774422510003205,0,0,1.01514150390625,0,0,0.7644
2.0805626240035053,0,0,1.1827356201171875,0,0,0.6115200000000001
2.0836767010041513,0,0,2.1021090576171875,0,0,0.91728
2.0867912960238755,0,0,1.1061211669921875,0,0,0.53508
2.089905558008468,0,0,1.1851298217773436,0,0,0.22932
2.093021578999469,0,0,1.4101847778320311,0,0,1.1465999999999998
2.0961338600027375,0,0,0.9720458740234375,0,0,0.53508
2.0992479740234558,0,0,1.2761094848632812,0,0,1.2994800000000002
2.1023617910104804,0,0,1.3479355346679687,0,0,0.53508
2.1054772380157374,0,0,1.1372457885742187,0,0,0.99372
2.1086560740077402,0,0,1.1109095703125,0,0,0.30576000000000003
2.1117743540089577,0,0,1.1420341918945311,0,0,0.99372
2.1149316530209035,0,0,1.3718775512695311,0,0,-9.01992
2.1181250250083394,0,0,1.3168109130859373,0,0,0.15288000000000002
2.1212822860106826,0,0,1.3575123413085937,0,0,0.99372
2.124463233019924,0,0,1.3335703247070312,0,0,0.45864
2.1276306420040783,0,0,1.0869675537109373,0,0,1.2230400000000001
2.13084360701032,0,0,1.3000515014648437,0,0,0.84084
2.1341591450036503,0,0,1.5011644409179687,0,0,0.84084
2.1370935940067284,0,0,1.189918225097656,0,0,0.6115200000000001
2.1399693400016986,0,0,1.37906015625,0,0,0.91728
2.1428359750134405,0,0,1.6735469604492186,0,0,0.99372
2.145732499018777,0,0,1.3335703247070312,0,0,-9.09636
2.148593634017743,0,0,1.3072341064453123,0,0,1.37592
2.1521981680125464,0,0,1.6711527587890624,0,0,0.30576000000000003
2.1551213030179497,0,0,1.2306196533203124,0,0,0.84084
2.1579203639994375,0,0,1.388636962890625,0,0,0.45864
2.160732333024498,0,0,1.4413093994140624,0,0,0.6115200000000001
2.163517210021382,0,0,1.3479355346679687,0,0,1.1465999999999998
2.1663245870149694,0,0,1.0869675537109373,0,0,0.68796
2.1691087410144974,0,0,1.3120225097656248,0,0,1.2230400000000001
2.171889988007024,0,0,1.3215993164062498,0,0,0.68796
2.1746743470139336,0,0,1.3120225097656248,0,0,0.6115200000000001
2.1774631490116008,0,0,1.0893617553710937,0,0,0.84084
2.180243822018383,0,0,1.2521674682617188,0,0,0.68796
2.1830274400126655,0,0,1.419761584472656,0,0,0.84084
2.185815076023573,0,0,1.235408056640625,0,0,0.53508
2.188626026007114,0,0,1.0678139404296874,0,0,1.75812
2.1914131810190156,0,0,1.5227122558593749,0,0,0.84084
2.1941987800237257,0,0,1.2808978881835937,0,0,0.7644
2.196982952998951,0,0,1.139639990234375,0,0,1.2230400000000001
2.1997642920177896,0,0,1.3048399047851562,0,0,1.07016
2.2025644649984315,0,0,1.4915876342773438,0,0,0.6115200000000001
2.205364841996925,0,0,1.0773907470703123,0,0,0.68796
2.2081715149979573,0,0,1.22583125,0,0,1.2994800000000002
2.2110340200015344,0,0,1.5203180541992187,0,0,0.91728
2.2138353229966015,0,0,1.3192051147460937,0,0,0.45864
2.2166368839971256,0,0,1.2378022583007813,0,0,1.37592
2.219433760998072,0,0,1.5179238525390624,0,0,0.7644
2.2222320080036297,0,0,1.5394716674804687,0,0,0.6115200000000001
2.2250293109973427,0,0,1.0702081420898437,0,0,0.45864
2.2278247060021386,0,0,1.0821791503906248,0,0,0.07644000000000001
2.230621249007527,0,0,1.158793603515625,0,0,0.99372
2.2334515700058546,0,0,1.3407529296874998,0,0,0.22932
2.236247576016467,0,0,1.1611878051757811,0,0,1.07016
2.2390458040172234,0,0,1.3455413330078123,0,0,0.6115200000000001
2.2418452920101117,0,0,1.6160861206054686,0,0,1.07016
2.2446769830130506,0,0,1.438915197753906,0,0,0.99372
2.247568933002185,0,0,1.3479355346679687,0,0,0.22932
2.2504109569999855,0,0,1.350329736328125,0,0,0.99372
2.253215093020117,0,0,1.2928688964843749,0,0,0.30576000000000003
2.2560489129973575,0,0,1.24498486328125,0,0,1.07016
2.2588522340229247,0,0,1.2689268798828124,0,0,0.45864
2.261683814023854,0,0,1.6543933471679686,0,0,0.53508
2.264483987004496,0,0,1.2282254516601563,0,0,0.91728
2.2673067150171846,0,0,1.1947066284179686,0,0,0.30576000000000003
2.270107814023504,0,0,1.24498486328125,0,0,0.84084
2.2729033390060067,0,0,1.3168109130859373,0,0,0.91728
2.275682419014629,0,0,1.0773907470703123,0,0,1.07016
2.278555814002175,0,0,1.426944189453125,0,0,0.3822
2.281355709012132,0,0,1.5921441040039062,0,0,0.99372
2.2841524929972365,0,0,1.2665326782226562,0,0,1.07016
2.286948888009647,0,0,1.2234370483398436,0,0,0.3822
2.2897453019977547,0,0,1.2904746948242187,0,0,0.7644
2.2925438260135707,0,0,1.3120225097656248,0,0,0.68796
2.295339425007114,0,0,1.2737152832031249,0,0,0.68796
2.298135190998437,0,0,1.3718775512695311,0,0,0.15288000000000002
2.300949123018654,0,0,1.4628572143554686,0,0,0.91728
2.3037484619999304,0,0,1.2856862915039062,0,0,0.91728
2.306559468008345,0,0,1.1659762084960936,0,0,-0.15288000000000002
2.309355345001677,0,0,1.2785036865234374,0,0,0.7644
2.3121377220086288,0,0,1.3742717529296875,0,0,1.07016
2.3149228580005,0,0,1.0917559570312498,0,0,0.7644
2.317721697007073,0,0,1.199495031738281,0,0,0.0
2.3205427220091224,0,0,1.3910311645507811,0,0,0.45864
2.3233444310026243,0,0,1.3479355346679687,0,0,1.07016
2.326136308023706,0,0,1.197100830078125,0,0,9.555
2.3289573329966515,0,0,1.3479355346679687,0,0,0.30576000000000003
2.331738820997998,0,0,1.4221557861328125,0,0,1.07016
2.3345433450012933,0,0,1.1156979736328125,0,0,0.45864
2.3376004780002404,0,0,1.2832920898437499,0,0,0.99372
2.3407205550174695,0,0,1.6136919189453125,0,0,0.53508
2.34386292801355,0,0,1.13006318359375,0,0,0.91728
2.346980116009945,0,0,1.1540052001953125,0,0,0.0
2.35009571100818,0,0,1.6472107421875,0,0,0.84084
2.3532099360018037,0,0,1.3359645263671873,0,0,0.7644
2.356324124004459,0,0,0.9337386474609375,0,0,1.2994800000000002
2.359439812018536,0,0,1.24498486328125,0,0,0.53508
2.3626092770136893,0,0,1.2689268798828124,0,0,1.1465999999999998
2.3658101120090578,0,0,1.1875240234375,0,0,1.07016
2.368919911008561,0,0,1.3168109130859373,0,0,-8.867040000000001
2.3720480620104354,0,0,1.3168109130859373,0,0,1.07016
2.3751701200089883,0,0,1.2521674682617188,0,0,0.6115200000000001
2.378288325999165,0,0,1.1611878051757811,0,0,0.91728
2.3814408290199935,0,0,1.3239935180664062,0,0,0.53508
2.3845558500033803,0,0,1.0869675537109373,0,0,1.68168
2.3876710930198897,0,0,1.1444283935546875,0,0,0.3822
2.3907871520204935,0,0,1.2306196533203124,0,0,0.91728
2.3939285990200005,0,0,1.1133037719726562,0,0,0.99372
2.397260673023993,0,0,1.3623007446289062,0,0,0.6115200000000001
2.4004828780016396,0,0,1.618480322265625,0,0,0.99372
2.4037651200196706,0,0,1.2976572998046874,0,0,0.84084
2.40687834500568,0,0,1.4796166259765624,0,0,0.91728
2.4100119400245603,0,0,1.5490484741210937,0,0,0.91728
2.4131233320222236,0,0,1.2952630981445312,0,0,1.1465999999999998
2.4162199459969997,0,0,1.254561669921875,0,0,0.22932
2.4193403190001845,0,0,1.618480322265625,0,0,1.07016
2.4224577470158692,0,0,1.455674609375,0,0,0.68796
2.4255768800212536,0,0,1.0749965454101562,0,0,1.2230400000000001
2.428691549022915,0,0,1.5825672973632812,0,0,0.15288000000000002
2.4317883850017097,0,0,1.3096283081054687,0,0,0.7644
2.434911592019489,0,0,1.158793603515625,0,0,0.68796
2.438028853997821,0,0,1.1611878051757811,0,0,0.6115200000000001
2.4411470040213317,0,0,1.2713210815429687,0,0,1.07016
2.444291710999096,0,0,1.369483349609375,0,0,-0.6115200000000001
2.4474108800059184,0,0,1.235408056640625,0,0,0.3822
2.45052862301236,0,0,1.455674609375,0,0,0.3822
2.453645237023011,0,0,1.2521674682617188,0,0,1.2994800000000002
2.4567929430049844,0,0,1.2593500732421874,0,0,0.53508
2.4599090389965568,0,0,1.3575123413085937,0,0,0.99372
2.4631811139988713,0,0,1.216254443359375,0,0,1.5288
2.466302134998841,0,0,1.3383587280273437,0,0,0.7644
2.4694217670185026,0,0,1.6065093139648436,0,0,0.84084
2.4725418250018265,0,0,1.149216796875,0,0,1.07016
2.4756393840070814,0,0,1.3120225097656248,0,0,0.22932
2.478762312006438,0,0,1.484405029296875,0,0,0.53508
2.481880389008438,0,0,1.1180921752929687,0,0,0.68796
2.484999706997769,0,0,1.1731588134765625,0,0,1.1465999999999998
2.4881142280064523,0,0,1.3192051147460937,0,0,0.84084
2.4912147860159166,0,0,1.5059528442382812,0,0,0.91728
2.4943309370137285,0,0,1.3718775512695311,0,0,1.5288
2.49987113501993,0,0,1.3048399047851562,0,0,0.45864
2.5030320640071295,0,0,1.2665326782226562,0,0,1.45236
2.506152418005513,0,0,1.3311761230468748,0,0,0.68796
2.5092870320077054,0,0,1.6112977172851561,0,0,1.2230400000000001
2.5124036830093246,0,0,0.9217676391601562,0,0,0.91728
2.5155499810061883,0,0,1.3048399047851562,0,0,0.99372
2.5187134650186636,0,0,1.3551181396484375,0,0,0.91728
2.5218305599992163,0,0,1.1109095703125,0,0,0.68796
2.524952656007372,0,0,1.3551181396484375,0,0,0.22932
2.5280669729982037,0,0,1.6400281372070311,0,0,0.45864
2.531183420011075,0,0,1.3024457031249999,0,0,0.45864
2.534339125995757,0,0,1.2401964599609374,0,0,0.7644
2.5374547399987932,0,0,1.1659762084960936,0,0,0.6115200000000001
2.5405755390238483,0,0,1.3766659545898436,0,0,0.84084
2.5437100420240313,0,0,1.197100830078125,0,0,1.2230400000000001
2.546826655016048,0,0,1.2689268798828124,0,0,0.3822
2.549941862002015,0,0,1.4053963745117186,0,0,0.91728
2.5530574200092815,0,0,1.2114660400390624,0,0,-0.3822
2.5561723120044917,0,0,1.197100830078125,0,0,0.84084
2.559287870011758,0,0,1.2665326782226562,0,0,0.53508
2.5624033360218164,0,0,1.2713210815429687,0,0,0.99372
2.565522246004548,0,0,1.2282254516601563,0,0,0.30576000000000003
2.5686630260024685,0,0,1.3646949462890625,0,0,0.99372
2.571776121010771,0,0,1.3431471313476562,0,0,1.37592
2.5748876240104437,0,0,1.5251064575195312,0,0,0.7644
2.578044960013358,0,0,1.4532804077148436,0,0,0.84084
2.581162870017579,0,0,1.0079588989257813,0,0,0.45864
2.5842776500212494,0,0,1.3215993164062498,0,0,0.30576000000000003
2.587391931010643,0,0,1.4796166259765624,0,0,0.84084
2.5905067670100834,0,0,1.1875240234375,0,0,0.91728
2.593624583998462,0,0,1.2952630981445312,0,0,0.84084
2.5967730870179366,0,0,1.4772224243164063,0,0,0.91728
2.599887923017377,0,0,1.3024457031249999,0,0,0.68796
2.603003185009584,0,0,1.1420341918945311,0,0,1.5288
2.606116891023703,0,0,1.1755530151367186,0,0,0.91728
2.6092323760094587,0,0,1.2737152832031249,0,0,1.2230400000000001
2.6123444520053454,0,0,1.2761094848632812,0,0,0.0
2.6154592140228488,0,0,1.3575123413085937,0,0,0.91728
2.6185732540034223,0,0,1.35990654296875,0,0,0.68796
2.6216951640089974,0,0,1.1468225952148436,0,0,0.0
2.624811834015418,0,0,1.2713210815429687,0,0,0.22932
2.6279681690211874,0,0,1.3527239379882812,0,0,0.45864
2.6310855979972985,0,0,1.2689268798828124,0,0,1.07016
2.6342330260085873,0,0,1.3000515014648437,0,0,0.91728
2.6373512140125968,0,0,1.37906015625,0,0,1.1465999999999998
2.6404650500044227,0,0,1.3742717529296875,0,0,1.07016
2.6443620070058387,0,0,1.2761094848632812,0,0,0.84084
2.647495917015476,0,0,1.2832920898437499,0,0,0.7644
2.6505967160046566,0,0,1.3024457031249999,0,0,1.1465999999999998
2.6537299970223103,0,0,1.2569558715820313,0,0,0.91728
2.6568444250151515,0,0,1.5418658691406248,0,0,0.99372
2.659959909011377,0,0,1.0989385620117187,0,0,0.99372
2.663075504999142,0,0,1.254561669921875,0,0,0.0
2.6661895450088196,0,0,1.5131354492187499,0,0,0.7644
2.6693060290126596,0,0,1.1659762084960936,0,0,0.6115200000000001
2.6724192350229714,0,0,1.1061211669921875,0,0,1.2230400000000001
2.675530497013824,0,0,1.5298948608398437,0,0,1.2230400000000001
2.6786757960217074,0,0,1.3431471313476562,0,0,0.68796
2.681789132009726,0,0,1.1731588134765625,0,0,1.5288
2.684942949010292,0,0,1.1037269653320312,0,0,0.53508
2.688092433003476,0,0,1.20667763671875,0,0,1.1465999999999998
2.691212436009664,0,0,1.350329736328125,0,0,-0.45864
2.6943304570158944,0,0,1.3742717529296875,0,0,0.68796
2.6974468480038922,0,0,1.0845733520507812,0,0,0.45864
2.700562592013739,0,0,1.1324573852539062,0,0,0.07644000000000001
2.7036788540135603,0,0,1.2521674682617188,0,0,0.7644
2.7067943010188174,0,0,1.3287819213867187,0,0,0.7644
2.7099386180052534,0,0,1.149216796875,0,0,1.83456
2.713055140018696,0,0,1.3263877197265623,0,0,1.1465999999999998
2.716168735001702,0,0,1.6136919189453125,0,0,1.1465999999999998
2.7192838299961295,0,0,1.3527239379882812,0,0,1.07016
2.722399555001175,0,0,1.3479355346679687,0,0,0.30576000000000003
2.725523854023777,0,0,1.6065093139648436,0,0,0.6115200000000001
2.728675115999067,0,0,1.0965443603515623,0,0,0.45864
2.731791118014371,0,0,1.1468225952148436,0,0,0.45864
2.7349440840189345,0,0,1.3934253662109375,0,0,0.99372
2.7380613640125375,0,0,1.448492004394531,0,0,0.53508
2.7412015150184743,0,0,1.1659762084960936,0,0,1.1465999999999998
2.7443409800180234,0,0,1.3527239379882812,0,0,0.7644
2.7475269270071294,0,0,1.4125789794921875,0,0,0.84084
2.750823187001515,0,0,1.0845733520507812,0,0,1.45236
2.7539467820024583,0,0,1.0941501586914062,0,0,0.99372
2.757064839999657,0,0,1.2378022583007813,0,0,1.07016
2.760179880016949,0,0,1.1468225952148436,0,0,9.555
2.763295734010171,0,0,1.1109095703125,0,0,1.07016
2.766411163000157,0,0,1.4221557861328125,0,0,0.15288000000000002
2.7695285360096022,0,0,1.2306196533203124,0,0,1.45236
2.772672594001051,0,0,1.3455413330078123,0,0,0.53508
2.775785875011934,0,0,1.2593500732421874,0,0,0.84084
2.7789690619974863,0,0,1.0821791503906248,0,0,1.1465999999999998
2.7820896200137213,0,0,1.3048399047851562,0,0,0.91728
2.785209975001635,0,0,1.4987702392578124,0,0,1.07016
2.788325107016135,0,0,1.2234370483398436,0,0,0.68796
2.7914422580215614,0,0,1.350329736328125,0,0,0.6115200000000001
2.7945593160111457,0,0,1.5729904907226562,0,0,0.91728
2.797676930000307,0,0,1.1013327636718748,0,0,0.7644
2.800796766008716,0,0,1.1827356201171875,0,0,0.30576000000000003
2.8039119350141846,0,0,1.22583125,0,0,0.84084
2.807029345014598,0,0,1.4915876342773438,0,0,0.45864
2.8101344410097227,0,0,1.177947216796875,0,0,1.07016
2.8161110049986746,0,0,1.35990654296875,0,0,0.91728
2.819230155000696,0,0,1.197100830078125,0,0,-0.22932
2.8223483620095067,0,0,1.2282254516601563,0,0,0.7644
2.8254660310049076,0,0,1.3096283081054687,0,0,0.22932
2.8285802559985314,0,0,1.2401964599609374,0,0,1.5288
2.8316942590172403,0,0,1.2761094848632812,0,0,0.6115200000000001
2.834809521009447,0,0,1.4700398193359374,0,0,0.68796
2.838019652001094,0,0,1.2952630981445312,0,0,0.68796
2.840869362000376,0,0,1.2138602416992186,0,0,0.6115200000000001
2.8440011049970053,0,0,1.5586252807617187,0,0,0.7644
2.846798796002986,0,0,1.3000515014648437,0,0,0.53508
2.8498965949984267,0,0,1.1085153686523437,0,0,1.2230400000000001
2.8527542860247195,0,0,1.2425906616210938,0,0,0.68796
2.8555488850106485,0,0,1.2761094848632812,0,0,0.6115200000000001
2.8583410390128847,0,0,1.2785036865234374,0,0,1.68168
2.861132398014888,0,0,1.3718775512695311,0,0,0.91728
2.8639212190173566,0,0,1.5322890624999999,0,0,0.3822
2.866710188012803,0,0,1.3431471313476562,0,0,0.6115200000000001
2.869502065004781,0,0,1.189918225097656,0,0,1.2994800000000002
2.8722889230120927,0,0,1.2114660400390624,0,0,0.68796
2.875105725019239,0,0,1.3479355346679687,0,0,0.53508
2.8778980830102228,0,0,1.0773907470703123,0,0,0.68796
2.88070994100417,0,0,1.2282254516601563,0,0,0.68796
2.8834990030154586,0,0,1.4987702392578124,0,0,0.45864
2.88628867600346,0,0,1.180341418457031,0,0,0.68796
2.889078108011745,0,0,1.1109095703125,0,0,0.6115200000000001
2.8918649480037857,0,0,1.2808978881835937,0,0,0.99372
2.8946415290120058,0,0,1.1420341918945311,0,0,0.6115200000000001
2.8974264790012967,0,0,1.3168109130859373,0,0,1.2230400000000001
2.900442409008974,0,0,1.35990654296875,0,0,0.84084
2.903237415011972,0,0,1.4317325927734375,0,0,0.68796
2.9060498470207676,0,0,1.1540052001953125,0,0,0.7644
2.909301867010072,0,0,1.199495031738281,0,0,1.68168
2.9120780219964217,0,0,1.5251064575195312,0,0,0.45864
2.9148549170058686,0,0,1.2378022583007813,0,0,0.45864
2.917629700998077,0,0,1.3670891479492187,0,0,1.37592
2.920400671020616,0,0,1.2018892333984375,0,0,0.91728
2.923175011004787,0,0,1.484405029296875,0,0,1.1465999999999998
2.9261677370232064,0,0,1.0917559570312498,0,0,0.7644
2.929084983014036,0,0,1.139639990234375,0,0,1.2230400000000001
2.931941265997011,0,0,1.5825672973632812,0,0,0.91728
2.9347190500120632,0,0,1.3814543579101561,0,0,1.1465999999999998
2.9375387410109397,0,0,1.2785036865234374,0,0,-8.71416
2.940328655007761,0,0,1.407790576171875,0,0,0.7644
2.943118549999781,0,0,1.2880804931640624,0,0,1.5288
2.9459093530022074,0,0,1.1109095703125,0,0,0.6115200000000001
2.9486997479980346,0,0,1.1563994018554686,0,0,1.2994800000000002
2.9514886060205754,0,0,1.2737152832031249,0,0,0.84084
2.954277650016593,0,0,1.3551181396484375,0,0,0.45864
2.957065174006857,0,0,1.3239935180664062,0,0,1.45236
2.9598527920024935,0,0,1.2425906616210938,0,0,0.84084
2.962643520004349,0,0,1.5945383056640625,0,0,0.68796
2.9654334530059714,0,0,1.1037269653320312,0,0,0.45864
2.968220552022103,0,0,1.3623007446289062,0,0,1.2230400000000001
2.9710082990059163,0,0,1.448492004394531,0,0,0.6115200000000001
2.9737948240072,0,0,1.3144167114257812,0,0,0.22932
2.9765841260086745,0,0,1.2569558715820313,0,0,1.45236
2.9793734660197515,0,0,1.2665326782226562,0,0,0.68796
2.9822551190154627,0,0,1.4341267944335936,0,0,0.53508
2.9850809769995976,0,0,1.1180921752929687,0,0,0.53508
2.987871613004245,0,0,1.1276689819335937,0,0,1.2230400000000001
2.990659138013143,0,0,1.1133037719726562,0,0,0.91728
2.993445755011635,0,0,1.3144167114257812,0,0,0.30576000000000003
2.9967628480226267,0,0,1.1133037719726562,0,0,-9.40212
2.999688538024202,0,0,1.3215993164062498,0,0,0.7644
3.002504914999008,0,0,1.388636962890625,0,0,1.1465999999999998
3.005308051011525,0,0,1.2832920898437499,0,0,0.84084
3.008402924024267,0,0,1.2378022583007813,0,0,0.0
3.011205745016923,0,0,1.7238251953125,0,0,0.7644
3.0140055470110383,0,0,1.2593500732421874,0,0,1.1465999999999998
3.0168072390079033,0,0,1.1276689819335937,0,0,-0.53508
3.0196059120062273,0,0,1.22583125,0,0,0.45864
3.0224339730048086,0,0,1.3407529296874998,0,0,1.2230400000000001
3.025250609003706,0,0,1.16837041015625,0,0,0.53508
3.0280482259986456,0,0,1.2808978881835937,0,0,0.22932
3.030846620997181,0,0,1.5801730957031248,0,0,0.53508
3.033645053015789,0,0,1.2689268798828124,0,0,0.99372
3.0364422450074926,0,0,1.16837041015625,0,0,-0.3822
3.039342435018625,0,0,1.3718775512695311,0,0,0.30576000000000003
3.042228755017277,0,0,1.2976572998046874,0,0,0.7644
3.045348684012424,0,0,1.209071838378906,0,0,1.68168
3.0484647050034255,0,0,1.3407529296874998,0,0,1.2230400000000001
3.051581225998234,0,0,1.5586252807617187,0,0,1.07016
3.054698025021935,0,0,1.1923124267578125,0,0,0.7644
3.057814897998469,0,0,1.3862427612304686,0,0,0.7644
3.060933622997254,0,0,1.5346832641601562,0,0,0.7644
3.0640488479984924,0,0,1.216254443359375,0,0,0.6115200000000001
3.0671702210092917,0,0,1.2737152832031249,0,0,0.0
3.0702893350098748,0,0,1.6472107421875,0,0,0.99372
3.0734073930070736,0,0,1.2761094848632812,0,0,0.45864
3.0765610439993907,0,0,1.3431471313476562,0,0,1.1465999999999998
3.079679806018248,0,0,1.4101847778320311,0,0,1.2230400000000001
3.0827954380074516,0,0,1.2425906616210938,0,0,0.68796
3.085911478003254,0,0,1.199495031738281,0,0,1.07016
3.089035758021055,0,0,1.3144167114257812,0,0,0.91728
3.092191483010538,0,0,1.2306196533203124,0,0,0.91728
3.0953086520021316,0,0,1.2521674682617188,0,0,0.0
3.098424210009398,0,0,1.2808978881835937,0,0,0.68796
3.1015399350144435,0,0,1.3575123413085937,0,0,0.45864
3.104655233997619,0,0,1.2473790649414063,0,0,0.84084
3.107768700021552,0,0,1.2617442749023438,0,0,0.22932
3.1108990360226016,0,0,1.3168109130859373,0,0,1.07016
3.114021909015719,0,0,1.3024457031249999,0,0,0.84084
3.117162171023665,0,0,1.4221557861328125,0,0,0.99372
3.1202791730174795,0,0,1.618480322265625,0,0,1.07016
3.1233968610176817,0,0,1.0917559570312498,0,0,0.84084
3.1265197900065687,0,0,1.0917559570312498,0,0,0.0
3.129636700003175,0,0,1.5514426757812498,0,0,0.84084
3.1328097200021148,0,0,1.120486376953125,0,0,0.91728
3.135928130999673,0,0,1.1133037719726562,0,0,0.7644
3.1390801700181328,0,0,1.5155296508789062,0,0,0.84084
3.142197321023559,0,0,1.2689268798828124,0,0,0.45864
3.145315138011938,0,0,1.149216796875,0,0,1.37592
3.148430493019987,0,0,1.0821791503906248,0,0,0.68796
3.15154593999614,0,0,1.3072341064453123,0,0,0.91728
3.1547148500103503,0,0,1.1923124267578125,0,0,0.0
3.1578335930244066,0,0,1.1276689819335937,0,0,0.7644
3.1609505219967104,0,0,1.350329736328125,0,0,0.45864
3.164063302014256,0,0,1.3335703247070312,0,0,0.22932
3.167178416013485,0,0,1.3646949462890625,0,0,0.15288000000000002
3.1702932710177265,0,0,1.429338391113281,0,0,0.91728
3.1734099769964814,0,0,1.1133037719726562,0,0,0.91728
3.176570923998952,0,0,1.3168109130859373,0,0,0.6115200000000001
3.1796913710131776,0,0,1.3311761230468748,0,0,1.2994800000000002
3.1828069850162137,0,0,1.0941501586914062,0,0,0.7644
3.185922617005417,0,0,1.2904746948242187,0,0,0.6115200000000001
3.1890399530238938,0,0,1.5634136840820312,0,0,0.91728
3.1921542340132874,0,0,1.0797849487304687,0,0,0.91728
3.1952913840068504,0,0,1.158793603515625,0,0,0.3822
3.19840657201712,0,0,1.2641384765625,0,0,1.83456
3.2015234820137266,0,0,1.369483349609375,0,0,0.6115200000000001
3.2046677810139954,0,0,1.1611878051757811,0,0,1.45236
3.207785191014409,0,0,1.467645617675781,0,0,0.3822
3.2108992490102537,0,0,1.2425906616210938,0,0,0.7644
3.2140175480162725,0,0,1.3527239379882812,0,0,0.45864
3.2171566059987526,0,0,1.2521674682617188,0,0,0.99372
3.220269461016869,0,0,1.3048399047851562,0,0,0.53508
3.2233858900144696,0,0,1.0726023437499999,0,0,1.07016
3.2264995780133177,0,0,1.2737152832031249,0,0,0.53508
3.2296738760196604,0,0,1.35990654296875,0,0,0.45864
3.2327969900215976,0,0,1.3623007446289062,0,0,1.37592
3.2359135290025733,0,0,1.429338391113281,0,0,-9.01992
3.2390332170180045,0,0,1.419761584472656,0,0,1.2994800000000002
3.2421797749993857,0,0,1.1444283935546875,0,0,1.2994800000000002
3.24529725901084,0,0,1.149216796875,0,0,0.91728
3.248473002022365,0,0,1.5969325073242187,0,0,0.7644
3.2516523560043424,0,0,1.2761094848632812,0,0,0.84084
3.2547753770195413,0,0,1.2593500732421874,0,0,0.15288000000000002
3.2578917689970694,0,0,1.6639701538085936,0,0,0.84084
3.2610088830115274,0,0,1.235408056640625,0,0,0.68796
3.2641222560196184,0,0,1.3263877197265623,0,0,0.84084
3.26724246199592,0,0,1.2425906616210938,0,0,0.53508
3.2703587980067823,0,0,1.3479355346679687,0,0,0.45864
3.2734765420027543,0,0,1.3575123413085937,0,0,0.84084
3.2765919330122415,0,0,1.4724340209960938,0,0,0.45864
3.2797072140092496,0,0,1.2617442749023438,0,0,0.99372
3.282822456996655,0,0,1.2832920898437499,0,0,-0.7644
3.2859767740010284,0,0,1.2497732666015624,0,0,0.99372
3.2890947590058204,0,0,1.2210428466796874,0,0,0.22932
3.292207946011331,0,0,1.209071838378906,0,0,0.84084
3.295322523015784,0,0,1.5251064575195312,0,0,0.30576000000000003
3.2984380630077794,0,0,1.2832920898437499,0,0,0.91728
3.301554418023443,0,0,1.3000515014648437,0,0,0.22932
3.304669494013069,0,0,1.419761584472656,0,0,0.7644
3.307836367021082,0,0,1.4963760375976562,0,0,0.7644
3.3109719619969837,0,0,1.1109095703125,0,0,0.6115200000000001
3.3141192790062632,0,0,1.2785036865234374,0,0,0.22932
3.317238615010865,0,0,1.5562310791015623,0,0,0.68796
3.320354766008677,0,0,1.350329736328125,0,0,0.68796
3.3234714540012646,0,0,1.2282254516601563,0,0,-9.24924
3.3266082710179035,0,0,1.5514426757812498,0,0,1.07016
3.329761939996388,0,0,1.1468225952148436,0,0,0.7644
3.332878999004606,0,0,1.1540052001953125,0,0,1.5288
3.3359951860038564,0,0,1.2808978881835937,0,0,0.91728
3.33911124500446,0,0,1.2856862915039062,0,0,1.2230400000000001
3.3422625250241254,0,0,1.3623007446289062,0,0,0.0
3.3453813050000463,0,0,1.1707646118164061,0,0,0.68796
3.3485294000129215,0,0,1.2904746948242187,0,0,0.53508
3.3516493840143085,0,0,1.0965443603515623,0,0,0.07644000000000001
3.354782554000849,0,0,1.2832920898437499,0,0,0.91728
3.357898242014926,0,0,1.1061211669921875,0,0,0.84084
3.3610145960119553,0,0,1.24498486328125,0,0,1.75812
3.364195486996323,0,0,1.484405029296875,0,0,0.3822
3.367322267004056,0,0,1.4317325927734375,0,0,1.2230400000000001
3.370436270022765,0,0,1.2282254516601563,0,0,0.6115200000000001
3.3735539769986644,0,0,1.3958195678710936,0,0,0.91728
3.3766736640245654,0,0,1.5969325073242187,0,0,0.7644
3.379790186008904,0,0,1.2234370483398436,0,0,0.68796
3.382907132996479,0,0,1.2330138549804688,0,0,0.3822
3.3860217280162033,0,0,1.6831237670898436,0,0,0.99372
3.389136601006612,0,0,1.2713210815429687,0,0,2.36964
3.3922496779996436,0,0,1.35990654296875,0,0,1.1465999999999998
3.3953639960091095,0,0,1.5658078857421873,0,0,0.7644
3.402008514996851,0,0,1.1516109985351561,0,0,1.07016
3.405350996996276,0,0,1.5466542724609373,0,0,0.7644
3.408472017996246,0,0,1.1635820068359375,0,0,0.68796
3.4115917980088852,0,0,1.1252747802734375,0,0,1.2994800000000002
3.414706968003884,0,0,1.2976572998046874,0,0,0.84084
3.4178540630091447,0,0,1.2665326782226562,0,0,0.91728
3.4209864170115907,0,0,1.2378022583007813,0,0,-0.3822
3.4241039940097835,0,0,1.2593500732421874,0,0,1.07016
3.427217737014871,0,0,1.35990654296875,0,0,0.53508
3.430332276999252,0,0,1.3144167114257812,0,0,0.45864
3.433448761003092,0,0,1.13006318359375,0,0,0.3822
3.436565097013954,0,0,1.2713210815429687,0,0,0.53508
3.4396791930194013,0,0,1.2401964599609374,0,0,0.99372
3.4428320470033213,0,0,1.3168109130859373,0,0,0.7644
3.445946271996945,0,0,1.446097802734375,0,0,1.07016
3.449061645020265,0,0,1.1851298217773436,0,0,0.68796
3.4521735370217357,0,0,1.3551181396484375,0,0,0.53508
3.455287021002732,0,0,1.438915197753906,0,0,0.91728
3.4584002460178453,0,0,1.3263877197265623,0,0,0.68796
3.461514137015911,0,0,1.0319009155273438,0,0,0.15288000000000002
3.464663251012098,0,0,1.5921441040039062,0,0,0.91728
3.467782680003438,0,0,1.2473790649414063,0,0,0.7644
3.4709002930030692,0,0,1.3359645263671873,0,0,1.2994800000000002
3.4740113700099755,0,0,1.2689268798828124,0,0,0.6115200000000001
3.477153632004047,0,0,1.189918225097656,0,0,0.6115200000000001
3.480270857020514,0,0,1.177947216796875,0,0,0.6115200000000001
3.4833848779962864,0,0,1.1420341918945311,0,0,0.91728
3.4864991220238153,0,0,1.4317325927734375,0,0,0.68796
3.4896136239985935,0,0,1.22583125,0,0,1.07016
3.492727905017091,0,0,1.2689268798828124,0,0,0.68796
3.495841037016362,0,0,1.2617442749023438,0,0,0.3822
3.499009279999882,0,0,1.0773907470703123,0,0,1.5288
3.5022422629990615,0,0,1.2785036865234374,0,0,0.30576000000000003
3.5053682290017605,0,0,1.3000515014648437,0,0,0.99372
3.5084765829960816,0,0,1.1133037719726562,0,0,0.99372
3.511611215013545,0,0,1.465251416015625,0,0,0.6115200000000001
3.5147547730011865,0,0,1.5179238525390624,0,0,0.91728
3.517867535003461,0,0,1.209071838378906,0,0,0.91728
3.5209809270163532,0,0,1.3359645263671873,0,0,0.07644000000000001
3.5241049850010313,0,0,1.5131354492187499,0,0,0.3822
3.527242673008004,0,0,1.1468225952148436,0,0,0.45864
3.5303626940003596,0,0,1.2569558715820313,0,0,1.2994800000000002
3.533477512013633,0,0,1.4221557861328125,0,0,0.22932
3.536590496019926,0,0,1.5083470458984374,0,0,0.99372
3.539701943023829,0,0,1.1061211669921875,0,0,0.84084
3.5428512600192335,0,0,1.2928688964843749,0,0,0.84084
3.5459661330096424,0,0,1.350329736328125,0,0,0.91728
3.549081080011092,0,0,1.2497732666015624,0,0,-0.30576000000000003
3.5522211939969566,0,0,1.2689268798828124,0,0,0.84084
3.55533890001243,0,0,1.139639990234375,0,0,0.07644000000000001
3.5584505510050803,0,0,1.2282254516601563,0,0,0.68796
3.5615694980078842,0,0,1.3670891479492187,0,0,0.84084
3.5646839270193595,0,0,1.4341267944335936,0,0,0.91728
3.5677976890001446,0,0,1.2210428466796874,0,0,0.7644
3.570911025017267,0,0,1.2521674682617188,0,0,0.84084
3.574020972009748,0,0,1.4125789794921875,0,0,0.84084
3.577162233996205,0,0,1.139639990234375,0,0,0.7644
3.580314681021264,0,0,1.3742717529296875,0,0,0.22932
3.5834452580020297,0,0,1.5514426757812498,0,0,1.07016
3.5865666860190686,0,0,1.3215993164062498,0,0,0.68796
3.5896837260224856,0,0,1.2234370483398436,0,0,0.99372
3.592795988020953,0,0,1.2521674682617188,0,0,0.30576000000000003
3.595907694019843,0,0,1.3670891479492187,0,0,0.99372
3.599020327004837,0,0,1.2713210815429687,0,0,1.2230400000000001
3.602137144014705,0,0,1.2904746948242187,0,0,0.84084
3.605256962007843,0,0,1.3120225097656248,0,0,1.1465999999999998
3.608379853016231,0,0,1.3766659545898436,0,0,0.30576000000000003
3.6114888559968676,0,0,1.3623007446289062,0,0,0.68796
3.6146982470236253,0,0,1.3168109130859373,0,0,0.53508
3.6178152310021687,0,0,1.3766659545898436,0,0,1.911
3.620930622011656,0,0,1.2569558715820313,0,0,0.30576000000000003
3.6240429220197257,0,0,1.3048399047851562,0,0,0.68796
3.6271603500063065,0,0,1.2665326782226562,0,0,0.68796
3.6302755380165763,0,0,1.5035586425781249,0,0,0.6115200000000001
3.6333905960200354,0,0,1.37906015625,0,0,0.91728
3.6365548760222737,0,0,1.1611878051757811,0,0,0.99372
3.639672323013656,0,0,1.1372457885742187,0,0,0.6115200000000001
3.642824214999564,0,0,1.6017209106445311,0,0,0.68796
3.6459411990072113,0,0,1.149216796875,0,0,0.7644
3.649055979010882,0,0,1.197100830078125,0,0,0.7644
3.6521690560039133,0,0,1.5011644409179687,0,0,0.68796
3.655282707011793,0,0,1.2689268798828124,0,0,0.91728
3.6583944690064527,0,0,1.1180921752929687,0,0,1.1465999999999998
3.6615470640244894,0,0,1.3766659545898436,0,0,0.91728
3.6646629740134813,0,0,1.2904746948242187,0,0,0.68796
3.6677755700075068,0,0,1.3192051147460937,0,0,0.22932
3.670888869004557,0,0,1.2425906616210938,0,0,0.7644
3.6740000570134725,0,0,1.3670891479492187,0,0,0.53508
3.6771414109971374,0,0,1.0917559570312498,0,0,1.45236
3.6802572650194634,0,0,1.3838485595703125,0,0,0.6115200000000001
3.6833946570113767,0,0,1.2761094848632812,0,0,0.91728
3.68650599301327,0,0,1.1252747802734375,0,0,0.53508
3.6896618280152325,0,0,1.4796166259765624,0,0,1.1465999999999998
3.6927817200194113,0,0,1.5873557006835937,0,0,1.2994800000000002
3.6958976490132045,0,0,1.2473790649414063,0,0,0.68796
3.699014965997776,0,0,1.2928688964843749,0,0,0.53508
3.7021309130068403,0,0,1.438915197753906,0,0,0.91728
3.7052482680010144,0,0,1.1563994018554686,0,0,0.6115200000000001
3.7083637890173122,0,0,1.1563994018554686,0,0,0.68796
3.7115096990019083,0,0,1.2737152832031249,0,0,0.6115200000000001
3.7146297200233676,0,0,1.2569558715820313,0,0,0.68796
3.7177462039981037,0,0,1.1755530151367186,0,0,1.45236
3.7208657810115255,0,0,1.3958195678710936,0,0,0.7644
3.7239928019989748,0,0,1.2761094848632812,0,0,1.1465999999999998
3.7271115460025612,0,0,1.189918225097656,0,0,-0.22932
3.7302482520171907,0,0,1.3359645263671873,0,0,0.7644
3.7333740690082777,0,0,1.2593500732421874,0,0,0.7644
3.7364887760195415,0,0,1.3000515014648437,0,0,-0.15288000000000002
3.739644389017485,0,0,1.2593500732421874,0,0,0.68796
3.742821576015558,0,0,1.2832920898437499,0,0,0.53508
3.7459383200039156,0,0,1.254561669921875,0,0,1.2994800000000002
3.749081581016071,0,0,1.2952630981445312,0,0,0.68796
3.7523146379971877,0,0,1.43652099609375,0,0,1.1465999999999998
3.7554402149980888,0,0,1.1851298217773436,0,0,0.7644
3.7585556250123773,0,0,1.3479355346679687,0,0,0.45864
3.7616714060131926,0,0,1.5897499023437498,0,0,0.68796
3.764784334023716,0,0,1.0941501586914062,0,0,0.6115200000000001
3.7678966149978805,0,0,1.3048399047851562,0,0,-9.784320000000001
3.771013766003307,0,0,1.8052280517578123,0,0,0.68796
3.774124195013428,0,0,1.3407529296874998,0,0,0.91728
3.7772688080149237,0,0,1.1563994018554686,0,0,1.37592
3.7803884769964498,0,0,1.2282254516601563,0,0,0.68796
3.7835053500020877,0,0,1.2689268798828124,0,0,1.1465999999999998
3.7866211680229753,0,0,1.2425906616210938,0,0,0.3822
3.789740319014527,0,0,1.4053963745117186,0,0,0.6115200000000001
3.792856747022597,0,0,1.4173673828125,0,0,0.7644
3.795970324019436,0,0,1.3263877197265623,0,0,-0.30576000000000003
3.799088327010395,0,0,1.1563994018554686,0,0,0.45864
3.8022116259962786,0,0,1.2856862915039062,0,0,0.45864
3.805329499009531,0,0,1.3407529296874998,0,0,1.2994800000000002
3.808445094007766,0,0,1.235408056640625,0,0,0.53508
3.8116012820100877,0,0,1.6017209106445311,0,0,1.1465999999999998
3.814731525024399,0,0,1.2018892333984375,0,0,0.91728
3.8178486390097532,0,0,1.3718775512695311,0,0,0.6115200000000001
3.8209663270099554,0,0,1.3239935180664062,0,0,0.91728
3.8240811260184273,0,0,1.2138602416992186,0,0,0.91728
3.8272085360076744,0,0,1.1635820068359375,0,0,0.15288000000000002
3.8303287790040486,0,0,1.5658078857421873,0,0,0.7644
3.833438097004546,0,0,1.2569558715820313,0,0,0.53508
3.839860119012883,0,0,1.5562310791015623,0,0,0.53508
3.843025751004461,0,0,1.3287819213867187,0,0,0.6115200000000001
3.846140309004113,0,0,1.139639990234375,0,0,0.7644
3.849255589011591,0,0,1.2952630981445312,0,0,0.6115200000000001
3.852368074003607,0,0,1.3120225097656248,0,0,1.1465999999999998
3.855481353995856,0,0,1.2928688964843749,0,0,9.172799999999999
3.858594431017991,0,0,1.2832920898437499,0,0,1.2230400000000001
3.8617367670231033,0,0,1.3096283081054687,0,0,0.53508
3.8648518990084995,0,0,1.2952630981445312,0,0,1.5288
3.867962346004788,0,0,1.2928688964843749,0,0,0.84084
3.8710743490082677,0,0,1.2330138549804688,0,0,0.99372
3.8741855560219847,0,0,1.2665326782226562,0,0,1.2994800000000002
3.877322484011529,0,0,1.235408056640625,0,0,0.6115200000000001
3.880437542014988,0,0,1.5155296508789062,0,0,1.07016
3.8835515630198643,0,0,1.0797849487304687,0,0,0.68796
3.886689455015585,0,0,1.4221557861328125,0,0,0.0
3.889801328012254,0,0,1.5155296508789062,0,0,0.6115200000000001
3.8929156080121174,0,0,1.2425906616210938,0,0,0.6115200000000001
3.896025499998359,0,0,1.177947216796875,0,0,-8.63772
3.8991405770066194,0,0,1.369483349609375,0,0,0.6115200000000001
3.902254950022325,0,0,1.4915876342773438,0,0,0.84084
3.9053693230089266,0,0,1.3263877197265623,0,0,0.84084
3.908485899999505,0,0,1.149216796875,0,0,0.53508
3.911691828019684,0,0,1.3479355346679687,0,0,0.99372
3.9148087190114893,0,0,1.1420341918945311,0,0,9.172799999999999
3.917921592015773,0,0,1.2497732666015624,0,0,0.7644
3.921035280014621,0,0,1.2425906616210938,0,0,0.45864
3.924156930996105,0,0,1.2330138549804688,0,0,0.84084
3.927268138009822,0,0,1.2761094848632812,0,0,0.91728
3.9303808260010555,0,0,1.407790576171875,0,0,0.91728
3.9334951800119597,0,0,1.1324573852539062,0,0,1.5288
3.9366085530200507,0,0,1.43652099609375,0,0,0.99372
3.9397197230136953,0,0,1.426944189453125,0,0,0.99372
3.942833485023584,0,0,1.1037269653320312,0,0,0.84084
3.9459800430049654,0,0,1.2042834350585936,0,0,0.30576000000000003
3.949118378019193,0,0,1.5753846923828123,0,0,0.6115200000000001
3.9522293070040178,0,0,1.3479355346679687,0,0,1.83456
3.955342532019131,0,0,1.3335703247070312,0,0,0.68796
3.958455590007361,0,0,1.3623007446289062,0,0,0.68796
3.961568871018244,0,0,1.1707646118164061,0,0,0.7644
3.96468405899941,0,0,1.0917559570312498,0,0,1.07016
3.967796320997877,0,0,1.139639990234375,0,0,-0.15288000000000002
3.97091254600673,0,0,1.3168109130859373,0,0,0.99372
3.974022419017274,0,0,1.3455413330078123,0,0,-0.3822
3.9771629400202073,0,0,1.350329736328125,0,0,1.07016
3.980282831005752,0,0,1.2832920898437499,0,0,0.84084
3.983485222008312,0,0,1.197100830078125,0,0,0.3822
3.986614040011773,0,0,1.369483349609375,0,0,0.91728
3.9897368570091203,0,0,1.149216796875,0,0,0.99372
3.9928529520111624,0,0,1.2689268798828124,0,0,1.60524
3.9959682510234416,0,0,1.4053963745117186,0,0,0.99372
3.999085791001562,0,0,1.6831237670898436,0,0,1.07016
4.002294256002642,0,0,1.158793603515625,0,0,0.53508
4.005493332020706,0,0,1.4173673828125,0,0,1.07016
4.008606834016973,0,0,1.5059528442382812,0,0,0.45864
4.0117666510050185,0,0,1.1540052001953125,0,0,0.84084
4.014881062001223,0,0,1.369483349609375,0,0,0.22932
4.01799326800392,0,0,1.6472107421875,0,0,1.07016
4.02110951099894,0,0,1.3024457031249999,0,0,0.68796
4.02421986599802,0,0,1.158793603515625,0,0,0.84084
4.0273333320219535,0,0,1.350329736328125,0,0,0.53508
4.03044411202427,0,0,1.3359645263671873,0,0,0.91728
4.03355857799761,0,0,1.1947066284179686,0,0,0.0
4.0366719140147325,0,0,1.1133037719726562,0,0,0.84084
4.0397871950117406,0,0,1.3623007446289062,0,0,0.99372
4.042900697008008,0,0,1.3670891479492187,0,0,-9.555
4.0460514220176265,0,0,1.2952630981445312,0,0,0.91728
4.049177980021341,0,0,1.2401964599609374,0,0,0.6115200000000001
4.052292261010734,0,0,1.1037269653320312,0,0,1.45236
4.055405688995961,0,0,1.3000515014648437,0,0,0.3822
4.05851974801044,0,0,1.3431471313476562,0,0,1.2230400000000001
4.0616341390123125,0,0,1.3096283081054687,0,0,0.7644
4.064776270999573,0,0,1.2330138549804688,0,0,0.6115200000000001
4.067889348021708,0,0,1.4867992309570313,0,0,0.99372
4.071003092016326,0,0,1.0773907470703123,0,0,0.7644
4.074114057002589,0,0,1.2042834350585936,0,0,0.15288000000000002
4.077256634016521,0,0,1.465251416015625,0,0,-9.09636
4.080406414024765,0,0,1.209071838378906,0,0,0.68796
4.0835219910077285,0,0,1.1851298217773436,0,0,1.60524
4.086635419022059,0,0,1.4221557861328125,0,0,0.91728
4.089748922007857,0,0,1.2713210815429687,0,0,0.6115200000000001
4.09286349901231,0,0,1.0917559570312498,0,0,0.30576000000000003
4.095975372008979,0,0,1.1156979736328125,0,0,0.7644
4.099088727001799,0,0,1.1827356201171875,0,0,0.7644
4.102201433008304,0,0,1.1444283935546875,0,0,0.0
4.105316788016353,0,0,1.4796166259765624,0,0,0.84084
4.1084437720128335,0,0,1.1133037719726562,0,0,0.45864
4.111570330016548,0,0,1.3192051147460937,0,0,1.2994800000000002
4.114685925014783,0,0,1.1276689819335937,0,0,0.53508
4.117799280007603,0,0,1.3024457031249999,0,0,0.91728
4.120913560007466,0,0,1.1420341918945311,0,0,0.7644
4.124036415014416,0,0,1.2593500732421874,0,0,0.53508
4.1271714360045735,0,0,1.6352397338867186,0,0,0.68796
4.130294013011735,0,0,1.0989385620117187,0,0,0.53508
4.13340796000557,0,0,1.3766659545898436,0,0,0.30576000000000003
4.136556703015231,0,0,1.6328455322265625,0,0,1.07016
4.139675020996947,0,0,1.199495031738281,0,0,0.6115200000000001
4.142788819997804,0,0,1.2904746948242187,0,0,1.2230400000000001
4.145934433006914,0,0,1.2306196533203124,0,0,0.68796
4.149049843021203,0,0,1.2737152832031249,0,0,0.99372
4.152162216021679,0,0,1.2808978881835937,0,0,0.91728
4.155275552009698,0,0,1.4125789794921875,0,0,0.6115200000000001
4.15838900001836,0,0,1.3048399047851562,0,0,1.07016
4.161503558018012,0,0,1.2330138549804688,0,0,-20
4.164640800998313,0,0,1.2378022583007813,0,0,0.53508
4.16775471100118,0,0,1.1516109985351561,0,0,0.68796
4.170869807014242,0,0,1.0965443603515623,0,0,1.1465999999999998
4.173979217011947,0,0,1.3215993164062498,0,0,0.3822
4.177150886011077,0,0,1.5275006591796874,0,0,0.84084
4.180316814017715,0,0,1.3215993164062498,0,0,1.07016
4.183432724006707,0,0,1.484405029296875,0,0,0.99372
4.186546078009997,0,0,1.4867992309570313,0,0,0.91728
4.189661248004995,0,0,1.189918225097656,0,0,0.68796
4.192807045998052,0,0,1.2378022583007813,0,0,0.15288000000000002
4.1959198270051274,0,0,1.458068811035156,0,0,0.84084
4.199032274016645,0,0,1.2641384765625,0,0,0.53508
4.202144703012891,0,0,1.3455413330078123,0,0,0.99372
4.2052585020137485,0,0,1.6041151123046875,0,0,0.7644
4.208408856007736,0,0,1.2832920898437499,0,0,0.7644
4.211539673007792,0,0,1.1468225952148436,0,0,0.91728
4.214686454011826,0,0,1.2497732666015624,0,0,0.53508
4.217800605023513,0,0,1.2569558715820313,0,0,0.91728
4.220914015022572,0,0,1.3575123413085937,0,0,-0.53508
4.224026962008793,0,0,1.5179238525390624,0,0,0.6115200000000001
4.227143316005822,0,0,1.24498486328125,0,0,0.45864
4.23025700400467,0,0,1.218648645019531,0,0,0.91728
4.233371933019953,0,0,1.3359645263671873,0,0,0.68796
4.236483565007802,0,0,1.3718775512695311,0,0,0.99372
4.239623975008726,0,0,1.0773907470703123,0,0,1.2230400000000001
4.242736497020815,0,0,1.3766659545898436,0,0,1.2230400000000001
4.245849907019874,0,0,1.37906015625,0,0,0.99372
4.248995779023971,0,0,1.0941501586914062,0,0,0.68796
4.252174448018195,0,0,1.407790576171875,0,0,0.68796
4.255381635011872,0,0,1.656787548828125,0,0,0.84084
4.258501008007443,0,0,1.1037269653320312,0,0,0.6115200000000001
4.261616881005466,0,0,1.209071838378906,0,0,0.84084
4.264740125014214,0,0,1.5131354492187499,0,0,0.91728
4.267855016019894,0,0,1.438915197753906,0,0,0.6115200000000001
4.270968519005692,0,0,1.1707646118164061,0,0,1.45236
4.274080374016194,0,0,1.2928688964843749,0,0,0.3822
4.277222246018937,0,0,1.37906015625,0,0,1.2230400000000001
4.280339416000061,0,0,1.1013327636718748,0,0,0.0
4.283452789008152,0,0,1.350329736328125,0,0,0.99372
4.286567995004589,0,0,1.22583125,0,0,0.68796
4.28968301700661,0,0,1.3239935180664062,0,0,0.0
4.29279485301231,0,0,1.388636962890625,0,0,0.3822
4.295907263003755,0,0,1.3718775512695311,0,0,0.53508
4.299022284016246,0,0,1.1252747802734375,0,0,1.07016
4.302138528000796,0,0,1.3215993164062498,0,0,0.68796
4.305284900008701,0,0,1.2473790649414063,0,0,0.91728
4.308397365995916,0,0,1.3718775512695311,0,0,0.68796
4.311525961005827,0,0,1.3311761230468748,0,0,0.3822
4.314644742000382,0,0,1.675941162109375,0,0,0.84084
4.317757800017716,0,0,1.3120225097656248,0,0,0.68796
4.320872673008125,0,0,1.0845733520507812,0,0,0.22932
4.323997694009449,0,0,1.2425906616210938,0,0,0.84084
4.327112123020925,0,0,1.180341418457031,0,0,0.7644
4.330225311015965,0,0,1.3670891479492187,0,0,1.2994800000000002
4.333338814001763,0,0,1.3287819213867187,0,0,0.45864
4.336451556999236,0,0,1.3168109130859373,0,0,0.99372
4.339565652015153,0,0,1.0869675537109373,0,0,0.30576000000000003
4.342705692019081,0,0,1.3263877197265623,0,0,0.91728
4.345820435002679,0,0,1.235408056640625,0,0,0.7644
4.348972178006079,0,0,1.1827356201171875,0,0,0.07644000000000001
4.352084607002325,0,0,1.3192051147460937,0,0,0.45864
4.355200573016191,0,0,1.1109095703125,0,0,0.68796
4.358316352998372,0,0,1.3287819213867187,0,0,1.75812
4.361433726007817,0,0,1.2952630981445312,0,0,0.6115200000000001
4.364748523017624,0,0,1.3958195678710936,0,0,1.1465999999999998
4.367845989007037,0,0,1.1420341918945311,0,0,0.68796
4.370940214022994,0,0,1.180341418457031,0,0,0.6115200000000001
4.374032032006653,0,0,1.47482822265625,0,0,0.7644
4.377137053001206,0,0,1.139639990234375,0,0,0.7644
4.380243723018793,0,0,1.3527239379882812,0,0,0.0
4.383351226017112,0,0,1.5490484741210937,0,0,0.91728
4.386457284010248,0,0,1.3311761230468748,0,0,0.45864
4.38956547199632,0,0,1.1133037719726562,0,0,1.45236
4.392668679007329,0,0,1.2880804931640624,0,0,0.53508
4.3957729960093275,0,0,1.3024457031249999,0,0,0.99372
4.398900425003376,0,0,1.1468225952148436,0,0,0.22932
4.402195870003197,0,0,1.3479355346679687,0,0,0.53508
4.405398500995943,0,0,1.3670891479492187,0,0,0.68796
4.408558115013875,0,0,1.3455413330078123,0,0,-0.45864
4.411666858009994,0,0,1.2689268798828124,0,0,0.99372
4.414772860996891,0,0,1.4820108276367188,0,0,2.2167600000000003
4.417880938010057,0,0,1.3000515014648437,0,0,1.1465999999999998
4.420985293021658,0,0,1.2737152832031249,0,0,0.3822
4.424088480998762,0,0,1.2425906616210938,0,0,0.84084
4.427328593010316,0,0,1.1731588134765625,0,0,0.7644
4.430438317998778,0,0,1.3527239379882812,0,0,0.45864
4.433545951003907,0,0,1.4915876342773438,0,0,0.68796
4.436673342017457,0,0,1.2234370483398436,0,0,0.7644
4.4397781410079915,0,0,1.2713210815429687,0,0,0.53508
4.442883700015955,0,0,1.5203180541992187,0,0,0.91728
4.445988869003486,0,0,1.2042834350585936,0,0,0.68796
4.449132575013209,0,0,1.189918225097656,0,0,1.1465999999999998
4.452235745004145,0,0,1.6519991455078125,0,0,0.84084
4.455340877000708,0,0,1.4772224243164063,0,0,0.53508
4.4584597870125435,0,0,1.1563994018554686,0,0,0.3822
4.4615682720032055,0,0,1.2928688964843749,0,0,0.3822
4.464672533998964,0,0,1.3551181396484375,0,0,0.99372
4.467775833007181,0,0,1.3575123413085937,0,0,-0.30576000000000003
4.470882595021976,0,0,1.1659762084960936,0,0,1.1465999999999998
4.474021486006677,0,0,1.2880804931640624,0,0,0.6115200000000001
4.477126878016861,0,0,1.3383587280273437,0,0,1.1465999999999998
4.480230714019854,0,0,1.3551181396484375,0,0,0.68796
4.483335143013392,0,0,1.2617442749023438,0,0,1.1465999999999998
4.486443572008284,0,0,1.1348515869140625,0,0,1.1465999999999998
4.489551204023883,0,0,1.4053963745117186,0,0,0.68796
4.492655300011393,0,0,1.659181750488281,0,0,0.68796
4.49575854302384,0,0,1.2425906616210938,0,0,0.84084
4.4988612870220095,0,0,1.2401964599609374,0,0,1.07016
