Time,AccelX1,AccelY1,AccelZ1,AccelX2,AccelY2,AccelZ2
6.426009349524975e-06,0,0,1.5035586425781249,0,0,0.84084
0.0036584229965228587,0,0,1.3623007446289062,0,0,0.6115200000000001
0.007315864990232512,0,0,1.3144167114257812,0,0,1.07016
0.010982714011333883,0,0,1.4053963745117186,0,0,0.91728
0.014493194001261145,0,0,1.3048399047851562,0,0,0.45864
0.01804674800951034,0,0,1.2808978881835937,0,0,0.91728
0.021537283988436684,0,0,1.407790576171875,0,0,0.68796
0.025191761989844963,0,0,1.3527239379882812,0,0,0.7644
0.02876889001345262,0,0,1.2713210815429687,0,0,1.2230400000000001
0.03226666699629277,0,0,1.5275006591796874,0,0,0.91728
0.035832238994771615,0,0,1.2521674682617188,0,0,0.7644
0.039315570989856496,0,0,1.0773907470703123,0,0,0.84084
0.0428241629851982,0,0,1.5107412475585937,0,0,0.91728
0.04632756899809465,0,0,1.3359645263671873,0,0,0.84084
0.04983160499250516,0,0,1.1659762084960936,0,0,0.68796
0.05332249199273065,0,0,1.5035586425781249,0,0,0.7644
0.05682137998519465,0,0,1.5107412475585937,0,0,1.1465999999999998
0.06032941601006314,0,0,1.1731588134765625,0,0,0.6115200000000001
0.06383789598476142,0,0,1.4867992309570313,0,0,0.84084
0.0678443530050572,0,0,1.3718775512695311,0,0,0.7644
0.07144368399167433,0,0,1.1444283935546875,0,0,0.45864
0.0749782380007673,0,0,1.2497732666015624,0,0,0.6115200000000001
0.07848429199657403,0,0,1.4413093994140624,0,0,0.84084
0.08197419799398631,0,0,1.2952630981445312,0,0,0.68796
0.08547890098998323,0,0,1.2761094848632812,0,0,0.84084
0.08899247398949228,0,0,1.22583125,0,0,0.91728
0.09220812399871647,0,0,1.3383587280273437,0,0,0.68796
0.09499535299255513,0,0,1.1228805786132812,0,0,1.07016
0.09777382199536078,0,0,1.4891934326171874,0,0,1.07016
0.10062079099589027,0,0,1.2617442749023438,0,0,0.91728
0.10348876001080498,0,0,1.0845733520507812,0,0,0.6115200000000001
0.10626774799311534,0,0,1.3048399047851562,0,0,1.68168
0.10906123599852435,0,0,1.3551181396484375,0,0,0.53508
0.11184668701025657,0,0,1.197100830078125,0,0,0.6115200000000001
0.11461865701130591,0,0,1.2593500732421874,0,0,0.68796
0.11740703400573693,0,0,1.235408056640625,0,0,0.84084
0.12019744800636545,0,0,1.3359645263671873,0,0,0.7644
0.12298234400805086,0,0,1.2928688964843749,0,0,0.53508
0.12577116501051933,0,0,1.3383587280273437,0,0,0.45864
0.12899331501103006,0,0,1.5203180541992187,0,0,0.53508
0.13188022800022736,0,0,1.3239935180664062,0,0,0.84084
0.13467562300502323,0,0,1.369483349609375,0,0,0.68796
0.13746581500163302,0,0,1.2401964599609374,0,0,1.07016
0.14025054400553927,0,0,1.37906015625,0,0,0.53508
0.14302062499336898,0,0,1.5586252807617187,0,0,0.53508
0.14581353901303373,0,0,1.2330138549804688,0,0,0.84084
0.14860471201245673,0,0,1.2497732666015624,0,0,1.07016
0.15139053401071578,0,0,1.5155296508789062,0,0,0.84084
0.1541782999993302,0,0,1.4508862060546874,0,0,0.91728
0.15695682499790564,0,0,1.3742717529296875,0,0,0.68796
0.15983229299308732,0,0,1.3646949462890625,0,0,0.91728
0.16264587399200536,0,0,1.3742717529296875,0,0,1.07016
0.1654364730056841,0,0,1.3910311645507811,0,0,0.99372
0.16822157200658694,0,0,1.2689268798828124,0,0,0.68796
0.17138983399490826,0,0,1.2785036865234374,0,0,-9.631440000000001
0.17417034099344164,0,0,1.35990654296875,0,0,0.68796
0.17709238300449215,0,0,1.1348515869140625,0,0,0.7644
0.17996194399893284,0,0,1.1516109985351561,0,0,0.53508
0.18273554398911074,0,0,1.4724340209960938,0,0,0.68796
0.18563410500064492,0,0,1.4939818359375,0,0,2.06388
0.18886114298948087,0,0,1.3239935180664062,0,0,0.7644
0.19164098298642784,0,0,1.2306196533203124,0,0,0.6115200000000001
0.19441315700532869,0,0,1.5921441040039062,0,0,0.53508
0.1971914230089169,0,0,1.4437036010742186,0,0,0.84084
0.20098541901097633,0,0,1.3120225097656248,0,0,0.7644
0.20394047899753787,0,0,1.2497732666015624,0,0,0.3822
0.20674274500925094,0,0,1.2713210815429687,0,0,0.68796
0.20954462100053206,0,0,1.216254443359375,0,0,0.53508
0.21234792401082814,0,0,1.2665326782226562,0,0,0.53508
0.2151469310047105,0,0,1.4724340209960938,0,0,0.84084
0.2179468079993967,0,0,1.2378022583007813,0,0,0.53508
0.22074672099552117,0,0,1.1276689819335937,0,0,0.7644
0.22354567199363373,0,0,1.2425906616210938,0,0,0.84084
0.22634790098527446,0,0,1.2928688964843749,0,0,0.53508
0.22915103699779138,0,0,1.3766659545898436,0,0,0.84084
0.23195369201130234,0,0,1.1372457885742187,0,0,0.7644
0.2347513829881791,0,0,1.35990654296875,0,0,0.7644
0.23755464900750667,0,0,1.4508862060546874,0,0,0.6115200000000001
0.24035515601281077,0,0,1.4245499877929686,0,0,0.6115200000000001
0.2431511619943194,0,0,1.3359645263671873,0,0,2.4460800000000003
0.24594885398983024,0,0,1.235408056640625,0,0,1.1465999999999998
0.24875613799667917,0,0,1.5155296508789062,0,0,0.68796
0.25161990299238823,0,0,1.2521674682617188,0,0,0.6115200000000001
0.25442411299445666,0,0,1.1228805786132812,0,0,0.68796
0.25722293500439264,0,0,1.3311761230468748,0,0,0.84084
0.26002299701212905,0,0,1.4125789794921875,0,0,0.15288000000000002
0.2628185960056726,0,0,1.3311761230468748,0,0,1.2230400000000001
0.2656194909941405,0,0,1.1659762084960936,0,0,0.7644
0.268419145984808,0,0,1.2114660400390624,0,0,0.30576000000000003
0.2712163749965839,0,0,1.24498486328125,0,0,0.6115200000000001
0.2740143630071543,0,0,1.2042834350585936,0,0,0.53508
0.2768133129866328,0,0,1.2952630981445312,0,0,0.7644
0.27961220900760964,0,0,1.3646949462890625,0,0,0.84084
0.2823952159960754,0,0,1.2761094848632812,0,0,0.7644
0.2851964629953727,0,0,1.1156979736328125,0,0,0.84084
0.2879974879906513,0,0,1.0726023437499999,0,0,0.45864
0.29085930800647475,0,0,1.47482822265625,0,0,0.84084
0.2939754969847854,0,0,1.47482822265625,0,0,0.7644
0.29709362899302505,0,0,1.3072341064453123,0,0,0.53508
0.30021202098578215,0,0,1.3000515014648437,0,0,0.84084
0.3033255609916523,0,0,1.2761094848632812,0,0,0.84084
0.3064635090122465,0,0,1.2904746948242187,0,0,0.84084
0.30958115999237634,0,0,1.2737152832031249,0,0,-9.32568
0.31270236600539647,0,0,1.37906015625,0,0,0.68796
0.31584870201186277,0,0,1.4101847778320311,0,0,1.07016
0.31896503901225515,0,0,1.2713210815429687,0,0,0.68796
0.32209272700129077,0,0,1.3024457031249999,0,0,0.15288000000000002
0.32521632200223394,0,0,1.438915197753906,0,0,0.68796
0.32834525100770406,0,0,1.0845733520507812,0,0,0.84084
0.33146114301052876,0,0,1.3407529296874998,0,0,0.7644
0.33457712800009176,0,0,1.4987702392578124,0,0,0.6115200000000001
0.33769409399246797,0,0,1.4820108276367188,0,0,0.84084
0.34081489298841916,0,0,1.254561669921875,0,0,0.91728
0.34394004399655387,0,0,1.3263877197265623,0,0,0.84084
0.34724969300441444,0,0,1.3814543579101561,0,0,0.7644
0.3505429170036223,0,0,1.3407529296874998,0,0,0.6115200000000001
0.3537600109993946,0,0,1.47482822265625,0,0,1.07016
0.3568848099966999,0,0,1.4317325927734375,0,0,1.07016
0.3600049800006673,0,0,1.3335703247070312,0,0,0.91728
0.3631198529910762,0,0,1.1085153686523437,0,0,0.30576000000000003
0.3662357819848694,0,0,1.3479355346679687,0,0,0.84084
0.36935058201197535,0,0,1.467645617675781,0,0,0.7644
0.3724793249857612,0,0,1.2737152832031249,0,0,0.91728
0.3756324760033749,0,0,1.350329736328125,0,0,0.68796
0.3787574050074909,0,0,1.3742717529296875,0,0,0.7644
0.3818757040135097,0,0,1.2808978881835937,0,0,0.68796
0.38502409600187093,0,0,1.3287819213867187,0,0,0.6115200000000001
0.38817400598782115,0,0,1.4724340209960938,0,0,0.30576000000000003
0.39129147201310843,0,0,1.4532804077148436,0,0,0.6115200000000001
0.3944106420094613,0,0,1.35990654296875,0,0,0.7644
0.39752677400247194,0,0,1.3551181396484375,0,0,0.3822
0.40064303699182346,0,0,1.3575123413085937,0,0,0.84084
0.40375885399407707,0,0,1.1444283935546875,0,0,0.53508
0.40687370899831876,0,0,1.2425906616210938,0,0,0.68796
0.40999589799321257,0,0,1.4532804077148436,0,0,0.53508
0.41311003000009805,0,0,1.4963760375976562,0,0,0.53508
0.41622436698526144,0,0,1.3646949462890625,0,0,0.84084
0.41933531398535706,0,0,1.369483349609375,0,0,0.15288000000000002
0.422449873003643,0,0,1.2473790649414063,0,0,0.7644
0.42556628299644217,0,0,1.1468225952148436,0,0,0.7644
0.4286810090125073,0,0,1.2928688964843749,0,0,0.53508
0.4317962519999128,0,0,1.446097802734375,0,0,0.84084
0.43490982899675146,0,0,1.4149731811523436,0,0,0.68796
0.43805755401263013,0,0,1.3407529296874998,0,0,0.91728
0.4411738910130225,0,0,1.5035586425781249,0,0,0.53508
0.44430493100662716,0,0,1.13006318359375,0,0,0.99372
0.44741778599563986,0,0,1.24498486328125,0,0,0.91728
0.4505308069929015,0,0,1.2210428466796874,0,0,0.91728
0.4536511809856165,0,0,1.484405029296875,0,0,0.7644
0.4569934399914928,0,0,1.3910311645507811,0,0,0.68796
0.4602297570090741,0,0,1.0821791503906248,0,0,0.53508
0.4635410910123028,0,0,1.2808978881835937,0,0,0.84084
0.4667852970014792,0,0,1.4724340209960938,0,0,1.1465999999999998
0.4700223910040222,0,0,1.2856862915039062,0,0,0.7644
0.47332122499938123,0,0,1.3575123413085937,0,0,0.45864
0.4765694309899118,0,0,1.1923124267578125,0,0,0.45864
0.47992307899403386,0,0,1.1037269653320312,0,0,0.53508
0.4831231920106802,0,0,1.3120225097656248,0,0,0.91728
0.48635754600400105,0,0,1.3024457031249999,0,0,0.91728
0.48958860299899243,0,0,1.2521674682617188,0,0,0.84084
0.49249542300822213,0,0,1.1659762084960936,0,0,0.84084
0.495292707986664,0,0,1.2617442749023438,0,0,0.6115200000000001
0.49808967698481865,0,0,1.2330138549804688,0,0,0.7644
0.5008847209974192,0,0,1.0917559570312498,0,0,0.84084
0.5137229329848196,0,0,1.2880804931640624,0,0,0.68796
0.516638586006593,0,0,1.0797849487304687,0,0,0.53508
0.5194338519941084,0,0,1.369483349609375,0,0,-8.867040000000001
0.5222278579894919,0,0,1.149216796875,0,0,0.99372
0.5250128459883854,0,0,1.189918225097656,0,0,0.7644
0.527947333001066,0,0,1.1156979736328125,0,0,0.7644
0.5315150530077517,0,0,1.37906015625,0,0,0.6115200000000001
0.5343365219887346,0,0,1.4101847778320311,0,0,-8.943480000000001
0.5371277880039997,0,0,1.2306196533203124,0,0,0.99372
0.5399212579941377,0,0,1.3958195678710936,0,0,0.68796
0.542700652993517,0,0,1.429338391113281,0,0,0.6115200000000001
0.5454897529853042,0,0,1.2665326782226562,0,0,0.7644
0.5483007410075516,0,0,1.3551181396484375,0,0,0.91728
0.5511299129866529,0,0,1.465251416015625,0,0,0.91728
0.5539298460062128,0,0,1.618480322265625,0,0,0.91728
0.5567290750041138,0,0,1.1563994018554686,0,0,0.6115200000000001
0.5595272110076621,0,0,1.369483349609375,0,0,0.84084
0.5623120139935054,0,0,1.254561669921875,0,0,0.84084
0.5653334810049273,0,0,1.120486376953125,0,0,0.91728
0.5681309500068892,0,0,1.1875240234375,0,0,0.6115200000000001
0.5709238460112829,0,0,1.189918225097656,0,0,0.84084
0.5737505180004518,0,0,1.2497732666015624,0,0,0.84084
0.5765452469931915,0,0,1.0893617553710937,0,0,0.68796
0.5793635309964884,0,0,1.13006318359375,0,0,0.68796
0.5825700889981817,0,0,1.4245499877929686,0,0,0.7644
0.5856389999971725,0,0,1.4508862060546874,0,0,0.45864
0.588485727988882,0,0,1.3311761230468748,0,0,0.7644
0.5912849380110856,0,0,1.3144167114257812,0,0,1.1465999999999998
0.594083222997142,0,0,1.47482822265625,0,0,0.84084
0.5968730809981935,0,0,1.5083470458984374,0,0,0.68796
0.5996717539965175,0,0,1.2737152832031249,0,0,0.68796
0.6025438889919315,0,0,1.3359645263671873,0,0,0.68796
0.6054681719979271,0,0,1.2952630981445312,0,0,0.53508
0.6083083820121828,0,0,1.2569558715820313,0,0,0.84084
0.6111091480124742,0,0,1.2689268798828124,0,0,0.68796
0.6138941179960966,0,0,1.3431471313476562,0,0,0.6115200000000001
0.6167285130068194,0,0,1.2761094848632812,0,0,1.07016
0.6195119080075528,0,0,1.199495031738281,0,0,0.68796
0.6223195260099601,0,0,1.1468225952148436,0,0,0.91728
0.6251194580108859,0,0,1.2617442749023438,0,0,0.68796
0.6279266499914229,0,0,1.3215993164062498,0,0,0.7644
0.630721989000449,0,0,1.1133037719726562,0,0,0.7644
0.633539476984879,0,0,1.1540052001953125,0,0,0.6115200000000001
0.6363349099992774,0,0,1.3144167114257812,0,0,0.6115200000000001
0.6391616750042886,0,0,1.5131354492187499,0,0,0.68796
0.6420702550094575,0,0,1.3958195678710936,0,0,0.68796
0.6448728720133658,0,0,1.2473790649414063,0,0,0.7644
0.6477004890039098,0,0,1.4221557861328125,0,0,0.91728
0.6505003850033972,0,0,1.3958195678710936,0,0,0.84084
0.6532894840056542,0,0,1.3551181396484375,0,0,1.1465999999999998
0.6563329689961392,0,0,1.0797849487304687,0,0,1.45236
0.6591286979964934,0,0,1.3287819213867187,0,0,0.91728
0.6619283340114634,0,0,1.2689268798828124,0,0,1.1465999999999998
0.6647265260107815,0,0,1.254561669921875,0,0,-9.09636
0.6675335880136117,0,0,1.3527239379882812,0,0,0.15288000000000002
0.670318705990212,0,0,1.2737152832031249,0,0,0.68796
0.6731176199973561,0,0,1.1563994018554686,0,0,0.84084
0.6759180699882563,0,0,1.2330138549804688,0,0,0.53508
0.6787137069914024,0,0,1.3670891479492187,0,0,0.15288000000000002
0.6815462129889056,0,0,1.3742717529296875,0,0,0.53508
0.6843385710089933,0,0,1.2042834350585936,0,0,0.84084
0.6871173930121586,0,0,1.218648645019531,0,0,0.53508
0.6900084539956879,0,0,1.2641384765625,0,0,0.7644
0.6930055319971871,0,0,1.4437036010742186,0,0,0.84084
0.6961220169905573,0,0,1.2569558715820313,0,0,0.7644
0.6992339460121002,0,0,1.3383587280273437,0,0,0.99372
0.7023485969984904,0,0,1.350329736328125,0,0,0.84084
0.7054626930039376,0,0,1.3239935180664062,0,0,0.6115200000000001
0.7085777329921257,0,0,1.2713210815429687,0,0,0.6115200000000001
0.7117223090026528,0,0,1.2976572998046874,0,0,0.6115200000000001
0.7148356089892332,0,0,1.388636962890625,0,0,0.68796
0.7179487970133778,0,0,1.0989385620117187,0,0,0.53508
0.7210629300097935,0,0,1.3479355346679687,0,0,0.6115200000000001
0.7241782849887386,0,0,1.24498486328125,0,0,0.53508
0.727289936010493,0,0,1.1061211669921875,0,0,0.45864
0.7304026980127674,0,0,1.158793603515625,0,0,0.6115200000000001
0.7335322939907201,0,0,1.4221557861328125,0,0,0.53508
0.7366467409883626,0,0,1.3192051147460937,0,0,0.7644
0.7397647809993941,0,0,1.2569558715820313,0,0,0.7644
0.7428785990050528,0,0,1.2378022583007813,0,0,0.45864
0.7459932130004745,0,0,1.189918225097656,0,0,0.84084
0.7491074200079311,0,0,1.3287819213867187,0,0,0.91728
0.7522223310079426,0,0,1.2952630981445312,0,0,0.6115200000000001
0.7553339079895522,0,0,1.2689268798828124,0,0,0.53508
0.7584470399888232,0,0,1.4700398193359374,0,0,0.68796
0.761560618004296,0,0,1.2282254516601563,0,0,0.68796
0.7646756019967142,0,0,1.3048399047851562,0,0,0.22932
0.7685476150072645,0,0,1.3120225097656248,0,0,0.91728
0.7717652280116454,0,0,1.2880804931640624,0,0,0.53508
0.7748989349929616,0,0,1.3383587280273437,0,0,0.45864
0.7780326599895488,0,0,1.3144167114257812,0,0,0.84084
0.7811525150027592,0,0,1.1228805786132812,0,0,0.68796
0.784268740011612,0,0,1.177947216796875,0,0,0.68796
0.787381947011454,0,0,1.4820108276367188,0,0,0.45864
0.7904990800016094,0,0,1.2401964599609374,0,0,1.1465999999999998
0.7936156009964179,0,0,1.2593500732421874,0,0,0.68796
0.7967290119850077,0,0,1.2473790649414063,0,0,0.30576000000000003
0.799885885004187,0,0,1.2617442749023438,0,0,0.7644
0.8030029989895411,0,0,1.1516109985351561,0,0,0.6115200000000001
0.8061184829857666,0,0,1.369483349609375,0,0,0.3822
0.8092343749885913,0,0,1.4939818359375,0,0,0.6115200000000001
0.8123502490052488,0,0,1.4700398193359374,0,0,0.53508
0.8154622699948959,0,0,1.3670891479492187,0,0,0.91728
0.8185761620115954,0,0,1.3048399047851562,0,0,0.53508
0.8216898879909422,0,0,1.1156979736328125,0,0,0.68796
0.8248090760025661,0,0,1.2114660400390624,0,0,0.7644
0.8279249680053908,0,0,1.2617442749023438,0,0,0.6115200000000001
0.831036915013101,0,0,1.3910311645507811,0,0,0.68796
0.83414995498606,0,0,1.3934253662109375,0,0,0.99372
0.8372635880077723,0,0,1.3646949462890625,0,0,0.84084
0.8403793869947549,0,0,1.0749965454101562,0,0,0.53508
0.8434915019897744,0,0,1.3431471313476562,0,0,0.6115200000000001
0.846689558995422,0,0,1.2904746948242187,0,0,0.91728
0.8498154880071525,0,0,1.3527239379882812,0,0,0.91728
0.853045194002334,0,0,1.4628572143554686,0,0,0.91728
0.8562256770092063,0,0,1.4101847778320311,0,0,0.68796
0.8593445509904996,0,0,1.2569558715820313,0,0,0.7644
0.8624610909901094,0,0,1.3024457031249999,0,0,0.91728
0.8655669830041006,0,0,1.467645617675781,0,0,0.53508
0.8686814669927116,0,0,1.3623007446289062,0,0,0.30576000000000003
0.8718011000019033,0,0,1.2401964599609374,0,0,1.60524
0.874920103000477,0,0,1.2306196533203124,0,0,2.36964
0.8780356800125446,0,0,1.7932570434570312,0,0,1.83456
0.8811405540036503,0,0,2.0254946044921875,0,0,1.75812
0.8842535569856409,0,0,2.868253588867187,0,0,0.91728
0.8874097449879628,0,0,1.8363526733398436,0,0,0.68796
0.8905707100057043,0,0,1.5275006591796874,0,0,1.1465999999999998
0.8936883060086984,0,0,1.467645617675781,0,0,1.2994800000000002
0.8968152900051791,0,0,2.0733786376953125,0,0,1.5288
0.8999397190054879,0,0,1.908178723144531,0,0,1.1465999999999998
0.9030535919882823,0,0,1.6304513305664061,0,0,1.2230400000000001
0.9061720950121526,0,0,1.8411410766601561,0,0,0.99372
0.9093076169956475,0,0,1.85790048828125,0,0,0.84084
0.912428842013469,0,0,1.7717092285156248,0,0,1.37592
0.9155442889896221,0,0,1.9704279663085937,0,0,1.1465999999999998
0.9186636630038265,0,0,1.7022773803710936,0,0,0.84084
0.9217641289869789,0,0,1.8531120849609375,0,0,1.83456
0.9248807620024309,0,0,2.118868469238281,0,0,0.84084
0.9280195609899238,0,0,1.407790576171875,0,0,0.91728
0.9311892479890957,0,0,2.1906945190429687,0,0,1.37592
0.9343118440010585,0,0,1.2306196533203124,0,0,1.5288
0.9374190139933489,0,0,1.7166425903320313,0,0,2.2931999999999997
0.9405343869875651,0,0,1.946485949707031,0,0,1.98744
0.9436542050098069,0,0,2.070984436035156,0,0,0.91728
0.9467707079893444,0,0,1.8698714965820311,0,0,1.2994800000000002
0.9498907109955326,0,0,1.6304513305664061,0,0,1.1465999999999998
0.9530063619895373,0,0,1.3551181396484375,0,0,0.99372
0.9561240129987709,0,0,1.5083470458984374,0,0,1.911
0.9592365539865568,0,0,1.9991583862304687,0,0,1.911
0.9623530750104692,0,0,1.9584569580078124,0,0,0.07644000000000001
0.96549091101042,0,0,2.7365724975585937,0,0,1.2230400000000001
0.9686096549849026,0,0,1.6639701538085936,0,0,0.91728
0.9717445469868835,0,0,0.9648632690429687,0,0,1.75812
0.9748611419927329,0,0,2.4109610717773435,0,0,2.5989600000000004
0.9779749230074231,0,0,1.37906015625,0,0,0.68796
0.9810957589943428,0,0,2.0254946044921875,0,0,1.07016
0.9842103919945657,0,0,2.6096798095703124,0,0,0.53508
0.9873244139889721,0,0,0.622492431640625,0,0,0.3822
0.9904412690084428,0,0,2.4947581298828125,0,0,1.98744
0.9935970490041655,0,0,1.8507178833007811,0,0,0.7644
0.9967140149965417,0,0,2.365471240234375,0,0,0.3822
0.9998687579936814,0,0,1.7357962036132812,0,0,0.68796
1.0030978530121502,0,0,2.4205378784179685,0,0,0.84084
1.006326298986096,0,0,1.848323681640625,0,0,1.75812
1.0096309479849879,0,0,1.915361328125,0,0,1.07016
1.012831116997404,0,0,1.3192051147460937,0,0,2.2931999999999997
1.0160559520008974,0,0,1.39821376953125,0,0,1.07016
1.0192856949870475,0,0,1.0654197387695312,0,0,0.30576000000000003
1.0225588440080173,0,0,1.8411410766601561,0,0,2.6754
1.025774512992939,0,0,2.446874096679687,0,0,2.06388
1.0289659409900196,0,0,1.1540052001953125,0,0,-1.2994800000000002
1.0321673319849651,0,0,1.139639990234375,0,0,1.2230400000000001
1.0353354270046111,0,0,2.4516625,0,0,3.36336
1.0384730589867104,0,0,0.9696516723632812,0,0,-0.45864
1.0416061920113862,0,0,1.4437036010742186,0,0,0.7644
1.0447567320079543,0,0,3.6535517333984373,0,0,2.75184
1.0478850489889737,0,0,0.9935936889648437,0,0,-0.84084
1.0510126079898328,0,0,0.5578489868164063,0,0,1.5288
1.0541786839894485,0,0,3.404554760742187,0,0,2.36964
1.0573164650122635,0,0,0.8738836059570312,0,0,0.84084
1.06045594898751,0,0,1.6519991455078125,0,0,1.75812
1.0636264150089119,0,0,3.9600095458984375,0,0,2.90472
1.0667765839898493,0,0,-0.14125789794921875,0,0,-0.99372
1.069897828012472,0,0,1.7381904052734374,0,0,0.84084
1.0731212369864807,0,0,2.2385785522460937,0,0,0.7644
1.0763337390089873,0,0,-1.0342951171875,0,0,0.53508
1.0795518709928729,0,0,3.0142998901367184,0,0,1.98744
1.08289131600759,0,0,1.1252747802734375,0,0,0.30576000000000003
1.0861432249948848,0,0,1.3215993164062498,0,0,1.45236
1.0893629670026712,0,0,1.8914193115234375,0,0,-1.2994800000000002
1.0934845519950613,0,0,0.7948749511718749,0,0,1.07016
1.0959023959876504,0,0,2.645592834472656,0,0,1.75812
1.097395119984867,0,0,2.1164742675781247,0,0,1.07016
1.0994532270124182,0,0,-0.28730419921875,0,0,0.7644
1.1009440819907468,0,0,-0.718260498046875,0,0,-0.15288000000000002
1.1027173399925232,0,0,2.147598889160156,0,0,3.59268
1.1042004530027043,0,0,3.2130186279296873,0,0,1.911
1.105654159997357,0,0,2.463633508300781,0,0,1.5288
1.1070921999926213,0,0,1.139639990234375,0,0,1.07016
1.1085391280066688,0,0,-1.0606313354492187,0,0,-0.91728
1.1099716130120214,0,0,0.5506663818359374,0,0,0.0
1.1113542639941443,0,0,2.5258827514648434,0,0,0.30576000000000003
1.1127405079896562,0,0,2.463633508300781,0,0,1.2230400000000001
1.1141209749912377,0,0,1.9776105712890624,0,0,0.3822
1.115500774991233,0,0,0.10773907470703124,0,0,0.0
1.1168840370082762,0,0,-0.29448680419921874,0,0,0.99372
1.1182644109940156,0,0,2.118868469238281,0,0,1.60524
1.119648210995365,0,0,2.5905261962890624,0,0,1.68168
1.1210288619913626,0,0,2.3032219970703123,0,0,2.36964
1.122407883987762,0,0,1.2306196533203124,0,0,0.7644
1.1237881289853249,0,0,0.296881005859375,0,0,-0.45864
1.1251684649905656,0,0,0.13168109130859373,0,0,0.3822
1.1265477839915548,0,0,2.1116858642578125,0,0,1.2994800000000002
1.1279290090024006,0,0,2.214636535644531,0,0,1.37592
1.1293083280033898,0,0,1.22583125,0,0,1.1465999999999998
1.130686868011253,0,0,0.2705447875976562,0,0,0.22932
1.1320674270100426,0,0,-0.37828386230468747,0,0,-1.07016
1.133447800995782,0,0,1.1516109985351561,0,0,0.6115200000000001
1.1348269339941908,0,0,1.838746875,0,0,1.83456
1.1362108449975494,0,0,2.770091320800781,0,0,2.36964
1.1375901819847059,0,0,1.9632453613281249,0,0,1.911
1.1389690740033984,0,0,1.177947216796875,0,0,1.5288
1.1403505589987617,0,0,-0.45489831542968745,0,0,-0.91728
1.1417307289957535,0,0,1.0462661254882812,0,0,-0.07644000000000001
1.1431093249993864,0,0,2.214636535644531,0,0,1.5288
1.1444906810065731,0,0,3.0238766967773434,0,0,1.60524
1.145869739993941,0,0,2.1499930908203124,0,0,0.91728
1.1472605949966237,0,0,0.09816226806640624,0,0,0.7644
1.148642246000236,0,0,-1.0271125122070313,0,0,0.07644000000000001
1.1500228790100664,0,0,0.06943184814453125,0,0,-0.15288000000000002
1.151402309013065,0,0,1.7477672119140624,0,0,0.91728
1.1527833119907882,0,0,2.212242333984375,0,0,1.45236
1.1541626680118497,0,0,2.118868469238281,0,0,1.60524
1.1555452079919633,0,0,0.6009446166992187,0,0,0.91728
1.1569265259895474,0,0,0.29927520751953124,0,0,0.84084
1.1583053449867293,0,0,1.8555062866210936,0,0,1.45236
1.1596916810085531,0,0,2.068590234375,0,0,0.91728
1.1610773330030497,0,0,2.243366955566406,0,0,0.91728
1.1624563919904176,0,0,1.5251064575195312,0,0,0.3822
1.1638363210076932,0,0,0.7996633544921875,0,0,-0.7644
1.1652158059878275,0,0,1.369483349609375,0,0,0.68796
1.1665948650042992,0,0,1.6256629272460936,0,0,0.99372
1.1679764979926404,0,0,1.5394716674804687,0,0,0.91728
1.1693555199890397,0,0,1.0031704956054688,0,0,0.3822
1.170774986007018,0,0,0.4644751220703125,0,0,1.45236
1.172160507994704,0,0,0.07422025146484375,0,0,-0.68796
1.1735407710075378,0,0,1.22583125,0,0,1.2994800000000002
1.1749199230107479,0,0,2.0183119995117185,0,0,2.14032
1.1763257959973998,0,0,2.4516625,0,0,1.83456
1.1777703170082532,0,0,2.0973206542968748,0,0,1.75812
1.1791702469927259,0,0,0.7589619262695312,0,0,1.1465999999999998
1.1805621570092626,0,0,-0.1388636962890625,0,0,-0.15288000000000002
1.1819534010137431,0,0,1.5011644409179687,0,0,0.53508
1.183341238007415,0,0,2.118868469238281,0,0,1.2994800000000002
1.18473035300849,0,0,2.0446482177734375,0,0,1.07016
1.1861177450045943,0,0,1.446097802734375,0,0,0.53508
1.187505173991667,0,0,0.5363011718749999,0,0,-0.53508
1.1888951960136183,0,0,-0.0143652099609375,0,0,0.68796
1.1902831619954668,0,0,1.6639701538085936,0,0,0.7644
1.1916899619973265,0,0,1.5969325073242187,0,0,1.2994800000000002
1.1930783170100767,0,0,1.2856862915039062,0,0,0.6115200000000001
1.1944663019967265,0,0,0.6344634399414062,0,0,0.99372
1.195854268007679,0,0,0.35194764404296874,0,0,0.3822
1.1972411980095785,0,0,2.4516625,0,0,1.98744
1.1986285710008815,0,0,3.0550013183593747,0,0,2.2167600000000003
1.200016704009613,0,0,2.6144682128906247,0,0,1.68168
1.2014034670137335,0,0,0.7565677246093749,0,0,1.07016
1.202790951996576,0,0,0.181959326171875,0,0,1.2230400000000001
1.2041781219886616,0,0,0.24899697265624998,0,0,-0.68796
1.2055678289907519,0,0,1.917755529785156,0,0,0.91728
1.2069555920024868,0,0,2.3295582153320313,0,0,1.911
1.2083432429935783,0,0,2.070984436035156,0,0,1.07016
1.2097304319904651,0,0,1.0127473022460938,0,0,0.30576000000000003
1.211117805010872,0,0,0.02633621826171875,0,0,0.45864
1.2125046240107622,0,0,-0.26336218261718747,0,0,0.0
1.2138926640036516,0,0,1.5610194824218748,0,0,0.68796
1.215279666997958,0,0,3.0071172851562498,0,0,2.4460800000000003
1.2166669300058857,0,0,2.583343591308594,0,0,1.68168
1.2180540259869304,0,0,1.426944189453125,0,0,1.2230400000000001
1.219441288994858,0,0,-0.0143652099609375,0,0,-0.45864
1.2208299770136364,0,0,-0.5578489868164063,0,0,0.15288000000000002
1.2222181289980654,0,0,1.848323681640625,0,0,0.91728
1.2236061689909548,0,0,2.3487118286132813,0,0,1.5288
1.22499387600692,0,0,2.427720483398437,0,0,1.2994800000000002
1.2263823979883455,0,0,0.7589619262695312,0,0,1.2230400000000001
1.2277789009967819,0,0,0.0526724365234375,0,0,-0.91728
1.229166275006719,0,0,1.4006079711914061,0,0,1.07016
1.2305538709915709,0,0,2.2649147705078123,0,0,1.75812
1.231942134007113,0,0,2.750937707519531,0,0,1.5288
1.2333287479996216,0,0,1.2018892333984375,0,0,0.68796
1.2347161039942876,0,0,0.48123453369140623,0,0,0.91728
1.2361224030028097,0,0,0.13407529296874998,0,0,8.56128
1.2375092029978987,0,0,2.1715409057617188,0,0,1.1465999999999998
1.2388984469871502,0,0,2.655169641113281,0,0,2.06388
1.2402850800135639,0,0,2.1116858642578125,0,0,1.75812
1.2416719539905898,0,0,0.7661445312499999,0,0,0.53508
1.243058789987117,0,0,0.016759411621093748,0,0,-0.6115200000000001
1.2445478849986102,0,0,-0.1388636962890625,0,0,9.09636
1.2459516850067303,0,0,1.8124106567382812,0,0,0.99372
1.2473398919973988,0,0,3.3303345092773435,0,0,2.52252
1.2487287469848525,0,0,2.602497204589844,0,0,1.83456
1.250215879001189,0,0,0.1292868896484375,0,0,0.7644
1.251606753008673,0,0,-0.8092401611328125,0,0,-1.5288
1.2530050339992158,0,0,-0.7254431030273437,0,0,0.15288000000000002
1.2543947779922746,0,0,2.959233251953125,0,0,1.37592
1.2557836699998006,0,0,3.6080619018554687,0,0,2.2931999999999997
1.25717059901217,0,0,1.7693150268554687,0,0,2.4460800000000003
1.2585576949932147,0,0,0.603338818359375,0,0,1.75812
1.2599463280057535,0,0,-0.6871358764648438,0,0,-1.45236
1.2613347389851697,0,0,0.5746083984375,0,0,-0.15288000000000002
1.2627225019969046,0,0,2.2960393920898436,0,0,0.84084
1.264111024007434,0,0,3.294421484375,0,0,1.60524
1.265498546010349,0,0,2.231395947265625,0,0,1.98744
1.2668858079996426,0,0,1.0342951171875,0,0,0.99372
1.2682733300025575,0,0,-1.2018892333984375,0,0,-0.53508
1.269661925995024,0,0,0.5793968017578125,0,0,0.07644000000000001
1.271049152011983,0,0,2.9568390502929685,0,0,1.60524
1.272436766012106,0,0,2.8850130004882812,0,0,1.911
1.2738238990132231,0,0,2.04943662109375,0,0,1.2230400000000001
1.2752114209870342,0,0,-0.12449848632812499,0,0,0.07644000000000001
1.2765995360095985,0,0,-0.3232172241210937,0,0,0.30576000000000003
1.277987168985419,0,0,1.0414777221679687,0,0,0.53508
1.2793743390066084,0,0,2.817975354003906,0,0,1.98744
1.280762398004299,0,0,2.3127988037109373,0,0,1.60524
1.282149289996596,0,0,0.9864110839843749,0,0,0.6115200000000001
1.2835366259969305,0,0,-0.25139117431640623,0,0,-0.30576000000000003
1.2849199449992739,0,0,-0.5458779785156249,0,0,0.45864
1.2862994849856477,0,0,2.0278888061523435,0,0,1.2994800000000002
1.2877034329867456,0,0,3.1962592163085937,0,0,2.14032
1.2890916029864457,0,0,1.8124106567382812,0,0,1.68168
1.290479329007212,0,0,0.8595183959960937,0,0,1.5288
1.2918676100089215,0,0,-0.8188169677734375,0,0,-1.68168
1.29325557599077,0,0,0.23223756103515625,0,0,-0.3822
1.2946431720047258,0,0,1.7980454467773437,0,0,0.7644
1.2960317860124633,0,0,3.5122938354492184,0,0,1.45236
1.297418086003745,0,0,2.8754361938476563,0,0,1.75812
1.2988051449938212,0,0,1.8770541015625,0,0,2.06388
1.3001922779949382,0,0,-1.3455413330078123,0,0,-0.53508
1.3015805780014489,0,0,-0.44532150878906246,0,0,-0.3822
1.3029700809856877,0,0,1.0486603271484374,0,0,1.1465999999999998
1.3043526769906748,0,0,2.9951462768554684,0,0,1.1465999999999998
1.3057477730035316,0,0,2.4779987182617185,0,0,1.1465999999999998
1.3071274799876846,0,0,0.5339069702148437,0,0,0.84084
1.3085154280124698,0,0,-0.12689268798828124,0,0,0.0
1.3099100049876142,0,0,0.6560112548828124,0,0,0.22932
1.3112973049865104,0,0,2.0446482177734375,0,0,1.60524
1.3126845119986683,0,0,1.8698714965820311,0,0,1.37592
1.3140709970030002,0,0,1.0630255371093749,0,0,1.45236
1.3154577969980892,0,0,0.01915361328125,0,0,0.22932
1.3168440040026326,0,0,-0.181959326171875,0,0,0.68796
1.3182309700059704,0,0,2.1811177124023438,0,0,0.53508
1.3196331030048896,0,0,2.940079638671875,0,0,1.2994800000000002
1.3210195690044202,0,0,1.9680337646484374,0,0,1.83456
1.322405962011544,0,0,1.180341418457031,0,0,1.2994800000000002
1.323793001996819,0,0,-0.39743747558593745,0,0,-0.7644
1.32517941299011,0,0,0.2346317626953125,0,0,-0.22932
1.3265664899954572,0,0,1.5801730957031248,0,0,1.60524
1.3279561969975475,0,0,2.748543505859375,0,0,1.37592
1.3293414599902462,0,0,2.1906945190429687,0,0,1.75812
1.3307278149877675,0,0,1.6927005737304686,0,0,1.5288
1.3321142449858598,0,0,-0.5578489868164063,0,0,-0.45864
1.3335011739982292,0,0,0.2657563842773437,0,0,9.631440000000001
1.3348876030067913,0,0,1.4867992309570313,0,0,1.83456
1.3362739399890415,0,0,2.5641899780273434,0,0,1.2994800000000002
1.337661516998196,0,0,2.47081611328125,0,0,1.2994800000000002
1.339047835994279,0,0,0.6751648681640625,0,0,1.5288
1.3404334129882045,0,0,-0.5363011718749999,0,0,0.0
1.341821139008971,0,0,0.016759411621093748,0,0,-0.6115200000000001
1.3432078270125203,0,0,1.8291700683593748,0,0,0.99372
1.3445942199905403,0,0,2.446874096679687,0,0,1.2994800000000002
1.3459802040015347,0,0,2.070984436035156,0,0,1.37592
1.3473661339958198,0,0,0.7900865478515624,0,0,1.60524
1.3487527850084007,0,0,-0.28490999755859375,0,0,0.0
1.3501392329926603,0,0,0.8858546142578124,0,0,0.15288000000000002
1.3528263710031752,0,0,2.2194249389648437,0,0,1.5288
1.3542758919938933,0,0,1.9129671264648436,0,0,0.91728
1.355666505987756,0,0,0.7613561279296874,0,0,-0.45864
1.3570558610081207,0,0,0.8930372192382812,0,0,0.7644
1.358442772005219,0,0,1.9800047729492187,0,0,1.2230400000000001
1.3598312019894365,0,0,2.4349030883789062,0,0,1.07016
1.3612162790086586,0,0,1.1109095703125,0,0,1.07016
1.362601856002584,0,0,1.254561669921875,0,0,0.7644
1.3639900450070854,0,0,0.22026655273437498,0,0,-0.91728
1.3653763449983671,0,0,0.97683427734375,0,0,0.15288000000000002
1.3667624960071407,0,0,2.0925322509765625,0,0,2.14032
1.3681485920096748,0,0,2.29843359375,0,0,1.45236
1.3695348179899156,0,0,1.4173673828125,0,0,1.68168
1.3709203769976739,0,0,-0.17238251953125,0,0,1.1465999999999998
1.372316527995281,0,0,-0.5051765502929687,0,0,-0.99372
1.3737044389999937,0,0,0.7613561279296874,0,0,0.0
1.375090793997515,0,0,2.703053674316406,0,0,2.14032
1.3764781120116822,0,0,2.729389892578125,0,0,1.98744
1.3778641159879044,0,0,1.6927005737304686,0,0,2.14032
1.3792542119917925,0,0,0.7422025146484375,0,0,2.06388
1.380640271003358,0,0,0.2825157958984375,0,0,0.0
1.3820264959940687,0,0,1.5586252807617187,0,0,-0.22932
1.3834127779991832,0,0,2.212242333984375,0,0,0.68796
1.384800225001527,0,0,2.4875755249023435,0,0,0.68796
1.386188544012839,0,0,1.2785036865234374,0,0,0.91728
1.3875876209931448,0,0,0.4477157104492187,0,0,0.15288000000000002
1.3889767169894185,0,0,0.7852981445312499,0,0,0.53508
1.3903635909955483,0,0,1.6424223388671875,0,0,1.07016
1.391750852984842,0,0,1.8650830932617186,0,0,0.6115200000000001
1.3931364309974015,0,0,1.2306196533203124,0,0,1.07016
1.3945218420121819,0,0,1.0893617553710937,0,0,1.5288
1.3959118259954266,0,0,0.9169792358398436,0,0,0.15288000000000002
1.397297699993942,0,0,1.2665326782226562,0,0,1.60524
1.3986839069984853,0,0,1.8770541015625,0,0,1.37592
1.4000710590044037,0,0,1.7645266235351562,0,0,0.53508
1.4014578769856598,0,0,1.1827356201171875,0,0,0.22932
1.402844066004036,0,0,0.9457096557617187,0,0,0.91728
1.4042306620103773,0,0,0.2825157958984375,0,0,-0.91728
1.405653497989988,0,0,1.0989385620117187,0,0,0.99372
1.4070398159965407,0,0,2.39420166015625,0,0,2.36964
1.4084265230048914,0,0,2.104503259277344,0,0,1.75812
1.4098129899939522,0,0,1.1061211669921875,0,0,0.0
1.411198993009748,0,0,-0.24660277099609373,0,0,0.45864
1.4125869410054293,0,0,-0.05985504150390625,0,0,0.15288000000000002
1.413973480986897,0,0,2.7820623291015623,0,0,0.45864
1.4153597810072824,0,0,3.287238879394531,0,0,2.4460800000000003
1.4167466550134122,0,0,3.39018955078125,0,0,2.36964
1.4181326770049054,0,0,0.9337386474609375,0,0,1.1465999999999998
1.4195187909936067,0,0,-0.5243301635742187,0,0,-9.32568
1.4209067939955276,0,0,0.06464344482421874,0,0,0.0
1.4222928159870207,0,0,1.908178723144531,0,0,0.07644000000000001
1.4236938380054198,0,0,2.8227637573242186,0,0,1.2994800000000002
1.4250805079936981,0,0,2.0278888061523435,0,0,1.2994800000000002
1.4264664000074845,0,0,1.1156979736328125,0,0,1.5288
1.4278532740136143,0,0,-0.5817910034179687,0,0,-0.6115200000000001
1.4292418519908097,0,0,0.39983167724609375,0,0,0.84084
1.4306341699848417,0,0,1.7812860351562498,0,0,1.45236
1.4320211549929809,0,0,2.559401574707031,0,0,0.68796
1.4334069360047579,0,0,1.438915197753906,0,0,0.68796
1.4347928279894404,0,0,1.16837041015625,0,0,1.1465999999999998
1.4361854800081346,0,0,0.33518823242187495,0,0,0.0
1.4375775569933467,0,0,1.4125789794921875,0,0,1.2994800000000002
1.4389646709896624,0,0,2.7269956909179687,0,0,2.36964
1.4403518789913505,0,0,2.2649147705078123,0,0,1.37592
1.4417387710127514,0,0,1.177947216796875,0,0,0.15288000000000002
1.4431252559879795,0,0,-0.9097966308593749,0,0,0.15288000000000002
1.4445127040089574,0,0,-0.5674257934570313,0,0,8.63772
1.4459003740048502,0,0,2.9759926635742184,0,0,0.7644
1.447295635996852,0,0,3.21780703125,0,0,1.83456
1.4486831949907355,0,0,2.8203695556640622,0,0,1.911
1.4500697730109096,0,0,0.2920926025390625,0,0,0.7644
1.4514559610106517,0,0,-0.9361328491210937,0,0,-0.53508
1.4528420389979146,0,0,0.430956298828125,0,0,0.7644
1.4546775000053458,0,0,2.5617957763671875,0,0,1.75812
1.4562950750114396,0,0,3.5793314819335937,0,0,2.06388
1.4578223550051916,0,0,1.3670891479492187,0,0,1.45236
1.4592887090111617,0,0,-0.23702596435546874,0,0,0.7644
1.4607176189892925,0,0,-1.3048399047851562,0,0,-0.15288000000000002
1.4620967149967328,0,0,2.059013427734375,0,0,0.22932
1.4634722739865538,0,0,3.0406361083984375,0,0,1.45236
1.4648491670086514,0,0,2.214636535644531,0,0,1.911
1.4662237630109303,0,0,1.2761094848632812,0,0,0.7644
1.467604728997685,0,0,-0.09576806640624999,0,0,-0.6115200000000001
1.4689820659987163,0,0,-0.29448680419921874,0,0,0.6115200000000001
1.4703570700075943,0,0,1.4820108276367188,0,0,0.84084
1.4717386289848946,0,0,2.446874096679687,0,0,1.37592
1.4731223169947043,0,0,2.3127988037109373,0,0,2.2931999999999997
1.4745052279904485,0,0,1.7310078002929687,0,0,1.98744
1.475888971996028,0,0,-0.5219359619140624,0,0,-0.30576000000000003
1.4772727350064088,0,0,0.12210428466796874,0,0,0.45864
1.4786557570041623,0,0,1.5346832641601562,0,0,1.75812
1.4800397049984895,0,0,2.8754361938476563,0,0,1.07016
1.4814215789956506,0,0,2.2074539306640624,0,0,1.60524
1.4828044709865935,0,0,0.3950432739257812,0,0,1.75812
1.484187881986145,0,0,-0.7613561279296874,0,0,-0.7644
1.4855714220029768,0,0,-0.02154781494140625,0,0,0.3822
1.48695474100532,0,0,2.4492682983398435,0,0,1.37592
1.4883395769866183,0,0,3.1794998046874996,0,0,-8.4084
1.4897223580046557,0,0,2.5067291381835934,0,0,1.1465999999999998
1.4911046949855518,0,0,-0.03591302490234375,0,0,1.45236
1.49249049500213,0,0,-1.4413093994140624,0,0,-0.7644
1.4938735910109244,0,0,1.3718775512695311,0,0,0.0
1.495256297988817,0,0,2.528276953125,0,0,1.60524
1.4966392639908008,0,0,3.318363500976562,0,0,1.911
1.498022101004608,0,0,2.250549560546875,0,0,2.06388
1.4994042160105892,0,0,0.6703764648437499,0,0,2.36964
1.500786793010775,0,0,-1.20667763671875,0,0,-0.45864
1.502170407999074,0,0,1.429338391113281,0,0,-0.7644
1.5035617070097942,0,0,3.5003228271484375,0,0,1.5288
1.504960229009157,0,0,3.2154128295898436,0,0,2.36964
1.5063423439860344,0,0,1.9105729248046874,0,0,1.83456
1.5077246250002645,0,0,-0.12689268798828124,0,0,-0.84084
1.5091084250016138,0,0,-1.6998831787109374,0,0,-0.30576000000000003
1.5104918360011652,0,0,0.33518823242187495,0,0,0.15288000000000002
1.511875208991114,0,0,2.8562825805664063,0,0,0.3822
1.5132565280073322,0,0,2.9568390502929685,0,0,1.5288
1.5146451609907672,0,0,3.0262708984374997,0,0,2.75184
1.5160298859991599,0,0,-0.13407529296874998,0,0,0.84084
1.5174119639850687,0,0,-0.6919242797851562,0,0,0.68796
1.5188144109852146,0,0,1.8555062866210936,0,0,1.68168
1.520197506994009,0,0,2.834734765625,0,0,0.84084
1.521579844004009,0,0,2.5546131713867184,0,0,0.3822
1.5229622549959458,0,0,1.2401964599609374,0,0,1.45236
1.524344851000933,0,0,0.229843359375,0,0,-0.6115200000000001
1.5257279470097274,0,0,1.2904746948242187,0,0,-0.22932
1.527121338993311,0,0,1.9632453613281249,0,0,1.45236
1.5285114170110319,0,0,2.2026655273437497,0,0,1.45236
1.5298940500069875,0,0,1.2689268798828124,0,0,1.1465999999999998
1.5312766089919023,0,0,0.2561795776367187,0,0,0.3822
1.5326592049968895,0,0,-0.6679822631835937,0,0,-0.15288000000000002
1.5340434490062762,0,0,1.5801730957031248,0,0,0.53508
1.5354212120000739,0,0,2.645592834472656,0,0,2.14032
1.5368041970068589,0,0,2.6216508178710938,0,0,2.06388
1.5381866820098367,0,0,1.9943699829101562,0,0,1.83456
1.5395777219964657,0,0,0.7948749511718749,0,0,0.15288000000000002
1.5409630030044354,0,0,-0.8882488159179687,0,0,-0.22932
1.5423464699997567,0,0,0.948103857421875,0,0,0.68796
1.5437298800097778,0,0,3.1579519897460937,0,0,1.1465999999999998
1.545112216990674,0,0,2.384624853515625,0,0,2.14032
1.5464944239938632,0,0,2.1404162841796874,0,0,0.91728
1.5478780019911937,0,0,-0.6607996582031249,0,0,-0.45864
1.5492607459891587,0,0,-0.7709329345703124,0,0,0.45864
1.5506440830067731,0,0,0.6200982299804687,0,0,0.53508
1.5520382339891512,0,0,2.655169641113281,0,0,0.84084
1.553420404001372,0,0,2.4684219116210935,0,0,1.75812
1.5548025190073531,0,0,1.8770541015625,0,0,2.4460800000000003
1.5561855410051066,0,0,0.5267243652343749,0,0,0.07644000000000001
1.557568062999053,0,0,0.20829554443359374,0,0,0.3822
1.5589499550114851,0,0,1.0989385620117187,0,0,1.37592
1.560332680994179,0,0,1.7286135986328124,0,0,0.0
1.561715424992144,0,0,2.068590234375,0,0,0.07644000000000001
1.5630977989931125,0,0,1.5107412475585937,0,0,0.91728
1.5644804869953077,0,0,0.565031591796875,0,0,0.07644000000000001
1.5658623980125412,0,0,1.2401964599609374,0,0,0.30576000000000003
1.5672450310084969,0,0,1.6400281372070311,0,0,1.83456
1.5686265529948287,0,0,1.5801730957031248,0,0,1.37592
1.5700072599865962,0,0,0.852335791015625,0,0,0.84084
1.5714119669864886,0,0,0.9241618408203125,0,0,0.07644000000000001
1.5727892860013526,0,0,1.4053963745117186,0,0,0.3822
1.574164974008454,0,0,2.868253588867187,0,0,1.37592
1.5755383300129324,0,0,2.798821740722656,0,0,1.83456
1.5769267590076197,0,0,1.4963760375976562,0,0,2.52252
1.5783018920046743,0,0,0.8738836059570312,0,0,1.37592
1.579730875993846,0,0,-1.024718310546875,0,0,-1.911
1.5811089730123058,0,0,-0.0430956298828125,0,0,0.0
1.5824842540023383,0,0,2.231395947265625,0,0,0.22932
1.5838612939987797,0,0,2.8562825805664063,0,0,1.1465999999999998
1.585234149999451,0,0,1.6472107421875,0,0,1.83456
1.5866077640093863,0,0,0.06464344482421874,0,0,1.911
1.5879834899969865,0,0,-0.7517793212890624,0,0,-0.84084
1.5893585860030726,0,0,0.41898529052734373,0,0,1.2994800000000002
1.5907324049912859,0,0,2.501940734863281,0,0,1.5288
1.5921360930078663,0,0,2.85388837890625,0,0,1.1465999999999998
1.5935100039932877,0,0,1.6927005737304686,0,0,1.75812
1.5948843589867465,0,0,0.47884033203125,0,0,1.98744
1.5962691029999405,0,0,-0.3064578125,0,0,-0.30576000000000003
1.597643810993759,0,0,2.2290017456054687,0,0,0.0
1.5990172589954454,0,0,2.3343466186523436,0,0,1.75812
1.600400372990407,0,0,2.7246014892578123,0,0,0.84084
1.6017829689953942,0,0,0.9840168823242187,0,0,0.45864
1.6032148799858987,0,0,0.30406361083984373,0,0,1.37592
1.6046385490044486,0,0,0.30406361083984373,0,0,0.99372
1.6062919390096795,0,0,1.89620771484375,0,0,0.91728
1.6077313860005233,0,0,2.693476867675781,0,0,1.1465999999999998
1.6091648889996577,0,0,1.6256629272460936,0,0,1.45236
1.610553651000373,0,0,1.1875240234375,0,0,1.5288
1.6119355440023355,0,0,-0.19153613281249998,0,0,-1.2230400000000001
1.6133130470116157,0,0,0.6871358764648438,0,0,1.68168
1.6146882910106797,0,0,2.5426421630859375,0,0,1.45236
1.616069387004245,0,0,2.7054478759765623,0,0,0.99372
1.6174519089981914,0,0,1.6615759521484375,0,0,1.37592
1.6188347460119985,0,0,0.17238251953125,0,0,1.1465999999999998
1.6202172309858724,0,0,-1.0175357055664063,0,0,8.48484
1.6216009380004834,0,0,2.1212626708984375,0,0,0.07644000000000001
1.6229837560094893,0,0,2.7557261108398436,0,0,2.14032
1.624366370990174,0,0,3.208230224609375,0,0,1.37592
1.6257492449949495,0,0,1.149216796875,0,0,1.2994800000000002
1.6271314519981388,0,0,0.23223756103515625,0,0,0.45864
1.6285155109944753,0,0,-1.0223241088867188,0,0,0.07644000000000001
1.6298984219902195,0,0,2.080561242675781,0,0,0.0
1.6312807030044496,0,0,2.6575638427734374,0,0,1.83456
1.6326633360004053,0,0,2.195482922363281,0,0,1.45236
1.6340455620083958,0,0,1.6017209106445311,0,0,0.91728
1.6354451949882787,0,0,0.21787235107421873,0,0,-9.32568
1.6368298830057029,0,0,-0.2705447875976562,0,0,0.07644000000000001
1.638212794001447,0,0,1.8818425048828125,0,0,0.0
1.639603427000111,0,0,3.284844677734375,0,0,2.06388
1.6409856530081015,0,0,1.714248388671875,0,0,1.5288
1.6423679889994673,0,0,0.46208092041015625,0,0,0.99372
1.6437512149859685,0,0,-0.9097966308593749,0,0,-1.2994800000000002
1.6451336999889463,0,0,0.16280571289062498,0,0,0.7644
1.6465160739899147,0,0,3.1938650146484373,0,0,1.60524
1.6478990589966998,0,0,3.5817256835937497,0,0,1.75812
1.6492800250125583,0,0,2.2026655273437497,0,0,1.83456
1.6506619539868552,0,0,-0.031124621582031248,0,0,1.83456
1.65204499498941,0,0,-1.3000515014648437,0,0,-1.5288
1.6534345720137935,0,0,-0.5315127685546874,0,0,0.0
1.654817890987033,0,0,3.1699229980468746,0,0,1.911
1.6562015239906032,0,0,3.737348791503906,0,0,0.68796
1.6575838229910005,0,0,2.231395947265625,0,0,1.60524
1.6589661230100319,0,0,0.699106884765625,0,0,1.75812
1.6603489969857037,0,0,-1.2808978881835937,0,0,-0.7644
1.6617321860103402,0,0,1.1276689819335937,0,0,-1.45236
1.663116966985399,0,0,2.5617957763671875,0,0,2.14032
1.6645001180004328,0,0,2.645592834472656,0,0,1.83456
1.6658820660086349,0,0,2.1715409057617188,0,0,1.37592
1.6672642919875216,0,0,0.36391865234375,0,0,-8.48484
1.6686481469951104,0,0,-1.4030021728515625,0,0,0.3822
1.6700308170111384,0,0,0.469263525390625,0,0,-0.84084
1.6714131539920345,0,0,1.8602946899414061,0,0,1.2994800000000002
1.6727959720010404,0,0,2.9041666137695312,0,0,1.2994800000000002
1.6741782529861666,0,0,2.7653029174804686,0,0,1.75812
1.67556021999917,0,0,-0.29927520751953124,0,0,0.68796
1.676957315998152,0,0,-0.9504980590820312,0,0,0.45864
1.6783403379959054,0,0,0.9840168823242187,0,0,0.99372
1.6797240450105164,0,0,3.0454245117187497,0,0,1.1465999999999998
1.6811046589864418,0,0,2.379836450195312,0,0,1.83456
1.6824869590054732,0,0,0.8930372192382812,0,0,1.68168
1.6838797960081138,0,0,-0.41898529052734373,0,0,-1.2230400000000001
1.6852633729868103,0,0,-0.9576806640625,0,0,0.15288000000000002
1.6866471729881596,0,0,1.9584569580078124,0,0,1.2994800000000002
1.6880303430079948,0,0,3.009511486816406,0,0,0.99372
1.6894122720113955,0,0,2.85388837890625,0,0,1.5288
1.690795034985058,0,0,0.74699091796875,0,0,1.911
1.6921776309900451,0,0,-0.8786720092773437,0,0,-1.45236
1.6935700419999193,0,0,1.0007762939453124,0,0,-9.784320000000001
1.6949535080057103,0,0,2.5737667846679684,0,0,2.06388
1.6963361600064673,0,0,3.8857892944335934,0,0,1.37592
1.6977181450056378,0,0,2.4947581298828125,0,0,2.2167600000000003
1.6991005929885432,0,0,0.814028564453125,0,0,2.4460800000000003
1.7004831150115933,0,0,-2.252943762207031,0,0,-0.91728
1.7018665249925107,0,0,0.05985504150390625,0,0,-0.99372
1.7032490659912582,0,0,1.9297265380859374,0,0,1.2230400000000001
1.7046313839964569,0,0,3.2920272827148436,0,0,2.2167600000000003
1.706013646995416,0,0,2.703053674316406,0,0,1.5288
1.7073956129897851,0,0,-0.28730419921875,0,0,1.911
1.7087734869855922,0,0,-1.3934253662109375,0,0,0.07644000000000001
1.7101472500071395,0,0,0.047884033203124995,0,0,-1.07016
1.7115213089855388,0,0,3.19865341796875,0,0,1.37592
1.7129046829941217,0,0,3.038241906738281,0,0,2.4460800000000003
1.7142873530101497,0,0,2.674323254394531,0,0,2.06388
1.7156772819871549,0,0,0.33039982910156246,0,0,-0.6115200000000001
1.7170602669939399,0,0,-0.6153098266601562,0,0,0.0
1.7184430669876747,0,0,1.6256629272460936,0,0,-0.15288000000000002
1.7198273109970614,0,0,2.73896669921875,0,0,0.84084
1.7212092590052634,0,0,2.5258827514648434,0,0,1.83456
1.7225912070134655,0,0,1.2737152832031249,0,0,1.98744
1.723974469001405,0,0,-0.0718260498046875,0,0,-1.07016
1.7253569359891117,0,0,-1.0702081420898437,0,0,-9.47856
1.7267466979974415,0,0,1.7214309936523438,0,0,1.37592
1.7281298500020057,0,0,2.6096798095703124,0,0,0.22932
1.729512371995952,0,0,2.549824768066406,0,0,2.2931999999999997
1.7308945789991412,0,0,1.3670891479492187,0,0,2.2931999999999997
1.7322766940051224,0,0,-0.12210428466796874,0,0,-0.6115200000000001
1.7336601789866108,0,0,0.9121908325195311,0,0,-0.30576000000000003
1.7350425150070805,0,0,1.7908628417968748,0,0,1.98744
1.7364253340056166,0,0,2.3439234252929686,0,0,0.53508
1.7378076890017837,0,0,2.559401574707031,0,0,1.5288
1.7391897850029636,0,0,1.5251064575195312,0,0,1.75812
1.740572621987667,0,0,-0.7924807495117187,0,0,-0.3822
1.7419559030095115,0,0,0.00239420166015625,0,0,-1.1465999999999998
1.7433419250010047,0,0,2.7940333374023436,0,0,1.45236
1.7447244100039825,0,0,2.408566870117187,0,0,1.1465999999999998
1.746106561011402,0,0,2.4396914916992185,0,0,1.07016
1.747498471988365,0,0,-0.05746083984375,0,0,0.7644
1.7488825120090041,0,0,-0.9888052856445312,0,0,0.45864
1.7502652010007296,0,0,-0.14125789794921875,0,0,-0.6115200000000001
1.751659926987486,0,0,2.9448680419921875,0,0,1.45236
1.7530430970073212,0,0,3.0214824951171875,0,0,3.0576
1.754425822000485,0,0,2.142810485839844,0,0,2.4460800000000003
1.755808880989207,0,0,0.6823474731445313,0,0,1.2994800000000002
1.757190106989583,0,0,-0.6943184814453125,0,0,-9.784320000000001
1.7587184610019904,0,0,0.97683427734375,0,0,0.0
1.760150148998946,0,0,2.2553379638671873,0,0,0.07644000000000001
1.7615327259991318,0,0,2.8227637573242186,0,0,1.1465999999999998
1.7629168040002696,0,0,1.7669208251953124,0,0,2.36964
1.7642994550114963,0,0,-0.35673604736328124,0,0,9.32568
1.7656822919961996,0,0,0.47165772705078124,0,0,-0.22932
1.7670644989993889,0,0,1.218648645019531,0,0,1.5288
1.768447336013196,0,0,1.7214309936523438,0,0,0.30576000000000003
1.7698292839922942,0,0,2.1691467041015624,0,0,0.45864
1.7712229909957387,0,0,1.6448165405273436,0,0,1.83456
1.7728481770027429,0,0,0.20350714111328125,0,0,0.91728
1.7742223840032239,0,0,1.3000515014648437,0,0,0.6115200000000001
1.7756141840072814,0,0,2.645592834472656,0,0,1.45236
1.7769891869975254,0,0,1.7190367919921874,0,0,1.83456
1.7783622650022153,0,0,0.49799394531249996,0,0,1.1465999999999998
1.7797563610074576,0,0,-0.5578489868164063,0,0,-1.2230400000000001
1.7811342529894318,0,0,-0.6727706665039062,0,0,0.45864
1.7825097010063473,0,0,2.528276953125,0,0,0.22932
1.7838859820039943,0,0,3.318363500976562,0,0,0.53508
1.7852603379869834,0,0,2.0159177978515626,0,0,2.14032
1.7866334340069443,0,0,0.6105214233398437,0,0,1.911
1.7880096969893202,0,0,-0.5147533569335937,0,0,-0.6115200000000001
1.7893859040050302,0,0,0.7038952880859375,0,0,0.45864
1.7907604810025077,0,0,2.612074011230469,0,0,1.2230400000000001
1.792135169991525,0,0,3.2513258544921873,0,0,0.53508
1.7935084700002335,0,0,2.492363928222656,0,0,2.6754
1.7948816400021315,0,0,1.7621324218749999,0,0,2.4460800000000003
1.7962631619884633,0,0,-0.8116343627929687,0,0,-0.22932
1.7976522030076012,0,0,0.2537853759765625,0,0,-0.6115200000000001
1.7990345759899355,0,0,1.8315642700195311,0,0,0.84084
1.8004167460021563,0,0,2.24097275390625,0,0,0.30576000000000003
1.801800509012537,0,0,2.0973206542968748,0,0,0.45864
1.8031822530028876,0,0,1.4317325927734375,0,0,2.36964
1.804564293997828,0,0,-0.5147533569335937,0,0,9.172799999999999
1.8059470010048244,0,0,0.5889736083984375,0,0,0.0
1.8073291339969728,0,0,2.061407629394531,0,0,1.5288
1.8087115630041808,0,0,1.8507178833007811,0,0,1.45236
1.8101040670007933,0,0,1.7597382202148437,0,0,0.99372
1.8114868479897268,0,0,0.3902548706054687,0,0,0.0
1.8128693329927046,0,0,0.2346317626953125,0,0,0.6115200000000001
1.8142678359872662,0,0,2.8275521606445313,0,0,-9.707880000000001
1.8156532470020466,0,0,2.920926025390625,0,0,0.99372
1.817035787011264,0,0,1.7980454467773437,0,0,1.98744
1.8184183459961787,0,0,0.39743747558593745,0,0,1.2994800000000002
1.8198044789896812,0,0,-0.9361328491210937,0,0,-1.07016
1.8211879459850024,0,0,-0.928950244140625,0,0,0.15288000000000002
1.822570190008264,0,0,3.2058360229492187,0,0,0.84084
1.8239538230118342,0,0,3.921702319335937,0,0,0.45864
1.8253348080033902,0,0,1.5131354492187499,0,0,2.4460800000000003
1.826722884987248,0,0,0.5339069702148437,0,0,2.5989600000000004
1.8281086850038264,0,0,-1.1755530151367186,0,0,-1.37592
1.829492744000163,0,0,0.36152445068359373,0,0,0.0
1.8308748769923113,0,0,2.8371289672851563,0,0,1.98744
1.832258065987844,0,0,3.4668040039062498,0,0,0.45864
1.8336403100111056,0,0,2.602497204589844,0,0,2.4460800000000003
1.8350280910090078,0,0,1.1372457885742187,0,0,2.6754
1.8364125390071422,0,0,-1.8148048583984373,0,0,-1.2230400000000001
1.8377972460002638,0,0,0.15083470458984374,0,0,-0.91728
1.8391802120022476,0,0,2.4444798950195312,0,0,1.2994800000000002
1.8405576419900171,0,0,3.227383837890625,0,0,0.22932
1.8419307190051768,0,0,2.0733786376953125,0,0,0.45864
1.8433042039978318,0,0,-0.7972691528320313,0,0,1.37592
1.8446884120057803,0,0,-1.4317325927734375,0,0,-0.99372
1.8460732850071508,0,0,0.09576806640624999,0,0,-0.7644
1.847455788985826,0,0,3.4069489624023435,0,0,1.2994800000000002
1.8488379399932455,0,0,3.1507693847656246,0,0,2.4460800000000003
1.850220072985394,0,0,0.8475473876953125,0,0,1.37592
1.851603280985728,0,0,-0.6655880615234374,0,0,1.45236
1.8529853399959393,0,0,-1.4030021728515625,0,0,0.91728
1.854420713003492,0,0,2.461239306640625,0,0,9.32568
1.8559045860019978,0,0,4.089296435546875,0,0,0.53508
1.8572901070001535,0,0,2.592920397949219,0,0,2.2167600000000003
1.858701443998143,0,0,1.0319009155273438,0,0,2.2931999999999997
1.8600859839934856,0,0,-1.0773907470703123,0,0,-1.5288
1.8614698949968442,0,0,-0.4955997436523437,0,0,-1.07016
1.8628532869915944,0,0,2.1452046874999997,0,0,0.7644
1.8642355689953547,0,0,3.5721488769531247,0,0,0.3822
1.865617461007787,0,0,2.6192566162109374,0,0,1.75812
1.8669997050019447,0,0,0.967257470703125,0,0,2.36964
1.8683905600046273,0,0,-2.5713725830078125,0,0,-1.83456
1.8697748419945128,0,0,-1.4915876342773438,0,0,-1.911
1.8711581969982944,0,0,0.7733271362304687,0,0,1.07016
1.8725408480095211,0,0,3.327940307617187,0,0,0.7644
1.8739228330086917,0,0,2.863465185546875,0,0,0.91728
1.8753048919897992,0,0,-0.3758896606445312,0,0,1.45236
1.8766882659983821,0,0,-1.838746875,0,0,-0.6115200000000001
1.8780708620033693,0,0,-1.5035586425781249,0,0,-1.911
1.8794538659858517,0,0,2.2074539306640624,0,0,1.1465999999999998
1.8808389430050738,0,0,3.3255461059570313,0,0,0.3822
1.8822206130134873,0,0,1.714248388671875,0,0,0.84084
1.8836124500085134,0,0,-0.5913678100585937,0,0,2.2167600000000003
1.8849953789904248,0,0,-1.5370774658203123,0,0,7.18536
1.886377974995412,0,0,-0.13646949462890623,0,0,-0.53508
1.8877673299866728,0,0,1.2904746948242187,0,0,1.2994800000000002
1.8891492229886353,0,0,2.592920397949219,0,0,-0.22932
1.8905314849980641,0,0,2.133233679199219,0,0,3.51624
1.8919146000116598,0,0,1.455674609375,0,0,0.53508
1.893295752000995,0,0,-1.0079588989257813,0,0,1.1465999999999998
1.8946781250124332,0,0,-1.3838485595703125,0,0,0.0
1.896061481005745,0,0,1.3527239379882812,0,0,-1.45236
1.8974434100091457,0,0,3.9600095458984375,0,0,2.82828
1.8988254689902533,0,0,3.0909143432617188,0,0,-20
1.9002080470090732,0,0,0.59376201171875,0,0,1.60524
1.9015991239866707,0,0,-2.0829554443359375,0,0,0.0
1.902988182991976,0,0,-2.0470424194335934,0,0,5.88588
1.904372371995123,0,0,0.6943184814453125,0,0,0.0
1.905754559993511,0,0,2.360682836914062,0,0,20
1.9071372670005076,0,0,2.1308394775390624,0,0,3.59268
1.9085376040020492,0,0,0.4860229370117187,0,0,20
1.9099200700002257,0,0,0.39743747558593745,0,0,2.6754
1.911302202992374,0,0,-1.6831237670898436,0,0,-1.68168
1.9126858550007455,0,0,-0.04548983154296875,0,0,-1.60524
1.9140693400113378,0,0,0.33518823242187495,0,0,0.91728
1.9154510840016883,0,0,4.292803576660156,0,0,0.6115200000000001
1.9168330320098903,0,0,3.066972326660156,0,0,4.815720000000001
1.9182152950088494,0,0,0.2442085693359375,0,0,20
1.9195985939877573,0,0,-0.5770026000976562,0,0,2.6754
1.92098067200277,0,0,-1.1013327636718748,0,0,20
1.9223638600087725,0,0,-0.009576806640625,0,0,-0.7644
1.9237476229900494,0,0,1.0510545288085937,0,0,20
1.9251288299856242,0,0,3.057395520019531,0,0,2.06388
1.9266414059966337,0,0,1.9871873779296874,0,0,0.91728
1.9280291500035673,0,0,0.8906430175781249,0,0,2.75184
1.9294220430019777,0,0,-1.39821376953125,0,0,0.0
1.9308051939879078,0,0,-0.9816226806640624,0,0,0.22932
1.9321892530133482,0,0,1.0534487304687499,0,0,20
1.933571330999257,0,0,2.0661960327148434,0,0,-0.45864
1.9349534820066765,0,0,2.6695348510742187,0,0,0.68796
1.936336096987361,0,0,1.89620771484375,0,0,1.1465999999999998
1.9377179339935537,0,0,1.120486376953125,0,0,1.37592
1.939102622010978,0,0,-0.6679822631835937,0,0,-20
1.9404856809997,0,0,-0.8164227661132812,0,0,20
1.9418683880066965,0,0,-0.19632453613281248,0,0,-1.1465999999999998
1.943251076998422,0,0,1.47482822265625,0,0,-20
1.9446336360124405,0,0,1.426944189453125,0,0,0.22932
1.9460626019863412,0,0,1.0654197387695312,0,0,-20
1.947445902012987,0,0,0.11013327636718749,0,0,1.2230400000000001
1.94883327500429,0,0,0.031124621582031248,0,0,20
1.9502148529863916,0,0,1.3646949462890625,0,0,1.07016
1.9515980040014256,0,0,1.5514426757812498,0,0,0.91728
1.952979897003388,0,0,1.7860744384765623,0,0,0.84084
1.954361289012013,0,0,1.01514150390625,0,0,0.91728
1.9557440890057478,0,0,0.6751648681640625,0,0,-9.707880000000001
1.9571282590040937,0,0,0.4165910888671875,0,0,20
1.9585101139964536,0,0,0.9265560424804687,0,0,20
1.9598929139901884,0,0,1.0175357055664063,0,0,8.48484
1.9612742690078449,0,0,0.6248866333007812,0,0,0.45864
1.9626558469899464,0,0,0.7445967163085937,0,0,0.3822
1.9640385909879114,0,0,0.40462008056640625,0,0,0.15288000000000002
1.9654201680095866,0,0,-0.00718260498046875,0,0,0.7644
1.9668023569975048,0,0,0.5602431884765625,0,0,0.53508
1.968184711993672,0,0,0.7924807495117187,0,0,0.0
1.9695661969890352,0,0,1.4221557861328125,0,0,0.6115200000000001
1.97094812701107,0,0,2.221819140625,0,0,1.07016
1.9725606460124254,0,0,1.4987702392578124,0,0,1.1465999999999998
1.973941278993152,0,0,1.1731588134765625,0,0,0.7644
1.9753153199853841,0,0,0.023942016601562498,0,0,0.0
1.9766915639920626,0,0,-0.7015010864257812,0,0,8.4084
1.9780675859947223,0,0,1.426944189453125,0,0,20
1.9794412379851565,0,0,1.7262193969726563,0,0,1.45236
1.9808361110044643,0,0,1.5227122558593749,0,0,-20
1.9822108559892513,0,0,0.5123591552734374,0,0,1.2994800000000002
1.983614007011056,0,0,0.13168109130859373,0,0,20
1.984990213997662,0,0,-0.02154781494140625,0,0,0.0
1.98636497699772,0,0,0.699106884765625,0,0,-20
1.9877406840096228,0,0,2.1116858642578125,0,0,0.53508
1.9891257800045423,0,0,1.8291700683593748,0,0,1.07016
1.9904995060060173,0,0,0.9504980590820312,0,0,0.7644
1.9918738609994762,0,0,0.3950432739257812,0,0,0.22932
1.99325388300349,0,0,0.011971008300781249,0,0,20
1.9946271459921263,0,0,0.20829554443359374,0,0,-20
1.9960084829945117,0,0,0.9792284790039062,0,0,-1.2230400000000001
1.9973909860127605,0,0,1.6400281372070311,0,0,0.6115200000000001
1.9987731559958775,0,0,1.6160861206054686,0,0,0.45864
2.0001560490054544,0,0,0.3711012573242187,0,0,0.91728
2.001538126001833,0,0,-0.3591302490234375,0,0,0.15288000000000002
2.0029203699959908,0,0,-0.4165910888671875,0,0,20
2.004303688998334,0,0,1.1947066284179686,0,0,0.07644000000000001
2.005685618001735,0,0,1.6831237670898436,0,0,0.30576000000000003
2.0070677140029147,0,0,1.2378022583007813,0,0,0.45864
2.008450088003883,0,0,0.8714894042968749,0,0,0.15288000000000002
2.009831314004259,0,0,0.6368576416015624,0,0,0.68796
2.0112128730106633,0,0,0.689530078125,0,0,0.0
2.012595506006619,0,0,0.7781155395507812,0,0,0.68796
2.013977213006001,0,0,0.7781155395507812,0,0,0.0
2.015361161000328,0,0,0.7422025146484375,0,0,0.0
2.0167432379967067,0,0,0.70868369140625,0,0,0.3822
2.018125130009139,0,0,1.149216796875,0,0,20
2.0195068749890197,0,0,0.9576806640625,0,0,0.30576000000000003
2.0208878410048783,0,0,0.8834604125976562,0,0,0.15288000000000002
2.0222674740070943,0,0,-0.062249243164062495,0,0,0.0
2.023669663001783,0,0,-0.12689268798828124,0,0,0.07644000000000001
2.025055425008759,0,0,0.8930372192382812,0,0,0.0
2.026437836000696,0,0,1.455674609375,0,0,0.6115200000000001
2.027824561984744,0,0,1.3838485595703125,0,0,0.99372
2.029206342995167,0,0,1.0007762939453124,0,0,0.91728
2.030590476002544,0,0,0.565031591796875,0,0,0.53508
2.031974312994862,0,0,0.3327940307617187,0,0,-20
2.0333709089900367,0,0,0.5315127685546874,0,0,20
2.0347541160008404,0,0,1.1252747802734375,0,0,0.3822
2.036136988986982,0,0,1.3096283081054687,0,0,0.15288000000000002
2.0375199929985683,0,0,1.0797849487304687,0,0,0.6115200000000001
2.038902959000552,0,0,0.7206546997070312,0,0,0.68796
2.04028568501235,0,0,-0.05746083984375,0,0,20
2.0416690770071,0,0,-0.13646949462890623,0,0,20
2.043052191991592,0,0,1.0678139404296874,0,0,0.0
2.044434787996579,0,0,1.3120225097656248,0,0,0.6115200000000001
2.0458173099905252,0,0,1.3239935180664062,0,0,0.7644
2.047230424010195,0,0,0.6153098266601562,0,0,0.6115200000000001
2.0486139089916833,0,0,0.24181436767578124,0,0,0.53508
2.049996727000689,0,0,0.612915625,0,0,20
2.051379453012487,0,0,0.9840168823242187,0,0,0.3822
2.0527624750102405,0,0,1.1851298217773436,0,0,0.3822
2.0541449970041867,0,0,1.2785036865234374,0,0,0.0
2.055538204003824,0,0,1.2042834350585936,0,0,0.6115200000000001
2.0569221889891196,0,0,0.5722141967773438,0,0,0.68796
2.0583046360115986,0,0,0.35194764404296874,0,0,0.0
2.059687881002901,0,0,0.277727392578125,0,0,0.0
2.061070439987816,0,0,0.7589619262695312,0,0,20
2.0624476649973076,0,0,0.7565677246093749,0,0,0.0
2.0638285579916555,0,0,0.8355763793945312,0,0,0.0
2.06521135699586,0,0,1.2880804931640624,0,0,1.2994800000000002
2.066593934985576,0,0,1.1731588134765625,0,0,0.53508
2.0679774380114395,0,0,0.28969840087890625,0,0,0.68796
2.069359552988317,0,0,0.41419688720703124,0,0,0.22932
2.0707417970115785,0,0,0.9121908325195311,0,0,0.3822
2.072124578000512,0,0,1.7118541870117185,0,0,0.45864
2.0735075820120983,0,0,1.675941162109375,0,0,0.91728
2.0748897150042467,0,0,1.7310078002929687,0,0,1.37592
2.076279828994302,0,0,1.139639990234375,0,0,1.2994800000000002
2.077662961994065,0,0,0.8547299926757812,0,0,0.84084
2.0790447990002576,0,0,1.0534487304687499,0,0,0.53508
2.0804230800131336,0,0,1.37906015625,0,0,0.3822
2.0817970100033563,0,0,1.5538368774414062,0,0,1.1465999999999998
2.0831700320122764,0,0,1.7453730102539062,0,0,0.53508
2.084562331001507,0,0,1.3958195678710936,0,0,0.84084
2.0859438900079112,0,0,1.1156979736328125,0,0,0.68796
2.0873250979930162,0,0,0.9648632690429687,0,0,0.7644
2.0887079339881893,0,0,1.0845733520507812,0,0,0.68796
2.090089233999606,0,0,1.2713210815429687,0,0,0.45864
2.091469978011446,0,0,1.2401964599609374,0,0,0.53508
2.092851499997778,0,0,1.43652099609375,0,0,0.91728
2.0942326330114156,0,0,1.438915197753906,0,0,0.84084
2.095669803005876,0,0,1.2952630981445312,0,0,0.7644
2.097051435994217,0,0,1.2785036865234374,0,0,0.91728
2.098432236001827,0,0,1.1827356201171875,0,0,0.6115200000000001
2.099814832006814,0,0,1.1731588134765625,0,0,0.6115200000000001
2.1011953539855313,0,0,1.0414777221679687,0,0,0.6115200000000001
2.1025761910132132,0,0,1.20667763671875,0,0,0.3822
2.1039737490064,0,0,1.4724340209960938,0,0,0.53508
2.1054754549986683,0,0,1.4628572143554686,0,0,0.53508
2.1068738469912205,0,0,1.4772224243164063,0,0,0.7644
2.1082617579959333,0,0,1.1875240234375,0,0,0.84084
2.1096435580111574,0,0,1.199495031738281,0,0,0.84084
2.1110858010069933,0,0,1.1324573852539062,0,0,0.99372
2.112524414988002,0,0,1.180341418457031,0,0,0.99372
2.113959565991536,0,0,1.5155296508789062,0,0,1.2230400000000001
2.11540262500057,0,0,1.5418658691406248,0,0,1.07016
2.116840239003068,0,0,1.5203180541992187,0,0,1.07016
2.1182648339890875,0,0,1.5634136840820312,0,0,0.68796
2.1200857590010855,0,0,1.2210428466796874,0,0,0.7644
2.1215738540049642,0,0,1.0749965454101562,0,0,0.3822
2.123030374990776,0,0,1.2521674682617188,0,0,0.91728
2.1245244329911657,0,0,1.2976572998046874,0,0,0.99372
2.1259848049958237,0,0,1.3551181396484375,0,0,0.30576000000000003
2.1274388640013058,0,0,1.3527239379882812,0,0,1.07016
2.128924291988369,0,0,1.4149731811523436,0,0,0.84084
2.1307620680017862,0,0,1.2401964599609374,0,0,0.7644
2.132141515990952,0,0,1.0917559570312498,0,0,0.68796
2.1335154639964458,0,0,1.0295067138671874,0,0,0.7644
2.1348884489852935,0,0,1.120486376953125,0,0,0.6115200000000001
2.1362697670119815,0,0,1.350329736328125,0,0,0.30576000000000003
2.137643215013668,0,0,1.3814543579101561,0,0,0.6115200000000001
2.1390160339942668,0,0,1.5729904907226562,0,0,0.7644
2.140390740998555,0,0,1.3934253662109375,0,0,0.68796
2.141763577994425,0,0,1.3359645263671873,0,0,0.99372
2.143136506987503,0,0,1.13006318359375,0,0,0.68796
2.144521176989656,0,0,1.2210428466796874,0,0,0.7644
2.1458946990023833,0,0,1.2952630981445312,0,0,0.53508
2.147267591994023,0,0,1.448492004394531,0,0,0.6115200000000001
2.1486427430063486,0,0,1.4125789794921875,0,0,0.84084
2.1500160429859534,0,0,1.5538368774414062,0,0,0.84084
2.1513957499992102,0,0,1.448492004394531,0,0,0.6115200000000001
2.1527718100114726,0,0,1.3766659545898436,0,0,0.84084
2.1541455909900833,0,0,1.1420341918945311,0,0,0.68796
2.155518576008035,0,0,1.2306196533203124,0,0,0.84084
2.156895967986202,0,0,1.2832920898437499,0,0,0.68796
2.1582694349926896,0,0,1.4532804077148436,0,0,0.45864
2.1596568830136675,0,0,1.5179238525390624,0,0,0.84084
2.161040053004399,0,0,1.4532804077148436,0,0,0.84084
2.1624226119893137,0,0,1.2282254516601563,0,0,0.7644
2.163802336988738,0,0,1.2210428466796874,0,0,0.84084
2.1651917109848,0,0,1.0175357055664063,0,0,0.91728
2.16656521501136,0,0,0.9840168823242187,0,0,-9.32568
2.1679482919862494,0,0,1.2713210815429687,0,0,0.6115200000000001
2.1693295550066978,0,0,1.4053963745117186,0,0,0.22932
2.170711187995039,0,0,1.4820108276367188,0,0,0.7644
2.172118505986873,0,0,1.4245499877929686,0,0,1.1465999999999998
2.17351200900157,0,0,1.0773907470703123,0,0,0.99372
2.174885846005054,0,0,1.2234370483398436,0,0,0.84084
2.176261774991872,0,0,1.0941501586914062,0,0,0.91728
2.1776882039848715,0,0,1.209071838378906,0,0,0.6115200000000001
2.179206131986575,0,0,1.458068811035156,0,0,0.91728
2.180612302006921,0,0,1.4101847778320311,0,0,0.68796
2.1819889539910946,0,0,1.5011644409179687,0,0,0.7644
2.183362493989989,0,0,1.4149731811523436,0,0,0.84084
2.1847388310125098,0,0,1.3072341064453123,0,0,0.99372
2.1861298159928992,0,0,1.216254443359375,0,0,0.53508
2.1875230789883062,0,0,1.1851298217773436,0,0,0.7644
2.1889012120082043,0,0,1.2761094848632812,0,0,0.6115200000000001
2.1902744930121116,0,0,1.446097802734375,0,0,0.22932
2.1916581070108805,0,0,1.4772224243164063,0,0,0.53508
2.193032907001907,0,0,1.5490484741210937,0,0,1.1465999999999998
2.1944057999935467,0,0,1.4149731811523436,0,0,0.7644
2.195785469986731,0,0,1.2761094848632812,0,0,1.1465999999999998
2.1971675470122136,0,0,1.1923124267578125,0,0,0.30576000000000003
2.1985500319860876,0,0,1.0893617553710937,0,0,0.68796
2.1999321100011002,0,0,1.199495031738281,0,0,0.6115200000000001
2.2013143349904567,0,0,1.2569558715820313,0,0,0.3822
2.202695987012703,0,0,1.5131354492187499,0,0,0.6115200000000001
2.2040794159984216,0,0,1.5370774658203123,0,0,0.91728
2.205459716002224,0,0,1.2018892333984375,0,0,0.84084
2.2068413119995967,0,0,1.1875240234375,0,0,0.7644
2.208227038005134,0,0,1.1372457885742187,0,0,0.7644
2.2096254299976863,0,0,1.1133037719726562,0,0,0.3822
2.2110074890078977,0,0,1.3144167114257812,0,0,1.07016
2.2123897520068567,0,0,1.4413093994140624,0,0,0.7644
2.2137713480042294,0,0,1.43652099609375,0,0,0.91728
2.2151528139947914,0,0,1.4820108276367188,0,0,0.84084
2.216536558000371,0,0,1.3359645263671873,0,0,0.99372
2.2179184510023333,0,0,1.2737152832031249,0,0,0.84084
2.2193011209892575,0,0,1.0845733520507812,0,0,0.91728
2.2206830130016897,0,0,1.3527239379882812,0,0,0.45864
2.2220643679902423,0,0,1.3287819213867187,0,0,0.68796
2.2234462419874035,0,0,1.465251416015625,0,0,0.68796
2.2248283750086557,0,0,1.438915197753906,0,0,0.6115200000000001
2.2262097299972083,0,0,1.455674609375,0,0,0.68796
2.2275926230067853,0,0,1.2425906616210938,0,0,0.84084
2.2289735520025715,0,0,1.1228805786132812,0,0,0.68796
2.2303552590019535,0,0,0.9217676391601562,0,0,0.91728
2.2317449109978043,0,0,1.1468225952148436,0,0,0.3822
2.233127006998984,0,0,1.3814543579101561,0,0,0.22932
2.2345089919981547,0,0,1.4341267944335936,0,0,0.53508
2.2358917540113907,0,0,1.4867992309570313,0,0,0.7644
2.237264536001021,0,0,1.4987702392578124,0,0,0.7644
2.2386375759961084,0,0,1.0845733520507812,0,0,0.84084
2.2400173759961035,0,0,1.2018892333984375,0,0,0.7644
2.241398638987448,0,0,1.1037269653320312,0,0,0.91728
2.242779956985032,0,0,1.3144167114257812,0,0,0.84084
2.2441617570002563,0,0,1.4101847778320311,0,0,0.45864
2.245543594006449,0,0,1.43652099609375,0,0,0.7644
2.2469250969879795,0,0,1.5801730957031248,0,0,0.6115200000000001
2.248306433990365,0,0,1.4508862060546874,0,0,0.84084
2.2496883450075984,0,0,1.2425906616210938,0,0,0.99372
2.2510696630051825,0,0,1.139639990234375,0,0,0.91728
2.2524581660109106,0,0,1.0965443603515623,0,0,0.6115200000000001
2.253840113990009,0,0,1.3742717529296875,0,0,0.68796
2.2552220440120436,0,0,1.407790576171875,0,0,0.6115200000000001
2.2566042690014,0,0,1.4173673828125,0,0,1.07016
2.257985884003574,0,0,1.5466542724609373,0,0,0.91728
2.259367035003379,0,0,1.2928688964843749,0,0,0.91728
2.2607488720095716,0,0,1.209071838378906,0,0,0.84084
2.262130838993471,0,0,0.9983820922851562,0,0,0.91728
2.2635123420041054,0,0,1.0558429321289062,0,0,0.45864
2.2648941419902258,0,0,1.2521674682617188,0,0,0.68796
2.26627594200545,0,0,1.2378022583007813,0,0,0.7644
2.267658149008639,0,0,1.4508862060546874,0,0,0.7644
2.2690395780082326,0,0,1.446097802734375,0,0,0.68796
2.270421136985533,0,0,1.0821791503906248,0,0,0.99372
2.2718029549869243,0,0,1.1133037719726562,0,0,0.84084
2.2733779750124086,0,0,1.1444283935546875,0,0,0.7644
2.27480253399699,0,0,1.2210428466796874,0,0,0.68796
2.2761917040043045,0,0,1.2641384765625,0,0,0.84084
2.2775767630082555,0,0,1.388636962890625,0,0,0.84084
2.278960099007236,0,0,1.5777788940429687,0,0,0.84084
2.280343157995958,0,0,1.426944189453125,0,0,0.84084
2.281726068991702,0,0,1.199495031738281,0,0,0.99372
2.2831089989922475,0,0,1.1133037719726562,0,0,0.7644
2.284491853992222,0,0,1.177947216796875,0,0,0.84084
2.2858745050034486,0,0,1.2018892333984375,0,0,0.3822
2.287257435003994,0,0,1.3910311645507811,0,0,0.6115200000000001
2.28864136399352,0,0,1.3311761230468748,0,0,0.91728
2.290047977992799,0,0,1.5729904907226562,0,0,0.7644
2.2914441300090402,0,0,1.2737152832031249,0,0,0.84084
2.2928422070108354,0,0,1.2713210815429687,0,0,0.7644
2.2942288769991137,0,0,1.1827356201171875,0,0,0.68796
2.2956133440020494,0,0,1.1324573852539062,0,0,0.6115200000000001
2.297006828011945,0,0,1.3287819213867187,0,0,0.99372
2.2983897019876167,0,0,1.5011644409179687,0,0,0.30576000000000003
2.2997739650018048,0,0,1.419761584472656,0,0,0.84084
2.3011552460084204,0,0,1.4987702392578124,0,0,0.7644
2.3025376570003573,0,0,1.3742717529296875,0,0,0.91728
2.303921826998703,0,0,1.16837041015625,0,0,0.6115200000000001
2.305304812005488,0,0,1.158793603515625,0,0,0.68796
2.3066877230012324,0,0,1.177947216796875,0,0,0.45864
2.3080716890108306,0,0,1.3670891479492187,0,0,0.7644
2.3094537850120105,0,0,1.4030021728515625,0,0,0.6115200000000001
2.310836140997708,0,0,1.438915197753906,0,0,0.7644
2.312218514009146,0,0,1.4149731811523436,0,0,0.68796
2.3136010360030923,0,0,1.2617442749023438,0,0,1.1465999999999998
2.3149833169882186,0,0,1.216254443359375,0,0,0.84084
2.3163660620048176,0,0,1.1133037719726562,0,0,0.68796
2.317748194996966,0,0,1.1707646118164061,0,0,0.53508
2.3191306430089753,0,0,1.2689268798828124,0,0,0.30576000000000003
2.3205142939987127,0,0,1.5658078857421873,0,0,0.53508
2.3218968719884288,0,0,1.484405029296875,0,0,0.45864
2.3232790599868167,0,0,1.4532804077148436,0,0,0.6115200000000001
2.3246708039951045,0,0,1.2114660400390624,0,0,1.2230400000000001
2.3260549929982517,0,0,1.149216796875,0,0,0.84084
2.3274376259942073,0,0,1.20667763671875,0,0,0.68796
2.3288210179889575,0,0,1.1923124267578125,0,0,0.68796
2.330203391989926,0,0,1.3000515014648437,0,0,0.53508
2.3315868400095496,0,0,1.350329736328125,0,0,0.84084
2.3329686769866385,0,0,1.5203180541992187,0,0,0.7644
2.334351088007679,0,0,1.419761584472656,0,0,0.84084
2.335737721004989,0,0,1.2593500732421874,0,0,1.07016
2.3371195390063804,0,0,1.0965443603515623,0,0,1.07016
2.3385021529975347,0,0,1.1372457885742187,0,0,-8.943480000000001
2.339897822996136,0,0,1.2641384765625,0,0,0.84084
2.341280900989659,0,0,1.467645617675781,0,0,0.22932
2.342663477989845,0,0,1.4341267944335936,0,0,0.91728
2.3440478339907713,0,0,1.6543933471679686,0,0,0.91728
2.3454290959925856,0,0,1.2378022583007813,0,0,0.6115200000000001
2.3468182290089317,0,0,1.1228805786132812,0,0,0.91728
2.348211992008146,0,0,1.1109095703125,0,0,0.7644
2.349594883999089,0,0,1.1827356201171875,0,0,0.53508
2.350977332011098,0,0,1.3096283081054687,0,0,1.07016
2.352360613003839,0,0,1.4628572143554686,0,0,0.3822
2.3537430609867442,0,0,1.458068811035156,0,0,0.6115200000000001
2.3551669160078745,0,0,1.4724340209960938,0,0,0.7644
2.35659393799142,0,0,1.2569558715820313,0,0,0.99372
2.3579788299975917,0,0,1.3168109130859373,0,0,0.53508
2.3593613890116103,0,0,1.0869675537109373,0,0,0.7644
2.360745559009956,0,0,1.1420341918945311,0,0,0.22932
2.3621278959908523,0,0,1.2425906616210938,0,0,0.7644
2.3635100469982717,0,0,1.2952630981445312,0,0,0.53508
2.3648931620118674,0,0,1.455674609375,0,0,0.68796
2.366275387001224,0,0,1.5801730957031248,0,0,0.84084
2.367657260998385,0,0,1.235408056640625,0,0,0.91728
2.369030486996053,0,0,1.22583125,0,0,0.84084
2.3704035650007427,0,0,1.197100830078125,0,0,0.7644
2.371803420013748,0,0,1.2114660400390624,0,0,0.53508
2.3733178109978326,0,0,1.2593500732421874,0,0,0.22932
2.374691573000746,0,0,1.4006079711914061,0,0,0.53508
2.3760663919965737,0,0,1.4101847778320311,0,0,0.68796
2.377439931995468,0,0,1.4149731811523436,0,0,1.07016
2.3789134719991125,0,0,1.2234370483398436,0,0,0.91728
2.3803120859956834,0,0,1.1444283935546875,0,0,0.91728
2.381687849003356,0,0,1.177947216796875,0,0,0.6115200000000001
2.3830607410054654,0,0,1.2761094848632812,0,0,1.1465999999999998
2.3844974109961186,0,0,1.4173673828125,0,0,0.68796
2.3858781369926874,0,0,1.2952630981445312,0,0,0.84084
2.3872518250136636,0,0,1.6065093139648436,0,0,0.99372
2.388643513986608,0,0,1.189918225097656,0,0,0.91728
2.390017572994111,0,0,1.1827356201171875,0,0,0.7644
2.3913899839972146,0,0,1.1420341918945311,0,0,0.84084
2.3927635609870777,0,0,1.2473790649414063,0,0,0.45864
2.3941371759865433,0,0,1.2952630981445312,0,0,0.91728
2.395509680005489,0,0,1.4053963745117186,0,0,0.7644
2.3968941269849893,0,0,1.4317325927734375,0,0,2.2931999999999997
2.398276685999008,0,0,1.6472107421875,0,0,0.68796
2.3996594120108057,0,0,1.235408056640625,0,0,0.84084
2.401042192999739,0,0,1.1013327636718748,0,0,0.84084
2.4025250659906305,0,0,1.1276689819335937,0,0,0.91728
2.403909457992995,0,0,1.1635820068359375,0,0,0.3822
2.405291314003989,0,0,1.3455413330078123,0,0,0.84084
2.4066840389859863,0,0,1.3479355346679687,0,0,0.45864
2.4080687279929407,0,0,1.350329736328125,0,0,0.68796
2.409443768003257,0,0,1.2665326782226562,0,0,0.84084
2.4108175130095333,0,0,1.2330138549804688,0,0,0.91728
2.412199757003691,0,0,1.0893617553710937,0,0,0.91728
2.413582407985814,0,0,1.0965443603515623,0,0,0.68796
2.414964855997823,0,0,1.16837041015625,0,0,0.30576000000000003
2.416347841004608,0,0,1.3311761230468748,0,0,0.22932
2.41772978901281,0,0,1.3862427612304686,0,0,0.68796
2.419112273986684,0,0,1.62805712890625,0,0,0.6115200000000001
2.420496055012336,0,0,1.1635820068359375,0,0,0.7644
2.4218782070092857,0,0,1.2521674682617188,0,0,1.07016
2.423260673007462,0,0,1.1420341918945311,0,0,0.3822
2.4246433429943863,0,0,1.1372457885742187,0,0,0.6115200000000001
2.426025661989115,0,0,1.3646949462890625,0,0,0.68796
2.427428257011343,0,0,1.4125789794921875,0,0,0.22932
2.4288130200002342,0,0,1.3718775512695311,0,0,0.84084
2.430196208995767,0,0,1.6400281372070311,0,0,1.07016
2.4315796380105894,0,0,1.2018892333984375,0,0,0.84084
2.432963530009147,0,0,1.180341418457031,0,0,0.91728
2.434346274007112,0,0,1.1516109985351561,0,0,0.91728
2.4357299449911807,0,0,1.0989385620117187,0,0,0.7644
2.4371114110108465,0,0,1.3215993164062498,0,0,0.68796
2.4384938959847204,0,0,1.5538368774414062,0,0,0.6115200000000001
2.4398777880123816,0,0,1.4149731811523436,0,0,0.84084
2.4412591430009343,0,0,1.668758557128906,0,0,0.84084
2.442641628003912,0,0,1.24498486328125,0,0,0.68796
2.444024983997224,0,0,1.2593500732421874,0,0,0.7644
2.4454062650038395,0,0,1.0582371337890624,0,0,0.84084
2.4467888610088266,0,0,1.1324573852539062,0,0,0.6115200000000001
2.448171289986931,0,0,1.13006318359375,0,0,0.45864
2.449553348997142,0,0,1.5322890624999999,0,0,0.6115200000000001
2.4509359450021293,0,0,1.5035586425781249,0,0,0.84084
2.452318577998085,0,0,1.5658078857421873,0,0,-9.01992
2.4537020080024377,0,0,1.180341418457031,0,0,0.99372
2.45508476998657,0,0,1.1923124267578125,0,0,0.84084
2.4565866609918885,0,0,1.0678139404296874,0,0,0.53508
2.4580723120016046,0,0,1.209071838378906,0,0,0.53508
2.4595087039924692,0,0,1.5083470458984374,0,0,0.68796
2.4609204290027265,0,0,1.3910311645507811,0,0,0.68796
2.462304654996842,0,0,1.4820108276367188,0,0,0.91728
2.4636859360034578,0,0,1.3144167114257812,0,0,0.84084
2.4650766240083613,0,0,1.3311761230468748,0,0,1.1465999999999998
2.4664507569978014,0,0,1.1348515869140625,0,0,0.68796
2.46783307599253,0,0,1.158793603515625,0,0,0.7644
2.469215819990495,0,0,1.0941501586914062,0,0,0.68796
2.4705988230125513,0,0,1.467645617675781,0,0,0.84084
2.4719890489941463,0,0,1.3024457031249999,0,0,0.99372
2.4733717190101743,0,0,1.4221557861328125,0,0,0.99372
2.474754425988067,0,0,1.1947066284179686,0,0,0.91728
2.4761380039853975,0,0,1.1420341918945311,0,0,0.84084
2.4775206919875927,0,0,1.149216796875,0,0,0.53508
2.4789030110114254,0,0,1.1180921752929687,0,0,0.91728
2.4802866439858917,0,0,1.3311761230468748,0,0,0.7644
2.481668554013595,0,0,1.5275006591796874,0,0,0.7644
2.483050817012554,0,0,1.24498486328125,0,0,0.99372
2.484434098005295,0,0,1.3766659545898436,0,0,0.84084
2.4858165830082726,0,0,1.2401964599609374,0,0,0.84084
2.4871986790094525,0,0,1.0797849487304687,0,0,0.84084
2.488610553002218,0,0,1.1516109985351561,0,0,0.91728
2.4899947230005637,0,0,1.1540052001953125,0,0,0.45864
2.49137743000756,0,0,1.3862427612304686,0,0,0.15288000000000002
2.492762637004489,0,0,1.3431471313476562,0,0,0.6115200000000001
2.49418725099531,0,0,1.4053963745117186,0,0,0.91728
2.4956040320103057,0,0,1.37906015625,0,0,0.91728
2.496988628001418,0,0,1.24498486328125,0,0,1.07016
2.498370891000377,0,0,1.1348515869140625,0,0,0.99372
2.499749949987745,0,0,1.0726023437499999,0,0,0.68796
2.501123119989643,0,0,1.1180921752929687,0,0,0.7644
2.502496289991541,0,0,1.458068811035156,0,0,0.30576000000000003
2.5038765530043747,0,0,1.4149731811523436,0,0,0.84084
2.5052591119892895,0,0,1.4939818359375,0,0,0.53508
2.506642207998084,0,0,1.2761094848632812,0,0,0.7644
2.508024618990021,0,0,1.3239935180664062,0,0,1.1465999999999998
2.5094068809994496,0,0,1.0414777221679687,0,0,0.99372
2.510792940011015,0,0,1.1659762084960936,0,0,0.68796
2.5121765549993142,0,0,1.189918225097656,0,0,0.84084
2.513558854989242,0,0,1.4532804077148436,0,0,0.45864
2.5149556169926655,0,0,1.4700398193359374,0,0,0.84084
2.516334157990059,0,0,1.407790576171875,0,0,0.7644
2.517707494989736,0,0,1.2234370483398436,0,0,0.99372
2.519080850004684,0,0,1.2210428466796874,0,0,0.7644
2.5204620200092904,0,0,1.1061211669921875,0,0,0.68796
2.5218441899924073,0,0,1.1563994018554686,0,0,0.45864
2.523242544993991,0,0,1.1659762084960936,0,0,0.91728
2.524625271005789,0,0,1.4149731811523436,0,0,0.91728
2.5260067190101836,0,0,1.4628572143554686,0,0,0.68796
2.5273883889894933,0,0,1.455674609375,0,0,0.68796
2.5287705220107455,0,0,1.235408056640625,0,0,0.99372
2.5301517290063202,0,0,1.1755530151367186,0,0,0.84084
2.531533325003693,0,0,1.1276689819335937,0,0,0.99372
2.5329150879988447,0,0,0.93852705078125,0,0,0.3822
2.534296758007258,0,0,1.43652099609375,0,0,0.6115200000000001
2.535688428004505,0,0,1.5394716674804687,0,0,0.91728
2.5370698570040986,0,0,1.2880804931640624,0,0,0.6115200000000001
2.5384511390002444,0,0,1.3934253662109375,0,0,0.91728
2.5398330859898124,0,0,1.0749965454101562,0,0,1.07016
2.541214905009838,0,0,1.2306196533203124,0,0,-9.172799999999999
2.542597760009812,0,0,1.197100830078125,0,0,0.7644
2.543978948990116,0,0,1.1109095703125,0,0,0.7644
2.5453603969945107,0,0,1.4508862060546874,0,0,0.53508
2.5467415479943156,0,0,1.37906015625,0,0,0.6115200000000001
2.548123126005521,0,0,1.5275006591796874,0,0,0.68796
2.549504666007124,0,0,1.2952630981445312,0,0,0.99372
2.5508854840009008,0,0,1.3766659545898436,0,0,0.99372
2.552267043007305,0,0,1.1372457885742187,0,0,2.2167600000000003
2.5536487140052486,0,0,1.2713210815429687,0,0,0.91728
2.5550301059847698,0,0,1.3335703247070312,0,0,0.45864
2.556411923986161,0,0,1.467645617675781,0,0,0.3822
2.5577958899957594,0,0,1.3096283081054687,0,0,0.7644
2.5591849309857935,0,0,1.4030021728515625,0,0,1.07016
2.5605667119962163,0,0,1.2425906616210938,0,0,0.7644
2.56194814099581,0,0,1.158793603515625,0,0,0.99372
2.5633292559941765,0,0,0.9840168823242187,0,0,0.84084
2.564711184997577,0,0,1.139639990234375,0,0,0.6115200000000001
2.5660947999858763,0,0,1.1252747802734375,0,0,0.84084
2.567476007010555,0,0,1.5155296508789062,0,0,0.45864
2.5688583249866497,0,0,1.3934253662109375,0,0,1.07016
2.5702397729910444,0,0,1.465251416015625,0,0,0.99372
2.5716364620020613,0,0,1.158793603515625,0,0,0.99372
2.5730167609872296,0,0,1.2378022583007813,0,0,0.68796
2.5744323570106644,0,0,1.120486376953125,0,0,0.7644
2.5758096750068944,0,0,1.1947066284179686,0,0,0.45864
2.577182882989291,0,0,1.0989385620117187,0,0,1.07016
2.5785563119861763,0,0,1.4030021728515625,0,0,0.84084
2.5799508710042574,0,0,1.3623007446289062,0,0,0.7644
2.581333837006241,0,0,1.2832920898437499,0,0,0.84084
2.5827090080128983,0,0,1.1563994018554686,0,0,0.91728
2.5840853260015137,0,0,1.1037269653320312,0,0,0.7644
2.5854618480079807,0,0,1.120486376953125,0,0,1.07016
2.5868344260088634,0,0,1.1540052001953125,0,0,0.3822
2.5882112809922546,0,0,1.5729904907226562,0,0,0.68796
2.589584561996162,0,0,1.5490484741210937,0,0,0.68796
2.590958454995416,0,0,1.5251064575195312,0,0,0.7644
2.592334883986041,0,0,1.2210428466796874,0,0,0.91728
2.5937076839909423,0,0,1.2401964599609374,0,0,0.91728
2.5950805020111147,0,0,1.0726023437499999,0,0,0.53508
2.5964612829848193,0,0,1.2018892333984375,0,0,0.7644
2.5978433240088634,0,0,1.3479355346679687,0,0,0.6115200000000001
2.5992245500092395,0,0,1.4604630126953124,0,0,0.6115200000000001
2.600606368010631,0,0,1.3910311645507811,0,0,0.84084
2.6019956119998824,0,0,1.4987702392578124,0,0,0.84084
2.6033773380040657,0,0,1.2904746948242187,0,0,0.84084
2.6047705259989016,0,0,1.3766659545898436,0,0,0.7644
2.606290102005005,0,0,1.0630255371093749,0,0,0.68796
2.6077038460061885,0,0,1.1061211669921875,0,0,0.7644
2.609086460986873,0,0,1.3144167114257812,0,0,0.91728
2.610468481987482,0,0,1.43652099609375,0,0,0.45864
2.611850023007719,0,0,1.4820108276367188,0,0,0.84084
2.6132302490004804,0,0,1.3479355346679687,0,0,1.07016
2.61465030699037,0,0,1.2210428466796874,0,0,1.1465999999999998
2.6160440699895844,0,0,1.3024457031249999,0,0,0.7644
2.617424944008235,0,0,1.149216796875,0,0,0.68796
2.618916501000058,0,0,1.1061211669921875,0,0,0.30576000000000003
2.6202994489867706,0,0,1.3766659545898436,0,0,0.6115200000000001
2.6216819529945496,0,0,1.438915197753906,0,0,0.84084
2.6230641230067704,0,0,1.426944189453125,0,0,1.07016
2.624446422996698,0,0,1.388636962890625,0,0,0.45864
2.6258281669870485,0,0,1.2880804931640624,0,0,0.53508
2.627210078004282,0,0,1.149216796875,0,0,0.7644
2.6285918400099035,0,0,1.1180921752929687,0,0,0.6115200000000001
2.629973398987204,0,0,1.3311761230468748,0,0,0.53508
2.6313552180072293,0,0,1.407790576171875,0,0,0.53508
2.6327372399973683,0,0,1.235408056640625,0,0,0.53508
2.634118668996962,0,0,1.4341267944335936,0,0,0.68796
2.635500245989533,0,0,1.3383587280273437,0,0,0.91728
2.636883602011949,0,0,1.16837041015625,0,0,1.07016
2.6382648829894606,0,0,1.1827356201171875,0,0,0.6115200000000001
2.639667348994408,0,0,1.2018892333984375,0,0,0.53508
2.6410499080084264,0,0,1.1372457885742187,0,0,0.84084
2.6424319299985655,0,0,1.43652099609375,0,0,0.07644000000000001
2.6438147670123726,0,0,1.5107412475585937,0,0,1.07016
2.6451951219933107,0,0,1.4796166259765624,0,0,0.84084
2.646593032986857,0,0,1.2856862915039062,0,0,0.84084
2.647979388013482,0,0,1.3168109130859373,0,0,1.07016
2.6493597799853887,0,0,1.0414777221679687,0,0,0.84084
2.6507615800073836,0,0,1.1731588134765625,0,0,0.45864
2.652146509004524,0,0,1.35990654296875,0,0,1.1465999999999998
2.6535337720124517,0,0,1.4700398193359374,0,0,0.68796
2.6549151089857332,0,0,1.2641384765625,0,0,0.91728
2.6562968340003863,0,0,1.4101847778320311,0,0,0.84084
2.6576783010095824,0,0,1.2401964599609374,0,0,0.84084
2.6590592300053686,0,0,1.2378022583007813,0,0,0.68796
2.6604408260027412,0,0,1.120486376953125,0,0,0.84084
2.661822218011366,0,0,1.1372457885742187,0,0,0.53508
2.6632033890055027,0,0,1.3742717529296875,0,0,0.84084
2.664583984995261,0,0,1.4915876342773438,0,0,0.53508
2.665965469990624,0,0,1.3383587280273437,0,0,0.3822
2.667346139991423,0,0,1.4125789794921875,0,0,0.7644
2.6687279579928145,0,0,1.0893617553710937,0,0,0.84084
2.670109794999007,0,0,1.0821791503906248,0,0,0.6115200000000001
2.671491168992361,0,0,1.1252747802734375,0,0,0.68796
2.6728726720029954,0,0,1.0941501586914062,0,0,0.22932
2.674254268000368,0,0,1.3551181396484375,0,0,0.45864
2.6756361050065607,0,0,1.4245499877929686,0,0,0.53508
2.677017496986082,0,0,1.3742717529296875,0,0,0.68796
2.678398501011543,0,0,1.3527239379882812,0,0,0.7644
2.67978061499889,0,0,1.2832920898437499,0,0,1.1465999999999998
2.681161915010307,0,0,1.1276689819335937,0,0,0.84084
2.682543141010683,0,0,1.1109095703125,0,0,0.7644
2.6839259960106574,0,0,1.0821791503906248,0,0,0.68796
2.6853062589943875,0,0,1.3958195678710936,0,0,0.07644000000000001
2.6866874099941924,0,0,1.388636962890625,0,0,0.84084
2.6880694139981642,0,0,1.5538368774414062,0,0,0.84084
2.6894613610056695,0,0,1.3192051147460937,0,0,0.99372
2.690843827993376,0,0,1.3311761230468748,0,0,1.07016
2.6922274609969463,0,0,1.1180921752929687,0,0,0.7644
2.6936083720065653,0,0,1.235408056640625,0,0,0.6115200000000001
2.6949894680001307,0,0,1.369483349609375,0,0,0.6115200000000001
2.6963712119904812,0,0,1.4508862060546874,0,0,0.6115200000000001
2.697760567010846,0,0,1.5251064575195312,0,0,0.7644
2.6991426819877233,0,0,1.4604630126953124,0,0,0.91728
2.7005449809948914,0,0,1.22583125,0,0,0.84084
2.7019264480040874,0,0,1.3670891479492187,0,0,0.7644
2.7033083210117184,0,0,1.218648645019531,0,0,0.45864
2.704690621001646,0,0,1.3024457031249999,0,0,0.53508
2.7060722910100594,0,0,1.3742717529296875,0,0,1.07016
2.7074534239945933,0,0,1.3910311645507811,0,0,0.91728
2.7088356309977826,0,0,1.3239935180664062,0,0,0.7644
2.710217115993146,0,0,1.350329736328125,0,0,0.84084
2.7115993420011364,0,0,1.2617442749023438,0,0,0.99372
2.7129806599987205,0,0,1.22583125,0,0,0.45864
2.7143620339920744,0,0,1.0582371337890624,0,0,0.68796
2.7157444629992824,0,0,1.1061211669921875,0,0,0.45864
2.717126225994434,0,0,1.446097802734375,0,0,0.6115200000000001
2.718507988989586,0,0,1.5634136840820312,0,0,0.68796
2.7198900479997974,0,0,1.3910311645507811,0,0,0.84084
2.721270459005609,0,0,1.35990654296875,0,0,0.7644
2.7226515359943733,0,0,1.0941501586914062,0,0,0.91728
2.7240337989933323,0,0,1.0366893188476562,0,0,0.7644
2.7254143950121943,0,0,1.2234370483398436,0,0,0.91728
2.7268379350134637,0,0,1.3215993164062498,0,0,0.68796
2.7282245499955025,0,0,1.446097802734375,0,0,0.3822
2.7296057200001087,0,0,1.2713210815429687,0,0,0.6115200000000001
2.7309874269994907,0,0,1.4508862060546874,0,0,0.68796
2.732368986005895,0,0,1.3168109130859373,0,0,0.84084
2.733759636990726,0,0,1.2976572998046874,0,0,0.68796
2.7351423999934923,0,0,1.1252747802734375,0,0,0.6115200000000001
2.7365734209888615,0,0,0.9217676391601562,0,0,0.84084
2.737955499003874,0,0,1.2521674682617188,0,0,0.6115200000000001
2.7393381879955996,0,0,1.438915197753906,0,0,0.22932
2.740720486995997,0,0,1.467645617675781,0,0,0.7644
2.742102582997177,0,0,1.4820108276367188,0,0,0.68796
2.7435101229930297,0,0,1.254561669921875,0,0,1.07016
2.7448938679881394,0,0,1.2282254516601563,0,0,0.84084
2.7462766300013755,0,0,1.1563994018554686,0,0,0.68796
2.7476599299989175,0,0,1.2042834350585936,0,0,0.53508
2.749042229988845,0,0,1.3383587280273437,0,0,1.07016
2.7504244740121067,0,0,1.5035586425781249,0,0,0.68796
2.751814440009184,0,0,1.3455413330078123,0,0,0.91728
2.753196109988494,0,0,1.4867992309570313,0,0,0.7644
2.7545776139886584,0,0,1.2521674682617188,0,0,0.7644
2.755971506005153,0,0,1.1540052001953125,0,0,0.7644
2.75735391699709,0,0,1.120486376953125,0,0,0.91728
2.7587278459977824,0,0,1.2210428466796874,0,0,0.45864
2.760121553001227,0,0,1.350329736328125,0,0,0.91728
2.7615036120114382,0,0,1.5011644409179687,0,0,0.68796
2.762885448988527,0,0,1.419761584472656,0,0,0.84084
2.764267860009568,0,0,1.3192051147460937,0,0,0.7644
2.765649734006729,0,0,1.1348515869140625,0,0,0.7644
2.7670311630063225,0,0,1.1444283935546875,0,0,0.45864
2.7684134260052815,0,0,1.1156979736328125,0,0,0.91728
2.769795411004452,0,0,1.1252747802734375,0,0,0.6115200000000001
2.771177265996812,0,0,1.37906015625,0,0,0.53508
2.7725578249956015,0,0,1.2425906616210938,0,0,0.68796
2.77407669700915,0,0,1.5346832641601562,0,0,0.68796
2.775452811998548,0,0,1.1947066284179686,0,0,1.07016
2.776838908001082,0,0,1.1085153686523437,0,0,0.84084
2.7782126709935255,0,0,1.2114660400390624,0,0,0.84084
2.779604618990561,0,0,1.3144167114257812,0,0,0.68796
2.780993121996289,0,0,1.2737152832031249,0,0,0.84084
2.782366939994972,0,0,1.4341267944335936,0,0,0.45864
2.7837433330132626,0,0,1.3862427612304686,0,0,0.91728
2.785116465995088,0,0,1.5083470458984374,0,0,0.7644
2.7864903770096134,0,0,1.3479355346679687,0,0,1.07016
2.787865916994633,0,0,1.1659762084960936,0,0,0.91728
2.789238828001544,0,0,1.1635820068359375,0,0,0.68796
2.7906116280064452,0,0,1.2114660400390624,0,0,0.53508
2.7919871869962662,0,0,1.3958195678710936,0,0,0.68796
2.793360265000956,0,0,1.5442600708007812,0,0,0.68796
2.7947333049960434,0,0,1.2856862915039062,0,0,1.07016
2.796117679012241,0,0,1.5035586425781249,0,0,0.68796
2.7974994230025914,0,0,1.2593500732421874,0,0,0.68796
2.7988814820128027,0,0,1.22583125,0,0,0.84084
2.800264077988686,0,0,1.1013327636718748,0,0,0.68796
2.801646173989866,0,0,1.1228805786132812,0,0,0.7644
2.8030280669918284,0,0,1.2904746948242187,0,0,0.68796
2.8044106629968155,0,0,1.465251416015625,0,0,0.68796
2.8057924619934056,0,0,1.4173673828125,0,0,0.68796
2.807175539986929,0,0,1.37906015625,0,0,0.7644
2.8085580249899067,0,0,1.0965443603515623,0,0,0.99372
2.8099403619999066,0,0,1.1516109985351561,0,0,0.84084
2.8113226059940644,0,0,1.1252747802734375,0,0,0.84084
2.8127051460032817,0,0,1.1468225952148436,0,0,0.45864
2.8140971869870555,0,0,1.458068811035156,0,0,0.45864
2.815479337994475,0,0,1.4939818359375,0,0,0.22932
2.8168622679950204,0,0,1.5275006591796874,0,0,0.6115200000000001
2.818244104011683,0,0,1.3072341064453123,0,0,1.1465999999999998
2.8196402929897886,0,0,1.2401964599609374,0,0,1.1465999999999998
2.8210291109862737,0,0,1.1348515869140625,0,0,0.68796
2.822411152010318,0,0,1.199495031738281,0,0,0.45864
2.823794285010081,0,0,1.2210428466796874,0,0,0.68796
2.825175620993832,0,0,1.4413093994140624,0,0,0.53508
2.826557458000025,0,0,1.4628572143554686,0,0,0.7644
2.8279401650070213,0,0,1.5682020874023437,0,0,0.53508
2.829321686993353,0,0,1.2856862915039062,0,0,0.84084
2.8307033389864955,0,0,1.1037269653320312,0,0,0.99372
2.832086361013353,0,0,1.1324573852539062,0,0,0.84084
2.8334671609918587,0,0,1.1635820068359375,0,0,0.6115200000000001
2.834849126986228,0,0,1.2832920898437499,0,0,0.68796
2.83623101899866,0,0,1.407790576171875,0,0,0.7644
2.83761311499984,0,0,1.3239935180664062,0,0,0.84084
2.8389950999990106,0,0,1.455674609375,0,0,0.6115200000000001
2.840376937005203,0,0,1.1372457885742187,0,0,0.99372
2.841758625989314,0,0,1.1037269653320312,0,0,0.68796
2.8431403700087685,0,0,1.1324573852539062,0,0,0.7644
2.8445329290116206,0,0,1.1635820068359375,0,0,0.45864
2.8459147840039805,0,0,1.3096283081054687,0,0,0.68796
2.847296786989318,0,0,1.4939818359375,0,0,0.91728
2.8486790129973087,0,0,1.5897499023437498,0,0,1.1465999999999998
2.8500606279994827,0,0,1.5011644409179687,0,0,0.68796
2.8514428159978706,0,0,1.0797849487304687,0,0,1.07016
2.8528252269898076,0,0,1.13006318359375,0,0,0.6115200000000001
2.8542066010122653,0,0,1.1085153686523437,0,0,0.6115200000000001
2.855614845000673,0,0,1.199495031738281,0,0,0.3822
2.8570637730008457,0,0,1.4724340209960938,0,0,0.45864
2.8584684430097695,0,0,1.3814543579101561,0,0,0.91728
2.8598565210122615,0,0,1.4532804077148436,0,0,0.53508
2.8612403020088095,0,0,1.3192051147460937,0,0,0.84084
2.8626225650077686,0,0,1.20667763671875,0,0,0.91728
2.8640216419880744,0,0,1.20667763671875,0,0,0.84084
2.8654039789980743,0,0,1.2593500732421874,0,0,0.6115200000000001
2.8667861860012636,0,0,1.3623007446289062,0,0,0.84084
2.8681690969970077,0,0,1.3263877197265623,0,0,-9.172799999999999
2.8695534330036025,0,0,1.4939818359375,0,0,0.7644
2.8709359180065803,0,0,1.5634136840820312,0,0,0.68796
2.87233505101176,0,0,1.3575123413085937,0,0,0.91728
2.873722351010656,0,0,1.0749965454101562,0,0,0.6115200000000001
2.8751047250116244,0,0,1.0414777221679687,0,0,0.30576000000000003
2.8764875610067975,0,0,1.0845733520507812,0,0,0.7644
2.8778697320085485,0,0,1.3862427612304686,0,0,0.53508
2.8792516980029177,0,0,1.4820108276367188,0,0,0.45864
2.8806339240109082,0,0,1.4867992309570313,0,0,0.84084
2.8820158159942366,0,0,1.484405029296875,0,0,0.91728
2.8833972639986314,0,0,1.3407529296874998,0,0,0.84084
2.884779415006051,0,0,1.1468225952148436,0,0,0.6115200000000001
2.886161214992171,0,0,1.0726023437499999,0,0,0.84084
2.887542682001367,0,0,1.20667763671875,0,0,0.6115200000000001
2.8889291110099293,0,0,1.2952630981445312,0,0,-8.943480000000001
2.8903125220094807,0,0,1.5801730957031248,0,0,0.30576000000000003
2.8916965069947764,0,0,1.5251064575195312,0,0,1.1465999999999998
2.893077954999171,0,0,1.4628572143554686,0,0,0.6115200000000001
2.8944601799885277,0,0,1.1827356201171875,0,0,0.91728
2.8958429800113663,0,0,1.180341418457031,0,0,0.53508
2.897223854000913,0,0,1.1037269653320312,0,0,0.84084
2.898737189010717,0,0,1.1851298217773436,0,0,0.68796
2.9001267289859243,0,0,1.4532804077148436,0,0,0.53508
2.9015090290049557,0,0,1.467645617675781,0,0,0.84084
2.9028912729991134,0,0,1.47482822265625,0,0,0.3822
2.904273480991833,0,0,1.419761584472656,0,0,0.91728
2.905655668990221,0,0,1.3335703247070312,0,0,0.84084
2.907037783996202,0,0,1.1851298217773436,0,0,0.68796
2.9084396570106037,0,0,1.1563994018554686,0,0,0.68796
2.9098217530117836,0,0,1.1516109985351561,0,0,0.6115200000000001
2.911203959985869,0,0,1.3383587280273437,0,0,0.22932
2.912701147986809,0,0,1.4053963745117186,0,0,0.84084
2.9140840960026253,0,0,1.637633935546875,0,0,0.84084
2.915466876991559,0,0,1.3455413330078123,0,0,0.99372
2.9168493429897353,0,0,1.180341418457031,0,0,0.84084
2.91823103200295,0,0,1.0534487304687499,0,0,0.6115200000000001
2.919634980004048,0,0,1.13006318359375,0,0,0.30576000000000003
2.921017649990972,0,0,1.2234370483398436,0,0,0.7644
2.9223997830122244,0,0,1.5418658691406248,0,0,0.7644
2.9237832310027443,0,0,1.4772224243164063,0,0,0.99372
2.9251643269963097,0,0,1.3934253662109375,0,0,0.68796
2.9265461080067325,0,0,1.20667763671875,0,0,0.99372
2.9279280370101333,0,0,1.2593500732421874,0,0,0.45864
2.9293653730128426,0,0,1.0749965454101562,0,0,0.53508
2.930797579989303,0,0,1.3096283081054687,0,0,0.68796
2.932183213008102,0,0,1.3144167114257812,0,0,0.53508
2.9338038059941027,0,0,1.3000515014648437,0,0,0.45864
2.935197827988304,0,0,1.4915876342773438,0,0,0.84084
2.9365831470058765,0,0,1.5298948608398437,0,0,0.7644
2.9379663539875764,0,0,1.216254443359375,0,0,1.07016
2.9393485790060367,0,0,1.0845733520507812,0,0,0.7644
2.940731156995753,0,0,1.1420341918945311,0,0,0.7644
2.9421133819851093,0,0,1.1923124267578125,0,0,0.45864
2.943497608008329,0,0,1.5083470458984374,0,0,0.30576000000000003
2.94488053699024,0,0,1.4437036010742186,0,0,0.68796
2.94626292999601,0,0,1.4413093994140624,0,0,0.68796
2.9476579150068574,0,0,1.39821376953125,0,0,0.84084
2.9490411219885573,0,0,1.209071838378906,0,0,0.68796
2.9504237360088155,0,0,1.1372457885742187,0,0,0.6115200000000001
2.9518256839946844,0,0,1.1516109985351561,0,0,0.68796
2.9532075019960757,0,0,1.2425906616210938,0,0,0.7644
2.954588986991439,0,0,1.4891934326171874,0,0,0.53508
2.955972378986189,0,0,1.3934253662109375,0,0,0.7644
2.9573590680083726,0,0,1.6424223388671875,0,0,0.99372
2.9587409049854614,0,0,1.3000515014648437,0,0,0.99372
2.9601227969978936,0,0,1.24498486328125,0,0,0.7644
2.961504375009099,0,0,1.16837041015625,0,0,0.84084
2.9628860449884087,0,0,1.218648645019531,0,0,0.53508
2.964273363002576,0,0,1.2497732666015624,0,0,0.91728
2.965655773994513,0,0,1.448492004394531,0,0,0.6115200000000001
2.96703812899068,0,0,1.3455413330078123,0,0,0.84084
2.968420632008929,0,0,1.6831237670898436,0,0,0.99372
2.969803062005667,0,0,1.189918225097656,0,0,0.84084
2.971185250004055,0,0,1.2306196533203124,0,0,0.6115200000000001
2.9725665689911693,0,0,1.1827356201171875,0,0,1.07016
2.973969849990681,0,0,1.1276689819335937,0,0,0.7644
2.97534463100601,0,0,1.3670891479492187,0,0,0.68796
2.976721541985171,0,0,1.426944189453125,0,0,0.68796
2.978094396996312,0,0,1.4628572143554686,0,0,0.68796
2.979485140996985,0,0,1.39821376953125,0,0,0.99372
2.9808760519954376,0,0,1.177947216796875,0,0,0.7644
2.9822501849848777,0,0,1.2234370483398436,0,0,0.6115200000000001
2.9836422259977553,0,0,1.1228805786132812,0,0,0.6115200000000001
2.9850168589910027,0,0,1.1252747802734375,0,0,0.45864
2.9863897699979134,0,0,1.35990654296875,0,0,0.22932
2.987767846992938,0,0,1.3862427612304686,0,0,0.53508
2.989154203009093,0,0,1.5083470458984374,0,0,0.6115200000000001
2.990527446992928,0,0,1.4796166259765624,0,0,0.84084
2.991903154004831,0,0,1.2785036865234374,0,0,0.84084
2.9932769350125454,0,0,1.1611878051757811,0,0,0.68796
2.9946503280079924,0,0,1.2306196533203124,0,0,0.6115200000000001
2.9960376459930558,0,0,1.209071838378906,0,0,0.68796
2.997420000989223,0,0,1.438915197753906,0,0,0.30576000000000003
2.998802282003453,0,0,1.3407529296874998,0,0,0.99372
3.0001851189881563,0,0,1.4700398193359374,0,0,0.6115200000000001
3.0015668449923396,0,0,1.2641384765625,0,0,0.99372
3.002948848006781,0,0,1.2641384765625,0,0,0.68796
3.0043312039924785,0,0,1.139639990234375,0,0,0.91728
3.0057138550037052,0,0,1.1635820068359375,0,0,0.68796
3.0070962850004435,0,0,1.2808978881835937,0,0,0.91728
3.00847869500285,0,0,1.4149731811523436,0,0,0.53508
3.009860958001809,0,0,1.4317325927734375,0,0,0.53508
3.0112428499851376,0,0,1.6328455322265625,0,0,1.07016
3.0126253720081877,0,0,1.2042834350585936,0,0,0.6115200000000001
3.014008135010954,0,0,1.2378022583007813,0,0,0.91728
3.0153899530123454,0,0,1.177947216796875,0,0,0.84084
3.0167723089980427,0,0,1.3263877197265623,0,0,0.3822
3.0181541639904026,0,0,1.2401964599609374,0,0,0.99372
3.019535816012649,0,0,1.6304513305664061,0,0,0.53508
3.020916967012454,0,0,1.419761584472656,0,0,0.91728
3.022297821997199,0,0,1.4915876342773438,0,0,0.91728
3.023708955006441,0,0,1.235408056640625,0,0,0.6115200000000001
3.025093587988522,0,0,1.209071838378906,0,0,0.91728
3.0265133880020585,0,0,1.1348515869140625,0,0,0.68796
3.0279017240100075,0,0,1.2569558715820313,0,0,0.6115200000000001
3.029283690993907,0,0,1.2761094848632812,0,0,0.99372
3.0306663980009034,0,0,1.4437036010742186,0,0,0.91728
3.0320509749872144,0,0,1.484405029296875,0,0,0.84084
3.033432867989177,0,0,1.4604630126953124,0,0,0.7644
3.034816038009012,0,0,1.3048399047851562,0,0,0.84084
3.03619963399251,0,0,1.35990654296875,0,0,0.84084
3.0375825260125566,0,0,1.1563994018554686,0,0,0.6115200000000001
3.038976862997515,0,0,1.2832920898437499,0,0,0.68796
3.040361032995861,0,0,1.3168109130859373,0,0,0.3822
3.0417437579890247,0,0,1.3670891479492187,0,0,0.6115200000000001
3.04312668798957,0,0,1.5059528442382812,0,0,0.84084
3.0445104870013893,0,0,1.3551181396484375,0,0,0.99372
3.045893213013187,0,0,1.2306196533203124,0,0,0.7644
3.04728247600724,0,0,1.1707646118164061,0,0,0.99372
3.048666349990526,0,0,1.1923124267578125,0,0,0.6115200000000001
3.0500490939884912,0,0,1.2952630981445312,0,0,1.1465999999999998
3.0514324120013043,0,0,1.4125789794921875,0,0,0.6115200000000001
3.0528161379916128,0,0,1.35990654296875,0,0,1.07016
3.0541983080038335,0,0,1.6543933471679686,0,0,0.7644
3.055582533008419,0,0,1.1875240234375,0,0,0.99372
3.0569653149868827,0,0,1.1923124267578125,0,0,0.7644
3.058347929007141,0,0,1.1468225952148436,0,0,0.7644
3.0597315990016796,0,0,1.2665326782226562,0,0,0.84084
3.0611138429958373,0,0,1.4891934326171874,0,0,1.1465999999999998
3.0624965319875628,0,0,1.4245499877929686,0,0,0.53508
3.063879942987114,0,0,1.3479355346679687,0,0,0.6115200000000001
3.0652627979870886,0,0,1.6328455322265625,0,0,0.68796
3.0666452269942965,0,0,1.1180921752929687,0,0,0.68796
3.068029046000447,0,0,1.1611878051757811,0,0,0.6115200000000001
3.0694140490086284,0,0,1.1516109985351561,0,0,0.7644
3.0707970339863095,0,0,1.1013327636718748,0,0,0.6115200000000001
3.0721801859908737,0,0,1.2330138549804688,0,0,0.6115200000000001
3.073562873993069,0,0,1.3814543579101561,0,0,0.3822
3.0749459149956238,0,0,1.4724340209960938,0,0,0.84084
3.076329158997396,0,0,1.5442600708007812,0,0,0.6115200000000001
3.0777137730037794,0,0,1.1707646118164061,0,0,1.07016
3.0790973879920784,0,0,1.1635820068359375,0,0,0.84084
3.0804802989878226,0,0,1.1947066284179686,0,0,0.6115200000000001
3.0818632649898063,0,0,1.2713210815429687,0,0,0.68796
3.083253176009748,0,0,1.4006079711914061,0,0,0.45864
3.0846367350022774,0,0,1.4987702392578124,0,0,0.3822
3.0860194230044726,0,0,1.5179238525390624,0,0,0.7644
3.087402186007239,0,0,1.5035586425781249,0,0,0.53508
3.088786114996765,0,0,1.2617442749023438,0,0,0.68796
3.090171415009536,0,0,1.20667763671875,0,0,0.45864
3.091554882004857,0,0,1.0869675537109373,0,0,0.3822
3.092940236994764,0,0,1.2378022583007813,0,0,0.6115200000000001
3.094322924996959,0,0,1.2785036865234374,0,0,0.30576000000000003
3.0957070580043364,0,0,1.35990654296875,0,0,0.99372
3.097088968992466,0,0,1.5634136840820312,0,0,1.1465999999999998
3.0984718060062733,0,0,1.20667763671875,0,0,0.6115200000000001
3.0998552909877617,0,0,1.1516109985351561,0,0,0.91728
3.10123766498873,0,0,1.1252747802734375,0,0,0.53508
3.102620093995938,0,0,1.1827356201171875,0,0,0.91728
3.103999579005176,0,0,1.199495031738281,0,0,0.91728
3.1053787489945535,0,0,1.4891934326171874,0,0,0.84084
3.1067642899870407,0,0,1.3718775512695311,0,0,0.91728
3.108238385000732,0,0,1.3934253662109375,0,0,0.91728
3.1096334439935163,0,0,1.2785036865234374,0,0,0.84084
3.1110154099878855,0,0,1.1659762084960936,0,0,0.53508
3.1124003760050982,0,0,1.1372457885742187,0,0,0.53508
3.1137827129859943,0,0,1.1635820068359375,0,0,0.68796
3.1151644389901776,0,0,1.2880804931640624,0,0,0.84084
3.116546498000389,0,0,1.5203180541992187,0,0,0.7644
3.1179287789855152,0,0,1.5514426757812498,0,0,0.84084
3.119310153007973,0,0,1.6448165405273436,0,0,0.7644
3.120691860007355,0,0,1.2497732666015624,0,0,0.91728
3.122073807986453,0,0,1.0893617553710937,0,0,0.53508
3.123455182008911,0,0,1.1659762084960936,0,0,0.30576000000000003
3.124837370007299,0,0,1.1923124267578125,0,0,0.53508
3.126237354998011,0,0,1.4149731811523436,0,0,0.15288000000000002
3.1276336729933973,0,0,1.4149731811523436,0,0,0.45864
3.129016140010208,0,0,1.4724340209960938,0,0,0.99372
3.130398439010605,0,0,1.5203180541992187,0,0,0.7644
3.131781164993299,0,0,1.2593500732421874,0,0,0.99372
3.1331623540027067,0,0,1.0773907470703123,0,0,0.6115200000000001
3.134544820000883,0,0,1.1228805786132812,0,0,0.68796
3.1359278419986367,0,0,1.2952630981445312,0,0,0.68796
3.137309253012063,0,0,1.3934253662109375,0,0,0.22932
3.138691089989152,0,0,1.3431471313476562,0,0,0.68796
3.1400746860017534,0,0,1.484405029296875,0,0,0.84084
3.141457004006952,0,0,1.2018892333984375,0,0,1.07016
3.142838395986473,0,0,1.2114660400390624,0,0,1.1465999999999998
3.144220640009735,0,0,1.13006318359375,0,0,0.6115200000000001
3.145602754986612,0,0,1.2234370483398436,0,0,0.6115200000000001
3.146984777005855,0,0,1.2856862915039062,0,0,0.99372
3.1483670579909813,0,0,1.4963760375976562,0,0,0.53508
3.1497487100132275,0,0,1.3742717529296875,0,0,1.1465999999999998
3.1511308059853036,0,0,1.678335363769531,0,0,0.91728
3.152514290995896,0,0,1.22583125,0,0,0.91728
3.1538959789904766,0,0,1.2497732666015624,0,0,0.45864
3.1552780749916565,0,0,1.1324573852539062,0,0,0.7644
3.1566601709928364,0,0,1.1923124267578125,0,0,0.53508
3.158041933987988,0,0,1.4891934326171874,0,0,1.1465999999999998
3.1594234369986225,0,0,1.4125789794921875,0,0,0.91728
3.1608060149883386,0,0,1.429338391113281,0,0,0.7644
3.162187517998973,0,0,1.668758557128906,0,0,0.7644
3.1635871139878873,0,0,1.1420341918945311,0,0,0.84084
3.164970173005713,0,0,1.2689268798828124,0,0,0.84084
3.1663523800089024,0,0,1.199495031738281,0,0,0.84084
3.1677395130100194,0,0,1.1707646118164061,0,0,0.6115200000000001
3.1691209609853104,0,0,1.3192051147460937,0,0,0.68796
3.1705153720104136,0,0,1.3623007446289062,0,0,0.6115200000000001
3.171898708998924,0,0,1.4604630126953124,0,0,0.6115200000000001
3.1732787119981367,0,0,1.6831237670898436,0,0,0.7644
3.174683085992001,0,0,1.158793603515625,0,0,0.91728
3.1760619039996527,0,0,1.0845733520507812,0,0,0.6115200000000001
3.1774350559862796,0,0,1.1563994018554686,0,0,0.91728
3.1788501880073454,0,0,1.2737152832031249,0,0,0.45864
3.180341931001749,0,0,1.4963760375976562,0,0,0.22932
3.1817175640026107,0,0,1.4724340209960938,0,0,0.68796
3.1830912900040857,0,0,1.6831237670898436,0,0,0.91728
3.184467534010764,0,0,1.2808978881835937,0,0,0.53508
3.1858406119863503,0,0,1.1731588134765625,0,0,0.84084
3.187214559991844,0,0,1.2234370483398436,0,0,0.7644
3.1885903229995165,0,0,1.0989385620117187,0,0,0.6115200000000001
3.189962808013661,0,0,1.2330138549804688,0,0,0.6115200000000001
3.191335737006739,0,0,1.5370774658203123,0,0,0.53508
3.192709777998971,0,0,1.3383587280273437,0,0,0.6115200000000001
3.1940829110099003,0,0,1.4604630126953124,0,0,0.99372
3.195457266003359,0,0,1.216254443359375,0,0,1.07016
3.1968321219901554,0,0,1.2641384765625,0,0,0.7644
3.1982044219912495,0,0,1.1635820068359375,0,0,0.84084
3.199586239992641,0,0,1.2282254516601563,0,0,0.45864
3.2009609839878976,0,0,1.2641384765625,0,0,0.84084
3.2023336910060607,0,0,1.4006079711914061,0,0,0.68796
3.203708306013141,0,0,1.407790576171875,0,0,0.7644
3.2050811430090107,0,0,1.6424223388671875,0,0,0.7644
3.2064561459992547,0,0,1.2473790649414063,0,0,0.7644
3.2078313539968804,0,0,1.1635820068359375,0,0,1.07016
3.209203950013034,0,0,1.1516109985351561,0,0,0.7644
3.210576323996065,0,0,1.1875240234375,0,0,0.3822
3.211956882994855,0,0,1.3239935180664062,0,0,0.91728
3.213352552993456,0,0,1.3910311645507811,0,0,0.53508
3.2147358339861967,0,0,1.3814543579101561,0,0,0.7644
3.2161184849974234,0,0,1.484405029296875,0,0,0.7644
3.217501044011442,0,0,1.3096283081054687,0,0,0.99372
3.21888328899513,0,0,1.1707646118164061,0,0,0.45864
3.2202655879955273,0,0,1.20667763671875,0,0,0.84084
3.2216551470046397,0,0,1.24498486328125,0,0,0.53508
3.2230376139923465,0,0,1.4867992309570313,0,0,0.30576000000000003
3.2244205430033617,0,0,1.3551181396484375,0,0,0.53508
3.225802990986267,0,0,1.446097802734375,0,0,0.91728
3.22718501300551,0,0,1.3814543579101561,0,0,0.91728
3.228567442012718,0,0,1.2832920898437499,0,0,0.84084
3.229949926986592,0,0,1.1252747802734375,0,0,0.68796
3.2313321529945824,0,0,1.20667763671875,0,0,0.68796
3.232714526995551,0,0,1.3024457031249999,0,0,0.53508
3.2340968450007495,0,0,1.448492004394531,0,0,-9.40212
3.2354810149990954,0,0,1.3048399047851562,0,0,0.99372
3.2368637780018616,0,0,1.6639701538085936,0,0,0.7644
3.238341891003074,0,0,1.2138602416992186,0,0,0.7644
3.239769226987846,0,0,1.2521674682617188,0,0,1.07016
3.24116169399349,0,0,1.0965443603515623,0,0,0.7644
3.2425441420054995,0,0,1.139639990234375,0,0,0.3822
3.24392747800448,0,0,1.2689268798828124,0,0,0.91728
3.2453095740056597,0,0,1.4939818359375,0,0,0.6115200000000001
3.2467021149932407,0,0,1.350329736328125,0,0,-8.71416
3.248089191998588,0,0,1.5514426757812498,0,0,0.68796
3.2494698440132197,0,0,1.1923124267578125,0,0,0.84084
3.2508520880073775,0,0,1.1372457885742187,0,0,0.91728
3.2522352210071404,0,0,1.197100830078125,0,0,0.45864
3.2536171129904687,0,0,1.1563994018554686,0,0,0.53508
3.2549993389984593,0,0,1.2641384765625,0,0,0.84084
3.2563816200126894,0,0,1.4221557861328125,0,0,0.68796
3.257790420000674,0,0,1.3335703247070312,0,0,0.7644
3.25917275599204,0,0,1.5562310791015623,0,0,0.7644
3.2605560749943834,0,0,1.22583125,0,0,0.68796
3.2619378739909735,0,0,1.2617442749023438,0,0,0.53508
3.2633205630118027,0,0,1.1133037719726562,0,0,0.84084
3.2647032889944967,0,0,1.2306196533203124,0,0,0.99372
3.266085754992673,0,0,1.2880804931640624,0,0,0.3822
3.267468498990638,0,0,1.419761584472656,0,0,0.68796
3.268851855013054,0,0,1.4053963745117186,0,0,0.68796
3.270233969000401,0,0,1.2737152832031249,0,0,0.53508
3.2716365460073575,0,0,1.2497732666015624,0,0,0.7644
3.2730192719900515,0,0,1.1013327636718748,0,0,0.6115200000000001
3.2744012380135246,0,0,1.1420341918945311,0,0,0.68796
3.275790223007789,0,0,1.2665326782226562,0,0,0.45864
3.277172430010978,0,0,1.37906015625,0,0,0.3822
3.2785600450006314,0,0,1.3838485595703125,0,0,0.91728
3.279955214995425,0,0,1.3862427612304686,0,0,1.07016
3.281337699998403,0,0,1.1923124267578125,0,0,0.6115200000000001
3.282717333000619,0,0,1.2689268798828124,0,0,0.84084
3.284113650996005,0,0,1.350329736328125,0,0,0.6115200000000001
3.285496135998983,0,0,1.197100830078125,0,0,0.6115200000000001
3.2868778620031662,0,0,1.2785036865234374,0,0,0.6115200000000001
3.2882599210133776,0,0,1.5394716674804687,0,0,0.3822
3.2896422760095447,0,0,1.43652099609375,0,0,0.99372
3.2910242789948825,0,0,1.4341267944335936,0,0,0.7644
3.2924066350096837,0,0,1.2473790649414063,0,0,1.1465999999999998
3.29378867498599,0,0,1.149216796875,0,0,0.68796
3.29517101199599,0,0,1.216254443359375,0,0,0.91728
3.296553366992157,0,0,1.1659762084960936,0,0,0.7644
3.2979359079909045,0,0,1.2401964599609374,0,0,0.84084
3.299318244011374,0,0,1.4867992309570313,0,0,0.7644
3.300720024999464,0,0,1.455674609375,0,0,0.68796
3.3021032320102677,0,0,1.5801730957031248,0,0,0.84084
3.3034857730090152,0,0,1.2808978881835937,0,0,0.6115200000000001
3.304868164996151,0,0,1.2856862915039062,0,0,1.07016
3.30625042799511,0,0,1.1133037719726562,0,0,0.7644
3.3076328939932864,0,0,1.139639990234375,0,0,0.53508
3.3090150830103084,0,0,1.5131354492187499,0,0,0.68796
3.3103971790114883,0,0,1.35990654296875,0,0,0.3822
3.3117804230132606,0,0,1.2330138549804688,0,0,0.99372
3.3131616300088353,0,0,1.4508862060546874,0,0,0.68796
3.314544819004368,0,0,1.2042834350585936,0,0,1.2994800000000002
3.315926840994507,0,0,1.2904746948242187,0,0,0.99372
3.3173089920019265,0,0,1.197100830078125,0,0,0.84084
3.318690902990056,0,0,1.1851298217773436,0,0,0.53508
3.3200744070054498,0,0,1.2401964599609374,0,0,0.3822
3.3214555209851824,0,0,1.369483349609375,0,0,0.99372
3.322837098996388,0,0,1.465251416015625,0,0,0.91728
3.324219769012416,0,0,1.2713210815429687,0,0,0.68796
3.3256016800005455,0,0,1.235408056640625,0,0,0.84084
3.327005052997265,0,0,1.209071838378906,0,0,0.84084
3.3283885570126586,0,0,1.1516109985351561,0,0,0.68796
3.3297708189929835,0,0,1.3263877197265623,0,0,0.68796
3.3311532299849205,0,0,1.426944189453125,0,0,0.6115200000000001
3.3325357149878982,0,0,1.3575123413085937,0,0,0.91728
3.333917810989078,0,0,1.6328455322265625,0,0,0.6115200000000001
3.335299444006523,0,0,1.0797849487304687,0,0,1.1465999999999998
3.336682021996239,0,0,1.209071838378906,0,0,0.6115200000000001
3.338073913997505,0,0,1.35990654296875,0,0,0.53508
3.3394563060137443,0,0,1.1875240234375,0,0,0.6115200000000001
3.3408389390097,0,0,1.3239935180664062,0,0,1.2994800000000002
3.3422207580006216,0,0,1.5155296508789062,0,0,0.68796
3.343603538989555,0,0,1.4053963745117186,0,0,0.91728
3.344991708989255,0,0,1.5370774658203123,0,0,0.99372
3.346373564010719,0,0,1.2138602416992186,0,0,0.91728
3.3477562709886115,0,0,1.3383587280273437,0,0,0.6115200000000001
3.349137201003032,0,0,1.1061211669921875,0,0,0.7644
3.3505191119911615,0,0,1.2210428466796874,0,0,0.53508
3.3519029110029805,0,0,1.429338391113281,0,0,0.45864
3.353305469994666,0,0,1.4604630126953124,0,0,0.6115200000000001
3.3546879919886123,0,0,1.5155296508789062,0,0,0.91728
3.3560713100014254,0,0,1.5011644409179687,0,0,0.45864
3.3574850909935776,0,0,1.2330138549804688,0,0,0.68796
3.358921945997281,0,0,1.1611878051757811,0,0,0.7644
3.3603139859915245,0,0,1.1180921752929687,0,0,0.53508
3.3616964899993036,0,0,1.197100830078125,0,0,0.68796
3.363079492992256,0,0,1.3024457031249999,0,0,0.30576000000000003
3.3644616449892055,0,0,1.3168109130859373,0,0,0.91728
3.3658437409903854,0,0,1.5083470458984374,0,0,0.84084
3.3672264849883504,0,0,1.2234370483398436,0,0,0.99372
3.3686088219983503,0,0,1.2761094848632812,0,0,0.7644
3.369990806997521,0,0,1.158793603515625,0,0,0.68796
3.371372994995909,0,0,1.1420341918945311,0,0,0.53508
3.3727579989936203,0,0,1.197100830078125,0,0,0.91728
3.3743339809880126,0,0,1.3263877197265623,0,0,0.45864
3.3757116330089048,0,0,1.3048399047851562,0,0,0.7644
3.377085618005367,0,0,1.465251416015625,0,0,0.84084
3.3784593619930092,0,0,1.2689268798828124,0,0,0.91728
3.3798917540116236,0,0,1.218648645019531,0,0,0.68796
3.381281220004894,0,0,1.0462661254882812,0,0,0.6115200000000001
3.382655057008378,0,0,1.1468225952148436,0,0,0.30576000000000003
3.384031468012836,0,0,1.2832920898437499,0,0,1.1465999999999998
3.3854046199994627,0,0,1.429338391113281,0,0,0.84084
3.3867773830133956,0,0,1.3551181396484375,0,0,0.7644
3.3881729599961545,0,0,1.3239935180664062,0,0,0.84084
3.389547370985383,0,0,1.2497732666015624,0,0,0.91728
3.3909203560033347,0,0,1.3575123413085937,0,0,0.68796
3.3922967849939596,0,0,1.16837041015625,0,0,0.7644
3.393669770011911,0,0,1.0797849487304687,0,0,0.53508
3.3950426999945194,0,0,1.3144167114257812,0,0,0.45864
3.396426685008919,0,0,1.448492004394531,0,0,0.68796
3.3977997619949747,0,0,1.3934253662109375,0,0,0.7644
3.399172172998078,0,0,1.3239935180664062,0,0,0.53508
3.4005557319906075,0,0,1.3407529296874998,0,0,0.91728
3.4019380509853363,0,0,1.1061211669921875,0,0,0.7644
3.4033196470118128,0,0,1.1659762084960936,0,0,0.7644
3.4047017979901284,0,0,1.2976572998046874,0,0,0.53508
3.4060854869894683,0,0,1.4867992309570313,0,0,0.3822
3.4074668789980933,0,0,1.3814543579101561,0,0,0.53508
3.4088489940040745,0,0,1.4796166259765624,0,0,0.6115200000000001
3.4102366639999673,0,0,1.2737152832031249,0,0,1.07016
3.4116350740077905,0,0,1.254561669921875,0,0,0.6115200000000001
3.4130174849997275,0,0,1.2808978881835937,0,0,1.07016
3.414400100009516,0,0,1.0965443603515623,0,0,0.6115200000000001
3.4157828809984494,0,0,1.22583125,0,0,1.2230400000000001
3.417163606995018,0,0,1.5035586425781249,0,0,0.3822
3.418545535998419,0,0,1.3096283081054687,0,0,0.91728
3.419928688002983,0,0,1.3934253662109375,0,0,0.7644
3.4213097280007787,0,0,1.1037269653320312,0,0,0.84084
3.4226920279907063,0,0,1.1516109985351561,0,0,0.84084
3.424074531008955,0,0,1.1252747802734375,0,0,0.68796
3.4254566459858324,0,0,1.16837041015625,0,0,0.6115200000000001
3.4268382230075076,0,0,1.2928688964843749,0,0,0.91728
3.4282208009972237,0,0,1.5131354492187499,0,0,0.7644
3.4296027859963942,0,0,1.2306196533203124,0,0,1.2994800000000002
3.4309849189885426,0,0,1.5634136840820312,0,0,0.84084
3.4323760150000453,0,0,1.180341418457031,0,0,1.07016
3.4337584630120546,0,0,1.0893617553710937,0,0,0.68796
3.4351405769994017,0,0,1.1540052001953125,0,0,0.68796
3.4365330990112852,0,0,1.197100830078125,0,0,0.6115200000000001
3.4379149909946136,0,0,1.2904746948242187,0,0,0.7644
3.439296902011847,0,0,1.4030021728515625,0,0,0.68796
3.440680275991326,0,0,1.3359645263671873,0,0,0.91728
3.4420620200107805,0,0,1.235408056640625,0,0,0.91728
3.443444134987658,0,0,1.2138602416992186,0,0,0.68796
3.444826749007916,0,0,1.16837041015625,0,0,0.68796
3.44620836401009,0,0,1.1875240234375,0,0,0.68796
3.447591256001033,0,0,1.3646949462890625,0,0,0.6115200000000001
3.4489725189923774,0,0,1.3263877197265623,0,0,0.45864
3.4503540589939803,0,0,1.35990654296875,0,0,0.6115200000000001
3.451736841001548,0,0,1.4053963745117186,0,0,0.84084
3.453117973986082,0,0,1.24498486328125,0,0,1.1465999999999998
3.4545033469912596,0,0,1.2114660400390624,0,0,0.84084
3.4558864799910225,0,0,1.1851298217773436,0,0,0.99372
3.4602616729971487,0,0,1.4532804077148436,0,0,0.6115200000000001
3.4616514729859773,0,0,1.2689268798828124,0,0,0.84084
3.4630253099894617,0,0,1.3551181396484375,0,0,1.07016
3.464402424986474,0,0,1.1252747802734375,0,0,0.7644
3.4657764100120403,0,0,1.2306196533203124,0,0,0.84084
3.467149801988853,0,0,1.189918225097656,0,0,0.7644
3.4685269909969065,0,0,1.2521674682617188,0,0,0.7644
3.4698999940010253,0,0,1.2593500732421874,0,0,0.7644
3.4712735899956897,0,0,1.458068811035156,0,0,0.84084
3.472657723003067,0,0,1.2785036865234374,0,0,0.91728
3.4740397820132785,0,0,1.3455413330078123,0,0,0.68796
3.475422490009805,0,0,1.2306196533203124,0,0,0.7644
3.4768050859856885,0,0,1.3407529296874998,0,0,0.6115200000000001
3.47820566300652,0,0,1.16837041015625,0,0,0.7644
3.4795896660070866,0,0,1.3072341064453123,0,0,0.45864
3.480971003009472,0,0,1.4006079711914061,0,0,0.45864
3.48235324700363,0,0,1.4508862060546874,0,0,0.7644
3.4837369169981685,0,0,1.3838485595703125,0,0,0.45864
3.4851179760007653,0,0,1.2737152832031249,0,0,0.84084
3.486499405989889,0,0,1.2497732666015624,0,0,0.84084
3.487882946006721,0,0,1.2138602416992186,0,0,0.91728
3.48926496799686,0,0,1.0606313354492187,0,0,0.68796
3.490646527003264,0,0,1.1755530151367186,0,0,0.45864
3.492029418994207,0,0,1.5418658691406248,0,0,0.3822
3.49341120099416,0,0,1.5849614990234373,0,0,0.7644
3.4947928889887407,0,0,1.5035586425781249,0,0,0.84084
3.49617509599193,0,0,1.2018892333984375,0,0,0.6115200000000001
3.4975569889938924,0,0,1.369483349609375,0,0,0.91728
3.4989388439862523,0,0,1.2282254516601563,0,0,0.6115200000000001
3.500320699007716,0,0,1.20667763671875,0,0,0.6115200000000001
3.5017026659916155,0,0,1.369483349609375,0,0,0.84084
3.503084188007051,0,0,1.4700398193359374,0,0,0.22932
3.5044659129926004,0,0,1.3287819213867187,0,0,1.1465999999999998
3.5058481759915594,0,0,1.2904746948242187,0,0,0.84084
3.507229938986711,0,0,1.1611878051757811,0,0,0.68796
3.508611552999355,0,0,1.1755530151367186,0,0,0.68796
3.509993741987273,0,0,1.1540052001953125,0,0,0.45864
3.5113751709868666,0,0,1.209071838378906,0,0,0.45864
3.5127575270016678,0,0,1.2976572998046874,0,0,1.07016
3.5141391970100813,0,0,1.5227122558593749,0,0,0.84084
3.5155279409955256,0,0,1.4772224243164063,0,0,0.91728
3.5169104440137744,0,0,1.43652099609375,0,0,0.91728
3.5182924479886424,0,0,1.2737152832031249,0,0,0.53508
3.519759413000429,0,0,1.3383587280273437,0,0,0.45864
3.5211406569869723,0,0,1.2808978881835937,0,0,0.68796
3.5225308460067026,0,0,1.1061211669921875,0,0,0.45864
3.5239137379976455,0,0,1.467645617675781,0,0,0.84084
3.5252951119909994,0,0,1.4437036010742186,0,0,0.84084
3.5266768560104538,0,0,1.3958195678710936,0,0,0.7644
3.5280596560041886,0,0,1.218648645019531,0,0,0.7644
3.5294409559865016,0,0,1.1420341918945311,0,0,0.84084
3.530823014996713,0,0,1.209071838378906,0,0,0.6115200000000001
3.5322049999958836,0,0,1.0869675537109373,0,0,0.84084
3.533587003010325,0,0,1.149216796875,0,0,0.53508
3.5349687470006756,0,0,1.5322890624999999,0,0,0.45864
3.536350954003865,0,0,1.3958195678710936,0,0,0.6115200000000001
3.5377330129849724,0,0,1.5155296508789062,0,0,0.68796
3.5391144799941685,0,0,1.2401964599609374,0,0,0.84084
3.5404986499925144,0,0,1.2952630981445312,0,0,1.07016
3.5418805980007164,0,0,1.1037269653320312,0,0,0.99372
3.54326202700031,0,0,1.2713210815429687,0,0,0.84084
3.5446453079930507,0,0,1.2378022583007813,0,0,0.84084
3.5460269039904233,0,0,1.5203180541992187,0,0,0.15288000000000002
3.5474370369920507,0,0,1.3862427612304686,0,0,1.1465999999999998
3.5488225030130707,0,0,1.608903515625,0,0,1.2230400000000001
3.5502047289919574,0,0,1.2018892333984375,0,0,0.84084
3.5515887509973254,0,0,1.2593500732421874,0,0,0.99372
3.55297044001054,0,0,1.0510545288085937,0,0,0.84084
3.55435210998985,0,0,1.216254443359375,0,0,0.45864
3.5557351500028744,0,0,1.2401964599609374,0,0,0.91728
3.5571162829874083,0,0,1.5059528442382812,0,0,0.7644
3.5584981020074338,0,0,1.2856862915039062,0,0,0.6115200000000001
