Time,AccelX1,AccelY1,AccelZ1,AccelX2,AccelY2,AccelZ2
4.7219800762832165e-06,0,0,1.2761094848632812,0,0,0.6115200000000001
0.003656588989542797,0,0,1.3048399047851562,0,0,0.53508
0.007343418983509764,0,0,1.458068811035156,0,0,1.07016
0.011099525989266112,0,0,1.0821791503906248,0,0,0.7644
0.014787391992285848,0,0,1.3168109130859373,0,0,1.2994800000000002
0.018362945003900677,0,0,1.5131354492187499,0,0,0.84084
0.021966571977827698,0,0,1.2521674682617188,0,0,0.84084
0.02561697698547505,0,0,1.5107412475585937,0,0,0.45864
0.029023142997175455,0,0,1.0941501586914062,0,0,0.45864
0.03213001598487608,0,0,1.369483349609375,0,0,0.6115200000000001
0.035227536980528384,0,0,1.4053963745117186,0,0,0.6115200000000001
0.038327872985973954,0,0,1.5251064575195312,0,0,0.91728
0.041550505004124716,0,0,1.13006318359375,0,0,0.53508
0.04473448797944002,0,0,1.24498486328125,0,0,-9.24924
0.047931730980053544,0,0,1.388636962890625,0,0,0.22932
0.05111880600452423,0,0,1.0773907470703123,0,0,0.7644
0.05423801200231537,0,0,1.5275006591796874,0,0,0.68796
0.057359901984455064,0,0,1.3646949462890625,0,0,1.1465999999999998
0.060484680987428874,0,0,1.369483349609375,0,0,0.91728
0.06360207198304124,0,0,1.2713210815429687,0,0,0.53508
0.06671851797727868,0,0,1.369483349609375,0,0,0.3822
0.06983487098477781,0,0,1.2306196533203124,0,0,0.68796
0.07295083499047905,0,0,1.3263877197265623,0,0,0.6115200000000001
0.076144391001435,0,0,1.3215993164062498,0,0,1.37592
0.07932226298726164,0,0,1.5083470458984374,0,0,1.2994800000000002
0.08244328299770132,0,0,1.1540052001953125,0,0,0.22932
0.08556489498005249,0,0,1.3024457031249999,0,0,0.22932
0.08868191498913802,0,0,1.4604630126953124,0,0,0.53508
0.09180263898451813,0,0,1.2856862915039062,0,0,0.68796
0.09491728799184784,0,0,1.3551181396484375,0,0,1.07016
0.09803240100154653,0,0,1.3623007446289062,0,0,0.99372
0.10114653198979795,0,0,1.3192051147460937,0,0,0.91728
0.1042692189803347,0,0,1.2401964599609374,0,0,0.68796
0.10739173900219612,0,0,1.3838485595703125,0,0,0.53508
0.11050896198139526,0,0,1.3742717529296875,0,0,0.6115200000000001
0.11362661200109869,0,0,1.35990654296875,0,0,1.1465999999999998
0.11674324297928251,0,0,1.4245499877929686,0,0,1.07016
0.11985820799600333,0,0,1.2378022583007813,0,0,1.37592
0.12297228298848495,0,0,1.0726023437499999,0,0,0.7644
0.12611946900142357,0,0,1.3144167114257812,0,0,0.3822
0.12923419298022054,0,0,1.484405029296875,0,0,0.30576000000000003
0.13235245400574058,0,0,1.1420341918945311,0,0,0.6115200000000001
0.1354741590039339,0,0,1.158793603515625,0,0,0.99372
0.13858869799878448,0,0,1.2330138549804688,0,0,0.91728
0.141702366003301,0,0,1.1923124267578125,0,0,0.84084
0.14481920099933632,0,0,1.0917559570312498,0,0,0.7644
0.14793427599943243,0,0,1.3575123413085937,0,0,0.53508
0.15104731498286128,0,0,1.1109095703125,0,0,0.68796
0.15416218698373996,0,0,1.3192051147460937,0,0,0.99372
0.15727807697840035,0,0,1.5298948608398437,0,0,0.91728
0.16039294897927903,0,0,1.5035586425781249,0,0,1.07016
0.16361691200290807,0,0,1.120486376953125,0,0,0.68796
0.1667392179952003,0,0,1.3168109130859373,0,0,0.53508
0.16985604297951795,0,0,1.3814543579101561,0,0,0.30576000000000003
0.17297068299376406,0,0,1.369483349609375,0,0,0.91728
0.1760866190015804,0,0,1.2378022583007813,0,0,0.53508
0.17920081497868523,0,0,1.3359645263671873,0,0,1.37592
0.1823166399844922,0,0,1.3575123413085937,0,0,0.91728
0.18543151998892426,0,0,1.235408056640625,0,0,0.91728
0.1885771599772852,0,0,1.5275006591796874,0,0,0.68796
0.19169148500077426,0,0,1.158793603515625,0,0,0.6115200000000001
0.1948051619983744,0,0,1.3551181396484375,0,0,0.7644
0.1979210049903486,0,0,1.4796166259765624,0,0,1.07016
0.20103577498230152,0,0,1.5035586425781249,0,0,0.84084
0.20415195199893788,0,0,1.1563994018554686,0,0,0.68796
0.2072655920055695,0,0,1.4867992309570313,0,0,0.91728
0.21038119398872368,0,0,1.3551181396484375,0,0,0.3822
0.21349602000555024,0,0,1.3239935180664062,0,0,0.6115200000000001
0.21660493698436767,0,0,1.3239935180664062,0,0,0.7644
0.22024143999442458,0,0,1.3431471313476562,0,0,0.99372
0.22354028100380674,0,0,1.22583125,0,0,0.91728
0.2266746060049627,0,0,1.2832920898437499,0,0,0.45864
0.22977606099448167,0,0,1.3239935180664062,0,0,0.84084
0.23287636699387804,0,0,1.2785036865234374,0,0,0.7644
0.23597646999405697,0,0,1.2832920898437499,0,0,0.91728
0.23907333298120648,0,0,1.5227122558593749,0,0,1.07016
0.24219323199940845,0,0,1.3623007446289062,0,0,0.99372
0.24531438999110833,0,0,1.1540052001953125,0,0,0.7644
0.24843817797955126,0,0,1.2761094848632812,0,0,0.45864
0.25155241100583225,0,0,1.3455413330078123,0,0,0.6115200000000001
0.2546656799968332,0,0,1.3168109130859373,0,0,0.7644
0.25778028299100697,0,0,1.5227122558593749,0,0,0.45864
0.26121251098811626,0,0,1.467645617675781,0,0,0.7644
0.2644439819850959,0,0,1.2378022583007813,0,0,0.91728
0.267561491986271,0,0,1.3144167114257812,0,0,0.45864
0.27067909500328824,0,0,1.3192051147460937,0,0,0.91728
0.27379666100023314,0,0,1.3623007446289062,0,0,0.6115200000000001
0.27695663398480974,0,0,1.3024457031249999,0,0,0.22932
0.28007603299920447,0,0,1.4053963745117186,0,0,0.3822
0.2831934319983702,0,0,1.1923124267578125,0,0,0.91728
0.28631103498628363,0,0,1.2904746948242187,0,0,0.68796
0.28942774899769574,0,0,1.22583125,0,0,1.07016
0.2925448879832402,0,0,1.35990654296875,0,0,0.84084
0.29566806499497034,0,0,1.1156979736328125,0,0,0.7644
0.2987839459965471,0,0,1.4413093994140624,0,0,0.45864
0.30189971497748047,0,0,1.467645617675781,0,0,0.53508
0.3050156699900981,0,0,1.3192051147460937,0,0,0.6115200000000001
0.3081336249888409,0,0,1.1875240234375,0,0,0.45864
0.3112465789890848,0,0,1.2497732666015624,0,0,0.7644
0.31436134898103774,0,0,1.2018892333984375,0,0,0.6115200000000001
0.3174763410061132,0,0,1.2761094848632812,0,0,0.68796
0.3206353319983464,0,0,1.3215993164062498,0,0,0.53508
0.32379561898414977,0,0,1.1875240234375,0,0,0.6115200000000001
0.32695433200569823,0,0,1.3287819213867187,0,0,0.53508
0.3301163050055038,0,0,1.2497732666015624,0,0,0.91728
0.33323588900384493,0,0,1.5131354492187499,0,0,0.7644
0.33635534398490563,0,0,1.0917559570312498,0,0,0.6115200000000001
0.33946796497912146,0,0,1.3814543579101561,0,0,0.45864
0.3425839569827076,0,0,1.3958195678710936,0,0,0.84084
0.34570135598187335,0,0,1.0845733520507812,0,0,0.7644
0.3488154030055739,0,0,1.3000515014648437,0,0,0.7644
0.3519430799933616,0,0,1.149216796875,0,0,0.99372
0.3550567390047945,0,0,1.2114660400390624,0,0,0.99372
0.3581706929835491,0,0,1.3215993164062498,0,0,0.91728
0.3613289250060916,0,0,1.3215993164062498,0,0,0.53508
0.3644470459839795,0,0,1.1635820068359375,0,0,0.68796
0.367561389983166,0,0,1.2904746948242187,0,0,0.7644
0.3706789189891424,0,0,1.5011644409179687,0,0,0.99372
0.37379011398297735,0,0,1.465251416015625,0,0,0.99372
0.3769358829886187,0,0,1.1156979736328125,0,0,0.68796
0.38005480100400746,0,0,1.3646949462890625,0,0,0.45864
0.38316805197973736,0,0,1.235408056640625,0,0,0.45864
0.3862825989781413,0,0,1.3455413330078123,0,0,0.7644
0.38939477599342354,0,0,1.3455413330078123,0,0,0.53508
0.3925736740056891,0,0,1.3096283081054687,0,0,0.99372
0.39572370299720205,0,0,1.3335703247070312,0,0,0.84084
0.3988406939897686,0,0,1.1635820068359375,0,0,0.6115200000000001
0.40195716798189096,0,0,1.4820108276367188,0,0,0.3822
0.4051024919899646,0,0,1.3742717529296875,0,0,0.68796
0.408224649989279,0,0,1.197100830078125,0,0,0.68796
0.411337678990094,0,0,1.4963760375976562,0,0,0.84084
0.414451503980672,0,0,1.2713210815429687,0,0,0.99372
0.4176416620030068,0,0,1.1731588134765625,0,0,0.91728
0.42092529899673536,0,0,1.4221557861328125,0,0,0.84084
0.42403729099896736,0,0,1.3958195678710936,0,0,0.3822
0.42717461599386297,0,0,1.3335703247070312,0,0,0.68796
0.43027829300262965,0,0,1.350329736328125,0,0,0.91728
0.4333817290025763,0,0,1.4413093994140624,0,0,0.91728
0.436494720983319,0,0,1.2976572998046874,0,0,0.7644
0.43960991597850807,0,0,1.177947216796875,0,0,0.15288000000000002
0.44272600099793635,0,0,1.3814543579101561,0,0,-9.555
0.44584469599067234,0,0,1.3431471313476562,0,0,0.45864
0.44896050199167803,0,0,1.3527239379882812,0,0,0.91728
0.45210769699770026,0,0,1.3168109130859373,0,0,0.99372
0.45522135598002933,0,0,1.599326708984375,0,0,0.84084
0.45833495899569243,0,0,1.3431471313476562,0,0,0.6115200000000001
0.46146550599951297,0,0,1.0845733520507812,0,0,0.3822
0.46458234899910167,0,0,1.4532804077148436,0,0,0.53508
0.4676967299892567,0,0,1.1731588134765625,0,0,0.68796
0.4708135550026782,0,0,1.189918225097656,0,0,0.84084
0.4739257689798251,0,0,1.369483349609375,0,0,1.2230400000000001
0.47707218598225154,0,0,1.2234370483398436,0,0,0.84084
0.48019080798258074,0,0,1.3024457031249999,0,0,0.7644
0.4833047069841996,0,0,1.3311761230468748,0,0,0.22932
0.48641860598581843,0,0,1.180341418457031,0,0,0.45864
0.48958281899103895,0,0,1.3479355346679687,0,0,0.7644
0.4928827339899726,0,0,1.3862427612304686,0,0,0.7644
0.4960709649894852,0,0,1.4245499877929686,0,0,0.91728
0.4992349940002896,0,0,1.2042834350585936,0,0,0.84084
0.5023391889990307,0,0,1.2665326782226562,0,0,0.68796
0.5148890249838587,0,0,1.2880804931640624,0,0,1.07016
0.5182067179994192,0,0,1.2713210815429687,0,0,1.07016
0.5213348020042758,0,0,1.2928688964843749,0,0,0.68796
0.5244364599930122,0,0,1.3072341064453123,0,0,0.53508
0.5276930799882393,0,0,1.3670891479492187,0,0,0.53508
0.5306176109879743,0,0,1.3766659545898436,0,0,1.45236
0.5335101249802392,0,0,1.4628572143554686,0,0,0.91728
0.5364084899774753,0,0,1.3670891479492187,0,0,0.6115200000000001
0.5392021159932483,0,0,1.1420341918945311,0,0,0.68796
0.5419856679800432,0,0,1.3431471313476562,0,0,0.30576000000000003
0.5447702939854935,0,0,1.2785036865234374,0,0,0.53508
0.547563161002472,0,0,1.1372457885742187,0,0,0.68796
0.5503461759944912,0,0,1.3144167114257812,0,0,0.3822
0.5531505429826211,0,0,1.4437036010742186,0,0,0.53508
0.5559529649908654,0,0,1.3383587280273437,0,0,0.99372
0.5587503499991726,0,0,1.2856862915039062,0,0,0.91728
0.5615513089869637,0,0,1.3072341064453123,0,0,0.68796
0.5643769720045384,0,0,1.4101847778320311,0,0,0.84084
0.5671742279955652,0,0,1.2785036865234374,0,0,0.7644
0.5699729829793796,0,0,1.1037269653320312,0,0,0.53508
0.5727610719914082,0,0,1.3479355346679687,0,0,0.68796
0.5756577889842447,0,0,1.16837041015625,0,0,0.68796
0.5784627120010555,0,0,1.2856862915039062,0,0,0.45864
0.5812600229983218,0,0,1.2665326782226562,0,0,0.53508
0.5840590930019971,0,0,1.448492004394531,0,0,0.3822
0.5868713489908259,0,0,1.3934253662109375,0,0,0.68796
0.5896811599959619,0,0,1.3168109130859373,0,0,-9.24924
0.5927835589973256,0,0,1.1731588134765625,0,0,0.7644
0.5958761810034048,0,0,1.3575123413085937,0,0,0.7644
0.5986722509842366,0,0,1.1827356201171875,0,0,0.45864
0.6014688769937493,0,0,1.2808978881835937,0,0,0.6115200000000001
0.6043239839782473,0,0,1.3239935180664062,0,0,0.53508
0.6071232759859413,0,0,1.5346832641601562,0,0,0.53508
0.6099205499922391,0,0,1.2808978881835937,0,0,0.6115200000000001
0.6127184729848523,0,0,1.0749965454101562,0,0,0.91728
0.6155456540000159,0,0,1.5035586425781249,0,0,1.2994800000000002
0.6194848559971433,0,0,1.2665326782226562,0,0,0.7644
0.6223132220038678,0,0,1.369483349609375,0,0,1.2230400000000001
0.6251302739838138,0,0,1.4437036010742186,0,0,0.99372
0.6279675840050913,0,0,1.4030021728515625,0,0,0.45864
0.6307669319794513,0,0,1.120486376953125,0,0,0.84084
0.6335679290059488,0,0,1.369483349609375,0,0,0.7644
0.6363658320042305,0,0,1.3479355346679687,0,0,0.3822
0.6391612919978797,0,0,1.2330138549804688,0,0,0.84084
0.6419588619901333,0,0,1.2306196533203124,0,0,0.84084
0.6447557100036647,0,0,1.2282254516601563,0,0,0.6115200000000001
0.6475822619977407,0,0,1.3838485595703125,0,0,0.91728
0.6504817380046006,0,0,1.3239935180664062,0,0,0.91728
0.6537878749950323,0,0,1.2042834350585936,0,0,0.22932
0.6566749629855622,0,0,1.3742717529296875,0,0,0.53508
0.6594750699878205,0,0,1.1444283935546875,0,0,0.45864
0.6622747149958741,0,0,1.22583125,0,0,0.6115200000000001
0.6651423769944813,0,0,1.2856862915039062,0,0,0.91728
0.668642121978337,0,0,1.5298948608398437,0,0,0.30576000000000003
0.6714553959900513,0,0,1.2018892333984375,0,0,0.53508
0.674251299991738,0,0,1.3072341064453123,0,0,0.30576000000000003
0.6770710370037705,0,0,1.2928688964843749,0,0,0.68796
0.680310397001449,0,0,1.180341418457031,0,0,0.53508
0.6831465599825606,0,0,1.1133037719726562,0,0,0.68796
0.6859477779944427,0,0,1.4101847778320311,0,0,0.68796
0.6887495709815994,0,0,1.419761584472656,0,0,0.3822
0.6915488999802619,0,0,1.1755530151367186,0,0,0.7644
0.6943480820045806,0,0,1.1827356201171875,0,0,-9.09636
0.6971502819797024,0,0,1.3623007446289062,0,0,0.53508
0.6999516109935939,0,0,1.180341418457031,0,0,0.99372
0.7027480519900564,0,0,1.1180921752929687,0,0,0.53508
0.7055542339803651,0,0,1.2378022583007813,0,0,0.99372
0.7083863959996961,0,0,1.2904746948242187,0,0,0.84084
0.7111831329821143,0,0,1.2569558715820313,0,0,0.7644
0.7139838519797195,0,0,1.2330138549804688,0,0,0.7644
0.7167827739904169,0,0,1.2378022583007813,0,0,0.84084
0.7195826410024893,0,0,1.43652099609375,0,0,0.53508
0.722366025991505,0,0,1.2832920898437499,0,0,0.53508
0.725168966979254,0,0,1.3910311645507811,0,0,0.22932
0.7280649250023998,0,0,1.3431471313476562,0,0,0.91728
0.7310435480030719,0,0,1.2689268798828124,0,0,0.68796
0.7341625949775334,0,0,1.3072341064453123,0,0,0.91728
0.7372809939843137,0,0,1.4700398193359374,0,0,0.68796
0.7404044859868009,0,0,1.3000515014648437,0,0,1.2230400000000001
0.7435676619934384,0,0,1.2785036865234374,0,0,0.53508
0.7467093019804452,0,0,1.2808978881835937,0,0,1.07016
0.7498297010024544,0,0,1.4939818359375,0,0,0.6115200000000001
0.7529374699806795,0,0,1.0821791503906248,0,0,0.6115200000000001
0.7560526469897013,0,0,1.3431471313476562,0,0,0.6115200000000001
0.7591671949776355,0,0,1.2713210815429687,0,0,0.99372
0.7640113089873921,0,0,1.369483349609375,0,0,0.91728
0.767153281980427,0,0,1.419761584472656,0,0,0.99372
0.7702737549843732,0,0,1.4963760375976562,0,0,0.68796
0.7733917470031884,0,0,1.13006318359375,0,0,0.68796
0.776509293995332,0,0,1.2689268798828124,0,0,0.84084
0.779665804002434,0,0,1.2832920898437499,0,0,1.07016
0.7836070609919261,0,0,1.3311761230468748,0,0,0.3822
0.7867620530014392,0,0,1.3192051147460937,0,0,0.7644
0.7898831369820982,0,0,1.5011644409179687,0,0,0.6115200000000001
0.7930012029828504,0,0,1.35990654296875,0,0,0.91728
0.7961129169852939,0,0,1.3000515014648437,0,0,0.45864
0.7992084829893429,0,0,1.2521674682617188,0,0,0.53508
0.8023284929804504,0,0,1.218648645019531,0,0,0.6115200000000001
0.8054448920011055,0,0,1.2832920898437499,0,0,0.91728
0.8085626239771955,0,0,1.4604630126953124,0,0,0.84084
0.8116784489830025,0,0,1.4939818359375,0,0,0.91728
0.8147937000030652,0,0,1.2880804931640624,0,0,0.6115200000000001
0.817909173987573,0,0,1.4245499877929686,0,0,0.45864
0.8210559430008288,0,0,1.6831237670898436,0,0,0.53508
0.8241767860017717,0,0,1.369483349609375,0,0,0.6115200000000001
0.8273286659969017,0,0,1.426944189453125,0,0,1.07016
0.830448250984773,0,0,1.2425906616210938,0,0,0.99372
0.8335618719866034,0,0,1.2425906616210938,0,0,0.91728
0.8367872319940943,0,0,1.1827356201171875,0,0,0.22932
0.8399224829918239,0,0,1.2641384765625,0,0,0.91728
0.8433576549869031,0,0,1.2976572998046874,0,0,0.6115200000000001
0.8464812949823681,0,0,1.3048399047851562,0,0,0.6115200000000001
0.8495963609893806,0,0,1.419761584472656,0,0,0.45864
0.8527044270012993,0,0,1.1875240234375,0,0,0.84084
0.8558381219918374,0,0,1.22583125,0,0,0.6115200000000001
0.8589494100015145,0,0,1.4772224243164063,0,0,0.99372
0.8620603089802898,0,0,1.3958195678710936,0,0,0.84084
0.8651698939793278,0,0,1.2665326782226562,0,0,0.53508
0.8682763300021179,0,0,1.2425906616210938,0,0,0.68796
0.8713610440026969,0,0,1.2976572998046874,0,0,0.6115200000000001
0.8744767209864222,0,0,1.3239935180664062,0,0,1.1465999999999998
0.8775907130038831,0,0,1.3575123413085937,0,0,1.5288
0.880705649004085,0,0,2.2553379638671873,0,0,2.14032
0.8838168630027212,0,0,2.3391350219726563,0,0,1.45236
0.8869229109841399,0,0,2.674323254394531,0,0,1.07016
0.8900313279882539,0,0,1.8028338500976562,0,0,1.07016
0.8931419309810735,0,0,1.6831237670898436,0,0,1.2994800000000002
0.8962509229895659,0,0,1.3263877197265623,0,0,1.1465999999999998
0.8993562849937007,0,0,1.908178723144531,0,0,1.1465999999999998
0.9024635370005853,0,0,2.454056701660156,0,0,1.37592
0.9055717320006806,0,0,1.8243816650390623,0,0,1.07016
0.9086815390037373,0,0,1.8722656982421875,0,0,1.5288
0.9118136969918851,0,0,1.7453730102539062,0,0,1.07016
0.9149211149779148,0,0,1.5753846923828123,0,0,1.60524
0.9180302729946561,0,0,2.059013427734375,0,0,0.6115200000000001
0.9211381539935246,0,0,1.7190367919921874,0,0,0.7644
0.9242617939889897,0,0,1.697488977050781,0,0,1.2994800000000002
0.927422248001676,0,0,2.2553379638671873,0,0,1.60524
0.9305321099818684,0,0,1.4149731811523436,0,0,1.07016
0.933642397983931,0,0,1.8195932617187498,0,0,1.75812
0.9367504080000799,0,0,1.2473790649414063,0,0,1.68168
0.939859695994528,0,0,1.9321207397460936,0,0,1.83456
0.9429650219972245,0,0,2.0925322509765625,0,0,1.68168
0.9460572359967045,0,0,2.4301146850585935,0,0,1.2230400000000001
0.9491649679839611,0,0,1.5275006591796874,0,0,1.45236
0.9522755710058846,0,0,1.5466542724609373,0,0,1.5288
0.9553794709790964,0,0,1.235408056640625,0,0,0.99372
0.9584879629837815,0,0,1.3670891479492187,0,0,1.83456
0.9615961399977095,0,0,2.205059729003906,0,0,1.83456
0.9647104280011263,0,0,1.6112977172851561,0,0,0.45864
0.9678175119915977,0,0,2.3032219970703123,0,0,1.2994800000000002
0.9709231710003223,0,0,1.9632453613281249,0,0,0.99372
0.9740312740032095,0,0,1.0342951171875,0,0,0.91728
0.9771389689994976,0,0,2.5234885498046875,0,0,2.4460800000000003
0.98024907198851,0,0,1.9225439331054686,0,0,0.7644
0.9833539899846073,0,0,1.7884686401367187,0,0,1.2230400000000001
0.9864622409804724,0,0,2.454056701660156,0,0,0.84084
0.9895708989934064,0,0,1.0342951171875,0,0,0.91728
0.9926801869878545,0,0,2.4205378784179685,0,0,1.68168
0.9958101419906598,0,0,1.5538368774414062,0,0,0.68796
0.9989161150006112,0,0,2.3343466186523436,0,0,0.53508
1.0020957909873687,0,0,1.6927005737304686,0,0,0.53508
1.0059795309789479,0,0,1.8626888916015625,0,0,1.68168
1.0092487979854923,0,0,2.2074539306640624,0,0,2.14032
1.012478361983085,0,0,1.35990654296875,0,0,0.84084
1.0160162179963663,0,0,1.43652099609375,0,0,0.91728
1.0192268749815412,0,0,1.1923124267578125,0,0,0.6115200000000001
1.0224497169838287,0,0,2.01112939453125,0,0,1.98744
1.0256600779830478,0,0,1.9416975463867185,0,0,2.4460800000000003
1.0289736969862133,0,0,1.9847931762695312,0,0,0.07644000000000001
1.0320188750047237,0,0,1.4987702392578124,0,0,-1.83456
1.034890054987045,0,0,2.233790148925781,0,0,0.3822
1.037705383991124,0,0,2.817975354003906,0,0,2.90472
1.0405104179808404,0,0,1.2138602416992186,0,0,2.14032
1.0433052470034454,0,0,1.2593500732421874,0,0,-9.32568
1.0461937799991574,0,0,2.346317626953125,0,0,2.4460800000000003
1.0491242179996334,0,0,2.5378537597656248,0,0,1.07016
1.0520046769815963,0,0,0.09337386474609374,0,0,-0.91728
1.0549284489825368,0,0,1.8698714965820311,0,0,2.36964
1.0578123699815478,0,0,2.839523168945312,0,0,3.13404
1.0607279939868022,0,0,-0.13646949462890623,0,0,-0.68796
1.0636155259853695,0,0,3.0621839233398433,0,0,2.52252
1.0665307799936272,0,0,3.3303345092773435,0,0,3.36336
1.0694136459787842,0,0,-0.6536170532226562,0,0,-1.60524
1.0722975669777952,0,0,1.1085153686523437,0,0,0.84084
1.0752681900048628,0,0,2.7820623291015623,0,0,0.7644
1.0782440729963128,0,0,-0.9265560424804687,0,0,0.0
1.0812160289788153,0,0,1.2425906616210938,0,0,0.6115200000000001
1.0841801159840543,0,0,2.712630480957031,0,0,1.07016
1.0871696649992373,0,0,-0.4644751220703125,0,0,0.15288000000000002
1.0900625859794673,0,0,2.7581203125,0,0,1.60524
1.0929392479883973,0,0,1.3024457031249999,0,0,-1.07016
1.095849871984683,0,0,0.07422025146484375,0,0,1.5288
1.0987433299887925,0,0,3.0502129150390624,0,0,1.1465999999999998
1.1018041739880573,0,0,-0.08379705810546874,0,0,-0.45864
1.1046916699851863,0,0,1.9704279663085937,0,0,1.2230400000000001
1.1076775889960118,0,0,2.6862942626953124,0,0,1.1465999999999998
1.1106154169829097,0,0,-1.0558429321289062,0,0,-0.6115200000000001
1.1134976710018236,0,0,2.0566192260742184,0,0,1.07016
1.1163616660051048,0,0,1.455674609375,0,0,0.15288000000000002
1.1193196789827198,0,0,0.4525041137695312,0,0,1.37592
1.1221648409846239,0,0,2.300827795410156,0,0,1.07016
1.1249589859799016,0,0,1.419761584472656,0,0,-0.99372
1.1277703339874279,0,0,0.70868369140625,0,0,1.37592
1.1306601440010127,0,0,2.0374656127929685,0,0,0.53508
1.1326917249825783,0,0,0.74699091796875,0,0,0.53508
1.134072446002392,0,0,0.1292868896484375,0,0,-0.91728
1.1354528889933135,0,0,0.5195417602539062,0,0,0.3822
1.1368354430014733,0,0,2.0638018310546875,0,0,0.22932
1.13821512600407,0,0,2.0733786376953125,0,0,1.75812
1.139596253982745,0,0,2.0877438476562498,0,0,1.911
1.140975845977664,0,0,1.4867992309570313,0,0,1.75812
1.1423548999882769,0,0,-0.21787235107421873,0,0,-0.6115200000000001
1.1437382129952312,0,0,0.4955997436523437,0,0,-0.3822
1.14511885898537,0,0,1.8938135131835936,0,0,0.53508
1.1464988209772855,0,0,3.2513258544921873,0,0,1.07016
1.1478795970033389,0,0,2.6719290527343746,0,0,1.2230400000000001
1.1492595769814216,0,0,1.7094599853515624,0,0,1.68168
1.1506390379799996,0,0,-0.8690952026367187,0,0,-0.45864
1.1520209629961755,0,0,-0.43574470214843747,0,0,-0.53508
1.1534013869822957,0,0,1.37906015625,0,0,0.91728
1.1547806449816562,0,0,2.272097375488281,0,0,1.2230400000000001
1.156168699002592,0,0,2.1356278808593747,0,0,1.45236
1.1575561600038782,0,0,1.0797849487304687,0,0,1.75812
1.1589423439872917,0,0,0.35194764404296874,0,0,1.1465999999999998
1.160329248989001,0,0,1.5275006591796874,0,0,0.45864
1.161716284987051,0,0,1.7405846069335937,0,0,0.99372
1.1631021719949786,0,0,2.020706201171875,0,0,1.2230400000000001
1.1644885409914423,0,0,1.8267758666992187,0,0,0.0
1.1658746500033885,0,0,1.3646949462890625,0,0,0.30576000000000003
1.167260999995051,0,0,0.9169792358398436,0,0,20
1.1686457759933546,0,0,1.5107412475585937,0,0,0.30576000000000003
1.1700559039891232,0,0,1.4173673828125,0,0,0.7644
1.1714577729871962,0,0,1.0773907470703123,0,0,1.5288
1.1728464379848447,0,0,0.584185205078125,0,0,0.7644
1.1742348989937454,0,0,-0.13407529296874998,0,0,-1.5288
1.1756266379961744,0,0,0.7110778930664062,0,0,0.7644
1.1770147289789747,0,0,2.090138049316406,0,0,1.37592
1.1784022089850623,0,0,2.446874096679687,0,0,2.2931999999999997
1.179790263005998,0,0,2.128445275878906,0,0,2.06388
1.1811766129976604,0,0,1.5035586425781249,0,0,2.06388
1.1825656479923055,0,0,-0.12210428466796874,0,0,-0.6115200000000001
1.1839540909859352,0,0,0.5147533569335937,0,0,0.3822
1.1853406819864176,0,0,2.27927998046875,0,0,1.45236
1.1867273099778686,0,0,2.47081611328125,0,0,0.99372
1.1881146419909783,0,0,1.8531120849609375,0,0,0.68796
1.1895029729930684,0,0,0.5003881469726562,0,0,0.7644
1.1908895089873113,0,0,-0.22026655273437498,0,0,-0.6115200000000001
1.1922782659821678,0,0,1.5179238525390624,0,0,9.47856
1.1936648940027226,0,0,1.2761094848632812,0,0,1.07016
1.195051243994385,0,0,1.6927005737304686,0,0,0.7644
1.196439149993239,0,0,0.9241618408203125,0,0,0.53508
1.197825223003747,0,0,0.9361328491210937,0,0,0.6115200000000001
1.1992120170034468,0,0,1.1851298217773436,0,0,0.6115200000000001
1.2005991640035063,0,0,2.442085693359375,0,0,1.68168
1.2019854959798977,0,0,2.592920397949219,0,0,2.6754
1.2033721240004525,0,0,1.3263877197265623,0,0,1.2230400000000001
1.2047597889904864,0,0,0.8834604125976562,0,0,-0.22932
1.2061466019949876,0,0,0.5746083984375,0,0,-1.1465999999999998
1.207534007000504,0,0,1.5705962890624998,0,0,1.07016
1.2089211719867308,0,0,2.6216508178710938,0,0,1.83456
1.2103078560030553,0,0,2.094926452636719,0,0,1.75812
1.2116954649973195,0,0,0.9074024291992187,0,0,0.53508
1.2130824819905683,0,0,0.30406361083984373,0,0,0.84084
1.2144695360038895,0,0,-0.3327940307617187,0,0,-1.2230400000000001
1.215858274983475,0,0,0.9888052856445312,0,0,0.91728
1.2172447179909796,0,0,2.901772412109375,0,0,1.68168
1.218631308991462,0,0,3.057395520019531,0,0,1.45236
1.2200181959779002,0,0,2.0877438476562498,0,0,0.84084
1.2214047129964456,0,0,0.3064578125,0,0,0.91728
1.2227914340037387,0,0,-0.6679822631835937,0,0,-0.68796
1.2244926679995842,0,0,1.5275006591796874,0,0,0.22932
1.225893333001295,0,0,2.138022082519531,0,0,1.60524
1.2272737759922165,0,0,1.956062756347656,0,0,1.68168
1.2286561630025972,0,0,1.3359645263671873,0,0,1.83456
1.2300361249945126,0,0,0.40462008056640625,0,0,-0.7644
1.231415382004343,0,0,0.40940848388671874,0,0,0.91728
1.2327958989772014,0,0,1.7693150268554687,0,0,1.45236
1.2341756759851705,0,0,2.710236279296875,0,0,1.1465999999999998
1.235571544006234,0,0,1.9608511596679685,0,0,0.22932
1.2369510610005818,0,0,1.3215993164062498,0,0,0.3822
1.2383299490029458,0,0,0.258573779296875,0,0,-0.91728
1.2397159840038512,0,0,1.2617442749023438,0,0,1.07016
1.2411034079850651,0,0,2.3415292236328122,0,0,2.4460800000000003
1.2424903700011782,0,0,2.0470424194335934,0,0,1.83456
1.2438788859872147,0,0,0.9169792358398436,0,0,0.53508
1.2452647739846725,0,0,-0.11013327636718749,0,0,-0.45864
1.2466536239953712,0,0,-0.07422025146484375,0,0,-1.07016
1.2480549549800344,0,0,1.3958195678710936,0,0,0.91728
1.2494420089933556,0,0,3.210624426269531,0,0,2.75184
1.2508291739795823,0,0,2.8419173706054686,0,0,2.4460800000000003
1.2522164130059537,0,0,0.30406361083984373,0,0,0.84084
1.2536033929791301,0,0,-0.6584054565429687,0,0,-0.7644
1.2549915949930437,0,0,-1.2689268798828124,0,0,-0.6115200000000001
1.2563751859997865,0,0,2.3774422485351563,0,0,0.07644000000000001
1.2577543699881062,0,0,2.9855694702148434,0,0,1.98744
1.2591337570047472,0,0,2.5809493896484375,0,0,2.14032
1.2605230329791084,0,0,1.2330138549804688,0,0,1.1465999999999998
1.2619118650036398,0,0,-0.13168109130859373,0,0,-0.68796
1.2633571029873565,0,0,-0.22505495605468748,0,0,0.0
1.264847321988782,0,0,1.5107412475585937,0,0,0.6115200000000001
1.2662373759958427,0,0,3.459621398925781,0,0,1.37592
1.2676293379918206,0,0,2.365471240234375,0,0,1.2994800000000002
1.269016095000552,0,0,1.6041151123046875,0,0,0.99372
1.270402722992003,0,0,-0.9935936889648437,0,0,-0.7644
1.2717920549912378,0,0,0.00718260498046875,0,0,0.0
1.273177348979516,0,0,2.221819140625,0,0,1.83456
1.2745639219938312,0,0,2.863465185546875,0,0,1.2994800000000002
1.2759517719969153,0,0,1.9943699829101562,0,0,1.45236
1.2773380849976093,0,0,0.38786066894531246,0,0,0.22932
1.2787243799830321,0,0,-0.5817910034179687,0,0,-0.3822
1.2801146369893104,0,0,1.8722656982421875,0,0,0.7644
1.2815012469945941,0,0,2.6240450195312497,0,0,2.4460800000000003
1.282887078996282,0,0,2.887407202148437,0,0,1.45236
1.284273391996976,0,0,1.2282254516601563,0,0,0.3822
1.2856594269978814,0,0,0.26815058593749996,0,0,-9.32568
1.28704625897808,0,0,-0.7781155395507812,0,0,0.30576000000000003
1.2884337389841676,0,0,1.8722656982421875,0,0,0.45864
1.2898200329800602,0,0,2.8993782104492185,0,0,2.14032
1.2912060689995997,0,0,2.29843359375,0,0,1.83456
1.2925919929984957,0,0,1.3646949462890625,0,0,0.7644
1.2939783429901581,0,0,-0.35673604736328124,0,0,-0.7644
1.2953655819874257,0,0,-0.8164227661132812,0,0,-0.45864
1.29675343298004,0,0,1.3479355346679687,0,0,0.30576000000000003
1.2981402459845413,0,0,3.6535517333984373,0,0,1.45236
1.299526966002304,0,0,3.1483751831054687,0,0,1.37592
1.3009132979786955,0,0,2.4253262817382812,0,0,2.36964
1.3022995560022537,0,0,-1.2737152832031249,0,0,-0.30576000000000003
1.3036871649965178,0,0,-1.1611878051757811,0,0,0.22932
1.305083218991058,0,0,1.7884686401367187,0,0,0.45864
1.3064723279967438,0,0,3.318363500976562,0,0,0.91728
1.3078603640024085,0,0,3.1699229980468746,0,0,1.37592
1.30924504698487,0,0,1.419761584472656,0,0,1.5288
1.3106315640034154,0,0,-0.12449848632812499,0,0,9.555
1.3120190439803991,0,0,-0.19871873779296872,0,0,0.0
1.313404949993128,0,0,1.4101847778320311,0,0,1.45236
1.3147913370048627,0,0,2.1691467041015624,0,0,0.15288000000000002
1.316184372000862,0,0,1.7956512451171873,0,0,1.911
1.3175705369794741,0,0,0.7015010864257812,0,0,0.53508
1.318957479990786,0,0,-0.27293898925781246,0,0,0.45864
1.3203443669772241,0,0,1.7717092285156248,0,0,0.53508
1.321730366005795,0,0,2.205059729003906,0,0,1.5288
1.3231161419826094,0,0,1.956062756347656,0,0,1.37592
1.324502825998934,0,0,1.6998831787109374,0,0,1.2230400000000001
1.325889304978773,0,0,0.5410895751953124,0,0,-9.24924
1.3272760630061384,0,0,0.2561795776367187,0,0,-0.30576000000000003
1.3286631719965953,0,0,1.7501614135742187,0,0,0.53508
1.3300498189928476,0,0,2.829946362304687,0,0,1.2230400000000001
1.3314357250055764,0,0,2.1164742675781247,0,0,1.37592
1.332822000986198,0,0,1.7764976318359373,0,0,1.60524
1.3342079069989268,0,0,-0.8379705810546875,0,0,-0.45864
1.3355962749919854,0,0,-0.24181436767578124,0,0,9.172799999999999
1.3369839399820194,0,0,1.1923124267578125,0,0,1.1465999999999998
1.3383698829857167,0,0,2.9664158569335934,0,0,0.91728
1.3397567700012587,0,0,2.6001030029296874,0,0,2.06388
1.3411422130011488,0,0,1.22583125,0,0,2.2167600000000003
1.3425281189847738,0,0,-0.36631285400390623,0,0,0.07644000000000001
1.3439155619998928,0,0,-0.7493851196289062,0,0,-0.3822
1.3453020049782936,0,0,1.5275006591796874,0,0,0.0
1.3466881699860096,0,0,2.729389892578125,0,0,0.7644
1.3480740200029686,0,0,3.0238766967773434,0,0,1.07016
1.349462110985769,0,0,1.659181750488281,0,0,2.2167600000000003
1.3508480169984978,0,0,0.16759411621093748,0,0,0.0
1.3522341259813402,0,0,0.023942016601562498,0,0,-0.45864
1.3536209209996741,0,0,0.6512228515624999,0,0,0.22932
1.3550066409807187,0,0,1.8076222534179687,0,0,0.7644
1.3563919549924321,0,0,1.9943699829101562,0,0,0.84084
1.3577777309983503,0,0,1.5107412475585937,0,0,0.6115200000000001
1.359164024994243,0,0,0.5291185668945312,0,0,1.07016
1.3605500609846786,0,0,1.8555062866210936,0,0,1.07016
1.3619355589908082,0,0,2.4756045166015626,0,0,1.75812
1.363321205979446,0,0,1.4700398193359374,0,0,1.83456
1.3647078149951994,0,0,1.0486603271484374,0,0,0.6115200000000001
1.366093535994878,0,0,-0.0383072265625,0,0,-0.53508
1.3674803489993792,0,0,0.37828386230468747,0,0,0.15288000000000002
1.368866495002294,0,0,2.104503259277344,0,0,1.2230400000000001
1.3702524380059913,0,0,2.806004345703125,0,0,1.45236
1.3716389919864014,0,0,2.003946789550781,0,0,2.06388
1.3730240279983263,0,0,-0.09816226806640624,0,0,1.1465999999999998
1.3744105999940075,0,0,-0.7757213378906249,0,0,-1.2230400000000001
1.375803412985988,0,0,-0.34237083740234375,0,0,-0.22932
1.3771907819900662,0,0,2.2026655273437497,0,0,0.99372
1.3785808729880955,0,0,2.887407202148437,0,0,1.2994800000000002
1.3799692970060278,0,0,1.848323681640625,0,0,1.83456
1.38135386898648,0,0,1.4604630126953124,0,0,2.14032
1.3827396089909598,0,0,0.45968671875,0,0,-0.30576000000000003
1.3841261619818397,0,0,0.93852705078125,0,0,0.0
1.3855118089995813,0,0,1.5945383056640625,0,0,1.07016
1.3868978069804143,0,0,2.422932080078125,0,0,1.37592
1.388284343003761,0,0,1.6543933471679686,0,0,0.45864
1.3896703780046664,0,0,0.8403647827148437,0,0,0.45864
1.3910563020035625,0,0,0.49799394531249996,0,0,-0.15288000000000002
1.3924421159899794,0,0,1.5251064575195312,0,0,0.7644
1.394315180979902,0,0,2.0302830078125,0,0,1.1465999999999998
1.3957104760047514,0,0,1.2761094848632812,0,0,1.2994800000000002
1.397096917993622,0,0,0.7709329345703124,0,0,0.99372
1.398483712982852,0,0,1.0199299072265624,0,0,-0.68796
1.399871470988728,0,0,1.2928688964843749,0,0,0.3822
1.4012558579852339,0,0,1.9823989746093749,0,0,1.60524
1.4026405229815282,0,0,1.7836802368164062,0,0,0.91728
1.4040376879856922,0,0,0.8044517578125,0,0,0.30576000000000003
1.4054243529972155,0,0,0.40222587890625,0,0,0.68796
1.406815258989809,0,0,0.5003881469726562,0,0,-0.45864
1.4082025529933162,0,0,2.1212626708984375,0,0,0.91728
1.409588847978739,0,0,2.5163059448242184,0,0,2.2167600000000003
1.410974697995698,0,0,1.6232687255859375,0,0,1.83456
1.4123608999943826,0,0,0.8283937744140625,0,0,0.53508
1.4137465099920519,0,0,-0.2154781494140625,0,0,0.0
1.4151338599913288,0,0,0.21787235107421873,0,0,0.0
1.416520283994032,0,0,2.1883003173828124,0,0,0.53508
1.4179445779882371,0,0,3.6631285400390623,0,0,2.14032
1.419338317005895,0,0,2.887407202148437,0,0,2.4460800000000003
1.4207262409909163,0,0,1.7717092285156248,0,0,1.1465999999999998
1.4221123140014242,0,0,-1.0486603271484374,0,0,-1.07016
1.4235211820050608,0,0,-0.9169792358398436,0,0,9.555
1.425225638988195,0,0,2.4013842651367185,0,0,0.68796
1.4266064889961854,0,0,3.2130186279296873,0,0,0.84084
1.4279881730035413,0,0,1.4820108276367188,0,0,1.2994800000000002
1.4293679120019078,0,0,0.4285620971679687,0,0,0.99372
1.430747613980202,0,0,-0.22505495605468748,0,0,0.0
1.4321313349937554,0,0,1.5346832641601562,0,0,0.45864
1.4335104450001381,0,0,2.061407629394531,0,0,1.68168
1.434890368982451,0,0,2.0542250244140625,0,0,1.1465999999999998
1.4362708299886435,0,0,1.4437036010742186,0,0,0.6115200000000001
1.4376500319922343,0,0,0.6823474731445313,0,0,0.30576000000000003
1.4390292530006263,0,0,0.5626373901367188,0,0,-0.45864
1.4404171769856475,0,0,2.5378537597656248,0,0,1.1465999999999998
1.4418051019893028,0,0,2.7629087158203123,0,0,2.06388
1.4431916189787444,0,0,1.7381904052734374,0,0,1.83456
1.4445787470031064,0,0,0.7062894897460937,0,0,0.22932
1.445968133979477,0,0,-1.005564697265625,0,0,-1.2230400000000001
1.4473561139893718,0,0,0.028730419921875,0,0,-0.30576000000000003
1.4487433529866394,0,0,2.243366955566406,0,0,0.99372
1.4501326470053755,0,0,3.2632968627929686,0,0,1.60524
1.451520275004441,0,0,1.8698714965820311,0,0,2.2167600000000003
1.452907773986226,0,0,-0.22266075439453123,0,0,0.91728
1.4542960499820765,0,0,-1.1276689819335937,0,0,-1.45236
1.4556849179789424,0,0,-0.3399766357421875,0,0,0.07644000000000001
1.4570724350051023,0,0,3.2632968627929686,0,0,1.60524
1.4584597109933384,0,0,3.5913024902343746,0,0,1.68168
1.4598476910032332,0,0,1.8028338500976562,0,0,1.83456
1.4612344119814225,0,0,0.24660277099609373,0,0,1.37592
1.462621668993961,0,0,-0.9888052856445312,0,0,-1.911
1.46401051999419,0,0,1.47482822265625,0,0,-0.30576000000000003
1.4653973329986911,0,0,2.868253588867187,0,0,1.98744
1.4667845160001889,0,0,3.296815686035156,0,0,1.75812
1.4681714409962296,0,0,1.5897499023437498,0,0,1.07016
1.4695583459979389,0,0,0.16519991455078123,0,0,1.37592
1.4709452340030111,0,0,-0.7565677246093749,0,0,-0.15288000000000002
1.472333212994272,0,0,1.0223241088867188,0,0,0.0
1.473719692992745,0,0,2.50912333984375,0,0,2.2931999999999997
1.475106487981975,0,0,2.760514514160156,0,0,2.2931999999999997
1.476494319998892,0,0,2.1260510742187497,0,0,1.75812
1.4778810959833208,0,0,-0.4429273071289062,0,0,0.45864
1.4792688159795944,0,0,-0.8068459594726562,0,0,0.0
1.4806672220001929,0,0,0.9217676391601562,0,0,0.30576000000000003
1.4820549429859966,0,0,3.1555577880859373,0,0,0.99372
1.4834422369895037,0,0,2.808398547363281,0,0,1.60524
1.4848298839933705,0,0,1.0103531005859374,0,0,0.84084
1.4862165859958623,0,0,-0.3495534423828125,0,0,-1.2230400000000001
1.4876192130031995,0,0,-0.7134720947265625,0,0,0.53508
1.4890071749978233,0,0,1.7836802368164062,0,0,1.2994800000000002
1.4922271459945478,0,0,1.9608511596679685,0,0,1.07016
1.4936872359830886,0,0,0.8738836059570312,0,0,0.30576000000000003
1.4950870309839956,0,0,-1.1947066284179686,0,0,-1.2230400000000001
1.4964856219885405,0,0,0.6344634399414062,0,0,0.0
1.4978738049976528,0,0,2.93050283203125,0,0,1.2994800000000002
1.4992609889886808,0,0,2.825157958984375,0,0,2.2167600000000003
1.5006610050040763,0,0,2.5426421630859375,0,0,20
1.50204848498106,0,0,-0.40940848388671874,0,0,-9.784320000000001
1.5034362429869361,0,0,-1.2378022583007813,0,0,-0.15288000000000002
1.5048242039920297,0,0,2.4492682983398435,0,0,0.0
1.506211036001332,0,0,4.053383410644531,0,0,1.60524
1.5076000900007784,0,0,3.414131567382812,0,0,2.2931999999999997
1.5089873840042856,0,0,0.8738836059570312,0,0,2.14032
1.510373494005762,0,0,-0.82360537109375,0,0,-0.91728
1.5117607139982283,0,0,-0.15562310791015624,0,0,0.0
1.5142563080007676,0,0,2.501940734863281,0,0,0.45864
1.5156638239859603,0,0,2.6719290527343746,0,0,1.83456
1.5170605999883264,0,0,2.023100402832031,0,0,2.2931999999999997
1.5184530619881116,0,0,0.36152445068359373,0,0,0.0
1.5198402270034421,0,0,0.27293898925781246,0,0,0.7644
1.5212275579979178,0,0,1.8076222534179687,0,0,1.37592
1.5226146309869364,0,0,2.798821740722656,0,0,1.1465999999999998
1.5240050549909938,0,0,2.645592834472656,0,0,1.45236
1.5254028310009744,0,0,1.6136919189453125,0,0,1.07016
1.5267910139809828,0,0,-0.6943184814453125,0,0,-0.91728
1.528180697991047,0,0,0.5817910034179687,0,0,-0.53508
1.5295680300041568,0,0,1.675941162109375,0,0,0.6115200000000001
1.5309547319775447,0,0,2.224213342285156,0,0,1.37592
1.5323427109979093,0,0,2.142810485839844,0,0,0.6115200000000001
1.5337291909963824,0,0,-0.16759411621093748,0,0,1.2230400000000001
1.5351163379964419,0,0,-0.8044517578125,0,0,0.30576000000000003
1.536503631999949,0,0,0.7445967163085937,0,0,0.68796
1.5378899829811417,0,0,2.770091320800781,0,0,1.45236
1.5392766110016964,0,0,2.70065947265625,0,0,1.37592
1.540663608990144,0,0,2.176329309082031,0,0,1.83456
1.5420500149775762,0,0,0.1292868896484375,0,0,-0.22932
1.5434573649836238,0,0,-0.852335791015625,0,0,0.22932
1.5448452889977489,0,0,2.0350714111328125,0,0,0.99372
1.546231621003244,0,0,2.8706477905273435,0,0,0.99372
1.5476381740008947,0,0,2.4660277099609376,0,0,1.45236
1.549025154003175,0,0,0.9241618408203125,0,0,1.1465999999999998
1.5504111149930395,0,0,-0.2920926025390625,0,0,-0.99372
1.5517993549874518,0,0,0.4381389038085937,0,0,-0.53508
1.5531856309971772,0,0,1.5466542724609373,0,0,0.53508
1.5545718329958618,0,0,2.8898014038085935,0,0,1.2230400000000001
1.5559586639865302,0,0,2.6599580444335937,0,0,1.98744
1.55734440399101,0,0,2.2290017456054687,0,0,3.21048
1.5587308829999529,0,0,-0.6560112548828124,0,0,0.30576000000000003
1.5601181599777192,0,0,-0.011971008300781249,0,0,-0.22932
1.5615052869834471,0,0,1.0295067138671874,0,0,0.15288000000000002
1.5628915269917343,0,0,2.4133552734375,0,0,0.07644000000000001
1.5642802660004236,0,0,2.29843359375,0,0,-9.631440000000001
1.565667096991092,0,0,0.8690952026367187,0,0,1.37592
1.5670535029785242,0,0,-0.229843359375,0,0,1.07016
1.568440686998656,0,0,0.74699091796875,0,0,0.3822
1.5698271479923278,0,0,1.1875240234375,0,0,0.84084
1.5712133689958137,0,0,1.2737152832031249,0,0,1.2994800000000002
1.572599477978656,0,0,1.2593500732421874,0,0,0.22932
1.5739857539883815,0,0,1.0630255371093749,0,0,-9.172799999999999
1.575371882005129,0,0,0.82360537109375,0,0,1.5288
1.576768806000473,0,0,2.6886884643554687,0,0,1.1465999999999998
1.5781549899838865,0,0,2.6623522460937497,0,0,1.37592
1.5795422479859553,0,0,1.898601916503906,0,0,1.1465999999999998
1.58092863499769,0,0,0.239420166015625,0,0,1.2994800000000002
1.5823151329823304,0,0,-0.35673604736328124,0,0,-2.2167600000000003
1.5837034650030546,0,0,1.6160861206054686,0,0,0.07644000000000001
1.5850891299778596,0,0,2.7581203125,0,0,1.2994800000000002
1.5864750540058594,0,0,3.038241906738281,0,0,1.2994800000000002
1.5878618669812568,0,0,1.1324573852539062,0,0,1.5288
1.5892471249972004,0,0,0.22744915771484372,0,0,1.98744
1.590633641986642,0,0,-0.4955997436523437,0,0,-0.6115200000000001
1.5920214179786853,0,0,1.5801730957031248,0,0,0.30576000000000003
1.593406582978787,0,0,2.3295582153320313,0,0,1.5288
1.5947928779933136,0,0,2.4516625,0,0,1.2230400000000001
1.5961789689899888,0,0,1.5370774658203123,0,0,1.2230400000000001
1.5975648000021465,0,0,0.7637503295898437,0,0,1.83456
1.5989541879971512,0,0,-0.06943184814453125,0,0,9.32568
1.600341444980586,0,0,1.5705962890624998,0,0,-0.22932
1.6017363139835652,0,0,2.403778466796875,0,0,1.83456
1.6031230709922966,0,0,2.080561242675781,0,0,1.45236
1.6045202179811895,0,0,1.5107412475585937,0,0,0.84084
1.6059054749784991,0,0,0.2537853759765625,0,0,-0.3822
1.607292732980568,0,0,-0.033518823242187495,0,0,0.45864
1.6086799909826368,0,0,2.0781670410156248,0,0,0.07644000000000001
1.6100665999983903,0,0,2.5761609863281247,0,0,0.99372
1.6114529499900527,0,0,1.9776105712890624,0,0,1.5288
1.6128397079883143,0,0,0.63206923828125,0,0,0.7644
1.6142261319910176,0,0,-0.1149216796875,0,0,-1.45236
1.6156322409806307,0,0,2.176329309082031,0,0,0.53508
1.6170192580029834,0,0,2.6791116577148437,0,0,1.45236
1.6184053680044599,0,0,3.0334535034179684,0,0,1.68168
1.61980253297952,0,0,1.199495031738281,0,0,1.5288
1.621189494006103,0,0,0.430956298828125,0,0,1.75812
1.6225757520005573,0,0,-0.7900865478515624,0,0,-1.911
1.6239633799996227,0,0,1.5203180541992187,0,0,-0.53508
1.625358414981747,0,0,2.786850732421875,0,0,1.911
1.6267450979794376,0,0,2.844311572265625,0,0,1.83456
1.6281317999819294,0,0,1.5562310791015623,0,0,1.60524
1.6295188359799795,0,0,0.4429273071289062,0,0,0.6115200000000001
1.6309051860007457,0,0,-1.2497732666015624,0,0,-0.45864
1.632293276983546,0,0,1.1228805786132812,0,0,0.15288000000000002
1.6336797199910507,0,0,3.6463691284179687,0,0,1.45236
1.6350658849987667,0,0,2.916137622070312,0,0,1.68168
1.63645206799265,0,0,2.013523596191406,0,0,0.6115200000000001
1.6378382520051673,0,0,-0.7924807495117187,0,0,0.45864
1.6392252130026463,0,0,-0.82360537109375,0,0,-0.3822
1.640612766990671,0,0,2.27927998046875,0,0,0.0
1.6419993400049862,0,0,3.1004911499023438,0,0,1.5288
1.6433855969808064,0,0,2.518700146484375,0,0,1.2994800000000002
1.6447722619923297,0,0,0.30406361083984373,0,0,1.07016
1.6461588349775411,0,0,-0.612915625,0,0,-1.1465999999999998
1.6475466660049278,0,0,1.47482822265625,0,0,0.91728
1.6489331279881299,0,0,2.7341782958984373,0,0,1.5288
1.650319626001874,0,0,3.385401147460937,0,0,1.98744
1.651706420991104,0,0,1.5873557006835937,0,0,1.911
1.653092419001041,0,0,0.5674257934570313,0,0,1.37592
1.6544785469886847,0,0,-1.024718310546875,0,0,-1.60524
1.655866804998368,0,0,1.369483349609375,0,0,0.22932
1.6572525069932453,0,0,2.8036101440429686,0,0,1.60524
1.658638800989138,0,0,3.0023288818359375,0,0,0.7644
1.6600373550027143,0,0,2.166752502441406,0,0,1.45236
1.6614239089831244,0,0,1.4628572143554686,0,0,1.68168
1.6628100560046732,0,0,-1.5825672973632812,0,0,-0.45864
1.6642046089982614,0,0,0.21068974609375,0,0,-1.07016
1.665591829980258,0,0,3.4931402221679684,0,0,1.37592
1.6669778649811633,0,0,3.0693665283203124,0,0,1.75812
1.6683644189906772,0,0,2.104503259277344,0,0,0.99372
1.669750639994163,0,0,-0.6248866333007812,0,0,-0.6115200000000001
1.6711376939783804,0,0,-1.2713210815429687,0,0,0.68796
1.6725252479955088,0,0,1.2904746948242187,0,0,-0.45864
1.6739117459801491,0,0,2.7365724975585937,0,0,0.53508
1.6752979479788337,0,0,2.8706477905273435,0,0,1.68168
1.6766845389793161,0,0,2.0757728393554684,0,0,1.68168
1.6780708339938428,0,0,0.32561142578124996,0,0,1.07016
1.6794569059857167,0,0,-0.6679822631835937,0,0,1.2994800000000002
1.680843885987997,0,0,1.5131354492187499,0,0,0.7644
1.6822301619977225,0,0,2.798821740722656,0,0,1.37592
1.6836290310020559,0,0,2.262520568847656,0,0,1.45236
1.6850161030015443,0,0,1.9608511596679685,0,0,1.68168
1.686403600993799,0,0,0.05027823486328125,0,0,-1.1465999999999998
1.687790155003313,0,0,0.5985504150390625,0,0,-9.40212
1.6892081719997805,0,0,1.2617442749023438,0,0,2.2931999999999997
1.6905964849865995,0,0,2.281674182128906,0,0,0.84084
1.691984353994485,0,0,2.4396914916992185,0,0,0.7644
1.6933757590013556,0,0,1.599326708984375,0,0,1.37592
1.6947627019835636,0,0,-1.2042834350585936,0,0,-0.45864
1.6961514230060857,0,0,0.06943184814453125,0,0,-0.84084
1.6975388279824983,0,0,3.308786694335937,0,0,1.5288
1.6989252159837633,0,0,3.1771056030273437,0,0,1.1465999999999998
1.7003119729924947,0,0,2.6408044311523438,0,0,1.83456
1.7017019159975462,0,0,-0.4070142822265625,0,0,1.911
1.7030890809837729,0,0,-1.8363526733398436,0,0,-0.30576000000000003
1.7044765419850592,0,0,1.3862427612304686,0,0,-1.2230400000000001
1.7058628560043871,0,0,3.0406361083984375,0,0,1.2230400000000001
1.7072604649874847,0,0,3.5769372802734374,0,0,1.2230400000000001
1.7086474079987966,0,0,1.886630908203125,0,0,1.5288
1.7100333879934624,0,0,0.028730419921875,0,0,0.45864
1.7114196449983865,0,0,-1.0749965454101562,0,0,0.22932
1.7128068470046856,0,0,1.0079588989257813,0,0,9.40212
1.7141930679790676,0,0,2.1978771240234374,0,0,0.22932
1.7155808249954134,0,0,3.1842882080078123,0,0,2.2167600000000003
1.7169673609896563,0,0,2.3343466186523436,0,0,2.06388
1.7183619889838155,0,0,0.928950244140625,0,0,-0.45864
1.7197486349905375,0,0,-0.5291185668945312,0,0,0.30576000000000003
1.7211343559902161,0,0,1.0486603271484374,0,0,0.45864
1.7226340379856993,0,0,2.952050646972656,0,0,0.22932
1.724020758003462,0,0,2.5713725830078125,0,0,1.60524
1.7254004229907878,0,0,1.85790048828125,0,0,2.2167600000000003
1.7267794770014007,0,0,-0.7350199096679687,0,0,0.0
1.7281614389794413,0,0,-0.09337386474609374,0,0,-0.53508
1.729542307992233,0,0,1.867477294921875,0,0,0.7644
1.7309211950050667,0,0,2.2361843505859373,0,0,0.3822
1.7323020079929847,0,0,2.43250888671875,0,0,1.45236
1.7340887419995852,0,0,0.4860229370117187,0,0,0.0
1.7354779619781766,0,0,0.5817910034179687,0,0,0.99372
1.736864478996722,0,0,1.5466542724609373,0,0,1.1465999999999998
1.7382491809839848,0,0,2.3965958618164063,0,0,0.7644
1.739635197998723,0,0,2.0566192260742184,0,0,1.75812
1.7410187329805922,0,0,1.9416975463867185,0,0,1.45236
1.742402323987335,0,0,-0.6248866333007812,0,0,-1.37592
1.743787674990017,0,0,-0.2059013427734375,0,0,-0.22932
1.7451637469930574,0,0,1.3527239379882812,0,0,0.53508
1.746538153005531,0,0,2.731784094238281,0,0,0.68796
1.7479211699974257,0,0,2.518700146484375,0,0,2.36964
1.7493077609979082,0,0,2.2074539306640624,0,0,2.4460800000000003
1.7506917959835846,0,0,-0.689530078125,0,0,0.0
1.752087886998197,0,0,-0.6248866333007812,0,0,-0.91728
1.7534728489990812,0,0,2.655169641113281,0,0,1.37592
1.7548566619807389,0,0,3.5027170288085934,0,0,0.6115200000000001
1.7562400680035353,0,0,3.1603461914062496,0,0,1.75812
1.7576232699793763,0,0,0.48123453369140623,0,0,1.83456
1.7590069900033996,0,0,-0.7422025146484375,0,0,0.0
1.7603861370007508,0,0,0.44053310546874996,0,0,-1.1465999999999998
1.7617610429879278,0,0,1.5035586425781249,0,0,0.45864
1.7631351339805406,0,0,2.3630770385742186,0,0,1.2994800000000002
1.764587149984436,0,0,2.398990063476562,0,0,1.75812
1.7661302390042692,0,0,1.1563994018554686,0,0,0.68796
1.7675202550017275,0,0,0.076614453125,0,0,1.37592
1.7689093649969436,0,0,1.3407529296874998,0,0,0.0
1.7702923259930685,0,0,1.70467158203125,0,0,-0.15288000000000002
1.7716782509814948,0,0,2.1787235107421874,0,0,1.5288
1.7730610449798405,0,0,1.9488801513671874,0,0,1.68168
1.7744444879936054,0,0,0.031124621582031248,0,0,-1.07016
1.7758310789940879,0,0,0.47884033203125,0,0,0.0
1.777225465979427,0,0,2.2960393920898436,0,0,1.07016
1.7786005939997267,0,0,2.4971523315429685,0,0,0.22932
1.7799778709886596,0,0,1.3168109130859373,0,0,0.7644
1.7813526279933285,0,0,-0.4477157104492187,0,0,1.68168
1.7827282380021643,0,0,-1.0414777221679687,0,0,-1.45236
1.7841581800021231,0,0,0.1867477294921875,0,0,9.631440000000001
1.7855438269907609,0,0,3.0310593017578125,0,0,1.83456
1.7869278989965096,0,0,2.8012159423828122,0,0,1.45236
1.7883124529907946,0,0,1.5442600708007812,0,0,2.06388
1.7896955809846986,0,0,0.12210428466796874,0,0,1.07016
1.7910790239984635,0,0,-0.8978256225585937,0,0,0.15288000000000002
1.7924781699839514,0,0,1.9680337646484374,0,0,-0.6115200000000001
1.7938627609983087,0,0,3.028665100097656,0,0,1.68168
1.795256833982421,0,0,2.980781066894531,0,0,2.5989600000000004
1.7966352769872174,0,0,1.93451494140625,0,0,1.5288
1.7980102569854353,0,0,0.4525041137695312,0,0,0.53508
1.7993840889830608,0,0,-0.11252747802734374,0,0,0.0
1.8007688089855947,0,0,1.5825672973632812,0,0,-0.3822
1.802153325988911,0,0,2.1883003173828124,0,0,0.0
1.8035376949992497,0,0,1.6112977172851561,0,0,1.911
1.8049206559953745,0,0,1.3287819213867187,0,0,1.1465999999999998
1.8063039879780263,0,0,-0.26815058593749996,0,0,-1.2230400000000001
1.8076890599913895,0,0,0.2657563842773437,0,0,1.1465999999999998
1.8090715589933097,0,0,1.9536685546875,0,0,0.45864
1.8104548349801917,0,0,2.2864625854492187,0,0,0.15288000000000002
1.8118362590030301,0,0,1.8339584716796873,0,0,2.06388
1.8132257580000442,0,0,1.4413093994140624,0,0,2.2931999999999997
1.814609997003572,0,0,-0.3806780639648437,0,0,-1.911
1.8160165129811503,0,0,0.7589619262695312,0,0,0.07644000000000001
1.8174010119982995,0,0,3.239354846191406,0,0,2.5989600000000004
1.8188130100024864,0,0,2.770091320800781,0,0,0.99372
1.8202361369912978,0,0,1.6065093139648436,0,0,1.07016
1.8216332469892222,0,0,-0.4908113403320312,0,0,0.84084
1.8230188750021625,0,0,-0.9217676391601562,0,0,8.4084
1.824437223986024,0,0,2.3630770385742186,0,0,-0.68796
1.8258207969774958,0,0,2.9927520751953125,0,0,2.36964
1.8271967209875584,0,0,2.935291235351562,0,0,2.06388
1.8285841459874064,0,0,1.3215993164062498,0,0,1.2994800000000002
1.829968273988925,0,0,-0.14604630126953125,0,0,0.0
1.8313536979840137,0,0,-0.18435352783203124,0,0,0.22932
1.8327381589915603,0,0,2.3032219970703123,0,0,-0.6115200000000001
1.8341218610003125,0,0,3.4428619873046875,0,0,0.68796
1.8355228589789476,0,0,2.47081611328125,0,0,2.4460800000000003
1.8369062099955045,0,0,1.8004396484374998,0,0,1.37592
1.8382896709954366,0,0,-1.5682020874023437,0,0,-0.68796
1.8396789469989017,0,0,-0.8164227661132812,0,0,-0.22932
1.8410541309858672,0,0,1.7525556152343749,0,0,0.22932
1.8424282589985523,0,0,3.4955344238281247,0,0,0.68796
1.8438118689809926,0,0,2.0063409912109376,0,0,2.4460800000000003
1.845195273985155,0,0,1.5179238525390624,0,0,2.2931999999999997
1.846578401979059,0,0,-1.2928688964843749,0,0,-2.14032
1.8479635859839618,0,0,-0.8164227661132812,0,0,0.22932
1.8493472510017455,0,0,3.284844677734375,0,0,1.2230400000000001
1.8507300269848201,0,0,3.6391865234374996,0,0,1.2230400000000001
1.8521142849931493,0,0,2.3056161987304686,0,0,20
1.8534970979962964,0,0,-0.3327940307617187,0,0,2.4460800000000003
1.8548807259940077,0,0,-1.3048399047851562,0,0,-1.2230400000000001
1.8562651689862832,0,0,1.9991583862304687,0,0,0.0
1.8576489450060762,0,0,3.708618371582031,0,0,2.36964
1.8590321840019897,0,0,4.297591979980469,0,0,1.1465999999999998
1.8604157009976916,0,0,1.8507178833007811,0,0,1.1465999999999998
1.8617988289915957,0,0,-0.7517793212890624,0,0,0.07644000000000001
1.8631834760017227,0,0,-1.7262193969726563,0,0,-1.07016
1.864567418990191,0,0,1.120486376953125,0,0,-0.99372
1.8659515469917096,0,0,3.438073583984375,0,0,1.37592
1.8673344340058975,0,0,2.9472622436523435,0,0,2.06388
1.8687178579857573,0,0,1.9871873779296874,0,0,0.99372
1.8701008200005163,0,0,-0.05746083984375,0,0,-9.01992
1.8714845769864041,0,0,-2.003946789550781,0,0,-0.45864
1.872869279992301,0,0,0.055066638183593745,0,0,-0.6115200000000001
1.8742547779984307,0,0,3.821145849609375,0,0,0.7644
1.8756434239912778,0,0,2.9855694702148434,0,0,2.4460800000000003
1.8770460889791138,0,0,2.0661960327148434,0,0,1.2230400000000001
1.878430273005506,0,0,-1.2569558715820313,0,0,-2.36964
1.8799736759974621,0,0,-2.1787235107421874,0,0,0.0
1.881384618987795,0,0,1.4915876342773438,0,0,-0.68796
1.8827861539903097,0,0,2.9544448486328125,0,0,-0.30576000000000003
1.884171059995424,0,0,1.8004396484374998,0,0,1.911
1.88555539099616,0,0,0.14125789794921875,0,0,0.0
1.8869388529856224,0,0,-1.4867992309570313,0,0,-0.53508
1.8883240919967648,0,0,-0.7517793212890624,0,0,1.1465999999999998
1.8897081269824412,0,0,1.4149731811523436,0,0,-1.1465999999999998
1.8910923289950006,0,0,2.35589443359375,0,0,2.2167600000000003
1.8924695499881636,0,0,1.714248388671875,0,0,0.91728
1.893850641004974,0,0,1.867477294921875,0,0,-0.22932
1.8952251209993847,0,0,-1.1013327636718748,0,0,3.0576
1.8966102679842152,0,0,-1.6448165405273436,0,0,6.573840000000001
1.897994191996986,0,0,0.45489831542968745,0,0,-9.47856
1.8993781530007254,0,0,3.284844677734375,0,0,1.68168
1.9007621700002346,0,0,3.9408559326171875,0,0,0.53508
1.9026518279861193,0,0,0.9409212524414062,0,0,-8.71416
1.904259581991937,0,0,-2.281674182128906,0,0,0.0
1.9056491919909604,0,0,-2.4061726684570313,0,0,-4.586399999999999
1.9070347829838283,0,0,-0.8403647827148437,0,0,0.7644
1.9084205779945478,0,0,2.6479870361328124,0,0,-0.45864
1.9098045019782148,0,0,3.0047230834960934,0,0,3.4398000000000004
1.911188518977724,0,0,0.4333505004882812,0,0,0.6115200000000001
1.912566165003227,0,0,0.10773907470703124,0,0,2.4460800000000003
1.913940885977354,0,0,-1.8531120849609375,0,0,0.15288000000000002
1.9153156249958556,0,0,-0.28012159423828126,0,0,20
1.9167014760023449,0,0,1.407790576171875,0,0,1.45236
1.9180853260040749,0,0,4.599261389160156,0,0,-9.47856
1.919469009997556,0,0,2.7724855224609373,0,0,4.50996
1.920852859999286,0,0,1.2952630981445312,0,0,-0.99372
1.9222365989990067,0,0,-0.6584054565429687,0,0,2.5989600000000004
1.9236221709870733,0,0,-1.9847931762695312,0,0,6.72672
1.9250062619976234,0,0,-1.3072341064453123,0,0,-0.6115200000000001
1.9263957609946374,0,0,1.2665326782226562,0,0,-2.2931999999999997
1.9277954629797023,0,0,2.9544448486328125,0,0,1.911
1.9291682569892146,0,0,1.388636962890625,0,0,0.99372
1.9305415889830329,0,0,0.4333505004882812,0,0,2.52252
1.931923679978354,0,0,-0.6344634399414062,0,0,0.3822
1.9333077899937052,0,0,-0.2442085693359375,0,0,0.0
1.9346916399954353,0,0,0.6009446166992187,0,0,-0.91728
1.9360758789989632,0,0,2.1164742675781247,0,0,-0.53508
1.9374594329856336,0,0,2.31758720703125,0,0,0.84084
1.938842264993582,0,0,2.1787235107421874,0,0,9.555
1.9402260780043434,0,0,0.6751648681640625,0,0,1.1465999999999998
1.9416088729922194,0,0,-0.0526724365234375,0,0,-0.30576000000000003
1.9429927970049903,0,0,-0.5458779785156249,0,0,0.0
1.9443771289952565,0,0,0.27293898925781246,0,0,-0.45864
1.94576036799117,0,0,0.9337386474609375,0,0,0.6115200000000001
1.9471435149898753,0,0,0.48123453369140623,0,0,0.15288000000000002
1.9485269019787665,0,0,0.3327940307617187,0,0,-0.15288000000000002
1.9499105849827174,0,0,0.44053310546874996,0,0,0.53508
1.951419803983299,0,0,1.0558429321289062,0,0,0.30576000000000003
1.9528075429843739,0,0,1.5682020874023437,0,0,1.2994800000000002
1.9542021160013974,0,0,1.5011644409179687,0,0,1.45236
1.95558528098627,0,0,0.9457096557617187,0,0,1.07016
1.9569690380012617,0,0,0.6679822631835937,0,0,0.22932
1.9583524629997555,0,0,0.5746083984375,0,0,-0.45864
1.9597374239820056,0,0,0.6272808349609375,0,0,-0.45864
1.9611202189989854,0,0,1.438915197753906,0,0,0.0
1.9625040139944758,0,0,1.1372457885742187,0,0,-0.91728
1.9638887339970097,0,0,0.5123591552734374,0,0,0.3822
1.96527099199011,0,0,0.47165772705078124,0,0,0.53508
1.9666540269972757,0,0,0.16280571289062498,0,0,0.0
1.9680496549990494,0,0,0.086191259765625,0,0,0.84084
1.9694236719806213,0,0,0.22505495605468748,0,0,0.0
1.9708508549956605,0,0,0.7398083129882812,0,0,-0.3822
1.9722360759915318,0,0,2.1356278808593747,0,0,0.53508
1.9736186299996916,0,0,2.2601263671875,0,0,0.3822
1.9750013320008293,0,0,1.0845733520507812,0,0,1.5288
1.9763849779847078,0,0,0.5315127685546874,0,0,0.53508
1.9777673289936502,0,0,0.15083470458984374,0,0,0.22932
1.9791495309909806,0,0,-0.33039982910156246,0,0,-1.83456
1.9805335109995212,0,0,1.0366893188476562,0,0,-0.53508
1.981918286997825,0,0,1.6519991455078125,0,0,0.6115200000000001
1.9833012479939498,0,0,0.9504980590820312,0,0,0.0
1.9846885059960186,0,0,0.1197100830078125,0,0,1.45236
1.9860703559825197,0,0,-0.2059013427734375,0,0,-0.6115200000000001
1.9874533169786446,0,0,0.181959326171875,0,0,0.22932
1.9888362789934035,0,0,0.28969840087890625,0,0,0.22932
1.9902185739774723,0,0,2.346317626953125,0,0,0.68796
1.9916016649804078,0,0,1.89620771484375,0,0,1.2994800000000002
1.9929845889855642,0,0,0.7876923461914062,0,0,0.53508
1.9943659949931316,0,0,0.20350714111328125,0,0,0.15288000000000002
1.995749252004316,0,0,0.28969840087890625,0,0,-0.53508
1.9971314180002082,0,0,0.36152445068359373,0,0,0.0
1.9985137119947467,0,0,0.4429273071289062,0,0,20
1.9998973959882278,0,0,0.9911994873046874,0,0,0.6115200000000001
2.0019664209976327,0,0,0.8451531860351562,0,0,1.2230400000000001
2.0033564750046935,0,0,0.15562310791015624,0,0,0.7644
2.0047446029784624,0,0,-0.3495534423828125,0,0,0.0
2.006133508984931,0,0,0.7206546997070312,0,0,-0.6115200000000001
2.0075238589779474,0,0,1.47482822265625,0,0,0.30576000000000003
2.008910967997508,0,0,1.5897499023437498,0,0,0.91728
2.0102977079804987,0,0,0.9337386474609375,0,0,0.84084
2.011683279997669,0,0,0.7015010864257812,0,0,0.07644000000000001
2.013084018981317,0,0,1.0941501586914062,0,0,0.30576000000000003
2.0152836719935294,0,0,1.1563994018554686,0,0,0.53508
2.0168915189860854,0,0,0.6464344482421874,0,0,0.07644000000000001
2.01828385097906,0,0,0.55545478515625,0,0,-0.3822
2.019678718992509,0,0,0.47884033203125,0,0,0.0
2.021067420981126,0,0,0.9313444458007812,0,0,0.22932
2.0224545859964564,0,0,1.0223241088867188,0,0,0.53508
2.023842787981266,0,0,1.0031704956054688,0,0,0.30576000000000003
2.0252363239997067,0,0,-0.033518823242187495,0,0,0.0
2.0266254149901215,0,0,0.03591302490234375,0,0,0.0
2.0280128569866065,0,0,0.948103857421875,0,0,0.0
2.029400392988464,0,0,1.3958195678710936,0,0,1.2994800000000002
2.030787761992542,0,0,1.4245499877929686,0,0,0.91728
2.0321717229962815,0,0,0.9074024291992187,0,0,1.1465999999999998
2.0335518879874144,0,0,0.6200982299804687,0,0,0.0
2.0349305349809583,0,0,0.35194764404296874,0,0,-0.7644
2.036319773993455,0,0,0.7230489013671875,0,0,20
2.03770745699876,0,0,1.1133037719726562,0,0,0.68796
2.0390931220026687,0,0,1.1324573852539062,0,0,0.84084
2.0404798800009303,0,0,0.93852705078125,0,0,0.0
2.0418656559777446,0,0,0.6560112548828124,0,0,0.45864
2.043251616996713,0,0,0.17956512451171874,0,0,-20
2.044637763989158,0,0,0.5363011718749999,0,0,0.0
2.046062224981142,0,0,1.0965443603515623,0,0,0.6115200000000001
2.0475281109975185,0,0,1.0821791503906248,0,0,1.07016
2.0489229789818637,0,0,0.7445967163085937,0,0,0.7644
2.050310588994762,0,0,0.6177040283203125,0,0,0.3822
2.051697143004276,0,0,0.584185205078125,0,0,0.45864
2.053083770995727,0,0,0.8810662109374999,0,0,0.15288000000000002
2.054473046999192,0,0,1.2401964599609374,0,0,0.6115200000000001
2.055859044980025,0,0,1.216254443359375,0,0,0.53508
2.0572450069885235,0,0,0.9217676391601562,0,0,0.6115200000000001
2.058630708983401,0,0,0.8667010009765624,0,0,-20
2.0600303550017998,0,0,0.8164227661132812,0,0,0.30576000000000003
2.0614166680024937,0,0,0.8188169677734375,0,0,9.24924
2.0628023890021723,0,0,0.9241618408203125,0,0,0.3822
2.0641974239842966,0,0,0.8259995727539062,0,0,0.07644000000000001
2.065583366987994,0,0,0.5793968017578125,0,0,0.22932
2.066969364997931,0,0,1.1252747802734375,0,0,0.6115200000000001
2.0683551779948175,0,0,1.2689268798828124,0,0,0.91728
2.069741213985253,0,0,1.0486603271484374,0,0,0.7644
2.0711266940052155,0,0,0.46686932373046874,0,0,20
2.07251111799269,0,0,0.7350199096679687,0,0,0.07644000000000001
2.0739046899834648,0,0,1.5897499023437498,0,0,0.07644000000000001
2.0752883550012484,0,0,1.5538368774414062,0,0,1.07016
2.0766897419816814,0,0,1.426944189453125,0,0,1.68168
2.0780778329935856,0,0,1.0007762939453124,0,0,1.37592
2.079464646987617,0,0,0.9337386474609375,0,0,0.45864
2.0808506819885224,0,0,1.158793603515625,0,0,1.07016
2.0822379769815598,0,0,1.5179238525390624,0,0,0.91728
2.0836255679896567,0,0,1.6304513305664061,0,0,1.1465999999999998
2.0850117880036123,0,0,1.6615759521484375,0,0,0.99372
2.0863976200053003,0,0,1.2785036865234374,0,0,0.45864
2.0877848219824955,0,0,1.1180921752929687,0,0,0.45864
2.089169838989619,0,0,1.0342951171875,0,0,0.15288000000000002
2.090555966977263,0,0,1.1133037719726562,0,0,0.7644
2.091943186998833,0,0,1.5897499023437498,0,0,0.91728
2.0933287410007324,0,0,1.4987702392578124,0,0,0.84084
2.094714220991591,0,0,1.39821376953125,0,0,0.68796
2.0961017569934484,0,0,1.1635820068359375,0,0,0.6115200000000001
2.097487402992556,0,0,1.0989385620117187,0,0,0.53508
2.0988734379934613,0,0,1.1540052001953125,0,0,0.99372
2.1002598259947263,0,0,1.1707646118164061,0,0,0.68796
2.101652360986918,0,0,1.3407529296874998,0,0,0.45864
2.103038432978792,0,0,1.2569558715820313,0,0,0.22932
2.104434542998206,0,0,1.3910311645507811,0,0,0.68796
2.105820448981831,0,0,1.1707646118164061,0,0,0.7644
2.1072060209990013,0,0,1.2282254516601563,0,0,1.2994800000000002
2.1085924079816323,0,0,1.180341418457031,0,0,1.07016
2.109978369990131,0,0,1.0630255371093749,0,0,0.7644
2.1113678489928134,0,0,1.1947066284179686,0,0,0.68796
2.1127548289950937,0,0,1.3359645263671873,0,0,0.84084
2.1141405679809395,0,0,1.3838485595703125,0,0,1.07016
2.1155268069996964,0,0,1.5753846923828123,0,0,0.99372
2.11691317599616,0,0,1.3742717529296875,0,0,0.7644
2.118299007997848,0,0,1.1827356201171875,0,0,0.6115200000000001
2.1196853400033433,0,0,1.1611878051757811,0,0,0.68796
2.121105466998415,0,0,1.177947216796875,0,0,0.99372
2.122546408994822,0,0,1.2330138549804688,0,0,0.45864
2.1240077579859644,0,0,1.484405029296875,0,0,0.7644
2.125463756005047,0,0,1.7932570434570312,0,0,0.84084
2.126920752984006,0,0,1.3120225097656248,0,0,0.45864
2.12836986099137,0,0,1.2617442749023438,0,0,0.53508
2.1298251370026264,0,0,1.0199299072265624,0,0,0.68796
2.131280485977186,0,0,1.0319009155273438,0,0,0.6115200000000001
2.132744297996396,0,0,1.429338391113281,0,0,0.53508
2.13422051697853,0,0,1.4149731811523436,0,0,0.91728
2.1356819219945464,0,0,1.5610194824218748,0,0,2.14032
2.1371301419858355,0,0,1.1133037719726562,0,0,1.2994800000000002
2.139181278005708,0,0,1.20667763671875,0,0,1.07016
2.1406233129964676,0,0,1.2689268798828124,0,0,0.6115200000000001
2.142007996997563,0,0,1.216254443359375,0,0,0.68796
2.143388809985481,0,0,1.2880804931640624,0,0,0.91728
2.1447714749956504,0,0,1.5346832641601562,0,0,0.91728
2.146151010005269,0,0,1.6136919189453125,0,0,0.7644
2.147623451979598,0,0,1.2856862915039062,0,0,0.91728
2.1490198019891977,0,0,1.1516109985351561,0,0,0.22932
2.150400170998182,0,0,1.1707646118164061,0,0,0.6115200000000001
2.1517812429810874,0,0,1.180341418457031,0,0,0.91728
2.153160574991489,0,0,1.455674609375,0,0,0.0
2.154539887997089,0,0,1.6831237670898436,0,0,1.1465999999999998
2.1559296829800587,0,0,1.656787548828125,0,0,1.1465999999999998
2.1573088669974823,0,0,1.2880804931640624,0,0,0.45864
2.1586880869872402,0,0,1.3742717529296875,0,0,0.6115200000000001
2.1600689929910004,0,0,1.16837041015625,0,0,0.84084
2.1614478809933644,0,0,1.3670891479492187,0,0,0.7644
2.162828989996342,0,0,1.388636962890625,0,0,0.22932
2.164208988979226,0,0,1.3431471313476562,0,0,0.15288000000000002
2.165587412979221,0,0,1.0941501586914062,0,0,0.68796
2.1669668559916317,0,0,1.2234370483398436,0,0,0.91728
2.1683473539887927,0,0,1.2306196533203124,0,0,1.60524
2.1697263709793333,0,0,1.1923124267578125,0,0,0.7644
2.171105240006,0,0,1.24498486328125,0,0,0.6115200000000001
2.172569403977832,0,0,1.216254443359375,0,0,0.53508
2.173948420997476,0,0,1.4724340209960938,0,0,0.91728
2.1753271599882282,0,0,1.2785036865234374,0,0,1.07016
2.1767117510025855,0,0,1.43652099609375,0,0,1.07016
2.1780904909828678,0,0,1.3072341064453123,0,0,0.6115200000000001
2.1794686369830742,0,0,1.254561669921875,0,0,-9.47856
2.1808502839994617,0,0,1.1875240234375,0,0,0.22932
2.182229837984778,0,0,1.2378022583007813,0,0,0.99372
2.183620613999665,0,0,1.3766659545898436,0,0,0.3822
2.184999463992426,0,0,1.388636962890625,0,0,0.53508
2.1863779629929923,0,0,1.407790576171875,0,0,0.68796
2.1877581829903647,0,0,1.2569558715820313,0,0,0.7644
2.189136533997953,0,0,1.3383587280273437,0,0,1.1465999999999998
2.1905151800019667,0,0,1.1348515869140625,0,0,1.1465999999999998
2.1919068080023862,0,0,1.1731588134765625,0,0,0.7644
2.193292769981781,0,0,1.2856862915039062,0,0,0.3822
2.1946720269916113,0,0,1.3623007446289062,0,0,0.68796
2.196055340988096,0,0,1.3814543579101561,0,0,0.53508
2.197433858003933,0,0,1.4437036010742186,0,0,0.84084
2.198812985996483,0,0,1.3192051147460937,0,0,1.07016
2.200192928983597,0,0,1.2330138549804688,0,0,0.6115200000000001
2.2015715570014436,0,0,1.2737152832031249,0,0,0.45864
2.202950092003448,0,0,1.2497732666015624,0,0,1.07016
2.2043555160053074,0,0,1.3646949462890625,0,0,0.68796
2.205733421986224,0,0,1.37906015625,0,0,0.91728
2.20711221700185,0,0,1.656787548828125,0,0,1.2230400000000001
2.2084919750050176,0,0,1.2210428466796874,0,0,0.53508
2.209870750986738,0,0,1.2593500732421874,0,0,0.3822
2.211249471991323,0,0,1.0941501586914062,0,0,1.2230400000000001
2.2126305069832597,0,0,1.2018892333984375,0,0,0.6115200000000001
2.2140089129970875,0,0,1.3359645263671873,0,0,0.30576000000000003
2.2153876340016723,0,0,1.4604630126953124,0,0,0.3822
2.216766983998241,0,0,1.6017209106445311,0,0,-9.40212
2.218146778992377,0,0,1.4053963745117186,0,0,0.45864
2.2195308700029273,0,0,1.5275006591796874,0,0,1.37592
2.2209101649932563,0,0,1.2665326782226562,0,0,1.2994800000000002
2.2222893110010773,0,0,1.22583125,0,0,0.68796
2.2236734579782933,0,0,1.2665326782226562,0,0,0.45864
2.225319433986442,0,0,1.419761584472656,0,0,0.3822
2.2267017840058543,0,0,1.3934253662109375,0,0,0.15288000000000002
2.228085134003777,0,0,1.2665326782226562,0,0,0.99372
2.229464503005147,0,0,1.158793603515625,0,0,1.2230400000000001
2.230843002005713,0,0,1.1061211669921875,0,0,0.91728
2.232223314989824,0,0,1.0917559570312498,0,0,0.30576000000000003
2.2336018689966295,0,0,1.1947066284179686,0,0,0.91728
2.234980496985372,0,0,1.3814543579101561,0,0,0.68796
2.2363734770042356,0,0,1.484405029296875,0,0,1.07016
2.23775336399558,0,0,1.3742717529296875,0,0,1.1465999999999998
2.2391349919780623,0,0,1.2737152832031249,0,0,0.53508
2.240523991000373,0,0,1.426944189453125,0,0,0.15288000000000002
2.2419114889926277,0,0,1.3168109130859373,0,0,0.91728
2.2432989869848825,0,0,1.149216796875,0,0,0.91728
2.244686300982721,0,0,1.467645617675781,0,0,0.3822
2.246074039983796,0,0,1.4317325927734375,0,0,0.6115200000000001
2.2474610380013473,0,0,1.4006079711914061,0,0,0.68796
2.2488480180036277,0,0,1.35990654296875,0,0,0.53508
2.2502437380026095,0,0,1.3479355346679687,0,0,0.91728
2.2516317369882017,0,0,1.2569558715820313,0,0,1.2230400000000001
2.2530181979818735,0,0,1.177947216796875,0,0,0.99372
2.2544054559839424,0,0,1.2952630981445312,0,0,0.6115200000000001
2.2557930649782065,0,0,1.3287819213867187,0,0,0.68796
2.257179655978689,0,0,1.2880804931640624,0,0,0.45864
2.2585668769897893,0,0,1.4053963745117186,0,0,0.68796
2.2599543200049084,0,0,1.2976572998046874,0,0,1.37592
2.26134059598553,0,0,1.120486376953125,0,0,0.7644
2.262727797991829,0,0,1.1444283935546875,0,0,0.68796
2.264110036980128,0,0,1.1372457885742187,0,0,0.91728
2.2655221829772927,0,0,1.1611878051757811,0,0,0.99372
2.266981366003165,0,0,1.235408056640625,0,0,0.84084
2.2683739379863255,0,0,1.465251416015625,0,0,0.99372
2.2697608809976373,0,0,1.2665326782226562,0,0,0.68796
2.2711476199910976,0,0,1.3192051147460937,0,0,0.6115200000000001
2.2725342479825485,0,0,1.180341418457031,0,0,0.91728
2.2739203389792237,0,0,1.139639990234375,0,0,0.84084
2.2753069479949772,0,0,1.1228805786132812,0,0,0.30576000000000003
2.276695334992837,0,0,1.20667763671875,0,0,0.3822
2.278081408003345,0,0,1.4796166259765624,0,0,0.3822
2.279468016989995,0,0,1.4700398193359374,0,0,0.45864
2.2808736820006743,0,0,1.2952630981445312,0,0,0.84084
2.282259883999359,0,0,1.218648645019531,0,0,1.1465999999999998
2.2836471969785634,0,0,1.1731588134765625,0,0,1.07016
2.285032788000535,0,0,1.2713210815429687,0,0,0.3822
2.286418767995201,0,0,1.5227122558593749,0,0,0.45864
2.287805562984431,0,0,1.4125789794921875,0,0,0.6115200000000001
2.2891910239995923,0,0,1.4101847778320311,0,0,0.84084
2.290576762985438,0,0,1.3024457031249999,0,0,1.45236
2.2919634470017627,0,0,1.1420341918945311,0,0,0.53508
2.2933496859914158,0,0,1.0869675537109373,0,0,0.68796
2.2947356840013526,0,0,1.2473790649414063,0,0,0.84084
2.2961224419996142,0,0,1.3215993164062498,0,0,0.91728
2.2975092369888443,0,0,1.5203180541992187,0,0,0.99372
2.29889521698351,0,0,1.6112977172851561,0,0,1.07016
2.3002817889791913,0,0,1.1109095703125,0,0,0.84084
2.3016675649851095,0,0,1.1156979736328125,0,0,0.3822
2.3030538040038664,0,0,1.1276689819335937,0,0,0.84084
2.304440728999907,0,0,1.0821791503906248,0,0,0.68796
2.3058267080050427,0,0,1.3263877197265623,0,0,0.30576000000000003
2.3072126699844375,0,0,1.3335703247070312,0,0,0.0
2.3086074460006785,0,0,1.5370774658203123,0,0,0.84084
2.3099938329833094,0,0,1.3623007446289062,0,0,0.30576000000000003
2.3113799979910254,0,0,1.3718775512695311,0,0,0.99372
2.312770274002105,0,0,1.2713210815429687,0,0,1.2230400000000001
2.3141567169805057,0,0,1.1707646118164061,0,0,0.91728
2.31554456698359,0,0,1.3479355346679687,0,0,0.3822
2.3169311950041447,0,0,1.4341267944335936,0,0,0.45864
2.3183175640006084,0,0,1.3144167114257812,0,0,0.7644
2.3197046729910653,0,0,1.2928688964843749,0,0,0.6115200000000001
2.3210907460015733,0,0,1.2904746948242187,0,0,1.37592
2.322477206995245,0,0,1.209071838378906,0,0,0.6115200000000001
2.3238719459914137,0,0,1.2473790649414063,0,0,0.3822
2.325258130003931,0,0,1.24498486328125,0,0,1.1465999999999998
2.3266442389867734,0,0,1.3838485595703125,0,0,0.53508
2.328036588995019,0,0,1.24498486328125,0,0,0.53508
2.329422829003306,0,0,1.6304513305664061,0,0,0.91728
2.330809234001208,0,0,1.2808978881835937,0,0,0.6115200000000001
2.332195713999681,0,0,1.2306196533203124,0,0,0.6115200000000001
2.3335822679800913,0,0,1.2042834350585936,0,0,0.6115200000000001
2.3349686739966273,0,0,1.1133037719726562,0,0,0.7644
2.3363552649971098,0,0,1.1635820068359375,0,0,0.45864
2.337741208000807,0,0,1.4125789794921875,0,0,0.3822
2.339127131999703,0,0,1.4772224243164063,0,0,0.6115200000000001
2.3405132969783153,0,0,1.3024457031249999,0,0,0.6115200000000001
2.341899183986243,0,0,1.2497732666015624,0,0,1.1465999999999998
2.3432849230011925,0,0,1.2018892333984375,0,0,0.45864
2.3446716069884133,0,0,1.1156979736328125,0,0,1.07016
2.346057438990101,0,0,1.2425906616210938,0,0,0.6115200000000001
2.347443566977745,0,0,1.4245499877929686,0,0,0.7644
2.3488302869955078,0,0,1.3958195678710936,0,0,0.53508
2.3502164889941923,0,0,1.458068811035156,0,0,0.84084
2.3516035249922425,0,0,1.2785036865234374,0,0,1.1465999999999998
2.3529904119786806,0,0,1.1180921752929687,0,0,0.6115200000000001
2.3543765030044597,0,0,1.3072341064453123,0,0,0.53508
2.3557633720047306,0,0,1.2401964599609374,0,0,0.84084
2.3571489070018288,0,0,1.3838485595703125,0,0,0.68796
2.358534664992476,0,0,1.3024457031249999,0,0,0.91728
2.359950126003241,0,0,1.5083470458984374,0,0,0.91728
2.361337309004739,0,0,1.2378022583007813,0,0,0.6115200000000001
2.362725696002599,0,0,1.158793603515625,0,0,0.53508
2.364117027987959,0,0,1.149216796875,0,0,0.53508
2.3655039519944694,0,0,1.1228805786132812,0,0,0.7644
2.366904283990152,0,0,1.24498486328125,0,0,0.22932
2.368297615001211,0,0,1.2521674682617188,0,0,0.7644
2.369684392004274,0,0,1.5538368774414062,0,0,0.6115200000000001
2.3710702229873277,0,0,1.458068811035156,0,0,0.84084
2.372457443998428,0,0,1.3311761230468748,0,0,1.2994800000000002
2.373844165005721,0,0,1.1516109985351561,0,0,1.07016
2.3752302179927938,0,0,1.149216796875,0,0,0.7644
2.376616958004888,0,0,1.2832920898437499,0,0,0.91728
2.37800341899856,0,0,1.5035586425781249,0,0,0.6115200000000001
2.379389657988213,0,0,1.608903515625,0,0,0.53508
2.3807756189780775,0,0,1.4867992309570313,0,0,0.99372
2.382161339977756,0,0,1.2713210815429687,0,0,0.84084
2.383548374986276,0,0,1.16837041015625,0,0,0.91728
2.384935299982317,0,0,1.3120225097656248,0,0,0.53508
2.3863210569834337,0,0,1.197100830078125,0,0,0.84084
2.387707796005998,0,0,1.4101847778320311,0,0,0.45864
2.38909290599986,0,0,1.2880804931640624,0,0,1.1465999999999998
2.3904784969927277,0,0,1.5107412475585937,0,0,0.84084
2.3918659769988153,0,0,1.2018892333984375,0,0,0.30576000000000003
2.3932508639991283,0,0,1.3048399047851562,0,0,0.30576000000000003
2.394636584998807,0,0,1.3215993164062498,0,0,0.6115200000000001
2.396023378998507,0,0,1.1156979736328125,0,0,0.7644
2.397408506978536,0,0,1.3742717529296875,0,0,0.0
2.398794431996066,0,0,1.3479355346679687,0,0,0.6115200000000001
2.400185373990098,0,0,1.22583125,0,0,0.22932
2.401571149996016,0,0,1.2425906616210938,0,0,0.84084
2.402956796984654,0,0,1.3335703247070312,0,0,1.1465999999999998
2.4043800169893075,0,0,1.16837041015625,0,0,1.2230400000000001
2.405771977995755,0,0,1.2018892333984375,0,0,0.84084
2.4071584949851967,0,0,1.3192051147460937,0,0,0.7644
2.408545326994499,0,0,1.426944189453125,0,0,0.6115200000000001
2.409931325004436,0,0,1.2808978881835937,0,0,0.68796
2.4113262869941536,0,0,1.3120225097656248,0,0,0.91728
2.412713025987614,0,0,1.2856862915039062,0,0,0.91728
2.4140988569997717,0,0,1.0726023437499999,0,0,0.91728
2.415484873985406,0,0,1.1324573852539062,0,0,0.45864
2.416871742985677,0,0,1.22583125,0,0,0.7644
2.418270092981402,0,0,1.2378022583007813,0,0,0.99372
2.419725663989084,0,0,1.2713210815429687,0,0,0.84084
2.4211135329969693,0,0,1.5251064575195312,0,0,0.84084
2.422500234999461,0,0,1.3407529296874998,0,0,0.53508
2.423887326003751,0,0,1.3311761230468748,0,0,0.53508
2.4252981949830428,0,0,1.1180921752929687,0,0,0.7644
2.426708636980038,0,0,1.2018892333984375,0,0,0.68796
2.428090895002242,0,0,1.3455413330078123,0,0,0.07644000000000001
2.4294704670028295,0,0,1.3239935180664062,0,0,0.3822
2.4308494470024016,0,0,1.4604630126953124,0,0,0.45864
2.4322292979923077,0,0,1.4006079711914061,0,0,0.7644
2.4336084440001287,0,0,1.2928688964843749,0,0,1.1465999999999998
2.4349870719888713,0,0,1.1468225952148436,0,0,1.2230400000000001
2.436367071000859,0,0,1.149216796875,0,0,0.91728
2.4377461799886078,0,0,1.3527239379882812,0,0,0.68796
2.439124363998417,0,0,1.3096283081054687,0,0,0.84084
2.4405131219828036,0,0,1.3479355346679687,0,0,1.07016
2.441900267993333,0,0,1.37906015625,0,0,0.91728
2.443287489004433,0,0,1.3048399047851562,0,0,1.07016
2.4446746909816284,0,0,1.1468225952148436,0,0,0.45864
2.4460618369921576,0,0,1.2401964599609374,0,0,0.30576000000000003
2.447449075989425,0,0,1.2497732666015624,0,0,0.99372
2.448835927003529,0,0,1.388636962890625,0,0,0.84084
2.450222351006232,0,0,1.467645617675781,0,0,0.91728
2.451624922978226,0,0,1.4987702392578124,0,0,1.07016
2.453012180980295,0,0,1.3551181396484375,0,0,0.68796
2.454398734989809,0,0,1.2306196533203124,0,0,0.53508
2.4558071399806067,0,0,1.2042834350585936,0,0,0.99372
2.4571936939901207,0,0,1.1947066284179686,0,0,0.45864
2.4585809699783567,0,0,1.2617442749023438,0,0,0.07644000000000001
2.4599691719922703,0,0,1.3383587280273437,0,0,0.6115200000000001
2.46135602198774,0,0,1.5634136840820312,0,0,0.7644
2.462743205978768,0,0,1.2521674682617188,0,0,0.53508
2.464130740991095,0,0,1.3527239379882812,0,0,1.45236
2.4655178689863533,0,0,1.1324573852539062,0,0,1.07016
2.466904885979602,0,0,1.3766659545898436,0,0,0.91728
2.4682918849866837,0,0,1.2808978881835937,0,0,0.68796
2.4696789199952036,0,0,1.5155296508789062,0,0,0.7644
2.4710657699906733,0,0,1.43652099609375,0,0,0.84084
2.472453102003783,0,0,1.3742717529296875,0,0,0.7644
2.473840229999041,0,0,1.3072341064453123,0,0,1.2230400000000001
2.47522700598347,0,0,1.180341418457031,0,0,0.22932
2.4766143379965797,0,0,1.2665326782226562,0,0,0.45864
2.478001724986825,0,0,1.3311761230468748,0,0,0.68796
2.479388574982295,0,0,1.3814543579101561,0,0,0.6115200000000001
2.4807758879906032,0,0,1.3311761230468748,0,0,0.84084
2.482163145992672,0,0,1.3862427612304686,0,0,0.99372
2.483575624995865,0,0,1.189918225097656,0,0,0.68796
2.4849638089945074,0,0,1.149216796875,0,0,0.3822
2.4863511409785133,0,0,1.2114660400390624,0,0,0.7644
2.487739045987837,0,0,1.1061211669921875,0,0,0.68796
2.48912552598631,0,0,1.16837041015625,0,0,-9.555
2.4905836899997666,0,0,1.37906015625,0,0,0.6115200000000001
2.492116574983811,0,0,1.4700398193359374,0,0,0.68796
2.4935748879797757,0,0,1.3144167114257812,0,0,0.30576000000000003
2.4950326069956645,0,0,1.3383587280273437,0,0,0.84084
2.4964238459942862,0,0,1.2521674682617188,0,0,0.84084
2.4978105110058095,0,0,1.216254443359375,0,0,1.07016
2.499215360992821,0,0,1.3431471313476562,0,0,0.45864
2.50060256299912,0,0,1.35990654296875,0,0,0.45864
2.501988301984966,0,0,1.4317325927734375,0,0,0.6115200000000001
2.5033803189871833,0,0,1.2497732666015624,0,0,0.84084
2.504779446986504,0,0,1.3168109130859373,0,0,1.2994800000000002
2.50616585300304,0,0,1.1156979736328125,0,0,1.07016
2.5075724060006905,0,0,1.2617442749023438,0,0,0.6115200000000001
2.5089590339921415,0,0,1.3359645263671873,0,0,-9.01992
2.510346439987188,0,0,1.3646949462890625,0,0,0.68796
2.511733623978216,0,0,1.3527239379882812,0,0,0.7644
2.5131192699773237,0,0,1.426944189453125,0,0,0.84084
2.5145057319896296,0,0,1.2761094848632812,0,0,0.99372
2.5159320069942623,0,0,1.2713210815429687,0,0,0.53508
2.5173931529861875,0,0,1.2713210815429687,0,0,0.53508
2.5187848179775756,0,0,1.2713210815429687,0,0,0.7644
2.5201815750042442,0,0,1.4149731811523436,0,0,0.53508
2.521569295990048,0,0,1.3407529296874998,0,0,0.68796
2.5229567749775015,0,0,1.5729904907226562,0,0,0.68796
2.5243441999773495,0,0,1.3120225097656248,0,0,0.68796
2.525731531000929,0,0,1.3192051147460937,0,0,0.6115200000000001
2.5271188259939663,0,0,1.1085153686523437,0,0,0.99372
2.528505823982414,0,0,1.0678139404296874,0,0,0.7644
2.5298929149867035,0,0,1.3646949462890625,0,0,0.0
2.5312805619905703,0,0,1.2785036865234374,0,0,0.3822
2.5326682269806042,0,0,1.4700398193359374,0,0,0.22932
2.5340547249943484,0,0,1.4891934326171874,0,0,0.7644
2.5354420749936253,0,0,1.2665326782226562,0,0,1.07016
2.5368292779894546,0,0,1.1276689819335937,0,0,1.2994800000000002
2.5382165719929617,0,0,1.139639990234375,0,0,0.99372
2.53961768100271,0,0,1.2497732666015624,0,0,0.91728
2.5410054579842836,0,0,1.2713210815429687,0,0,0.53508
2.5424124370038044,0,0,1.3383587280273437,0,0,0.45864
2.5438075839774683,0,0,1.4030021728515625,0,0,1.07016
2.545193581987405,0,0,1.3048399047851562,0,0,0.91728
2.546580358000938,0,0,1.2401964599609374,0,0,-9.32568
2.547969855979318,0,0,1.139639990234375,0,0,0.3822
2.549355798983015,0,0,1.2904746948242187,0,0,1.07016
2.5507428720011376,0,0,1.5131354492187499,0,0,0.53508
2.5521308519819286,0,0,1.3192051147460937,0,0,0.6115200000000001
2.553517775988439,0,0,1.6160861206054686,0,0,1.1465999999999998
2.554904958989937,0,0,1.2593500732421874,0,0,0.7644
2.556292180001037,0,0,1.16837041015625,0,0,0.53508
2.5576790669874754,0,0,1.1444283935546875,0,0,0.84084
2.559065435983939,0,0,1.0797849487304687,0,0,0.99372
2.5604529159900267,0,0,1.3311761230468748,0,0,0.3822
2.5618394509947393,0,0,1.3311761230468748,0,0,0.53508
2.5632261899881996,0,0,1.5610194824218748,0,0,0.53508
2.564613558992278,0,0,1.3910311645507811,0,0,0.91728
2.5660004829987884,0,0,1.2976572998046874,0,0,0.99372
2.5673886479926296,0,0,1.2928688964843749,0,0,1.2994800000000002
2.5687763869937044,0,0,1.1755530151367186,0,0,0.68796
2.5701630149851553,0,0,1.2976572998046874,0,0,0.84084
2.5715509209840093,0,0,1.388636962890625,0,0,0.84084
2.5729380489792675,0,0,1.350329736328125,0,0,0.30576000000000003
2.57432506600162,0,0,1.369483349609375,0,0,0.84084
2.575712416000897,0,0,1.2473790649414063,0,0,0.99372
2.5770993779879063,0,0,1.1923124267578125,0,0,0.53508
2.5784868570044637,0,0,1.2713210815429687,0,0,0.3822
2.5798746710061096,0,0,1.158793603515625,0,0,0.99372
2.581260705977911,0,0,1.3263877197265623,0,0,0.6115200000000001
2.5826479450042825,0,0,1.5035586425781249,0,0,0.91728
2.5840357769920956,0,0,1.4891934326171874,0,0,0.68796
2.5854251449927688,0,0,1.2832920898437499,0,0,0.84084
2.5868231619824655,0,0,1.2952630981445312,0,0,0.7644
2.588211105001392,0,0,1.1563994018554686,0,0,0.68796
2.5895979549968615,0,0,1.0462661254882812,0,0,0.84084
2.5909929529880174,0,0,1.2928688964843749,0,0,0.30576000000000003
2.5923797669820487,0,0,1.4245499877929686,0,0,0.3822
2.5937663019867614,0,0,1.455674609375,0,0,0.45864
2.595153244998073,0,0,1.1947066284179686,0,0,0.68796
2.5965404649905395,0,0,1.4006079711914061,0,0,1.1465999999999998
2.5979274080018513,0,0,1.3527239379882812,0,0,1.07016
2.5993148509878665,0,0,1.1324573852539062,0,0,0.7644
2.6007099419948645,0,0,1.2521674682617188,0,0,0.7644
2.602097236987902,0,0,1.3263877197265623,0,0,0.68796
2.6034845130052418,0,0,1.3838485595703125,0,0,0.7644
2.6048755109950434,0,0,1.4796166259765624,0,0,1.2230400000000001
2.6062626949860714,0,0,1.3048399047851562,0,0,1.1465999999999998
2.6076513970037922,0,0,1.149216796875,0,0,0.68796
2.6090370430028997,0,0,1.0606313354492187,0,0,0.15288000000000002
2.610424190002959,0,0,1.197100830078125,0,0,0.45864
2.6118120579922106,0,0,1.3311761230468748,0,0,-9.47856
2.61319944600109,0,0,1.2689268798828124,0,0,0.6115200000000001
2.6145929989870638,0,0,1.43652099609375,0,0,0.84084
2.615983089985093,0,0,1.2856862915039062,0,0,0.6115200000000001
2.6173691809817683,0,0,1.2617442749023438,0,0,0.53508
2.618755809002323,0,0,1.3742717529296875,0,0,0.7644
2.6201379369886126,0,0,1.180341418457031,0,0,0.91728
2.6215167139889672,0,0,1.2569558715820313,0,0,0.68796
2.6228952489909716,0,0,1.2832920898437499,0,0,0.45864
2.624280543997884,0,0,1.5753846923828123,0,0,0.6115200000000001
2.6257265039894264,0,0,1.5131354492187499,0,0,0.84084
2.627123390993802,0,0,1.2521674682617188,0,0,0.91728
2.6285054640029557,0,0,1.1516109985351561,0,0,1.1465999999999998
2.62988516598125,0,0,1.1348515869140625,0,0,0.3822
2.631278034998104,0,0,1.2952630981445312,0,0,0.3822
2.6326590520038735,0,0,1.4700398193359374,0,0,0.6115200000000001
2.6340383089846,0,0,1.4820108276367188,0,0,0.84084
2.635417437995784,0,0,1.39821376953125,0,0,0.99372
2.636796731996583,0,0,1.1348515869140625,0,0,1.2230400000000001
2.638175804982893,0,0,1.149216796875,0,0,0.6115200000000001
2.639575821987819,0,0,1.1228805786132812,0,0,0.45864
2.640962374978699,0,0,1.3120225097656248,0,0,0.68796
2.6423489289882127,0,0,1.4820108276367188,0,0,0.53508
2.643735242978437,0,0,1.5011644409179687,0,0,0.68796
2.6451212409883738,0,0,1.448492004394531,0,0,0.7644
2.646507258003112,0,0,1.177947216796875,0,0,0.7644
2.6478944970003795,0,0,1.3144167114257812,0,0,0.3822
2.649279809993459,0,0,1.2521674682617188,0,0,0.91728
2.650667512003565,0,0,1.0917559570312498,0,0,0.84084
2.652053732977947,0,0,1.388636962890625,0,0,0.22932
2.6534396199858747,0,0,1.455674609375,0,0,0.3822
2.6548304699826986,0,0,1.484405029296875,0,0,0.7644
2.656216895004036,0,0,1.2928688964843749,0,0,1.2230400000000001
2.6576027819828596,0,0,1.2641384765625,0,0,1.2230400000000001
2.6590031499799807,0,0,1.158793603515625,0,0,1.07016
2.6603897970053367,0,0,1.235408056640625,0,0,0.7644
2.661775888002012,0,0,1.3000515014648437,0,0,0.53508
2.6631620900006965,0,0,1.467645617675781,0,0,0.91728
2.664549070002977,0,0,1.3072341064453123,0,0,0.7644
2.6659351419948507,0,0,1.2856862915039062,0,0,0.91728
2.667321232991526,0,0,1.2785036865234374,0,0,1.1465999999999998
2.668707231990993,0,0,1.254561669921875,0,0,0.53508
2.670093247987097,0,0,1.2138602416992186,0,0,0.53508
2.671478838979965,0,0,1.218648645019531,0,0,0.84084
2.672864670981653,0,0,1.2713210815429687,0,0,0.68796
2.6742571689828765,0,0,1.2593500732421874,0,0,0.7644
2.6756439459859394,0,0,1.6543933471679686,0,0,0.84084
2.6770307399856392,0,0,1.3383587280273437,0,0,0.68796
2.678416812996147,0,0,1.2521674682617188,0,0,0.6115200000000001
2.679802643979201,0,0,1.1635820068359375,0,0,0.84084
2.6811879760061856,0,0,1.0821791503906248,0,0,0.7644
2.6825733259902336,0,0,1.24498486328125,0,0,0.3822
2.683963268995285,0,0,1.446097802734375,0,0,0.53508
2.6853485079773236,0,0,1.455674609375,0,0,0.3822
2.686734154995065,0,0,1.4987702392578124,0,0,0.91728
2.688120226986939,0,0,1.22583125,0,0,1.07016
2.6895062809926458,0,0,0.9409212524414062,0,0,0.99372
2.6908920939895324,0,0,1.216254443359375,0,0,0.45864
2.6922780929889996,0,0,1.2282254516601563,0,0,0.45864
2.6936642389919143,0,0,1.4317325927734375,0,0,0.7644
2.6950496819918044,0,0,1.43652099609375,0,0,0.91728
2.6964357729884796,0,0,1.47482822265625,0,0,0.91728
2.697822122980142,0,0,1.2042834350585936,0,0,1.07016
2.6992079179908615,0,0,1.235408056640625,0,0,0.30576000000000003
2.7005940829985775,0,0,1.3742717529296875,0,0,0.53508
2.701979581004707,0,0,1.2138602416992186,0,0,1.07016
2.7033652649843134,0,0,1.3479355346679687,0,0,0.7644
2.704751151992241,0,0,1.446097802734375,0,0,0.84084
2.7061368539871182,0,0,1.5969325073242187,0,0,0.45864
2.7075255009985995,0,0,1.2521674682617188,0,0,0.53508
2.708912017988041,0,0,1.1947066284179686,0,0,0.84084
2.710297552985139,0,0,1.2114660400390624,0,0,0.99372
2.7116851070022676,0,0,1.1276689819335937,0,0,1.1465999999999998
2.713070234982297,0,0,1.4173673828125,0,0,0.53508
2.7144560479791835,0,0,1.4772224243164063,0,0,0.84084
2.7158432499854825,0,0,1.5322890624999999,0,0,0.68796
2.7172372859786265,0,0,1.4053963745117186,0,0,0.68796
2.7186295430001337,0,0,1.3359645263671873,0,0,1.1465999999999998
2.7200167269911617,0,0,1.197100830078125,0,0,0.84084
2.7214019099774305,0,0,1.2018892333984375,0,0,0.30576000000000003
2.722787871985929,0,0,1.1851298217773436,0,0,0.84084
2.7241886479896493,0,0,1.455674609375,0,0,1.07016
2.7255750719923526,0,0,1.2785036865234374,0,0,0.91728
2.7269606629852206,0,0,1.3862427612304686,0,0,0.99372
2.7283468279929366,0,0,1.2497732666015624,0,0,1.07016
2.729732862993842,0,0,1.3551181396484375,0,0,0.3822
2.731118620984489,0,0,1.2330138549804688,0,0,0.68796
2.7325049710052554,0,0,1.1827356201171875,0,0,0.68796
2.7338909700047225,0,0,1.3718775512695311,0,0,0.53508
2.7352769860008266,0,0,1.3096283081054687,0,0,0.6115200000000001
2.7366630399774294,0,0,1.5298948608398437,0,0,0.7644
2.7380489829811268,0,0,1.2378022583007813,0,0,0.15288000000000002
2.7394352039846126,0,0,1.2737152832031249,0,0,0.53508
2.7408211099973414,0,0,1.1635820068359375,0,0,1.1465999999999998
2.742207089002477,0,0,1.199495031738281,0,0,0.99372
2.7435946429905016,0,0,1.3359645263671873,0,0,0.53508
2.7449808639939874,0,0,1.4101847778320311,0,0,0.68796
2.7463666399999056,0,0,1.426944189453125,0,0,0.6115200000000001
2.747752341994783,0,0,1.5777788940429687,0,0,0.84084
2.749136117985472,0,0,1.3311761230468748,0,0,1.2994800000000002
2.750544615992112,0,0,1.1516109985351561,0,0,0.84084
2.751932336977916,0,0,1.1731588134765625,0,0,0.53508
2.753318353992654,0,0,1.2114660400390624,0,0,0.7644
2.7547048519772943,0,0,1.3623007446289062,0,0,0.91728
2.756091221002862,0,0,1.3000515014648437,0,0,0.91728
2.7574770899955183,0,0,1.4628572143554686,0,0,1.07016
2.758862977003446,0,0,1.3168109130859373,0,0,0.91728
2.760249715996906,0,0,1.2138602416992186,0,0,0.3822
2.7616436219832394,0,0,1.3215993164062498,0,0,0.6115200000000001
2.763030471978709,0,0,1.2473790649414063,0,0,0.6115200000000001
2.764417266997043,0,0,1.3814543579101561,0,0,0.30576000000000003
2.765812968980754,0,0,1.22583125,0,0,0.68796
2.767271502991207,0,0,1.5227122558593749,0,0,0.91728
2.7686837229994126,0,0,1.2330138549804688,0,0,0.53508
2.7700700550049078,0,0,1.22583125,0,0,0.99372
2.771456608985318,0,0,1.1468225952148436,0,0,0.91728
2.77284344000509,0,0,1.1851298217773436,0,0,0.91728
2.774229882983491,0,0,1.2928688964843749,0,0,0.22932
2.775636399979703,0,0,1.5945383056640625,0,0,0.15288000000000002
2.777043287002016,0,0,1.5059528442382812,0,0,0.45864
2.7784905989828985,0,0,1.3910311645507811,0,0,0.7644
2.779885597003158,0,0,1.2832920898437499,0,0,1.1465999999999998
2.7812691330036614,0,0,1.1324573852539062,0,0,1.45236
2.782655891001923,0,0,1.1659762084960936,0,0,-9.40212
2.784079481003573,0,0,1.388636962890625,0,0,0.53508
2.78546688699862,0,0,1.4053963745117186,0,0,1.2230400000000001
2.7868530149862636,0,0,1.3838485595703125,0,0,0.84084
2.788239605986746,0,0,1.3934253662109375,0,0,0.84084
2.7896252519858535,0,0,1.1563994018554686,0,0,0.91728
2.7910115470003802,0,0,1.1923124267578125,0,0,0.22932
2.7923981009807903,0,0,1.180341418457031,0,0,0.3822
2.793783857981907,0,0,1.2952630981445312,0,0,0.91728
2.795169671997428,0,0,1.3455413330078123,0,0,1.07016
2.7965559659933206,0,0,1.3239935180664062,0,0,0.45864
2.7979423539945856,0,0,1.4820108276367188,0,0,0.6115200000000001
2.7993280369846616,0,0,1.2473790649414063,0,0,0.53508
2.800714479992166,0,0,1.1851298217773436,0,0,0.6115200000000001
2.802100403991062,0,0,1.218648645019531,0,0,0.99372
2.8035003840050194,0,0,1.1180921752929687,0,0,0.53508
2.8049123819801025,0,0,1.2689268798828124,0,0,0.30576000000000003
2.8063642130000517,0,0,1.5298948608398437,0,0,-9.24924
2.8077532289898954,0,0,1.6639701538085936,0,0,0.6115200000000001
2.809140227996977,0,0,1.2808978881835937,0,0,0.84084
2.8105265779886395,0,0,1.3000515014648437,0,0,1.1465999999999998
2.811922094988404,0,0,1.1061211669921875,0,0,0.91728
2.8133125559834298,0,0,1.13006318359375,0,0,0.68796
2.8146991099929437,0,0,1.448492004394531,0,0,0.68796
2.8160862009972334,0,0,1.5370774658203123,0,0,0.68796
2.817472550988896,0,0,1.3168109130859373,0,0,0.68796
2.8188585869793314,0,0,1.2976572998046874,0,0,0.99372
2.820248492003884,0,0,1.254561669921875,0,0,0.99372
2.8216353059979156,0,0,1.235408056640625,0,0,0.3822
2.823021174001042,0,0,1.369483349609375,0,0,0.45864
2.8244069869979285,0,0,1.2138602416992186,0,0,0.91728
2.82600163097959,0,0,1.3527239379882812,0,0,0.91728
2.8273845549847465,0,0,1.3024457031249999,0,0,0.84084
2.8287831459892914,0,0,1.4317325927734375,0,0,0.91728
2.8301630329806358,0,0,1.3000515014648437,0,0,0.68796
2.83154340198962,0,0,1.3646949462890625,0,0,0.45864
2.8329229009978008,0,0,1.254561669921875,0,0,0.22932
2.8343198059883434,0,0,1.0893617553710937,0,0,0.45864
2.835702267999295,0,0,1.3623007446289062,0,0,0.6115200000000001
2.83708098900388,0,0,1.35990654296875,0,0,0.53508
2.838460283004679,0,0,1.4053963745117186,0,0,0.84084
2.8398458559822757,0,0,1.2330138549804688,0,0,0.45864
2.841231575992424,0,0,1.0917559570312498,0,0,0.99372
2.8426178339868784,0,0,1.0821791503906248,0,0,1.2994800000000002
2.8440044619783293,0,0,1.1156979736328125,0,0,0.84084
2.845390107977437,0,0,1.3311761230468748,0,0,0.30576000000000003
2.846775958983926,0,0,1.3575123413085937,0,0,0.53508
2.848161623987835,0,0,1.3814543579101561,0,0,0.68796
2.849554880987853,0,0,1.448492004394531,0,0,0.91728
2.8509418799949344,0,0,1.2138602416992186,0,0,1.2994800000000002
2.8523279519868083,0,0,1.1061211669921875,0,0,0.84084
2.853713746997528,0,0,1.2138602416992186,0,0,0.45864
2.855099912005244,0,0,1.2617442749023438,0,0,0.7644
2.856485928990878,0,0,1.3192051147460937,0,0,0.45864
2.8578715749899857,0,0,1.3096283081054687,0,0,0.99372
2.8592572959896643,0,0,1.4532804077148436,0,0,0.91728
2.860644145985134,0,0,1.3407529296874998,0,0,0.53508
2.8620300149777904,0,0,1.2401964599609374,0,0,0.53508
2.8634157719789073,0,0,1.2018892333984375,0,0,0.91728
2.864801752002677,0,0,1.2521674682617188,0,0,0.45864
2.866187435982283,0,0,1.3096283081054687,0,0,0.3822
2.8675743599887937,0,0,1.4053963745117186,0,0,0.45864
2.868960858992068,0,0,1.5538368774414062,0,0,0.3822
2.8703529679914936,0,0,1.3383587280273437,0,0,0.6115200000000001
2.8717395029962063,0,0,1.350329736328125,0,0,0.91728
2.873125223995885,0,0,1.1707646118164061,0,0,1.2994800000000002
2.8745111849857494,0,0,1.0989385620117187,0,0,0.53508
2.8758977389952634,0,0,1.2282254516601563,0,0,0.53508
2.8772838859877083,0,0,1.429338391113281,0,0,0.6115200000000001
2.878670179983601,0,0,1.5275006591796874,0,0,0.7644
2.8800560679810587,0,0,1.5514426757812498,0,0,1.2230400000000001
2.881442435987992,0,0,1.3072341064453123,0,0,1.07016
2.8828285459894687,0,0,1.2234370483398436,0,0,0.84084
2.8842145259841345,0,0,1.3431471313476562,0,0,0.22932
2.885600412992062,0,0,1.3527239379882812,0,0,0.84084
2.886986392986728,0,0,1.4173673828125,0,0,0.91728
2.8883725389896426,0,0,1.2761094848632812,0,0,1.07016
2.889758629986318,0,0,1.4891934326171874,0,0,0.91728
2.891144091991009,0,0,1.209071838378906,0,0,0.53508
2.8925382010056637,0,0,1.1731588134765625,0,0,0.6115200000000001
2.893930902995635,0,0,1.3359645263671873,0,0,0.6115200000000001
2.8953166419814806,0,0,1.2018892333984375,0,0,0.6115200000000001
2.8967024739831686,0,0,1.2689268798828124,0,0,0.30576000000000003
2.8980884909979068,0,0,1.3192051147460937,0,0,0.6115200000000001
2.8994743780058343,0,0,1.5227122558593749,0,0,0.53508
2.9008666909940075,0,0,1.2976572998046874,0,0,0.3822
2.902253134001512,0,0,1.3263877197265623,0,0,1.2230400000000001
2.9036389839893673,0,0,1.180341418457031,0,0,1.2230400000000001
2.9050420190033037,0,0,1.0678139404296874,0,0,0.7644
2.9064302959886845,0,0,1.16837041015625,0,0,0.07644000000000001
2.9078173489833716,0,0,1.3958195678710936,0,0,0.7644
2.909202810988063,0,0,1.3766659545898436,0,0,0.84084
2.9105890310020186,0,0,1.3239935180664062,0,0,1.2994800000000002
2.9119754929852206,0,0,1.2761094848632812,0,0,0.91728
2.91336104698712,0,0,1.199495031738281,0,0,0.7644
2.9147471379837953,0,0,1.218648645019531,0,0,0.45864
2.9161332289804704,0,0,1.350329736328125,0,0,0.7644
2.91751878298237,0,0,1.4245499877929686,0,0,0.45864
2.9189045399834868,0,0,1.2473790649414063,0,0,0.68796
2.9202911499887705,0,0,1.3910311645507811,0,0,1.07016
2.921677184989676,0,0,1.2976572998046874,0,0,0.53508
2.9230644239869434,0,0,1.3168109130859373,0,0,0.68796
2.9244469779951032,0,0,1.0749965454101562,0,0,0.6115200000000001
2.92582642097841,0,0,1.1444283935546875,0,0,0.91728
2.9273122510057874,0,0,1.2617442749023438,0,0,0.3822
2.9286964159982745,0,0,1.2785036865234374,0,0,0.68796
2.9300753959978465,0,0,1.4724340209960938,0,0,0.68796
2.9314538019825704,0,0,1.4987702392578124,0,0,0.53508
2.932834985986119,0,0,1.180341418457031,0,0,1.1465999999999998
2.934213725005975,0,0,1.1252747802734375,0,0,0.99372
2.935597815987421,0,0,1.254561669921875,0,0,0.99372
2.9370008139812853,0,0,1.3862427612304686,0,0,0.68796
2.938388201990165,0,0,1.3646949462890625,0,0,0.3822
2.9397764219902456,0,0,1.429338391113281,0,0,0.45864
2.9411631059774663,0,0,1.5682020874023437,0,0,0.99372
2.94254971499322,0,0,1.2425906616210938,0,0,0.91728
2.943937157979235,0,0,1.158793603515625,0,0,0.7644
2.945323878986528,0,0,1.2713210815429687,0,0,0.45864
2.9467107839882374,0,0,1.189918225097656,0,0,1.07016
2.9480929679994006,0,0,1.3742717529296875,0,0,0.53508
2.949471243977314,0,0,1.3575123413085937,0,0,0.84084
2.950858056981815,0,0,1.5729904907226562,0,0,0.99372
2.9522455369879026,0,0,1.1252747802734375,0,0,0.6115200000000001
2.9536319430044387,0,0,1.149216796875,0,0,0.6115200000000001
2.955017903994303,0,0,1.218648645019531,0,0,0.3822
2.9564039029937703,0,0,1.22583125,0,0,0.7644
2.9577900120057166,0,0,1.2689268798828124,0,0,0.45864
2.9591759739851113,0,0,1.3335703247070312,0,0,0.30576000000000003
2.960561713000061,0,0,1.5801730957031248,0,0,0.3822
2.9619477670057677,0,0,1.2808978881835937,0,0,0.84084
2.963342801987892,0,0,1.2641384765625,0,0,1.45236
2.9647290220018476,0,0,1.1061211669921875,0,0,0.84084
2.9661144469864666,0,0,1.1827356201171875,0,0,0.7644
2.9675150559924077,0,0,1.3072341064453123,0,0,0.68796
2.968902498978423,0,0,1.4724340209960938,0,0,0.91728
2.97028825597954,0,0,1.3623007446289062,0,0,0.53508
2.971674106986029,0,0,1.3215993164062498,0,0,0.84084
2.9730599009781145,0,0,1.3575123413085937,0,0,0.7644
2.9744455289910547,0,0,1.1635820068359375,0,0,0.7644
2.9758420279831626,0,0,1.1875240234375,0,0,0.3822
2.9772281739860773,0,0,1.1228805786132812,0,0,0.68796
2.9786141910008155,0,0,1.3383587280273437,0,0,0.22932
2.98000174498884,0,0,1.4724340209960938,0,0,0.68796
2.9813970579998568,0,0,1.465251416015625,0,0,0.99372
2.98278305598069,0,0,1.1755530151367186,0,0,0.30576000000000003
2.9841694250062574,0,0,1.235408056640625,0,0,0.22932
2.9855551089858636,0,0,1.2473790649414063,0,0,0.99372
2.986940828996012,0,0,1.1061211669921875,0,0,0.68796
2.988327383005526,0,0,1.2378022583007813,0,0,0.07644000000000001
2.9897128449811134,0,0,1.3814543579101561,0,0,0.45864
2.991098342987243,0,0,1.4724340209960938,0,0,0.68796
2.992484988993965,0,0,1.2952630981445312,0,0,0.53508
2.9938710429996718,0,0,1.3551181396484375,0,0,1.2230400000000001
2.995256800990319,0,0,1.24498486328125,0,0,1.37592
2.9966435589885805,0,0,1.1707646118164061,0,0,0.45864
2.9980297239962965,0,0,1.1252747802734375,0,0,0.84084
2.999415517988382,0,0,1.3479355346679687,0,0,0.68796
3.0008019609958865,0,0,1.3311761230468748,0,0,0.99372
3.002188070997363,0,0,1.649604943847656,0,0,0.84084
3.0035746060020756,0,0,1.2976572998046874,0,0,0.7644
3.0049604189989623,0,0,1.2617442749023438,0,0,0.68796
3.006346620997647,0,0,1.2952630981445312,0,0,0.45864
3.0077330459898803,0,0,1.3000515014648437,0,0,0.6115200000000001
3.0091267289826646,0,0,1.254561669921875,0,0,0.99372
3.01051281997934,0,0,1.3120225097656248,0,0,0.99372
3.0119063179881778,0,0,1.5562310791015623,0,0,0.84084
3.013292094983626,0,0,1.3192051147460937,0,0,0.68796
3.014678259991342,0,0,1.2737152832031249,0,0,0.22932
3.016071812977316,0,0,1.149216796875,0,0,0.7644
3.017521311005112,0,0,1.2593500732421874,0,0,0.91728
3.018932531005703,0,0,1.3144167114257812,0,0,0.30576000000000003
3.020321010990301,0,0,1.2904746948242187,0,0,0.30576000000000003
3.0217077499837615,0,0,1.465251416015625,0,0,0.7644
3.023093784984667,0,0,1.47482822265625,0,0,0.7644
3.02451894999831,0,0,1.2737152832031249,0,0,0.99372
3.025901671004249,0,0,1.2018892333984375,0,0,1.1465999999999998
3.027412222989369,0,0,1.2018892333984375,0,0,0.84084
3.0287949990015477,0,0,1.3144167114257812,0,0,0.45864
3.030174496991094,0,0,1.2928688964843749,0,0,0.91728
3.0315736070042476,0,0,1.4245499877929686,0,0,0.53508
3.032953160989564,0,0,1.4101847778320311,0,0,0.99372
3.034331751987338,0,0,1.2761094848632812,0,0,1.2230400000000001
3.035711360978894,0,0,1.0582371337890624,0,0,0.6115200000000001
3.0370896559907123,0,0,1.1324573852539062,0,0,0.22932
3.0384683949814644,0,0,1.3646949462890625,0,0,0.99372
3.0398514859844,0,0,1.3910311645507811,0,0,0.99372
3.0413346309796907,0,0,1.3215993164062498,0,0,0.99372
3.042724870989332,0,0,1.455674609375,0,0,1.2230400000000001
3.044107831985457,0,0,1.2425906616210938,0,0,0.3822
3.0454865710053127,0,0,1.235408056640625,0,0,0.68796
3.046869218000211,0,0,1.2282254516601563,0,0,0.68796
3.04832191899186,0,0,1.218648645019531,0,0,0.99372
3.0497111389995553,0,0,1.4245499877929686,0,0,0.30576000000000003
3.0510981749976054,0,0,1.419761584472656,0,0,0.53508
3.05248591399868,0,0,1.5801730957031248,0,0,0.68796
3.0538723380013835,0,0,1.3000515014648437,0,0,0.91728
3.055258613982005,0,0,1.3120225097656248,0,0,1.1465999999999998
3.056645556993317,0,0,1.1109095703125,0,0,1.07016
3.0580318519787397,0,0,1.180341418457031,0,0,0.68796
3.059417868993478,0,0,1.3407529296874998,0,0,0.45864
3.060805329994764,0,0,1.3623007446289062,0,0,0.68796
3.0621911799826194,0,0,1.22583125,0,0,0.84084
3.063578011991922,0,0,1.43652099609375,0,0,1.07016
3.064964417979354,0,0,1.2042834350585936,0,0,1.2994800000000002
3.0663502859824803,0,0,1.2018892333984375,0,0,0.99372
3.067752450995613,0,0,1.1755530151367186,0,0,0.15288000000000002
3.0691461349779274,0,0,1.1061211669921875,0,0,0.53508
3.0705322260037065,0,0,1.438915197753906,0,0,0.68796
3.071918909001397,0,0,1.2306196533203124,0,0,0.91728
3.0733043889922556,0,0,1.388636962890625,0,0,1.1465999999999998
3.0746998869872186,0,0,1.1947066284179686,0,0,0.7644
3.0760917190054897,0,0,1.0797849487304687,0,0,0.3822
3.0774801060033496,0,0,1.2976572998046874,0,0,0.7644
3.078867789998185,0,0,1.1276689819335937,0,0,0.53508
3.080255546985427,0,0,1.3096283081054687,0,0,0.3822
3.0816432859865017,0,0,1.2880804931640624,0,0,0.45864
3.0830302849935833,0,0,1.4317325927734375,0,0,0.68796
3.084413004980888,0,0,1.3144167114257812,0,0,0.84084
3.0857920599810313,0,0,1.369483349609375,0,0,0.84084
3.0871706509788055,0,0,1.2665326782226562,0,0,0.99372
3.0885601119953208,0,0,1.1037269653320312,0,0,0.68796
3.089947646978544,0,0,1.2928688964843749,0,0,0.30576000000000003
3.0913355899974704,0,0,1.2856862915039062,0,0,0.45864
3.0927231069945265,0,0,1.3646949462890625,0,0,0.7644
3.0941108459956013,0,0,1.4700398193359374,0,0,0.84084
3.09549810399767,0,0,1.3024457031249999,0,0,1.07016
3.0968980279867537,0,0,1.209071838378906,0,0,0.68796
3.0982855259790085,0,0,1.149216796875,0,0,0.45864
3.0996698209783062,0,0,1.2282254516601563,0,0,1.2230400000000001
3.1010485790029634,0,0,1.3742717529296875,0,0,0.7644
3.102427687990712,0,0,1.3527239379882812,0,0,0.7644
3.103812426998047,0,0,1.6065093139648436,0,0,0.45864
3.105205721978564,0,0,1.3766659545898436,0,0,0.6115200000000001
3.106592145981267,0,0,1.1875240234375,0,0,0.3822
3.107979330001399,0,0,1.13006318359375,0,0,0.84084
3.1093649579852354,0,0,1.1563994018554686,0,0,0.68796
3.110750770982122,0,0,1.3646949462890625,0,0,0.0
3.1121507689822465,0,0,1.455674609375,0,0,0.30576000000000003
3.1135374159784988,0,0,1.5682020874023437,0,0,0.3822
3.114923283981625,0,0,1.24498486328125,0,0,0.45864
3.1163093379873317,0,0,1.2713210815429687,0,0,1.1465999999999998
3.1176952440000605,0,0,1.2138602416992186,0,0,1.37592
3.1190841129864566,0,0,1.0749965454101562,0,0,0.7644
3.120472462993348,0,0,1.3168109130859373,0,0,0.45864
3.121858201979194,0,0,1.4508862060546874,0,0,0.84084
3.123243737994926,0,0,1.4700398193359374,0,0,1.07016
3.1246304950036574,0,0,1.4317325927734375,0,0,0.91728
3.1260245669982396,0,0,1.2880804931640624,0,0,1.2230400000000001
3.1274109549995046,0,0,1.0630255371093749,0,0,0.68796
3.1287966939853504,0,0,1.1109095703125,0,0,0.68796
3.130182839988265,0,0,1.2976572998046874,0,0,1.1465999999999998
3.131570153986104,0,0,1.3814543579101561,0,0,0.53508
3.1329565039777663,0,0,1.2665326782226562,0,0,0.7644
3.134341928001959,0,0,1.5346832641601562,0,0,1.07016
3.1357284449914005,0,0,1.2497732666015624,0,0,0.6115200000000001
3.1371137950045522,0,0,1.2904746948242187,0,0,0.3822
3.1385001449962147,0,0,1.1611878051757811,0,0,1.07016
3.1398866809904575,0,0,1.120486376953125,0,0,0.99372
3.141271530999802,0,0,1.3192051147460937,0,0,0.45864
3.1426574919896666,0,0,1.3742717529296875,0,0,0.53508
3.1440595089807175,0,0,1.2282254516601563,0,0,0.53508
3.1454458409862127,0,0,1.2617442749023438,0,0,0.30576000000000003
3.1468321539869066,0,0,1.235408056640625,0,0,1.5288
3.148218262998853,0,0,1.1851298217773436,0,0,0.99372
3.149603705998743,0,0,1.2018892333984375,0,0,0.68796
3.15098951998516,0,0,1.3168109130859373,0,0,0.53508
3.1523754069930874,0,0,1.4245499877929686,0,0,0.7644
3.1537610160012264,0,0,1.3742717529296875,0,0,1.1465999999999998
3.155147365992889,0,0,1.254561669921875,0,0,0.84084
3.1565408459864557,0,0,1.369483349609375,0,0,1.1465999999999998
3.1579264369793236,0,0,1.3024457031249999,0,0,0.22932
3.159312620991841,0,0,1.216254443359375,0,0,0.22932
3.1606984149839263,0,0,1.22583125,0,0,0.68796
3.1620839509996586,0,0,1.429338391113281,0,0,0.45864
3.163470152998343,0,0,1.3287819213867187,0,0,0.6115200000000001
3.1648560029861983,0,0,1.62805712890625,0,0,0.91728
3.1662414830061607,0,0,1.3096283081054687,0,0,0.6115200000000001
3.1676283330016304,0,0,1.2425906616210938,0,0,0.84084
3.1690136090037413,0,0,1.177947216796875,0,0,0.53508
3.1703992190014105,0,0,1.2569558715820313,0,0,0.84084
3.17178588398383,0,0,1.4867992309570313,0,0,0.45864
3.1731711970060132,0,0,1.3239935180664062,0,0,0.68796
3.1745571029896382,0,0,1.5251064575195312,0,0,0.53508
3.1759433789993636,0,0,1.4101847778320311,0,0,0.6115200000000001
3.1773292110010516,0,0,1.3742717529296875,0,0,1.45236
3.1787153570039663,0,0,1.0869675537109373,0,0,0.91728
3.180101799982367,0,0,1.1420341918945311,0,0,0.53508
3.181487872992875,0,0,1.24498486328125,0,0,0.68796
3.1828738339827396,0,0,1.4173673828125,0,0,0.99372
3.184276776999468,0,0,1.4101847778320311,0,0,0.84084
3.185663090000162,0,0,1.43652099609375,0,0,1.07016
3.1870492360030767,0,0,1.3718775512695311,0,0,1.07016
3.188435641990509,0,0,1.2114660400390624,0,0,0.30576000000000003
3.189821659005247,0,0,1.235408056640625,0,0,0.45864
3.1912076019798405,0,0,1.197100830078125,0,0,0.45864
3.1925936189945787,0,0,1.3431471313476562,0,0,0.53508
3.193979857984232,0,0,1.4891934326171874,0,0,0.68796
3.1953654300014023,0,0,1.6304513305664061,0,0,1.1465999999999998
3.19675102099427,0,0,1.2952630981445312,0,0,0.30576000000000003
3.198136926977895,0,0,1.1516109985351561,0,0,0.68796
3.199529999983497,0,0,1.139639990234375,0,0,0.7644
3.2009160349844024,0,0,0.9935936889648437,0,0,0.99372
3.2023022189969197,0,0,1.3910311645507811,0,0,0.3822
3.2036886980058625,0,0,1.429338391113281,0,0,0.45864
3.2050740489794407,0,0,1.6065093139648436,0,0,0.3822
3.206460065994179,0,0,1.3144167114257812,0,0,0.84084
3.2078464340011124,0,0,1.2521674682617188,0,0,1.2994800000000002
3.2092320249939803,0,0,1.209071838378906,0,0,0.84084
3.2106181159906555,0,0,1.1635820068359375,0,0,0.7644
3.2120045219780877,0,0,1.1875240234375,0,0,0.84084
3.2133897979801986,0,0,1.4053963745117186,0,0,0.6115200000000001
3.2147754629841074,0,0,1.149216796875,0,0,0.68796
3.2161617020028643,0,0,1.438915197753906,0,0,0.84084
3.2175473669776693,0,0,1.235408056640625,0,0,0.68796
3.2189331619883887,0,0,1.2737152832031249,0,0,0.6115200000000001
3.2203189749852754,0,0,1.254561669921875,0,0,0.6115200000000001
3.2217046769801527,0,0,1.1516109985351561,0,0,0.68796
3.223090546001913,0,0,1.3958195678710936,0,0,0.45864
3.224475562979933,0,0,1.37906015625,0,0,0.91728
3.2258595239836723,0,0,1.5011644409179687,0,0,0.68796
3.2274463349895086,0,0,1.2856862915039062,0,0,0.53508
3.2288287959818263,0,0,1.3431471313476562,0,0,0.45864
3.230263274977915,0,0,1.22583125,0,0,-8.867040000000001
3.2316462739836425,0,0,1.0845733520507812,0,0,0.53508
3.233026012982009,0,0,1.4245499877929686,0,0,0.3822
3.2344048999948427,0,0,1.350329736328125,0,0,0.3822
3.2357857509923633,0,0,1.3000515014648437,0,0,-9.24924
3.2371652309957426,0,0,1.218648645019531,0,0,0.3822
3.2385445069812704,0,0,1.2569558715820313,0,0,1.2230400000000001
3.239924894005526,0,0,1.0989385620117187,0,0,1.37592
3.241303799994057,0,0,1.0773907470703123,0,0,0.84084
3.2426978169823997,0,0,1.0821791503906248,0,0,0.53508
3.244093110988615,0,0,1.3742717529296875,0,0,0.84084
3.245480627985671,0,0,1.2832920898437499,0,0,0.68796
3.2468675900017843,0,0,1.448492004394531,0,0,0.84084
3.248254828999052,0,0,1.2761094848632812,0,0,1.1465999999999998
3.2496410489839036,0,0,1.0773907470703123,0,0,0.6115200000000001
3.251027955004247,0,0,1.0773907470703123,0,0,0.53508
3.2524146389914677,0,0,1.1827356201171875,0,0,0.6115200000000001
3.2538008590054233,0,0,1.3575123413085937,0,0,0.84084
3.255187542992644,0,0,1.2761094848632812,0,0,0.99372
3.256567726988578,0,0,1.4125789794921875,0,0,0.99372
3.257946298981551,0,0,1.2832920898437499,0,0,0.53508
3.259324946004199,0,0,1.2306196533203124,0,0,0.3822
3.2607116290018894,0,0,1.0965443603515623,0,0,1.2230400000000001
3.262098145991331,0,0,1.2401964599609374,0,0,0.68796
3.263483921997249,0,0,1.3239935180664062,0,0,0.07644000000000001
3.2648699579876848,0,0,1.4532804077148436,0,0,0.15288000000000002
3.2662552149849944,0,0,1.5586252807617187,0,0,0.45864
3.2676644540042616,0,0,1.47482822265625,0,0,0.84084
3.2691093219909817,0,0,1.235408056640625,0,0,1.1465999999999998
3.2705012089863885,0,0,1.0175357055664063,0,0,0.91728
3.2718905409856234,0,0,1.209071838378906,0,0,0.84084
3.273275946994545,0,0,1.3239935180664062,0,0,0.6115200000000001
3.2746628900058568,0,0,1.388636962890625,0,0,-8.867040000000001
3.27608862798661,0,0,1.47482822265625,0,0,0.6115200000000001
3.277475348993903,0,0,1.4891934326171874,0,0,0.99372
3.278862605977338,0,0,1.3192051147460937,0,0,0.7644
3.2802450489834882,0,0,1.2114660400390624,0,0,0.68796
3.281623917981051,0,0,1.35990654296875,0,0,0.3822
3.2830027129966766,0,0,1.3814543579101561,0,0,0.53508
3.284391544992104,0,0,1.3407529296874998,0,0,0.53508
3.2857791169954,0,0,1.37906015625,0,0,1.07016
3.287183059990639,0,0,1.4867992309570313,0,0,0.7644
3.2885708539979532,0,0,1.3287819213867187,0,0,0.53508
3.289958092995221,0,0,1.2330138549804688,0,0,0.91728
3.2913455730013084,0,0,1.1923124267578125,0,0,0.7644
3.2927334230043925,0,0,1.1276689819335937,0,0,1.1465999999999998
3.2941198110056575,0,0,1.3766659545898436,0,0,0.22932
3.2955271980026737,0,0,1.465251416015625,0,0,0.68796
3.2969076040026266,0,0,1.5418658691406248,0,0,0.6115200000000001
3.298286139004631,0,0,1.2689268798828124,0,0,1.07016
3.2996765449934173,0,0,1.3479355346679687,0,0,1.2230400000000001
3.3010724500054494,0,0,1.2234370483398436,0,0,1.2230400000000001
3.3024580600031186,0,0,1.1276689819335937,0,0,0.99372
3.303844706999371,0,0,1.3431471313476562,0,0,1.07016
3.3052300199924503,0,0,1.47482822265625,0,0,0.68796
3.3066159629961476,0,0,1.3455413330078123,0,0,0.84084
3.308002478996059,0,0,1.4053963745117186,0,0,0.91728
3.309387682005763,0,0,1.1635820068359375,0,0,0.91728
3.310773920995416,0,0,1.1252747802734375,0,0,0.53508
3.312159919005353,0,0,1.20667763671875,0,0,0.53508
3.3135457879980095,0,0,1.1563994018554686,0,0,0.45864
3.314931600994896,0,0,1.4341267944335936,0,0,0.15288000000000002
3.316317580989562,0,0,1.3814543579101561,0,0,0.84084
3.3177032090025023,0,0,1.6519991455078125,0,0,0.84084
3.3190892069833353,0,0,1.2641384765625,0,0,0.53508
3.3204753719910514,0,0,1.5203180541992187,0,0,0.99372
3.3218616109807044,0,0,1.149216796875,0,0,0.7644
3.323247498978162,0,0,1.1156979736328125,0,0,0.99372
3.324643478001235,0,0,1.2641384765625,0,0,0.07644000000000001
3.3260297550004907,0,0,1.3192051147460937,0,0,0.45864
3.327423604991054,0,0,1.448492004394531,0,0,0.53508
3.3288124179816805,0,0,1.4724340209960938,0,0,0.7644
3.3301998050010297,0,0,1.3000515014648437,0,0,1.1465999999999998
3.3316008769907057,0,0,1.1156979736328125,0,0,0.84084
3.332988023990765,0,0,1.1851298217773436,0,0,0.68796
3.3343761329888366,0,0,1.2856862915039062,0,0,0.6115200000000001
3.335760816989932,0,0,1.3958195678710936,0,0,0.7644
3.3371389269887004,0,0,1.4221557861328125,0,0,0.99372
3.3385175179864746,0,0,1.5466542724609373,0,0,0.99372
3.339902423991589,0,0,1.3742717529296875,0,0,0.84084
3.3412898480019066,0,0,1.1755530151367186,0,0,0.6115200000000001
3.342676993983332,0,0,1.1755530151367186,0,0,0.30576000000000003
3.3440674190060236,0,0,1.3838485595703125,0,0,0.84084
3.3454545470012818,0,0,1.4125789794921875,0,0,0.7644
3.34684161900077,0,0,1.2306196533203124,0,0,0.91728
3.3482318579917774,0,0,1.5107412475585937,0,0,0.7644
3.3496187269920483,0,0,1.1827356201171875,0,0,0.45864
3.351005650998559,0,0,1.2617442749023438,0,0,0.6115200000000001
3.3523881869914476,0,0,1.2785036865234374,0,0,0.84084
3.353766629996244,0,0,1.3455413330078123,0,0,0.91728
3.355144998000469,0,0,1.24498486328125,0,0,0.45864
3.3565331629943103,0,0,1.5083470458984374,0,0,0.3822
3.357919142988976,0,0,1.5131354492187499,0,0,0.30576000000000003
3.3593169189989567,0,0,1.2904746948242187,0,0,0.68796
3.360703491984168,0,0,1.3359645263671873,0,0,1.1465999999999998
3.362089175003348,0,0,1.2018892333984375,0,0,0.84084
3.363474747980945,0,0,1.1372457885742187,0,0,0.45864
3.3648608759976923,0,0,1.3120225097656248,0,0,0.99372
3.366246930003399,0,0,1.4772224243164063,0,0,0.7644
3.367633575981017,0,0,1.3407529296874998,0,0,0.91728
3.369020037993323,0,0,1.369483349609375,0,0,0.7644
3.3704060919990297,0,0,1.1037269653320312,0,0,0.68796
3.3717927940015215,0,0,1.2641384765625,0,0,0.3822
3.3731782359827776,0,0,1.2737152832031249,0,0,0.22932
3.3745710869843606,0,0,1.3263877197265623,0,0,0.84084
3.3759582699858584,0,0,1.39821376953125,0,0,0.6115200000000001
3.3773439170036,0,0,1.2737152832031249,0,0,0.6115200000000001
3.378729525982635,0,0,1.235408056640625,0,0,0.22932
3.3801155620021746,0,0,1.3096283081054687,0,0,0.53508
3.3815012270060834,0,0,1.369483349609375,0,0,0.45864
3.3828866879921407,0,0,1.2641384765625,0,0,0.84084
3.3842727419978473,0,0,1.1228805786132812,0,0,0.84084
3.3856588139897212,0,0,1.1563994018554686,0,0,0.45864
3.3870448310044594,0,0,1.369483349609375,0,0,0.68796
3.3884302559890784,0,0,1.4149731811523436,0,0,0.84084
3.3898161799879745,0,0,1.1659762084960936,0,0,0.7644
3.3912018819828518,0,0,1.2306196533203124,0,0,1.07016
3.392587583977729,0,0,1.2114660400390624,0,0,0.91728
3.3939733229926787,0,0,1.1276689819335937,0,0,0.6115200000000001
3.395359118003398,0,0,1.3359645263671873,0,0,0.68796
3.3967452269862406,0,0,1.22583125,0,0,0.84084
3.398130540997954,0,0,1.2928688964843749,0,0,1.1465999999999998
3.399518132006051,0,0,1.5729904907226562,0,0,0.99372
3.4009042409888934,0,0,1.2808978881835937,0,0,0.45864
3.402289738995023,0,0,1.1731588134765625,0,0,0.53508
3.4036754599947017,0,0,1.1516109985351561,0,0,0.68796
3.405064847000176,0,0,1.2856862915039062,0,0,0.53508
3.4064640489814337,0,0,1.2473790649414063,0,0,0.53508
3.4078533069987316,0,0,1.2880804931640624,0,0,0.68796
3.409238805004861,0,0,1.4724340209960938,0,0,0.53508
3.410624914977234,0,0,1.419761584472656,0,0,0.7644
3.4120120799925644,0,0,1.1659762084960936,0,0,0.53508
3.4133978369936813,0,0,1.0893617553710937,0,0,1.1465999999999998
3.414783890999388,0,0,1.16837041015625,0,0,0.7644
3.4161702419805806,0,0,1.2593500732421874,0,0,0.22932
3.4175671660050284,0,0,1.484405029296875,0,0,0.7644
3.4190113109943923,0,0,1.4867992309570313,0,0,0.6115200000000001
3.420403957978124,0,0,1.4030021728515625,0,0,1.1465999999999998
3.421790455991868,0,0,1.3934253662109375,0,0,1.07016
3.4231759359827265,0,0,1.1228805786132812,0,0,0.91728
3.4245603419840336,0,0,1.3120225097656248,0,0,0.45864
3.425944469985552,0,0,1.3215993164062498,0,0,0.22932
3.4275532430037856,0,0,1.467645617675781,0,0,0.3822
3.428936944983434,0,0,1.4700398193359374,0,0,0.68796
3.430315924983006,0,0,1.5729904907226562,0,0,0.84084
3.4316962199809495,0,0,1.2689268798828124,0,0,0.91728
3.433076774002984,0,0,1.1348515869140625,0,0,0.53508
3.4344553650007583,0,0,1.1635820068359375,0,0,0.45864
3.4358377890021075,0,0,1.3144167114257812,0,0,0.7644
3.437217213999247,0,0,1.4413093994140624,0,0,0.53508
3.438596156978747,0,0,1.2497732666015624,0,0,0.6115200000000001
3.4399756740021985,0,0,1.5682020874023437,0,0,0.68796
3.44135476500378,0,0,1.2928688964843749,0,0,0.6115200000000001
3.442733114992734,0,0,1.16837041015625,0,0,0.99372
3.4441202429879922,0,0,1.2521674682617188,0,0,0.91728
3.445506777992705,0,0,1.1324573852539062,0,0,0.68796
3.4468925549881533,0,0,1.3455413330078123,0,0,0.53508
3.4482788309978787,0,0,1.4053963745117186,0,0,0.68796
3.4496643290040083,0,0,1.3311761230468748,0,0,0.53508
3.451050215982832,0,0,1.3048399047851562,0,0,0.91728
3.452436363004381,0,0,1.3718775512695311,0,0,1.2994800000000002
3.453823397983797,0,0,1.1468225952148436,0,0,1.1465999999999998
3.4552093779784627,0,0,1.2234370483398436,0,0,0.6115200000000001
3.4565956909791566,0,0,1.1659762084960936,0,0,0.68796
3.457981560000917,0,0,1.4772224243164063,0,0,0.7644
3.4593674469797406,0,0,1.3575123413085937,0,0,1.1465999999999998
3.4607540569850244,0,0,1.4341267944335936,0,0,1.1465999999999998
3.4621497399930377,0,0,1.3144167114257812,0,0,0.68796
3.46353662799811,0,0,1.2378022583007813,0,0,0.91728
3.4649226449837442,0,0,1.149216796875,0,0,0.22932
3.466308383998694,0,0,1.180341418457031,0,0,0.45864
3.467694937979104,0,0,1.4820108276367188,0,0,0.15288000000000002
3.469080084003508,0,0,1.3431471313476562,0,0,0.68796
3.470465730992146,0,0,1.6065093139648436,0,0,1.07016
3.471852932998445,0,0,1.1659762084960936,0,0,0.84084
3.473238209000556,0,0,1.3192051147460937,0,0,0.53508
3.4746238369843923,0,0,1.2665326782226562,0,0,0.84084
3.4760191690002102,0,0,1.1420341918945311,0,0,0.6115200000000001
3.477405055979034,0,0,1.3766659545898436,0,0,0.3822
3.478790905995993,0,0,1.369483349609375,0,0,0.53508
3.480177311983425,0,0,1.43652099609375,0,0,0.6115200000000001
3.4815674769924954,0,0,1.467645617675781,0,0,1.07016
3.4829531050054356,0,0,1.2114660400390624,0,0,1.07016
3.484339287999319,0,0,1.1420341918945311,0,0,1.1465999999999998
3.4857244720042218,0,0,1.20667763671875,0,0,0.45864
3.487110247981036,0,0,1.2401964599609374,0,0,0.6115200000000001
3.488496246980503,0,0,1.2497732666015624,0,0,0.7644
3.4898825410054997,0,0,1.3814543579101561,0,0,1.1465999999999998
3.4912756319972686,0,0,1.5777788940429687,0,0,0.53508
3.4953363880049437,0,0,1.1755530151367186,0,0,0.84084
3.496774736995576,0,0,1.24498486328125,0,0,0.6115200000000001
3.498155698995106,0,0,1.3168109130859373,0,0,0.22932
3.49954017897835,0,0,1.4628572143554686,0,0,0.53508
3.5009207330003846,0,0,1.5035586425781249,0,0,0.68796
3.5023006389965303,0,0,1.2689268798828124,0,0,0.68796
3.503680488996906,0,0,1.180341418457031,0,0,1.2994800000000002
3.505059616989456,0,0,1.1563994018554686,0,0,1.07016
3.5064387079910375,0,0,1.0821791503906248,0,0,0.91728
3.507819483987987,0,0,1.2785036865234374,0,0,0.53508
3.5092189269780647,0,0,1.5227122558593749,0,0,0.53508
3.5105989069852512,0,0,1.3359645263671873,0,0,0.45864
3.5119846829911694,0,0,1.3814543579101561,0,0,1.1465999999999998
3.513372107001487,0,0,1.3144167114257812,0,0,0.99372
3.514759271987714,0,0,1.158793603515625,0,0,1.07016
3.5161465299897827,0,0,1.1923124267578125,0,0,0.30576000000000003
3.517543805995956,0,0,1.1372457885742187,0,0,0.84084
3.518997117993422,0,0,1.3862427612304686,0,0,0.99372
3.520409913006006,0,0,1.2425906616210938,0,0,1.07016
3.5217979479930364,0,0,1.4413093994140624,0,0,1.07016
3.523239278991241,0,0,1.158793603515625,0,0,0.91728
3.524703460978344,0,0,1.197100830078125,0,0,0.45864
3.5260915889812168,0,0,1.2282254516601563,0,0,0.7644
3.527478403004352,0,0,1.1540052001953125,0,0,0.53508
3.5288656420016196,0,0,1.4437036010742186,0,0,0.45864
3.5302530659828335,0,0,1.2713210815429687,0,0,0.7644
3.53163887897972,0,0,1.5682020874023437,0,0,0.91728
3.5330175629933365,0,0,1.218648645019531,0,0,0.53508
3.534396190982079,0,0,1.3383587280273437,0,0,1.07016
3.535782503982773,0,0,1.1707646118164061,0,0,1.07016
3.53720105800312,0,0,1.1827356201171875,0,0,0.84084
3.5385890929901507,0,0,1.3311761230468748,0,0,0.3822
3.5399780169827864,0,0,1.3431471313476562,0,0,0.30576000000000003
3.54136462698807,0,0,1.2689268798828124,0,0,0.3822
3.5427513659815304,0,0,1.189918225097656,0,0,1.07016
3.54413869799464,0,0,1.24498486328125,0,0,1.2994800000000002
3.5455257699941285,0,0,1.2306196533203124,0,0,0.7644
3.5469127869873773,0,0,1.2330138549804688,0,0,0.84084
3.5482954519975465,0,0,1.3144167114257812,0,0,1.07016
3.549673987989081,0,0,1.3479355346679687,0,0,0.84084
3.5510525970021263,0,0,1.3000515014648437,0,0,0.99372
3.552447576978011,0,0,1.5801730957031248,0,0,0.91728
3.553834316000575,0,0,1.177947216796875,0,0,0.6115200000000001
3.555220054986421,0,0,1.218648645019531,0,0,0.3822
3.5566061089921277,0,0,1.1324573852539062,0,0,0.6115200000000001
3.5579924219928216,0,0,1.2521674682617188,0,0,0.53508
3.5593786429963075,0,0,1.2330138549804688,0,0,0.07644000000000001
3.5607648629811592,0,0,1.3383587280273437,0,0,0.91728
3.562150935991667,0,0,1.3934253662109375,0,0,1.1465999999999998
3.5635372859833296,0,0,1.5227122558593749,0,0,0.7644
3.564924025005894,0,0,1.3239935180664062,0,0,1.2230400000000001
3.5663097089855,0,0,1.0821791503906248,0,0,1.07016
3.5676961519930046,0,0,1.0893617553710937,0,0,0.84084
