Time,AccelX1,AccelY1,AccelZ1,AccelX2,AccelY2,AccelZ2
4.629982868209481e-06,0,0,1.2641384765625,0,0,1.45236
0.0036338679783511907,0,0,1.2617442749023438,0,0,0.6115200000000001
0.007607286999700591,0,0,1.3646949462890625,0,0,1.2230400000000001
0.012147200002800673,0,0,1.618480322265625,0,0,0.6115200000000001
0.015837585990084335,0,0,1.2210428466796874,0,0,1.1465999999999998
0.01945956499548629,0,0,1.2856862915039062,0,0,1.2994800000000002
0.023017600004095584,0,0,1.5586252807617187,0,0,1.37592
0.02653750599711202,0,0,1.3718775512695311,0,0,0.6115200000000001
0.03017935500247404,0,0,1.4317325927734375,0,0,0.45864
0.03401451700483449,0,0,1.2330138549804688,0,0,0.7644
0.037540921999607235,0,0,1.3263877197265623,0,0,0.22932
0.041060364979784936,0,0,1.4628572143554686,0,0,1.911
0.04457749298308045,0,0,1.3120225097656248,0,0,0.99372
0.04809454799396917,0,0,1.2713210815429687,0,0,0.68796
0.05161571298958734,0,0,1.2234370483398436,0,0,0.7644
0.05513313697883859,0,0,1.1133037719726562,0,0,0.68796
0.05865004297811538,0,0,1.4437036010742186,0,0,0.30576000000000003
0.0621711160056293,0,0,1.5418658691406248,0,0,1.1465999999999998
0.06569239200325683,0,0,1.180341418457031,0,0,1.07016
0.06958146000397392,0,0,1.2641384765625,0,0,1.1465999999999998
0.07287433199235238,0,0,1.5753846923828123,0,0,1.1465999999999998
0.07600311198621057,0,0,1.1109095703125,0,0,0.68796
0.07912304098135792,0,0,1.3239935180664062,0,0,0.68796
0.0822385259962175,0,0,1.4101847778320311,0,0,-9.631440000000001
0.08535860298434272,0,0,0.9409212524414062,0,0,0.45864
0.08860710400040261,0,0,1.22583125,0,0,0.99372
0.09172564398613758,0,0,1.3000515014648437,0,0,0.91728
0.09484675800194964,0,0,1.1180921752929687,0,0,0.91728
0.09796044600079767,0,0,1.4125789794921875,0,0,0.6115200000000001
0.10107689298456535,0,0,1.2569558715820313,0,0,1.07016
0.10419402600382455,0,0,1.2785036865234374,0,0,1.2230400000000001
0.10739963900414295,0,0,1.3431471313476562,0,0,0.30576000000000003
0.11054321599658579,0,0,1.3096283081054687,0,0,0.22932
0.11364369999500923,0,0,1.2928688964843749,0,0,0.3822
0.11679094299324788,0,0,1.3431471313476562,0,0,1.75812
0.11991964999469928,0,0,1.2425906616210938,0,0,1.1465999999999998
0.12305581898544915,0,0,1.2425906616210938,0,0,1.45236
0.12624908098950982,0,0,1.2617442749023438,0,0,0.7644
0.12940797198098153,0,0,1.3168109130859373,0,0,1.5288
0.1325380119960755,0,0,1.6328455322265625,0,0,1.2230400000000001
0.1356540699780453,0,0,1.13006318359375,0,0,1.2994800000000002
0.1387703319778666,0,0,1.369483349609375,0,0,0.84084
0.14189216899103485,0,0,1.3551181396484375,0,0,0.53508
0.145007468003314,0,0,1.1468225952148436,0,0,0.53508
0.1481227669864893,0,0,1.4772224243164063,0,0,0.84084
0.15123754797969013,0,0,1.3742717529296875,0,0,1.75812
0.15435566200176254,0,0,1.20667763671875,0,0,1.2994800000000002
0.1574710909917485,0,0,1.3551181396484375,0,0,0.3822
0.16058637099922635,0,0,1.4628572143554686,0,0,2.2931999999999997
0.16371872599120252,0,0,1.120486376953125,0,0,0.84084
0.16686946898698807,0,0,1.2641384765625,0,0,1.68168
0.16998330497881398,0,0,1.3359645263671873,0,0,0.53508
0.17311717898701318,0,0,1.177947216796875,0,0,1.1465999999999998
0.17629082899657078,0,0,1.3048399047851562,0,0,0.7644
0.1794114990043454,0,0,1.2569558715820313,0,0,1.1465999999999998
0.18252966800355352,0,0,1.6328455322265625,0,0,1.60524
0.18564463398070075,0,0,1.1947066284179686,0,0,0.99372
0.1887598040048033,0,0,1.2425906616210938,0,0,0.68796
0.19187541797873564,0,0,1.2761094848632812,0,0,0.45864
0.19501795698306523,0,0,0.9816226806640624,0,0,0.91728
0.19813164498191327,0,0,1.3383587280273437,0,0,1.2230400000000001
0.20124655598192476,0,0,1.3838485595703125,0,0,0.91728
0.20435968798119575,0,0,1.2737152832031249,0,0,0.91728
0.2075075979810208,0,0,1.209071838378906,0,0,0.0
0.2106290269875899,0,0,1.2737152832031249,0,0,1.911
0.2137472339964006,0,0,1.209071838378906,0,0,0.84084
0.21686462499201298,0,0,1.2617442749023438,0,0,0.91728
0.21998151700245216,0,0,1.35990654296875,0,0,0.68796
0.22310026100603864,0,0,1.1037269653320312,0,0,0.3822
0.22621491199242882,0,0,1.2761094848632812,0,0,1.37592
0.2293319329910446,0,0,1.419761584472656,0,0,1.37592
0.2324487330042757,0,0,1.6017209106445311,0,0,1.2230400000000001
0.23556721699424088,0,0,1.1516109985351561,0,0,0.91728
0.23868671999662183,0,0,1.2665326782226562,0,0,1.07016
0.24180107499705628,0,0,1.3838485595703125,0,0,0.99372
0.24492685499717481,0,0,1.0678139404296874,0,0,0.6115200000000001
0.24804332098574378,0,0,1.2641384765625,0,0,1.45236
0.25116697198245674,0,0,1.455674609375,0,0,0.91728
0.2542827529832721,0,0,1.235408056640625,0,0,0.30576000000000003
0.2574042000051122,0,0,1.3455413330078123,0,0,0.07644000000000001
0.2605216839874629,0,0,1.3359645263671873,0,0,1.37592
0.2636384280049242,0,0,1.158793603515625,0,0,1.1465999999999998
0.2667514309869148,0,0,1.3958195678710936,0,0,1.07016
0.2698893969936762,0,0,1.24498486328125,0,0,0.22932
0.2730085479852278,0,0,1.3144167114257812,0,0,0.22932
0.27612580999266356,0,0,1.2832920898437499,0,0,0.7644
0.27923451698734425,0,0,1.446097802734375,0,0,1.1465999999999998
0.28236538998316973,0,0,1.5011644409179687,0,0,1.37592
0.2854603739979211,0,0,1.158793603515625,0,0,1.07016
0.2885778219788335,0,0,1.5203180541992187,0,0,0.30576000000000003
0.29169260198250413,0,0,1.4891934326171874,0,0,0.07644000000000001
0.2948081979993731,0,0,1.2330138549804688,0,0,0.68796
0.29792053397977725,0,0,1.2928688964843749,0,0,1.60524
0.301038981997408,0,0,1.678335363769531,0,0,0.91728
0.3041509839822538,0,0,1.24498486328125,0,0,0.68796
0.307291006000014,0,0,1.2928688964843749,0,0,0.30576000000000003
0.31040786000085063,0,0,1.3215993164062498,0,0,1.2230400000000001
0.3135058640036732,0,0,1.0486603271484374,0,0,0.99372
0.31662221800070256,0,0,1.2689268798828124,0,0,0.45864
0.3197411290020682,0,0,1.3910311645507811,0,0,0.7644
0.32285778000368737,0,0,1.2330138549804688,0,0,0.22932
0.32599507897975855,0,0,1.4508862060546874,0,0,1.37592
0.32911193298059516,0,0,1.2306196533203124,0,0,1.5288
0.33222843598923646,0,0,1.254561669921875,0,0,1.2994800000000002
0.335347512998851,0,0,1.120486376953125,0,0,0.7644
0.3384899229859002,0,0,1.2976572998046874,0,0,0.68796
0.3416086850047577,0,0,1.5155296508789062,0,0,0.53508
0.3447243359987624,0,0,1.1252747802734375,0,0,1.07016
0.34789211698807776,0,0,1.2521674682617188,0,0,1.1465999999999998
0.3510127679910511,0,0,1.5634136840820312,0,0,0.68796
0.35412812198046595,0,0,1.24498486328125,0,0,0.68796
0.35724421800114214,0,0,1.120486376953125,0,0,0.91728
0.36036096198949963,0,0,1.2114660400390624,0,0,1.2994800000000002
0.3634790199866984,0,0,1.3670891479492187,0,0,0.99372
0.36662726299255155,0,0,1.2880804931640624,0,0,-0.30576000000000003
0.36977582098916173,0,0,1.2473790649414063,0,0,0.99372
0.37289306498132646,0,0,1.2665326782226562,0,0,1.2230400000000001
0.37609145598253235,0,0,1.3239935180664062,0,0,1.45236
0.3792588659853209,0,0,1.4772224243164063,0,0,0.45864
0.3823747949791141,0,0,1.3431471313476562,0,0,0.53508
0.38549033500021324,0,0,1.1228805786132812,0,0,0.91728
0.38860587499220856,0,0,1.3742717529296875,0,0,1.37592
0.3917213029926643,0,0,1.5610194824218748,0,0,1.37592
0.3948391769954469,0,0,1.1037269653320312,0,0,1.07016
0.3979509019991383,0,0,1.2737152832031249,0,0,0.6115200000000001
0.40106557100079954,0,0,1.43652099609375,0,0,0.6115200000000001
0.404267592006363,0,0,1.2234370483398436,0,0,0.91728
0.408004124998115,0,0,1.3910311645507811,0,0,0.7644
0.41131560699432157,0,0,1.5562310791015623,0,0,1.07016
0.414489312999649,0,0,1.0989385620117187,0,0,0.68796
0.4176094089925755,0,0,1.3215993164062498,0,0,0.6115200000000001
0.4207294489897322,0,0,1.4867992309570313,0,0,0.68796
0.42388737699366175,0,0,1.0007762939453124,0,0,0.53508
0.4270045649900567,0,0,1.24498486328125,0,0,1.37592
0.43010558700188994,0,0,1.2808978881835937,0,0,1.07016
0.43584422799176537,0,0,1.3383587280273437,0,0,-8.25552
0.4389656929997727,0,0,1.3359645263671873,0,0,0.6115200000000001
0.4420810849987902,0,0,1.3527239379882812,0,0,0.84084
0.445198903005803,0,0,1.3766659545898436,0,0,0.68796
0.4483129429863766,0,0,1.2665326782226562,0,0,1.60524
0.45142952000605874,0,0,1.5370774658203123,0,0,0.91728
0.4545501709799282,0,0,1.177947216796875,0,0,1.07016
0.4576670259993989,0,0,1.4628572143554686,0,0,0.68796
0.4608199729991611,0,0,1.649604943847656,0,0,0.99372
0.4639512159919832,0,0,1.1635820068359375,0,0,0.99372
0.46716308800387196,0,0,1.2425906616210938,0,0,1.37592
0.47022637000191025,0,0,1.3766659545898436,0,0,0.84084
0.47302596899680793,0,0,1.2497732666015624,0,0,0.7644
0.4758245119883213,0,0,1.3766659545898436,0,0,1.68168
0.47862561099464074,0,0,1.3646949462890625,0,0,1.2230400000000001
0.4814218579849694,0,0,1.6112977172851561,0,0,1.07016
0.4842201239953283,0,0,1.0989385620117187,0,0,0.7644
0.48701712998445146,0,0,1.448492004394531,0,0,0.99372
0.48981276599806733,0,0,1.419761584472656,0,0,1.2230400000000001
0.4926074579998385,0,0,1.1444283935546875,0,0,0.91728
0.49547727798926644,0,0,1.2665326782226562,0,0,1.2994800000000002
0.49827691400423646,0,0,1.2665326782226562,0,0,2.52252
0.5010755319963209,0,0,1.6017209106445311,0,0,0.7644
0.512364519003313,0,0,1.3287819213867187,0,0,0.53508
0.515269358002115,0,0,1.2689268798828124,0,0,1.07016
0.5180606609792449,0,0,1.4772224243164063,0,0,0.6115200000000001
0.520855518989265,0,0,1.5418658691406248,0,0,0.68796
0.5236401739821304,0,0,1.1372457885742187,0,0,0.45864
0.5264484949875623,0,0,1.3000515014648437,0,0,0.0
0.5292303529859055,0,0,1.2497732666015624,0,0,1.37592
0.5328046659997199,0,0,1.2737152832031249,0,0,1.07016
0.5356157089991029,0,0,1.2234370483398436,0,0,1.60524
0.5383996419841424,0,0,1.4006079711914061,0,0,1.07016
0.54118727799505,0,0,1.4820108276367188,0,0,1.07016
0.5440042839909438,0,0,1.1444283935546875,0,0,0.7644
0.546787493978627,0,0,1.2904746948242187,0,0,1.2994800000000002
0.5495677599974442,0,0,1.446097802734375,0,0,0.84084
0.5523495999805164,0,0,1.3479355346679687,0,0,0.84084
0.5551363659906201,0,0,1.2617442749023438,0,0,1.2230400000000001
0.5579158719920088,0,0,1.3862427612304686,0,0,1.07016
0.5606980639859103,0,0,1.6256629272460936,0,0,0.6115200000000001
0.5634968300000764,0,0,1.2737152832031249,0,0,0.0
0.5662968359829392,0,0,1.3551181396484375,0,0,-9.555
0.5691881929815281,0,0,1.3239935180664062,0,0,1.2994800000000002
0.5719766629918013,0,0,1.1228805786132812,0,0,0.68796
0.5747775579802692,0,0,1.2617442749023438,0,0,0.3822
0.5779169499874115,0,0,1.2282254516601563,0,0,0.99372
0.580994859978091,0,0,1.4317325927734375,0,0,0.91728
0.5837998479837552,0,0,0.93852705078125,0,0,0.84084
0.5865998730005231,0,0,1.3431471313476562,0,0,1.5288
0.5894294159952551,0,0,1.1707646118164061,0,0,1.2994800000000002
0.5922272369789425,0,0,1.1061211669921875,0,0,0.99372
0.5950237619981635,0,0,1.2737152832031249,0,0,0.7644
0.5978201209800318,0,0,1.369483349609375,0,0,0.84084
0.6006176639930345,0,0,1.3910311645507811,0,0,0.91728
0.6034143370052334,0,0,1.0917559570312498,0,0,0.15288000000000002
0.6062071769847535,0,0,1.3431471313476562,0,0,0.22932
0.609030534978956,0,0,1.3670891479492187,0,0,1.07016
0.6118299119989388,0,0,1.3144167114257812,0,0,0.7644
0.6146512510022148,0,0,1.350329736328125,0,0,0.45864
0.6174622569815256,0,0,1.2425906616210938,0,0,0.99372
0.6202906889957376,0,0,1.388636962890625,0,0,0.53508
0.6230950290046167,0,0,1.0941501586914062,0,0,0.30576000000000003
0.6259958309819922,0,0,1.2832920898437499,0,0,0.0
0.6288496329798363,0,0,1.2425906616210938,0,0,1.1465999999999998
0.6316487689909991,0,0,1.1851298217773436,0,0,0.99372
0.6344522009894717,0,0,1.199495031738281,0,0,0.7644
0.6372500589932315,0,0,1.2904746948242187,0,0,1.07016
0.6400563429924659,0,0,1.6208745239257811,0,0,0.6115200000000001
0.6428559979831334,0,0,1.0869675537109373,0,0,0.3822
0.6456520780047867,0,0,1.3742717529296875,0,0,0.0
0.6484477880003396,0,0,1.139639990234375,0,0,0.30576000000000003
0.6512449799920432,0,0,1.2497732666015624,0,0,0.53508
0.6540411899914034,0,0,1.13006318359375,0,0,0.84084
0.6568622519844212,0,0,1.1468225952148436,0,0,0.45864
0.6596959799935576,0,0,1.6519991455078125,0,0,0.3822
0.6624964679940604,0,0,1.1875240234375,0,0,1.1465999999999998
0.6652928999974392,0,0,1.419761584472656,0,0,0.45864
0.6681888129969593,0,0,1.3311761230468748,0,0,0.3822
0.671061169996392,0,0,1.3646949462890625,0,0,0.68796
0.6741777099960018,0,0,1.149216796875,0,0,0.91728
0.6772934540058486,0,0,1.35990654296875,0,0,1.1465999999999998
0.6804099940054584,0,0,1.2928688964843749,0,0,1.37592
0.6835679039941169,0,0,1.197100830078125,0,0,0.68796
0.6869320340047125,0,0,1.2282254516601563,0,0,0.84084
0.6901601279969327,0,0,1.5705962890624998,0,0,0.91728
0.6932850379962474,0,0,1.1276689819335937,0,0,1.07016
0.6964062259939965,0,0,1.37906015625,0,0,0.30576000000000003
0.6995519509946462,0,0,1.6711527587890624,0,0,0.68796
0.7026620469987392,0,0,1.0941501586914062,0,0,0.68796
0.705782178993104,0,0,1.35990654296875,0,0,1.1465999999999998
0.7089053859817795,0,0,1.3263877197265623,0,0,0.99372
0.7120613330043852,0,0,1.2856862915039062,0,0,0.91728
0.7151751130004413,0,0,1.3048399047851562,0,0,9.631440000000001
0.7182705049926881,0,0,1.3646949462890625,0,0,1.2230400000000001
0.7214022300031502,0,0,1.2808978881835937,0,0,0.7644
0.7245153809781186,0,0,1.2880804931640624,0,0,0.30576000000000003
0.7278134929947555,0,0,1.0965443603515623,0,0,0.53508
0.7309427369909827,0,0,1.3431471313476562,0,0,0.68796
0.7340614619897678,0,0,1.3215993164062498,0,0,1.911
0.7371795020007994,0,0,1.4101847778320311,0,0,1.07016
0.7403012459981255,0,0,1.6711527587890624,0,0,1.07016
0.7434334519784898,0,0,1.3215993164062498,0,0,1.07016
0.7465524729923345,0,0,1.369483349609375,0,0,0.7644
0.749672809994081,0,0,1.5658078857421873,0,0,1.07016
0.7527903500013053,0,0,0.9840168823242187,0,0,0.99372
0.7559345930058043,0,0,1.2401964599609374,0,0,0.84084
0.7590541699901223,0,0,1.2401964599609374,0,0,1.07016
0.7621695800044108,0,0,1.3766659545898436,0,0,0.68796
0.7653040459845215,0,0,1.3311761230468748,0,0,1.1465999999999998
0.7684602889930829,0,0,1.24498486328125,0,0,1.45236
0.7715796069824137,0,0,1.2665326782226562,0,0,1.2994800000000002
0.7747000170056708,0,0,1.5275006591796874,0,0,0.22932
0.7778171309910249,0,0,1.5203180541992187,0,0,0.84084
0.7809359300008509,0,0,1.1228805786132812,0,0,0.68796
0.7840535069990437,0,0,1.235408056640625,0,0,1.5288
0.7879866680013947,0,0,1.3623007446289062,0,0,0.99372
0.7911457440059166,0,0,1.350329736328125,0,0,0.7644
0.7942622659902554,0,0,1.2521674682617188,0,0,0.7644
0.7973811209958512,0,0,1.0917559570312498,0,0,0.84084
0.8005013460060582,0,0,1.1516109985351561,0,0,0.84084
0.8036195150052663,0,0,1.2497732666015624,0,0,1.1465999999999998
0.8067421659943648,0,0,1.4221557861328125,0,0,1.37592
0.8098592619935516,0,0,1.4125789794921875,0,0,1.1465999999999998
0.8129778389993589,0,0,1.1563994018554686,0,0,1.911
0.8160950269957539,0,0,1.429338391113281,0,0,0.68796
0.8192135849967599,0,0,1.5035586425781249,0,0,0.68796
0.8223734950006474,0,0,0.9265560424804687,0,0,0.7644
0.8254930909897666,0,0,1.3407529296874998,0,0,0.99372
0.8286110009939875,0,0,1.4604630126953124,0,0,0.45864
0.8317160219885409,0,0,1.369483349609375,0,0,0.7644
0.8348254330048803,0,0,1.1348515869140625,0,0,0.99372
0.8379409539920744,0,0,1.3024457031249999,0,0,1.60524
0.8410560869961046,0,0,1.1156979736328125,0,0,1.2994800000000002
0.8441873120027594,0,0,1.5298948608398437,0,0,0.0
0.8473047779989429,0,0,1.180341418457031,0,0,0.6115200000000001
0.8504185029887594,0,0,1.0965443603515623,0,0,0.99372
0.8535365609859582,0,0,1.3287819213867187,0,0,1.37592
0.8566521379980259,0,0,1.3910311645507811,0,0,0.84084
0.8599015660001896,0,0,1.3072341064453123,0,0,0.6115200000000001
0.8630244020023383,0,0,1.180341418457031,0,0,0.7644
0.8661476819834206,0,0,1.2713210815429687,0,0,0.91728
0.8692839809809811,0,0,1.3263877197265623,0,0,1.1465999999999998
0.8724028180004098,0,0,1.1444283935546875,0,0,1.2994800000000002
0.8756392819923349,0,0,1.9943699829101562,0,0,2.06388
0.8801233809790574,0,0,2.1021090576171875,0,0,1.75812
0.8832737729826476,0,0,2.2457611572265623,0,0,1.45236
0.886391312989872,0,0,1.9656395629882812,0,0,0.7644
0.8895089819852728,0,0,1.6017209106445311,0,0,1.68168
0.8926249670039397,0,0,1.3120225097656248,0,0,1.37592
0.8957403029780835,0,0,2.0183119995117185,0,0,1.45236
0.8988547869957983,0,0,2.4301146850585935,0,0,1.2994800000000002
0.9019708269916009,0,0,1.8148048583984373,0,0,1.75812
0.9050856079848018,0,0,1.915361328125,0,0,1.5288
0.9082023329974618,0,0,2.205059729003906,0,0,1.07016
0.9113171320059337,0,0,1.7741034301757812,0,0,1.2994800000000002
0.9144675050047226,0,0,1.7525556152343749,0,0,1.60524
0.917583378002746,0,0,1.5753846923828123,0,0,1.68168
0.9207328069896903,0,0,1.8363526733398436,0,0,2.2167600000000003
0.9238405509968288,0,0,2.212242333984375,0,0,0.68796
0.9269422759825829,0,0,1.419761584472656,0,0,0.7644
0.930038500984665,0,0,1.944091748046875,0,0,0.99372
0.9331378189963289,0,0,1.1923124267578125,0,0,2.4460800000000003
0.9362676369783003,0,0,2.099714855957031,0,0,2.52252
0.93938760299352,0,0,1.7453730102539062,0,0,1.2230400000000001
0.9427911759994458,0,0,2.2960393920898436,0,0,0.99372
0.9458922539779451,0,0,1.7884686401367187,0,0,1.5288
0.94899159000488,0,0,1.7166425903320313,0,0,1.68168
0.9520918339840136,0,0,1.1228805786132812,0,0,1.1465999999999998
0.9551880039798561,0,0,2.1906945190429687,0,0,1.75812
0.9582843029929791,0,0,2.39420166015625,0,0,1.2994800000000002
0.9613818619982339,0,0,1.3862427612304686,0,0,0.45864
0.964522826980101,0,0,2.518700146484375,0,0,1.45236
0.9676381640019827,0,0,1.8602946899414061,0,0,1.37592
0.970794313994702,0,0,0.8762778076171874,0,0,2.52252
0.9739074099925347,0,0,2.418143676757812,0,0,1.911
0.977021912985947,0,0,1.1085153686523437,0,0,1.2230400000000001
0.9801353969960473,0,0,2.1499930908203124,0,0,1.07016
0.9832498079922516,0,0,2.2673089721679687,0,0,0.53508
0.9863633849890903,0,0,0.9193734375,0,0,0.99372
0.9894777949957643,0,0,2.3151930053710936,0,0,1.911
0.992591704998631,0,0,1.9129671264648436,0,0,1.1465999999999998
0.9957067819777876,0,0,2.4444798950195312,0,0,0.7644
0.998821543995291,0,0,1.9536685546875,0,0,1.2994800000000002
1.003876044997014,0,0,1.3646949462890625,0,0,0.84084
1.0071425089845434,0,0,2.4588451049804685,0,0,0.45864
1.0104426949983463,0,0,1.5418658691406248,0,0,0.7644
1.0159432829823345,0,0,1.5538368774414062,0,0,0.30576000000000003
1.019284190988401,0,0,1.8076222534179687,0,0,1.07016
1.0225798769970424,0,0,1.6903063720703124,0,0,1.75812
1.0259013589820825,0,0,1.8746598999023436,0,0,0.07644000000000001
1.0290655279823113,0,0,1.7741034301757812,0,0,1.68168
1.0322594750032295,0,0,1.7621324218749999,0,0,3.2869200000000003
1.0354384949896485,0,0,1.5442600708007812,0,0,0.0
1.0387396439909935,0,0,1.0462661254882812,0,0,1.1465999999999998
1.0419044249865692,0,0,1.9704279663085937,0,0,2.75184
1.04504563100636,0,0,2.6910826660156246,0,0,0.91728
1.0481866149930283,0,0,0.40462008056640625,0,0,-9.784320000000001
1.0513303769985214,0,0,1.6065093139648436,0,0,3.4398000000000004
1.054509045992745,0,0,2.8203695556640622,0,0,1.5288
1.0576797329995316,0,0,0.277727392578125,0,0,-0.7644
1.0608301799802575,0,0,2.8610709838867185,0,0,2.75184
1.0640186639793683,0,0,2.2361843505859373,0,0,0.68796
1.0671689999871887,0,0,-0.2059013427734375,0,0,0.0
1.0703793349966872,0,0,2.8706477905273435,0,0,0.68796
1.0736390029778704,0,0,0.6464344482421874,0,0,-0.22932
1.075767497997731,0,0,-1.1444283935546875,0,0,0.15288000000000002
1.0772210379946046,0,0,1.4796166259765624,0,0,0.30576000000000003
1.0786823740054388,0,0,2.5522189697265625,0,0,0.99372
1.0801524319977034,0,0,2.597708801269531,0,0,1.68168
1.0816659150004853,0,0,1.6352397338867186,0,0,1.911
1.0832200089935213,0,0,-0.45489831542968745,0,0,-9.784320000000001
1.084743510989938,0,0,0.4525041137695312,0,0,-0.30576000000000003
1.0861921619798522,0,0,2.6623522460937497,0,0,1.37592
1.0876318499795161,0,0,3.2609026611328122,0,0,1.911
1.0890774260042235,0,0,1.2330138549804688,0,0,0.30576000000000003
1.0906081879802514,0,0,-0.12210428466796874,0,0,-1.2230400000000001
1.0921058749954682,0,0,-0.01915361328125,0,0,0.15288000000000002
1.0935654329950921,0,0,1.2521674682617188,0,0,1.1465999999999998
1.095030008989852,0,0,3.1124621582031247,0,0,2.2167600000000003
1.0965428820054512,0,0,2.499546533203125,0,0,1.1465999999999998
1.0980271989828907,0,0,0.33039982910156246,0,0,1.75812
1.0995107569906395,0,0,-1.0366893188476562,0,0,-9.784320000000001
1.1009609820030164,0,0,1.35990654296875,0,0,0.91728
1.102354058995843,0,0,2.3487118286132813,0,0,1.2230400000000001
1.103737450990593,0,0,3.0166940917968748,0,0,1.75812
1.1051385839818977,0,0,2.080561242675781,0,0,1.75812
1.1065525499871,0,0,0.6584054565429687,0,0,0.45864
1.1079331829969306,0,0,0.10295067138671875,0,0,0.68796
1.109313408989692,0,0,0.97683427734375,0,0,0.30576000000000003
1.1106975419970695,0,0,1.6352397338867186,0,0,0.68796
1.112076896999497,0,0,1.9776105712890624,0,0,0.7644
1.1134565109969117,0,0,1.47482822265625,0,0,0.53508
1.1148777549969964,0,0,0.18914193115234373,0,0,-0.07644000000000001
1.1162582029937766,0,0,0.507570751953125,0,0,1.5288
1.1176378169911914,0,0,2.1930887207031247,0,0,2.2931999999999997
1.1190525239799172,0,0,2.2457611572265623,0,0,2.06388
1.120479526987765,0,0,1.9416975463867185,0,0,0.30576000000000003
1.1218595679965802,0,0,0.6847416748046875,0,0,0.84084
1.1232421629829332,0,0,-0.00239420166015625,0,0,-0.68796
1.1246239820029587,0,0,0.8690952026367187,0,0,0.0
1.1260549659782555,0,0,2.1978771240234374,0,0,2.2931999999999997
1.1275137089833152,0,0,2.3965958618164063,0,0,1.45236
1.1289002309786156,0,0,0.7757213378906249,0,0,0.22932
1.1302802719874308,0,0,-0.0143652099609375,0,0,-0.22932
1.131663904991001,0,0,-0.7302315063476562,0,0,-0.68796
1.1330447779910173,0,0,1.7645266235351562,0,0,0.53508
1.1344399479858112,0,0,2.061407629394531,0,0,1.45236
1.1358166369900573,0,0,2.6503812377929687,0,0,2.4460800000000003
1.1371957329974975,0,0,1.9847931762695312,0,0,1.07016
1.1385763099824544,0,0,0.469263525390625,0,0,0.22932
1.1399548509798478,0,0,0.1005564697265625,0,0,0.15288000000000002
1.1413548729906324,0,0,1.4724340209960938,0,0,0.68796
1.1427707269904204,0,0,2.24097275390625,0,0,1.2230400000000001
1.144156230991939,0,0,2.6048914062499997,0,0,0.45864
1.1455355299985968,0,0,1.8507178833007811,0,0,1.2230400000000001
1.1469170709897298,0,0,-0.07422025146484375,0,0,-0.6115200000000001
1.1482987589843106,0,0,-0.07900865478515624,0,0,0.30576000000000003
1.1496785589843057,0,0,0.8667010009765624,0,0,0.99372
1.151058376999572,0,0,1.9728221679687499,0,0,1.07016
1.152437121985713,0,0,1.905784521484375,0,0,0.7644
1.1538159030023962,0,0,1.3766659545898436,0,0,1.75812
1.1551979799987748,0,0,0.7398083129882812,0,0,0.45864
1.1565773169859312,0,0,0.9504980590820312,0,0,0.6115200000000001
1.157955893984763,0,0,1.6304513305664061,0,0,2.2167600000000003
1.159335620002821,0,0,1.68551796875,0,0,0.91728
1.1607155679957941,0,0,1.47482822265625,0,0,0.0
1.1620937199913897,0,0,1.0821791503906248,0,0,0.6115200000000001
1.1634737779968418,0,0,0.411802685546875,0,0,0.07644000000000001
1.1648524859920144,0,0,1.8339584716796873,0,0,0.45864
1.1662309149978682,0,0,1.707065783691406,0,0,1.83456
1.167619863001164,0,0,2.346317626953125,0,0,1.911
1.169006902986439,0,0,0.9265560424804687,0,0,0.84084
1.1703941659943666,0,0,0.36152445068359373,0,0,-0.15288000000000002
1.1717819279874675,0,0,0.5315127685546874,0,0,0.07644000000000001
1.1731686719867866,0,0,1.886630908203125,0,0,0.68796
1.1745557679969352,0,0,2.1595698974609374,0,0,0.68796
1.1759410679806024,0,0,2.262520568847656,0,0,1.911
1.1773269049881492,0,0,2.0159177978515626,0,0,1.911
1.1787138519866858,0,0,1.0534487304687499,0,0,-0.30576000000000003
1.1800995410012547,0,0,0.51714755859375,0,0,0.6115200000000001
1.1814859519945458,0,0,1.9512743530273435,0,0,0.68796
1.1828722509962972,0,0,2.099714855957031,0,0,0.68796
1.184258161985781,0,0,1.3934253662109375,0,0,0.22932
1.185652312997263,0,0,1.1923124267578125,0,0,1.1465999999999998
1.1870382799825165,0,0,0.143652099609375,0,0,-0.6115200000000001
1.1884308199805673,0,0,0.5770026000976562,0,0,0.7644
1.1898169899941422,0,0,1.5873557006835937,0,0,1.07016
1.191203381982632,0,0,1.9512743530273435,0,0,0.91728
1.192589162994409,0,0,1.2593500732421874,0,0,0.91728
1.1939752220059745,0,0,0.689530078125,0,0,0.68796
1.195362058992032,0,0,0.3758896606445312,0,0,0.53508
1.1967487660003826,0,0,2.808398547363281,0,0,1.37592
1.1981348799890839,0,0,2.6336218261718747,0,0,2.2167600000000003
1.1995217170042451,0,0,2.3295582153320313,0,0,1.60524
1.2009084799792618,0,0,0.5793968017578125,0,0,0.3822
1.2022944639902562,0,0,0.44053310546874996,0,0,0.0
1.2036817460029852,0,0,0.45010991210937495,0,0,0.07644000000000001
1.2050679709936958,0,0,2.6599580444335937,0,0,0.6115200000000001
1.2064552340016235,0,0,2.2074539306640624,0,0,1.68168
1.2078424409846775,0,0,0.8858546142578124,0,0,1.83456
1.2092285919934511,0,0,0.09337386474609374,0,0,0.84084
1.21061563299736,0,0,-0.5961562133789062,0,0,-0.91728
1.2120042289898265,0,0,0.948103857421875,0,0,0.6115200000000001
1.2133907319803257,0,0,2.511517541503906,0,0,1.98744
1.2147774570039473,0,0,3.2537200561523436,0,0,2.75184
1.2161644419829827,0,0,1.9847931762695312,0,0,1.83456
1.217551131005166,0,0,1.47482822265625,0,0,1.83456
1.2189376709866337,0,0,-0.8164227661132812,0,0,-0.84084
1.2203253780025989,0,0,0.05746083984375,0,0,0.22932
1.2217116959800478,0,0,2.061407629394531,0,0,0.91728
1.2230980519962031,0,0,2.6910826660156246,0,0,1.68168
1.2244849069975317,0,0,1.879448303222656,0,0,0.68796
1.2258721689868253,0,0,0.4908113403320312,0,0,-7.94976
1.2272602839802857,0,0,-0.20829554443359374,0,0,0.6115200000000001
1.2286472309788223,0,0,0.4644751220703125,0,0,1.07016
1.23003338300623,0,0,2.3582886352539063,0,0,1.98744
1.231419793999521,0,0,2.461239306640625,0,0,0.99372
1.2328062599990517,0,0,0.7972691528320313,0,0,0.6115200000000001
1.234192540985532,0,0,0.2920926025390625,0,0,-0.30576000000000003
1.235579173982842,0,0,0.14604630126953125,0,0,0.07644000000000001
1.2369654549984261,0,0,3.296815686035156,0,0,1.75812
1.2383535699918866,0,0,2.5426421630859375,0,0,1.911
1.2397405359952245,0,0,0.5961562133789062,0,0,0.99372
1.241127149987733,0,0,-0.19632453613281248,0,0,-9.784320000000001
1.2425156719982624,0,0,-0.8571241943359375,0,0,-1.2994800000000002
1.24390245298855,0,0,0.8858546142578124,0,0,0.0
1.2452887159888633,0,0,2.8012159423828122,0,0,0.99372
1.246675737987971,0,0,3.5529952636718747,0,0,2.4460800000000003
1.24806112999795,0,0,1.6424223388671875,0,0,1.75812
1.249447615002282,0,0,0.51714755859375,0,0,0.99372
1.2508355070021935,0,0,-1.37906015625,0,0,-1.45236
1.2522234549978748,0,0,0.14604630126953125,0,0,0.15288000000000002
1.2536098469863646,0,0,2.1356278808593747,0,0,0.45864
1.254996294999728,0,0,3.6655227416992187,0,0,1.68168
1.2563826499972492,0,0,2.4684219116210935,0,0,1.45236
1.2577687459997833,0,0,0.2442085693359375,0,0,1.37592
1.2591554159880616,0,0,-1.2114660400390624,0,0,-1.07016
1.2605426039954182,0,0,-0.41419688720703124,0,0,-0.15288000000000002
1.2619326449930668,0,0,2.607285607910156,0,0,1.68168
1.2633193520014174,0,0,3.220201232910156,0,0,1.2230400000000001
1.2647060400049668,0,0,1.3670891479492187,0,0,1.2994800000000002
1.266093746991828,0,0,0.15562310791015624,0,0,1.07016
1.267480565002188,0,0,-0.8068459594726562,0,0,0.22932
1.2688679019920528,0,0,1.6136919189453125,0,0,0.3822
1.2702537940058392,0,0,2.147598889160156,0,0,2.2931999999999997
1.2716416679904796,0,0,1.8124106567382812,0,0,1.07016
1.2730277639930137,0,0,1.3000515014648437,0,0,1.2230400000000001
1.2744299339829013,0,0,0.5410895751953124,0,0,0.15288000000000002
1.2758165480045136,0,0,0.7996633544921875,0,0,0.3822
1.2772023849829566,0,0,2.2960393920898436,0,0,1.1465999999999998
1.2785892589890864,0,0,2.750937707519531,0,0,1.83456
1.2799756879976485,0,0,1.7741034301757812,0,0,1.45236
1.281362135981908,0,0,1.22583125,0,0,0.6115200000000001
1.2827483429864515,0,0,-1.0941501586914062,0,0,-1.2230400000000001
1.2841372159891762,0,0,0.13646949462890623,0,0,0.07644000000000001
1.285523682978237,0,0,1.5562310791015623,0,0,2.06388
1.2869100749958307,0,0,3.6463691284179687,0,0,2.14032
1.2882965779863298,0,0,2.1811177124023438,0,0,1.75812
1.2896826929936651,0,0,-0.277727392578125,0,0,0.99372
1.2910701959917787,0,0,-1.695094775390625,0,0,-1.45236
1.2924579399987124,0,0,-0.9552864624023437,0,0,-0.7644
1.293845665990375,0,0,2.683900061035156,0,0,1.45236
1.2952323729987256,0,0,3.746925598144531,0,0,1.68168
1.296620171982795,0,0,2.5737667846679684,0,0,2.2931999999999997
1.2980065649899188,0,0,0.7350199096679687,0,0,1.911
1.299392437998904,0,0,-1.3527239379882812,0,0,-0.3822
1.300779885990778,0,0,0.5315127685546874,0,0,-0.7644
1.3021667230059393,0,0,2.039859814453125,0,0,1.60524
1.3035532259964384,0,0,3.057395520019531,0,0,0.91728
1.3049390259839129,0,0,2.5857377929687497,0,0,1.45236
1.3063256400055252,0,0,1.465251416015625,0,0,0.0
1.307711939996807,0,0,-0.6105214233398437,0,0,9.40212
1.3090991280041635,0,0,0.6009446166992187,0,0,0.22932
1.3104865019849967,0,0,1.180341418457031,0,0,1.2994800000000002
1.3118716719909571,0,0,2.0159177978515626,0,0,1.75812
1.3132577679934911,0,0,1.9536685546875,0,0,0.53508
1.3146456419781316,0,0,-0.3016694091796875,0,0,-0.30576000000000003
1.3160325339995325,0,0,0.37828386230468747,0,0,0.22932
1.3174191849830095,0,0,1.8339584716796873,0,0,1.2230400000000001
1.3188052629993763,0,0,2.8203695556640622,0,0,1.2230400000000001
1.32022643199889,0,0,1.9129671264648436,0,0,2.14032
1.321606787998462,0,0,0.7158662963867187,0,0,1.83456
1.32298921700567,0,0,-0.4908113403320312,0,0,-0.7644
1.3243703309854027,0,0,0.12689268798828124,0,0,-0.6115200000000001
1.3257497609884012,0,0,2.6001030029296874,0,0,1.68168
1.3271312459837645,0,0,3.0693665283203124,0,0,1.75812
1.3285108229902107,0,0,1.7262193969726563,0,0,1.98744
1.3298988259921316,0,0,0.2705447875976562,0,0,1.2994800000000002
1.3313284589967225,0,0,-0.8547299926757812,0,0,-1.1465999999999998
1.3327110179816373,0,0,1.0175357055664063,0,0,0.0
1.334089446987491,0,0,1.8818425048828125,0,0,1.37592
1.3354772279853933,0,0,2.8203695556640622,0,0,1.98744
1.336863545991946,0,0,2.770091320800781,0,0,2.75184
1.3382493829994928,0,0,1.2952630981445312,0,0,2.06388
1.3396337009908166,0,0,-0.8595183959960937,0,0,0.3822
1.3410353899816982,0,0,0.3854664672851562,0,0,-0.68796
1.3424532449862454,0,0,1.5155296508789062,0,0,1.2230400000000001
1.3438341179862618,0,0,2.9041666137695312,0,0,2.06388
1.3452130109944846,0,0,2.7653029174804686,0,0,1.45236
1.34659386597923,0,0,0.105344873046875,0,0,1.07016
1.3479723320051562,0,0,-0.6919242797851562,0,0,0.0
1.3493522249918897,0,0,0.15322890625,0,0,0.45864
1.350732060993323,0,0,1.924938134765625,0,0,0.15288000000000002
1.3521138789947145,0,0,1.8602946899414061,0,0,1.45236
1.3534941609832458,0,0,1.2832920898437499,0,0,0.22932
1.3548872569808736,0,0,0.39264907226562495,0,0,0.15288000000000002
1.356278648978332,0,0,0.5339069702148437,0,0,1.07016
1.357666651980253,0,0,2.147598889160156,0,0,1.5288
1.359055228997022,0,0,2.2266075439453124,0,0,0.99372
1.3604428439866751,0,0,1.209071838378906,0,0,1.07016
1.3618296429922339,0,0,0.5315127685546874,0,0,1.45236
1.3632209619972855,0,0,0.08140285644531249,0,0,-1.98744
1.3646117799798958,0,0,1.8842367065429686,0,0,-0.22932
1.3659996159840375,0,0,2.863465185546875,0,0,2.2167600000000003
1.3673872489889618,0,0,3.1124621582031247,0,0,1.45236
1.368774475005921,0,0,1.0869675537109373,0,0,0.7644
1.3701612739823759,0,0,-0.011971008300781249,0,0,0.45864
1.3715500560065266,0,0,-0.3902548706054687,0,0,-0.45864
1.3729387070052326,0,0,1.467645617675781,0,0,-0.22932
1.374326969991671,0,0,2.4779987182617185,0,0,1.5288
1.3757210279873107,0,0,2.5474305664062498,0,0,0.99372
1.3772752340009902,0,0,1.898601916503906,0,0,1.37592
1.378698496002471,0,0,0.33039982910156246,0,0,0.6115200000000001
1.3800867579993792,0,0,-0.16041151123046873,0,0,0.68796
1.381476020993432,0,0,1.7932570434570312,0,0,1.37592
1.3828635060053784,0,0,2.4301146850585935,0,0,0.0
1.3842624529788736,0,0,2.114080065917969,0,0,0.91728
1.3856494379870128,0,0,1.2378022583007813,0,0,1.2994800000000002
1.3870365899929311,0,0,0.5339069702148437,0,0,0.07644000000000001
1.3884232779964805,0,0,1.1851298217773436,0,0,0.99372
1.3898099479847588,0,0,1.446097802734375,0,0,1.5288
1.3911972850037273,0,0,1.8339584716796873,0,0,0.6115200000000001
1.3925835469854064,0,0,1.180341418457031,0,0,1.1465999999999998
1.3939698099857196,0,0,1.2569558715820313,0,0,2.4460800000000003
1.3953565169940703,0,0,1.149216796875,0,0,0.6115200000000001
1.3967427799943835,0,0,1.9752163696289062,0,0,0.91728
1.3981295239937026,0,0,1.9823989746093749,0,0,1.911
1.3995166939857882,0,0,0.9552864624023437,0,0,0.7644
1.4009029009903315,0,0,0.9169792358398436,0,0,0.0
1.402289349003695,0,0,0.5817910034179687,0,0,0.6115200000000001
1.4036758150032256,0,0,0.8188169677734375,0,0,0.99372
1.4050617439788766,0,0,2.0302830078125,0,0,1.1465999999999998
1.4064498769876081,0,0,2.3487118286132813,0,0,2.2167600000000003
1.4078377319965512,0,0,1.1659762084960936,0,0,2.2167600000000003
1.4092246609798167,0,0,0.38307226562499996,0,0,0.6115200000000001
1.4106115349859465,0,0,-0.32082302246093747,0,0,-0.7644
1.4119994459906593,0,0,0.05027823486328125,0,0,1.2994800000000002
1.413386078987969,0,0,3.2513258544921873,0,0,1.5288
1.4147728229872882,0,0,3.6727053466796873,0,0,1.911
1.4161584929970559,0,0,3.2130186279296873,0,0,2.2931999999999997
1.41754458899959,0,0,-0.02154781494140625,0,0,0.99372
1.4189316109986976,0,0,-1.4149731811523436,0,0,-1.83456
1.4203190959815402,0,0,-1.0438719238281249,0,0,-0.22932
1.4217070799786597,0,0,2.5330653564453125,0,0,1.1465999999999998
1.4230936389940325,0,0,3.356670727539062,0,0,0.22932
1.424479438981507,0,0,1.43652099609375,0,0,0.3822
1.4258657199970912,0,0,0.7445967163085937,0,0,1.37592
1.4272535009949934,0,0,-0.33039982910156246,0,0,-0.68796
1.4286410969798453,0,0,1.2976572998046874,0,0,0.45864
1.430030822986737,0,0,1.8100164550781248,0,0,1.911
1.4314176040061284,0,0,1.9656395629882812,0,0,0.68796
1.4328028849849943,0,0,1.5682020874023437,0,0,-0.45864
1.4341901099833194,0,0,0.9816226806640624,0,0,0.3822
1.4355761879996862,0,0,1.0103531005859374,0,0,9.32568
1.436962820996996,0,0,2.3247698120117186,0,0,1.2230400000000001
1.4383497499802615,0,0,2.683900061035156,0,0,2.36964
1.4397359940048773,0,0,1.5107412475585937,0,0,1.911
1.441121737996582,0,0,0.5961562133789062,0,0,-0.15288000000000002
1.4425080009968951,0,0,-0.9696516723632812,0,0,-2.36964
1.4439056149858516,0,0,0.17956512451171874,0,0,0.0
1.4452922479831614,0,0,2.5258827514648434,0,0,1.2230400000000001
1.446680547989672,0,0,3.1699229980468746,0,0,1.1465999999999998
1.4480656619998626,0,0,1.956062756347656,0,0,2.82828
1.4494518879801035,0,0,-0.6009446166992187,0,0,1.5288
1.4508642239961773,0,0,-1.7214309936523438,0,0,-1.2994800000000002
1.4522525789798237,0,0,-0.9433154541015625,0,0,0.68796
1.4536390639841557,0,0,3.5242648437499997,0,0,1.75812
1.4550280859984923,0,0,4.390965844726562,0,0,1.75812
1.4564157190034166,0,0,2.142810485839844,0,0,2.4460800000000003
1.4578029259864707,0,0,0.2442085693359375,0,0,2.5989600000000004
1.459190317982575,0,0,-1.6711527587890624,0,0,-1.2994800000000002
1.4605778209806886,0,0,0.9169792358398436,0,0,-0.84084
1.4619645279890392,0,0,2.664746447753906,0,0,2.2931999999999997
1.4633513650042005,0,0,3.066972326660156,0,0,1.60524
1.464737404981861,0,0,2.042254016113281,0,0,1.68168
1.4661232240032405,0,0,0.9840168823242187,0,0,1.2230400000000001
1.4675097819999792,0,0,-1.1133037719726562,0,0,0.07644000000000001
1.46889648999786,0,0,0.5123591552734374,0,0,-0.15288000000000002
1.4702827889996115,0,0,1.8004396484374998,0,0,1.83456
1.4716692179790698,0,0,2.291250988769531,0,0,1.98744
1.4730551480024587,0,0,2.042254016113281,0,0,1.2230400000000001
1.4744420399947558,0,0,0.15322890625,0,0,0.84084
1.4758279319794383,0,0,0.13646949462890623,0,0,0.30576000000000003
1.4772138609841932,0,0,1.3623007446289062,0,0,1.2230400000000001
1.4786006979993545,0,0,2.6527754394531247,0,0,0.84084
1.4799863130028825,0,0,2.042254016113281,0,0,1.2230400000000001
1.4813727969885804,0,0,0.928950244140625,0,0,1.2994800000000002
1.4827593749796506,0,0,-0.02633621826171875,0,0,-1.07016
1.4841463229968213,0,0,-0.4165910888671875,0,0,0.15288000000000002
1.4855334739841055,0,0,2.693476867675781,0,0,0.99372
1.486920013994677,0,0,3.1842882080078123,0,0,1.07016
1.488306424987968,0,0,1.6232687255859375,0,0,1.5288
1.4896922989864834,0,0,0.41419688720703124,0,0,1.75812
1.491078691004077,0,0,-1.3144167114257812,0,0,-1.60524
1.4924659910029732,0,0,0.7302315063476562,0,0,-1.07016
1.493852401006734,0,0,2.29843359375,0,0,1.45236
1.495242553006392,0,0,3.8187516479492185,0,0,1.5288
1.4966292229946703,0,0,2.7269956909179687,0,0,0.91728
1.4980157999962103,0,0,1.5155296508789062,0,0,2.98116
1.4994026369822677,0,0,-2.1404162841796874,0,0,-1.2994800000000002
1.5007901589851826,0,0,-0.21068974609375,0,0,-0.99372
1.5021773839835078,0,0,2.2074539306640624,0,0,0.91728
1.5035635359818116,0,0,4.144363073730468,0,0,1.1465999999999998
1.5049497979925945,0,0,2.6288334228515624,0,0,1.2994800000000002
1.5063365800015163,0,0,-0.9888052856445312,0,0,0.15288000000000002
1.507725064002443,0,0,-2.221819140625,0,0,0.22932
1.5091119199933019,0,0,-0.7062894897460937,0,0,-0.15288000000000002
1.5104999039904214,0,0,2.6144682128906247,0,0,0.99372
1.5118856850021984,0,0,2.6671406494140624,0,0,0.91728
1.513271725998493,0,0,2.152387292480469,0,0,2.14032
1.5146584879839793,0,0,0.6009446166992187,0,0,1.07016
1.5160624730051495,0,0,-0.7230489013671875,0,0,0.45864
1.5174502729787491,0,0,1.8363526733398436,0,0,1.75812
1.5188375540019479,0,0,2.73896669921875,0,0,1.37592
1.5204438509827014,0,0,2.3487118286132813,0,0,1.60524
1.5218291689816397,0,0,1.5059528442382812,0,0,2.52252
1.5232114130049013,0,0,0.16759411621093748,0,0,-0.99372
1.5245919349836186,0,0,0.6296750366210937,0,0,-0.99372
1.525971216004109,0,0,2.2385785522460937,0,0,1.45236
1.527351145981811,0,0,2.403778466796875,0,0,1.37592
1.5287300380005036,0,0,1.7573440185546874,0,0,1.37592
1.5301086340041365,0,0,0.9576806640625,0,0,1.1465999999999998
1.5314886739943177,0,0,-1.2282254516601563,0,0,-0.30576000000000003
1.5328692149778362,0,0,0.6248866333007812,0,0,0.30576000000000003
1.5342479409882799,0,0,2.9376854370117185,0,0,2.36964
1.5356352959934156,0,0,3.1747114013671873,0,0,2.14032
1.537021669006208,0,0,2.4779987182617185,0,0,1.2994800000000002
1.5384198949905112,0,0,0.07900865478515624,0,0,1.07016
1.5398048799834214,0,0,-1.1563994018554686,0,0,-0.91728
1.5412073269835673,0,0,1.5969325073242187,0,0,0.0
1.542642922984669,0,0,3.189076611328125,0,0,0.84084
1.5440235559944995,0,0,2.8323405639648436,0,0,2.4460800000000003
1.5454032069828827,0,0,1.5634136840820312,0,0,2.06388
1.5467837110045366,0,0,-0.00718260498046875,0,0,-1.07016
1.5481639920035377,0,0,-1.13006318359375,0,0,9.555
1.5495441060047597,0,0,1.3383587280273437,0,0,0.07644000000000001
1.5509340169955976,0,0,2.6431986328124997,0,0,0.7644
1.5523126689950004,0,0,2.4947581298828125,0,0,0.84084
1.5536915799893904,0,0,1.8938135131835936,0,0,1.911
1.5550707499787677,0,0,1.0606313354492187,0,0,0.0
1.5564491050026845,0,0,0.2753331909179687,0,0,0.07644000000000001
1.5578277189924847,0,0,1.0486603271484374,0,0,0.99372
1.5592085009848233,0,0,2.042254016113281,0,0,0.6115200000000001
1.5605944480048493,0,0,1.946485949707031,0,0,0.3822
1.5620274329849053,0,0,1.6903063720703124,0,0,1.2230400000000001
1.563418453995837,0,0,-0.201112939453125,0,0,0.0
1.564808623981662,0,0,1.1061211669921875,0,0,0.53508
1.5661962940066587,0,0,1.4700398193359374,0,0,1.83456
1.567583982978249,0,0,1.1851298217773436,0,0,1.60524
1.5689711529994383,0,0,0.7493851196289062,0,0,0.7644
1.570376285992097,0,0,0.86191259765625,0,0,0.53508
1.5717642329982482,0,0,0.689530078125,0,0,0.15288000000000002
1.5731510519981384,0,0,2.1930887207031247,0,0,1.2994800000000002
1.5745551659783814,0,0,3.124433166503906,0,0,1.2994800000000002
1.5759432060003746,0,0,2.5163059448242184,0,0,2.52252
1.5773303949972615,0,0,0.316034619140625,0,0,1.5288
1.5787182129861321,0,0,-0.8379705810546875,0,0,-1.1465999999999998
1.5801077159994747,0,0,-0.9648632690429687,0,0,0.0
1.5814953859953675,0,0,2.530671154785156,0,0,0.91728
1.5828828709782101,0,0,3.220201232910156,0,0,1.60524
1.5842699109925888,0,0,1.3407529296874998,0,0,1.07016
1.5856565069989301,0,0,0.6823474731445313,0,0,2.2167600000000003
1.5870438249839935,0,0,-0.3758896606445312,0,0,-0.3822
1.5884324399812613,0,0,1.2689268798828124,0,0,1.37592
1.589819461980369,0,0,2.231395947265625,0,0,1.1465999999999998
1.5912070579943247,0,0,2.389413256835937,0,0,0.84084
1.5925942460016813,0,0,1.7429788085937499,0,0,1.37592
1.5939812859869562,0,0,0.9313444458007812,0,0,1.45236
1.59537534500123,0,0,0.14604630126953125,0,0,0.0
1.5967625709890854,0,0,1.3551181396484375,0,0,0.30576000000000003
1.5981496299791615,0,0,2.032677209472656,0,0,1.07016
1.599536800000351,0,0,1.5586252807617187,0,0,1.07016
1.6009234329976607,0,0,0.948103857421875,0,0,0.6115200000000001
1.602322231978178,0,0,0.5051765502929687,0,0,0.99372
1.60371030998067,0,0,0.296881005859375,0,0,1.75812
1.6050978309940547,0,0,2.094926452636719,0,0,1.37592
1.6064862420025747,0,0,2.418143676757812,0,0,1.68168
1.6078765970014501,0,0,1.9967641845703124,0,0,0.91728
1.6092643039883114,0,0,0.5123591552734374,0,0,0.68796
1.6106519929890055,0,0,-0.3591302490234375,0,0,-1.45236
1.6120406439877115,0,0,-0.12210428466796874,0,0,0.07644000000000001
1.6134295359952375,0,0,2.7533319091796873,0,0,1.83456
1.6148172619869001,0,0,3.3399113159179685,0,0,1.5288
1.6162991159944795,0,0,1.0223241088867188,0,0,1.98744
1.6176881569845136,0,0,0.1771709228515625,0,0,1.5288
1.6190758449956775,0,0,-1.1707646118164061,0,0,-1.911
1.6204651449806988,0,0,1.1827356201171875,0,0,0.07644000000000001
1.621852629003115,0,0,2.849099975585937,0,0,1.37592
1.6232351509970613,0,0,3.0741549316406247,0,0,1.68168
1.6246131919906475,0,0,2.0638018310546875,0,0,1.5288
1.6259918059804477,0,0,0.8571241943359375,0,0,1.83456
1.6274277909833472,0,0,-1.3048399047851562,0,0,-0.30576000000000003
1.6289345149998553,0,0,0.8068459594726562,0,0,-0.3822
1.63033429600182,0,0,3.418919970703125,0,0,1.5288
1.6317230399872642,0,0,2.8275521606445313,0,0,1.1465999999999998
1.6331300799793098,0,0,1.0199299072265624,0,0,0.7644
1.6345193609886337,0,0,-0.3327940307617187,0,0,-0.22932
1.6359079380054027,0,0,-0.82360537109375,0,0,0.0
1.6372961080051027,0,0,2.3056161987304686,0,0,0.53508
1.638700962997973,0,0,2.971204260253906,0,0,1.911
1.6400792819913477,0,0,0.9552864624023437,0,0,1.5288
1.64145823000581,0,0,0.19153613281249998,0,0,0.45864
1.6428696399962064,0,0,-0.584185205078125,0,0,-0.91728
1.644258402986452,0,0,2.0302830078125,0,0,0.91728
1.6456456099986099,0,0,2.920926025390625,0,0,1.98744
1.647032834996935,0,0,3.6583401367187496,0,0,2.14032
1.648419876000844,0,0,1.5442600708007812,0,0,2.6754
1.6498068420041818,0,0,0.6009446166992187,0,0,1.83456
1.6511945859820116,0,0,-1.37906015625,0,0,-1.2994800000000002
1.6525826079887338,0,0,1.4053963745117186,0,0,-0.3822
1.6540481470001396,0,0,2.4516625,0,0,1.68168
1.655441131995758,0,0,2.9759926635742184,0,0,1.5288
1.657074354996439,0,0,1.388636962890625,0,0,1.911
1.658471931994427,0,0,-0.6081272216796875,0,0,0.99372
1.659859064995544,0,0,-1.7645266235351562,0,0,0.68796
1.661250420002034,0,0,1.8028338500976562,0,0,-0.53508
1.6626592940010596,0,0,3.5769372802734374,0,0,1.1465999999999998
1.6640771300008055,0,0,2.4779987182617185,0,0,1.60524
1.6654654669982847,0,0,1.5179238525390624,0,0,1.75812
1.666855413990561,0,0,-0.49320554199218747,0,0,-0.15288000000000002
1.668243733001873,0,0,0.12689268798828124,0,0,1.07016
1.6696307910024188,0,0,1.24498486328125,0,0,1.2994800000000002
1.6710181100061163,0,0,2.829946362304687,0,0,1.2994800000000002
1.6724050389893819,0,0,2.7269956909179687,0,0,2.2931999999999997
1.6737916349957231,0,0,2.176329309082031,0,0,2.5989600000000004
1.6751787310058717,0,0,-0.8403647827148437,0,0,0.15288000000000002
1.6765698450035416,0,0,0.33039982910156246,0,0,0.22932
1.6779564220050815,0,0,1.5466542724609373,0,0,1.98744
1.679343573981896,0,0,2.308010400390625,0,0,0.7644
1.6807297809864394,0,0,1.89620771484375,0,0,1.37592
1.682115913979942,0,0,0.16280571289062498,0,0,1.83456
1.6835212129808497,0,0,-0.8810662109374999,0,0,0.22932
1.6849088279996067,0,0,0.6488286499023437,0,0,-0.22932
1.6862960899889003,0,0,2.6431986328124997,0,0,1.68168
1.6876847420062404,0,0,2.5234885498046875,0,0,1.5288
1.689071985980263,0,0,1.5849614990234373,0,0,2.06388
1.6904586000018753,0,0,-0.12210428466796874,0,0,0.6115200000000001
1.6918535479926504,0,0,-1.0749965454101562,0,0,0.0
1.693241995992139,0,0,1.6208745239257811,0,0,0.3822
1.6946296289970633,0,0,3.6272155151367187,0,0,1.75812
1.696015391004039,0,0,2.8562825805664063,0,0,2.36964
1.6974024689989164,0,0,1.5729904907226562,0,0,1.68168
1.6987892129982356,0,0,-0.3136404174804687,0,0,-0.53508
1.7001763459993526,0,0,-1.0726023437499999,0,0,-0.68796
1.7015643490012735,0,0,1.2473790649414063,0,0,0.0
1.7029500379867386,0,0,2.93050283203125,0,0,0.0
1.7043343189870939,0,0,3.1555577880859373,0,0,2.06388
1.7057191740022972,0,0,2.0350714111328125,0,0,1.83456
1.7071448439965025,0,0,-1.2138602416992186,0,0,-0.6115200000000001
1.7085355510062072,0,0,-0.7517793212890624,0,0,-0.91728
1.7099256280052941,0,0,1.1013327636718748,0,0,1.45236
1.7113133349921554,0,0,3.3399113159179685,0,0,-0.15288000000000002
1.712701078999089,0,0,3.0310593017578125,0,0,1.2994800000000002
1.7140888599969912,0,0,1.1707646118164061,0,0,2.2931999999999997
1.7154764749866445,0,0,-0.565031591796875,0,0,-0.15288000000000002
1.7168644779885653,0,0,-0.40462008056640625,0,0,-0.7644
1.718252628983464,0,0,2.0973206542968748,0,0,1.83456
1.7196402069821488,0,0,2.712630480957031,0,0,1.37592
1.7210324319894426,0,0,2.068590234375,0,0,0.3822
1.722465064987773,0,0,0.5195417602539062,0,0,0.99372
1.7238541239930782,0,0,-0.622492431640625,0,0,0.6115200000000001
1.7252859409782104,0,0,1.1037269653320312,0,0,0.07644000000000001
1.7267356480006129,0,0,1.9919757812499999,0,0,0.3822
1.7281171689974144,0,0,2.3295582153320313,0,0,2.4460800000000003
1.7294961540028453,0,0,1.9321207397460936,0,0,2.2931999999999997
1.730895065004006,0,0,0.5003881469726562,0,0,-0.84084
1.7322842160065193,0,0,0.3184288208007812,0,0,0.30576000000000003
1.7336720899911597,0,0,1.8291700683593748,0,0,1.2230400000000001
1.7350552050047554,0,0,2.463633508300781,0,0,0.68796
1.7364343559893314,0,0,2.291250988769531,0,0,2.36964
1.7378129519929644,0,0,1.7573440185546874,0,0,2.6754
1.739200288982829,0,0,-0.8355763793945312,0,0,-0.6115200000000001
1.7405899399891496,0,0,-0.38786066894531246,0,0,-0.6115200000000001
1.741983554995386,0,0,2.3415292236328122,0,0,1.83456
1.7433873729896732,0,0,2.8419173706054686,0,0,0.45864
1.7447755429893732,0,0,2.829946362304687,0,0,2.2931999999999997
1.7461628789897077,0,0,0.51714755859375,0,0,2.6754
1.7475449570047203,0,0,-0.8020575561523438,0,0,0.68796
1.7489253490057308,0,0,-0.8379705810546875,0,0,-1.45236
1.7503528149973135,0,0,2.480392919921875,0,0,2.06388
1.7517438000068069,0,0,3.2513258544921873,0,0,2.52252
1.7531312099890783,0,0,2.7054478759765623,0,0,1.75812
1.7545153060054872,0,0,1.3575123413085937,0,0,1.75812
1.7558951429964509,0,0,-0.36152445068359373,0,0,0.30576000000000003
1.7572748689854052,0,0,0.17956512451171874,0,0,-0.6115200000000001
1.7586608910060022,0,0,1.467645617675781,0,0,-0.84084
1.76004872698104,0,0,2.4899697265625,0,0,2.14032
1.7614364159817342,0,0,2.262520568847656,0,0,1.911
1.7628240299818572,0,0,0.9552864624023437,0,0,0.0
1.7642108669970185,0,0,0.3232172241210937,0,0,1.37592
1.7655985549790785,0,0,1.158793603515625,0,0,0.22932
1.7669859110028483,0,0,2.0159177978515626,0,0,-0.22932
1.7683736179897096,0,0,2.023100402832031,0,0,0.68796
1.7697612319898326,0,0,1.5658078857421873,0,0,1.75812
1.7711569019884337,0,0,0.076614453125,0,0,-1.75812
1.77254414599156,0,0,0.5291185668945312,0,0,0.7644
1.7739320200053044,0,0,2.157175695800781,0,0,1.83456
1.7753128559852485,0,0,2.24097275390625,0,0,0.45864
1.7766916929977015,0,0,1.5083470458984374,0,0,0.3822
1.7780708259961102,0,0,-0.2537853759765625,0,0,1.60524
1.7794590699777473,0,0,-0.9433154541015625,0,0,-0.91728
1.7808470739983022,0,0,0.01915361328125,0,0,-1.60524
1.7822343729785644,0,0,3.1316157714843746,0,0,1.45236
1.7836213019909337,0,0,2.961627453613281,0,0,1.45236
1.7850077689799946,0,0,1.1109095703125,0,0,1.1465999999999998
1.7863955679931678,0,0,-0.2154781494140625,0,0,2.14032
1.787782478990266,0,0,-1.0103531005859374,0,0,0.6115200000000001
1.7891698530002031,0,0,2.0278888061523435,0,0,0.0
1.7905570599832572,0,0,3.086125939941406,0,0,1.60524
1.7919426189910155,0,0,2.5665841796874997,0,0,2.2167600000000003
1.793329084990546,0,0,2.300827795410156,0,0,1.5288
1.7947159959876444,0,0,0.7948749511718749,0,0,0.53508
1.7961013689928222,0,0,-0.2537853759765625,0,0,0.68796
1.7974881689879112,0,0,1.2042834350585936,0,0,0.22932
1.7988750609802082,0,0,2.0350714111328125,0,0,-0.6115200000000001
1.8002635459997691,0,0,1.7788918334960937,0,0,1.911
1.8016497159842402,0,0,1.7597382202148437,0,0,1.98744
1.8030470899830107,0,0,-0.086191259765625,0,0,-1.07016
1.8044502599805128,0,0,0.47644613037109373,0,0,1.45236
1.8058359109854791,0,0,1.5634136840820312,0,0,1.68168
1.807232598977862,0,0,1.7525556152343749,0,0,0.68796
1.808630510000512,0,0,1.5322890624999999,0,0,0.84084
1.810018124000635,0,0,0.45968671875,0,0,2.82828
1.811405090993503,0,0,0.05027823486328125,0,0,0.0
1.8127958529803436,0,0,1.1444283935546875,0,0,0.15288000000000002
1.8141978009953164,0,0,3.1555577880859373,0,0,3.0576
1.8155861189879943,0,0,2.398990063476562,0,0,0.68796
1.8169731219823007,0,0,0.7996633544921875,0,0,0.53508
1.818379254982574,0,0,-0.8020575561523438,0,0,-0.53508
1.819772535993252,0,0,-1.5179238525390624,0,0,-0.6115200000000001
1.8211601509829052,0,0,2.887407202148437,0,0,-0.15288000000000002
1.822548301977804,0,0,3.6152445068359373,0,0,1.911
1.8239334349927958,0,0,1.68551796875,0,0,2.06388
1.8253198830061592,0,0,0.9816226806640624,0,0,0.99372
1.8267064969986677,0,0,-0.6081272216796875,0,0,-1.07016
1.828093074989738,0,0,-0.47884033203125,0,0,0.0
1.8294803559838329,0,0,2.1116858642578125,0,0,0.15288000000000002
1.8308667299861554,0,0,3.5314474487304683,0,0,0.6115200000000001
1.8322524550021626,0,0,2.8467057739257813,0,0,2.4460800000000003
1.8336390509794,0,0,2.068590234375,0,0,2.5989600000000004
1.8350256469857413,0,0,-1.85790048828125,0,0,-1.07016
1.8364127060049213,0,0,-1.180341418457031,0,0,-0.99372
1.8378004679980222,0,0,1.2425906616210938,0,0,0.99372
1.8391870459890924,0,0,3.4739866088867184,0,0,0.07644000000000001
1.8405731229868252,0,0,2.4253262817382812,0,0,1.07016
1.8419596449821256,0,0,-0.0526724365234375,0,0,1.98744
1.8433467040013056,0,0,-0.928950244140625,0,0,-1.45236
1.844733392004855,0,0,-0.5674257934570313,0,0,0.0
1.8461204140039627,0,0,2.8227637573242186,0,0,1.37592
1.8475065289821941,0,0,3.2154128295898436,0,0,2.06388
1.8488927540020086,0,0,1.446097802734375,0,0,1.1465999999999998
1.8502786099852528,0,0,-0.05746083984375,0,0,1.83456
1.8516657429863699,0,0,-1.0103531005859374,0,0,-0.30576000000000003
1.8530528199917171,0,0,2.446874096679687,0,0,-0.84084
1.8544402309926227,0,0,3.7995980346679685,0,0,2.4460800000000003
1.8558261409925763,0,0,3.744531396484375,0,0,2.52252
1.8572120890021324,0,0,1.3742717529296875,0,0,1.98744
1.8586077590007335,0,0,-0.9193734375,0,0,0.0
1.8599940220010467,0,0,-1.2641384765625,0,0,-1.2230400000000001
1.8613830620015506,0,0,1.6041151123046875,0,0,0.0
1.8627704539976548,0,0,3.756502404785156,0,0,0.68796
1.8641589210019447,0,0,3.095702746582031,0,0,2.75184
1.8655449420039076,0,0,1.5394716674804687,0,0,2.2931999999999997
1.8669404459942598,0,0,-2.3295582153320313,0,0,-0.84084
1.8683289669861551,0,0,-2.3439234252929686,0,0,-1.37592
1.8697165999910794,0,0,0.14604630126953125,0,0,0.0
1.8711034189909697,0,0,4.067748620605468,0,0,0.3822
1.8724894959887024,0,0,3.1292215698242187,0,0,2.5989600000000004
1.873876109981211,0,0,0.0526724365234375,0,0,2.14032
1.8752640949969646,0,0,-1.5538368774414062,0,0,-1.1465999999999998
1.8766516909818165,0,0,-2.3223756103515623,0,0,-1.45236
1.878069008991588,0,0,1.4604630126953124,0,0,-0.22932
1.8795167520001996,0,0,3.114856359863281,0,0,0.0
1.8809109589783475,0,0,2.1164742675781247,0,0,2.14032
1.882297888980247,0,0,0.0909796630859375,0,0,1.1465999999999998
1.8836873729887884,0,0,-0.8451531860351562,0,0,-1.83456
1.885076228005346,0,0,-0.6631938598632812,0,0,0.45864
1.8864651019976009,0,0,1.0462661254882812,0,0,-0.99372
1.8878516609838698,0,0,2.817975354003906,0,0,1.2994800000000002
1.8892392199777532,0,0,1.7357962036132812,0,0,3.13404
1.8906270199804567,0,0,1.5682020874023437,0,0,-0.22932
1.8920127640012652,0,0,-0.8355763793945312,0,0,2.52252
1.893400525994366,0,0,-1.254561669921875,0,0,7.79688
1.8947876039892435,0,0,0.7709329345703124,0,0,-1.45236
1.8961741249950137,0,0,3.536235852050781,0,0,1.75812
1.8975609070039354,0,0,3.81156904296875,0,0,-0.99372
1.8989473539986648,0,0,0.8403647827148437,0,0,3.13404
1.900333301979117,0,0,-1.7597382202148437,0,0,-1.37592
1.9017376389820129,0,0,-2.3678654418945313,0,0,6.497400000000001
1.90312471598736,0,0,-0.05746083984375,0,0,8.33196
1.904510644992115,0,0,2.5330653564453125,0,0,-1.2994800000000002
1.9058961859846022,0,0,2.7964275390625,0,0,3.66912
1.9073681329900865,0,0,1.2473790649414063,0,0,0.0
1.9087666169798467,0,0,0.20350714111328125,0,0,2.82828
1.9101543059805408,0,0,-2.0973206542968748,0,0,-2.2931999999999997
1.9115433459810447,0,0,-1.0366893188476562,0,0,-0.84084
1.9129309419950005,0,0,2.6288334228515624,0,0,0.07644000000000001
1.914319148985669,0,0,4.893748193359374,0,0,-0.3822
1.9157063750026282,0,0,3.5984850952148437,0,0,2.5989600000000004
1.9170933959831018,0,0,0.6584054565429687,0,0,1.98744
1.9184859369997866,0,0,-1.0223241088867188,0,0,2.4460800000000003
1.9198771439841948,0,0,-2.2577321655273437,0,0,-3.89844
1.9212664059887175,0,0,-0.7015010864257812,0,0,-0.68796
1.9226550759922247,0,0,0.9193734375,0,0,-2.2931999999999997
1.9240449130011257,0,0,3.2130186279296873,0,0,1.2994800000000002
1.9255750809970777,0,0,2.528276953125,0,0,0.84084
1.926965898979688,0,0,0.00718260498046875,0,0,3.21048
1.9283448289788794,0,0,-1.448492004394531,0,0,0.68796
1.9297253880067728,0,0,-1.5275006591796874,0,0,-9.784320000000001
1.9311155389877968,0,0,0.7541735229492187,0,0,-1.1465999999999998
1.932502930983901,0,0,1.695094775390625,0,0,0.0
1.933889656997053,0,0,2.3295582153320313,0,0,0.99372
1.9352765679941513,0,0,2.1404162841796874,0,0,1.07016
1.9366632559977006,0,0,1.3551181396484375,0,0,1.60524
1.9380499630060513,0,0,-0.277727392578125,0,0,0.0
1.9394376520067453,0,0,-0.7517793212890624,0,0,-0.30576000000000003
1.9408247289829887,0,0,0.43574470214843747,0,0,-1.2230400000000001
1.9422151210019365,0,0,1.1540052001953125,0,0,0.0
1.9436048280040268,0,0,1.6831237670898436,0,0,0.6115200000000001
1.9449922579806298,0,0,0.6416460449218749,0,0,0.30576000000000003
1.946440518979216,0,0,0.239420166015625,0,0,0.99372
1.9478204299812205,0,0,0.354341845703125,0,0,-0.53508
1.9491996369906701,0,0,1.1540052001953125,0,0,1.5288
1.9505855669849552,0,0,1.5897499023437498,0,0,1.1465999999999998
1.951973496004939,0,0,1.2665326782226562,0,0,1.60524
1.9533611289807595,0,0,1.177947216796875,0,0,0.68796
1.9547460399917327,0,0,0.40222587890625,0,0,-0.22932
1.9561272279825062,0,0,0.19153613281249998,0,0,-1.07016
1.9575063980009872,0,0,0.7852981445312499,0,0,-0.7644
1.9588924389972817,0,0,0.8475473876953125,0,0,-0.7644
1.9602796270046383,0,0,0.8882488159179687,0,0,1.5288
1.9616666859947145,0,0,1.0606313354492187,0,0,0.99372
1.963062781986082,0,0,0.316034619140625,0,0,0.0
1.9644474329834338,0,0,-0.354341845703125,0,0,0.30576000000000003
1.9658356029831339,0,0,0.1580173095703125,0,0,0.0
1.967222495994065,0,0,0.5913678100585937,0,0,-0.30576000000000003
1.9686092030024156,0,0,1.0773907470703123,0,0,1.07016
1.9699961690057535,0,0,2.0661960327148434,0,0,0.91728
1.9713832459819969,0,0,1.4101847778320311,0,0,0.91728
1.9727696939953603,0,0,0.8188169677734375,0,0,0.07644000000000001
1.9741563090065029,0,0,0.06943184814453125,0,0,0.7644
1.9755427009949926,0,0,-0.4429273071289062,0,0,-1.98744
1.9769300000043586,0,0,1.1420341918945311,0,0,-0.53508
1.9783304299926385,0,0,1.4149731811523436,0,0,1.1465999999999998
1.9797182290058117,0,0,0.699106884765625,0,0,-1.1465999999999998
1.9811054919846356,0,0,0.47644613037109373,0,0,0.91728
1.9824931799957994,0,0,0.5913678100585937,0,0,-0.30576000000000003
1.9838904979988001,0,0,0.22505495605468748,0,0,1.1465999999999998
1.9852774649916682,0,0,0.3232172241210937,0,0,0.0
1.9866649489849806,0,0,1.5394716674804687,0,0,0.84084
1.9880512119852938,0,0,1.5035586425781249,0,0,1.45236
1.989444437000202,0,0,0.9600748657226562,0,0,0.22932
1.9908324219868518,0,0,0.354341845703125,0,0,0.0
1.9922179440036416,0,0,0.507570751953125,0,0,-0.84084
1.993604058981873,0,0,0.6584054565429687,0,0,0.0
1.9949905799876433,0,0,0.7445967163085937,0,0,0.0
1.996377047005808,0,0,1.0199299072265624,0,0,1.1465999999999998
1.9977629570057616,0,0,1.0582371337890624,0,0,0.3822
1.9991502199845854,0,0,0.622492431640625,0,0,0.99372
2.000536612002179,0,0,0.105344873046875,0,0,-0.22932
2.001923318981426,0,0,0.5147533569335937,0,0,0.07644000000000001
2.0033084339811467,0,0,1.2928688964843749,0,0,0.22932
2.004692974005593,0,0,1.4939818359375,0,0,0.84084
2.006077440979425,0,0,0.8690952026367187,0,0,1.1465999999999998
2.007476425002096,0,0,0.5434837768554687,0,0,0.30576000000000003
2.0088643729977775,0,0,0.622492431640625,0,0,1.37592
2.0102801169850864,0,0,1.0797849487304687,0,0,0.3822
2.0118066369905137,0,0,1.20667763671875,0,0,0.0
2.013258157996461,0,0,0.7852981445312499,0,0,-0.3822
2.0147157720057294,0,0,0.6488286499023437,0,0,-0.15288000000000002
2.0161789410049096,0,0,0.5386953735351562,0,0,0.6115200000000001
2.0176688880019356,0,0,0.9026140258789062,0,0,0.22932
2.019183853000868,0,0,1.005564697265625,0,0,-0.3822
2.020669650984928,0,0,0.22744915771484372,0,0,-0.30576000000000003
2.022224615997402,0,0,0.181959326171875,0,0,0.0
2.0237430059933104,0,0,0.7661445312499999,0,0,0.15288000000000002
2.0252320829895325,0,0,1.369483349609375,0,0,0.30576000000000003
2.0267012889962643,0,0,1.3862427612304686,0,0,0.68796
2.028156105981907,0,0,0.9840168823242187,0,0,1.07016
2.029553053987911,0,0,0.6009446166992187,0,0,-0.15288000000000002
2.0309389650064986,0,0,0.09337386474609374,0,0,-0.3822
2.032319430989446,0,0,0.565031591796875,0,0,-0.22932
2.033698433981044,0,0,1.5538368774414062,0,0,0.0
2.035139732994139,0,0,1.6112977172851561,0,0,0.30576000000000003
2.0365260149992537,0,0,1.2234370483398436,0,0,0.53508
2.0379136099945754,0,0,0.1580173095703125,0,0,0.7644
2.0392952249967493,0,0,-0.033518823242187495,0,0,-0.99372
2.0406763759965543,0,0,0.34715924072265625,0,0,9.01992
2.042055434983922,0,0,1.1731588134765625,0,0,0.0
2.0434747529798187,0,0,1.47482822265625,0,0,0.0
2.0448716819810215,0,0,1.1563994018554686,0,0,0.99372
2.0462592039839365,0,0,0.6177040283203125,0,0,0.84084
2.047640392993344,0,0,0.12689268798828124,0,0,0.6115200000000001
2.0490190440032165,0,0,0.38307226562499996,0,0,-0.6115200000000001
2.0504024179826956,0,0,0.8044517578125,0,0,0.15288000000000002
2.0517896809906233,0,0,1.599326708984375,0,0,0.07644000000000001
2.053175998997176,0,0,1.3431471313476562,0,0,0.22932
2.0545684099779464,0,0,1.1324573852539062,0,0,1.1465999999999998
2.0559550609905273,0,0,0.6200982299804687,0,0,1.2994800000000002
2.057341526990058,0,0,0.6488286499023437,0,0,-0.3822
2.058729215990752,0,0,0.6248866333007812,0,0,0.0
2.060116089996882,0,0,0.9241618408203125,0,0,-9.631440000000001
2.061503573990194,0,0,0.7709329345703124,0,0,0.15288000000000002
2.062886040977901,0,0,0.928950244140625,0,0,0.0
2.064264988992363,0,0,1.1540052001953125,0,0,1.2994800000000002
2.0656441589817405,0,0,0.6177040283203125,0,0,0.53508
2.0670308289991226,0,0,0.38307226562499996,0,0,0.53508
2.0684218870010227,0,0,0.1580173095703125,0,0,1.07016
2.0698083349852823,0,0,1.2378022583007813,0,0,0.7644
2.0711951720004436,0,0,1.5514426757812498,0,0,0.68796
2.0725810089788865,0,0,1.9967641845703124,0,0,1.1465999999999998
2.0739674189826474,0,0,1.3646949462890625,0,0,1.2994800000000002
2.0753541449957993,0,0,0.9528922607421875,0,0,0.6115200000000001
2.0767404070065822,0,0,0.9002198242187499,0,0,0.53508
2.0781364110007416,0,0,1.1109095703125,0,0,1.2994800000000002
2.079523099004291,0,0,1.5849614990234373,0,0,1.07016
2.080909176991554,0,0,1.8243816650390623,0,0,1.1465999999999998
2.082295050000539,0,0,1.8626888916015625,0,0,1.2994800000000002
2.0836820539843757,0,0,1.2138602416992186,0,0,0.3822
2.0850682239979506,0,0,0.9600748657226562,0,0,0.22932
2.086455633980222,0,0,1.0678139404296874,0,0,0.22932
2.0878414159815293,0,0,1.2401964599609374,0,0,1.1465999999999998
2.0892276410013437,0,0,1.3910311645507811,0,0,0.07644000000000001
2.0906145699846093,0,0,1.2856862915039062,0,0,0.3822
2.0920021109923255,0,0,1.467645617675781,0,0,0.84084
2.093388559005689,0,0,1.2713210815429687,0,0,0.3822
2.094776579993777,0,0,1.158793603515625,0,0,0.45864
2.096161712979665,0,0,1.2737152832031249,0,0,0.53508
2.097547643003054,0,0,1.3192051147460937,0,0,0.6115200000000001
2.0989329610019922,0,0,1.1420341918945311,0,0,-0.15288000000000002
2.100317909003934,0,0,1.1348515869140625,0,0,0.91728
2.102055000985274,0,0,1.637633935546875,0,0,1.2994800000000002
2.103519280994078,0,0,1.3072341064453123,0,0,0.6115200000000001
2.104968764993828,0,0,1.1180921752929687,0,0,0.7644
2.106555339996703,0,0,1.180341418457031,0,0,0.6115200000000001
2.108013842982473,0,0,1.0917559570312498,0,0,1.68168
2.1094560119963717,0,0,1.5203180541992187,0,0,1.2230400000000001
2.110947587992996,0,0,1.407790576171875,0,0,1.07016
2.112393110000994,0,0,1.5945383056640625,0,0,0.84084
2.113867815991398,0,0,1.5251064575195312,0,0,1.37592
2.115350670006592,0,0,1.3024457031249999,0,0,1.37592
2.1167867649928667,0,0,1.0845733520507812,0,0,1.07016
2.118260007991921,0,0,1.0821791503906248,0,0,0.07644000000000001
2.1197160290030297,0,0,1.2785036865234374,0,0,0.91728
2.1211630509933457,0,0,1.5011644409179687,0,0,0.22932
2.1225663869990967,0,0,1.2617442749023438,0,0,0.3822
2.1239587049931288,0,0,1.2904746948242187,0,0,0.99372
2.125337930978276,0,0,1.1085153686523437,0,0,1.1465999999999998
2.126721248991089,0,0,1.1659762084960936,0,0,0.91728
2.1280995669949334,0,0,1.1180921752929687,0,0,0.99372
2.1295327550033107,0,0,1.1923124267578125,0,0,1.07016
2.130957942979876,0,0,1.2473790649414063,0,0,0.68796
2.1323590579850134,0,0,1.4245499877929686,0,0,0.53508
2.1337390239932574,0,0,1.438915197753906,0,0,0.68796
2.1351253610046115,0,0,1.3766659545898436,0,0,1.07016
2.1365065859863535,0,0,1.3096283081054687,0,0,0.99372
2.1378850899927784,0,0,1.3239935180664062,0,0,1.75812
2.139299370988738,0,0,1.3096283081054687,0,0,1.1465999999999998
2.140690206986619,0,0,1.388636962890625,0,0,0.6115200000000001
2.142078598990338,0,0,1.5634136840820312,0,0,0.91728
2.1434621950029396,0,0,1.3838485595703125,0,0,0.91728
2.144840180000756,0,0,1.216254443359375,0,0,0.84084
2.146218776004389,0,0,1.2976572998046874,0,0,0.53508
2.1476305020041764,0,0,1.0965443603515623,0,0,1.37592
2.1490175049984828,0,0,1.2521674682617188,0,0,1.2994800000000002
2.1504018050036393,0,0,1.1061211669921875,0,0,0.91728
2.1517803449823987,0,0,1.484405029296875,0,0,1.07016
2.153158645000076,0,0,1.1156979736328125,0,0,0.68796
2.1545435180014465,0,0,1.20667763671875,0,0,0.68796
2.1559300769877154,0,0,1.2234370483398436,0,0,0.30576000000000003
2.157316450990038,0,0,1.1851298217773436,0,0,0.91728
2.1587031209783163,0,0,1.3144167114257812,0,0,0.15288000000000002
2.1600888279790524,0,0,1.0941501586914062,0,0,0.68796
2.1614912200020626,0,0,1.5729904907226562,0,0,0.99372
2.162879556999542,0,0,1.3551181396484375,0,0,0.30576000000000003
2.164265597006306,0,0,1.4939818359375,0,0,0.6115200000000001
2.1656516929797363,0,0,1.235408056640625,0,0,0.53508
2.1670446039934177,0,0,1.1635820068359375,0,0,0.91728
2.168431347992737,0,0,1.1516109985351561,0,0,0.0
2.1698175919882488,0,0,1.2210428466796874,0,0,0.53508
2.1712044469895773,0,0,1.484405029296875,0,0,0.6115200000000001
2.1725903209880926,0,0,1.2904746948242187,0,0,0.6115200000000001
2.173976675985614,0,0,1.407790576171875,0,0,0.91728
2.1753627529833466,0,0,1.1037269653320312,0,0,0.68796
2.1767508309858385,0,0,1.1420341918945311,0,0,0.99372
2.1781373900012113,0,0,1.3311761230468748,0,0,-0.22932
2.1795257999910973,0,0,1.1228805786132812,0,0,0.07644000000000001
2.1809123040002305,0,0,1.5275006591796874,0,0,0.30576000000000003
2.182297862978885,0,0,1.5107412475585937,0,0,0.3822
2.183685736003099,0,0,1.3766659545898436,0,0,1.1465999999999998
2.185072294989368,0,0,1.1540052001953125,0,0,1.2994800000000002
2.186459112999728,0,0,1.0989385620117187,0,0,1.2230400000000001
2.187844468979165,0,0,1.0893617553710937,0,0,0.30576000000000003
2.189230489981128,0,0,1.3575123413085937,0,0,0.30576000000000003
2.1906166969856713,0,0,1.6807295654296874,0,0,0.6115200000000001
2.192002755997237,0,0,1.5251064575195312,0,0,1.07016
2.1933892969973385,0,0,1.2808978881835937,0,0,1.2994800000000002
2.19477694798843,0,0,1.0989385620117187,0,0,1.2230400000000001
2.196161692001624,0,0,1.0965443603515623,0,0,1.1465999999999998
2.197547769988887,0,0,1.2569558715820313,0,0,0.91728
2.1989338099956512,0,0,1.3742717529296875,0,0,1.07016
2.2003195909783244,0,0,1.2832920898437499,0,0,0.3822
2.201705964980647,0,0,1.3910311645507811,0,0,0.45864
2.2030906720028725,0,0,1.2689268798828124,0,0,1.2994800000000002
2.2044747679901775,0,0,1.1420341918945311,0,0,1.37592
2.2058593450055923,0,0,1.3024457031249999,0,0,0.68796
2.207257829984883,0,0,1.2880804931640624,0,0,1.2230400000000001
2.2086447780020535,0,0,1.2832920898437499,0,0,-8.63772
2.210032095987117,0,0,1.1037269653320312,0,0,0.53508
2.2114291729812976,0,0,1.3407529296874998,0,0,0.91728
2.2128152689838316,0,0,1.3239935180664062,0,0,0.6115200000000001
2.2142014949931763,0,0,1.2832920898437499,0,0,0.6115200000000001
2.215587627986679,0,0,1.2617442749023438,0,0,0.45864
2.216973815986421,0,0,1.1875240234375,0,0,1.45236
2.2183738379972056,0,0,1.3287819213867187,0,0,0.68796
2.2197682299884036,0,0,1.2641384765625,0,0,0.53508
2.2211546409816947,0,0,1.7094599853515624,0,0,1.1465999999999998
2.222541310999077,0,0,1.4030021728515625,0,0,0.84084
2.223927165992791,0,0,1.2713210815429687,0,0,0.53508
2.2253135579812806,0,0,1.0989385620117187,0,0,1.07016
2.226700636005262,0,0,1.0510545288085937,0,0,1.2994800000000002
2.2280861389881466,0,0,1.1061211669921875,0,0,0.22932
2.2294722349906806,0,0,1.3239935180664062,0,0,0.7644
2.2308586269791704,0,0,1.6472107421875,0,0,1.07016
2.2322446309844963,0,0,1.24498486328125,0,0,0.6115200000000001
2.233630559989251,0,0,1.2928688964843749,0,0,0.6115200000000001
2.2350167479889933,0,0,1.0989385620117187,0,0,0.7644
2.236402807000559,0,0,1.1947066284179686,0,0,0.91728
2.237789235980017,0,0,1.3168109130859373,0,0,-0.22932
2.239175572991371,0,0,1.2378022583007813,0,0,0.0
2.2405616879987065,0,0,1.695094775390625,0,0,0.91728
2.2419475609785877,0,0,1.3072341064453123,0,0,0.45864
2.2433334719971754,0,0,1.4820108276367188,0,0,1.1465999999999998
2.2447196609864477,0,0,1.2282254516601563,0,0,0.7644
2.2461059969791677,0,0,1.209071838378906,0,0,0.68796
2.2474929449963383,0,0,1.3120225097656248,0,0,-0.30576000000000003
2.2488799300044775,0,0,1.2378022583007813,0,0,0.22932
2.250265562994173,0,0,1.3168109130859373,0,0,0.3822
2.2516513069858775,0,0,1.2234370483398436,0,0,0.3822
2.253037272981601,0,0,1.3168109130859373,0,0,1.07016
2.254445812985068,0,0,1.1444283935546875,0,0,0.99372
2.2558327239821665,0,0,1.2114660400390624,0,0,0.84084
2.2572193569794763,0,0,1.1324573852539062,0,0,0.0
2.258606452989625,0,0,1.1755530151367186,0,0,0.91728
2.259991770988563,0,0,1.5251064575195312,0,0,0.30576000000000003
2.261377385992091,0,0,1.2569558715820313,0,0,0.45864
2.2627715179987717,0,0,1.4508862060546874,0,0,0.84084
2.264161595987389,0,0,1.0773907470703123,0,0,1.2994800000000002
2.2655479880049825,0,0,1.209071838378906,0,0,0.91728
2.2669341019936837,0,0,1.1468225952148436,0,0,0.7644
2.2683200129831675,0,0,1.3766659545898436,0,0,1.45236
2.2697061089857016,0,0,1.3862427612304686,0,0,0.53508
2.2710919459932484,0,0,1.608903515625,0,0,0.53508
2.272478226979729,0,0,1.4125789794921875,0,0,0.91728
2.2738643040065654,0,0,1.1348515869140625,0,0,0.91728
2.2752501780050807,0,0,1.2641384765625,0,0,0.7644
2.2766355329949874,0,0,1.0989385620117187,0,0,1.60524
2.278032813977916,0,0,1.4413093994140624,0,0,1.2994800000000002
2.2794192809960805,0,0,1.4820108276367188,0,0,0.84084
2.2808052100008354,0,0,1.5562310791015623,0,0,0.99372
2.282190694997553,0,0,1.1827356201171875,0,0,0.68796
2.283577124006115,0,0,1.0534487304687499,0,0,0.30576000000000003
2.2849631639837753,0,0,1.209071838378906,0,0,0.6115200000000001
2.2863496119971387,0,0,1.2042834350585936,0,0,1.2230400000000001
2.287735819001682,0,0,1.2952630981445312,0,0,0.6115200000000001
2.2891216370044276,0,0,1.1731588134765625,0,0,0.3822
2.2905087329854723,0,0,1.4532804077148436,0,0,0.84084
2.2918942919932306,0,0,1.218648645019531,0,0,0.45864
2.2932802029827144,0,0,1.4413093994140624,0,0,0.84084
2.2946666879870463,0,0,1.2904746948242187,0,0,0.84084
2.296052283985773,0,0,1.1707646118164061,0,0,1.5288
2.2974379170045722,0,0,1.3359645263671873,0,0,0.15288000000000002
2.2988319199939724,0,0,1.2737152832031249,0,0,0.22932
2.300218126998516,0,0,1.4532804077148436,0,0,0.91728
2.3016040379879996,0,0,1.3311761230468748,0,0,0.53508
2.3029891710029915,0,0,1.4245499877929686,0,0,0.91728
2.3043735069804825,0,0,1.3072341064453123,0,0,0.6115200000000001
2.3057576769788284,0,0,1.1180921752929687,0,0,0.91728
2.3071548839798197,0,0,1.3646949462890625,0,0,0.0
2.3085419249837287,0,0,1.3000515014648437,0,0,0.0
2.309976463991916,0,0,1.4006079711914061,0,0,0.7644
2.311366393987555,0,0,1.2497732666015624,0,0,0.7644
2.3127534159866627,0,0,1.3527239379882812,0,0,0.53508
2.314300138998078,0,0,1.1516109985351561,0,0,0.91728
2.315715401986381,0,0,1.1420341918945311,0,0,0.7644
2.317102515982697,0,0,1.254561669921875,0,0,0.0
2.3184900929918513,0,0,1.218648645019531,0,0,0.22932
2.3198753930046223,0,0,1.6328455322265625,0,0,0.30576000000000003
2.321267192979576,0,0,1.4413093994140624,0,0,0.68796
2.322654251998756,0,0,1.2904746948242187,0,0,0.68796
2.324041680985829,0,0,1.0989385620117187,0,0,1.2994800000000002
2.3254291290068068,0,0,1.0821791503906248,0,0,0.53508
2.3268123540037777,0,0,1.1563994018554686,0,0,0.0
2.328191523993155,0,0,1.3718775512695311,0,0,-0.15288000000000002
2.329572046000976,0,0,1.5562310791015623,0,0,0.30576000000000003
2.330959160986822,0,0,1.446097802734375,0,0,0.53508
2.332345404982334,0,0,1.3192051147460937,0,0,0.99372
2.3337317779951263,0,0,1.1659762084960936,0,0,1.2994800000000002
2.3351177260046825,0,0,1.0941501586914062,0,0,0.68796
2.3365201549895573,0,0,1.2210428466796874,0,0,0.0
2.33790671400493,0,0,1.3527239379882812,0,0,0.45864
2.3392929949914105,0,0,1.5514426757812498,0,0,0.6115200000000001
2.3406796469935216,0,0,1.3551181396484375,0,0,0.3822
2.3420737799897324,0,0,1.458068811035156,0,0,1.07016
2.3434772829932626,0,0,1.199495031738281,0,0,1.07016
2.3448646379983984,0,0,1.149216796875,0,0,-8.867040000000001
2.346252622985048,0,0,1.1180921752929687,0,0,0.0
2.3476336259918753,0,0,1.218648645019531,0,0,0.84084
2.349011777987471,0,0,1.149216796875,0,0,0.84084
2.350406095996732,0,0,1.3551181396484375,0,0,0.99372
2.351794265996432,0,0,1.3239935180664062,0,0,1.07016
2.3531810650019906,0,0,1.2832920898437499,0,0,0.68796
2.354564846988069,0,0,1.3934253662109375,0,0,0.53508
2.355943145987112,0,0,1.1947066284179686,0,0,0.91728
2.357321075978689,0,0,1.1061211669921875,0,0,1.2230400000000001
2.358705282997107,0,0,1.3096283081054687,0,0,1.07016
2.360091693000868,0,0,1.6424223388671875,0,0,0.68796
2.361477548984112,0,0,1.4341267944335936,0,0,0.6115200000000001
2.3628653299820144,0,0,1.3742717529296875,0,0,0.45864
2.36425133299781,0,0,1.0797849487304687,0,0,0.53508
2.365637262002565,0,0,1.2018892333984375,0,0,1.37592
2.3670236179896165,0,0,1.2569558715820313,0,0,1.68168
2.368410064984346,0,0,1.3048399047851562,0,0,0.99372
2.369795679987874,0,0,1.5610194824218748,0,0,0.99372
2.3711815910064615,0,0,1.3311761230468748,0,0,0.84084
2.372567723999964,0,0,1.209071838378906,0,0,0.45864
2.3739536899956875,0,0,1.2808978881835937,0,0,0.84084
2.375339674996212,0,0,1.177947216796875,0,0,0.84084
2.3767252340039704,0,0,1.3431471313476562,0,0,0.91728
2.378118088992778,0,0,1.120486376953125,0,0,0.3822
2.3795402029936668,0,0,1.5801730957031248,0,0,0.6115200000000001
2.380980557005387,0,0,1.3718775512695311,0,0,0.84084
2.382418263994623,0,0,1.2425906616210938,0,0,0.68796
2.3838044889853336,0,0,1.3383587280273437,0,0,0.91728
2.385191418987233,0,0,1.1540052001953125,0,0,1.2230400000000001
2.386594737006817,0,0,1.20667763671875,0,0,0.45864
2.3879803879826795,0,0,1.1156979736328125,0,0,0.53508
2.3893666509829927,0,0,1.5658078857421873,0,0,1.07016
2.390752931998577,0,0,1.2952630981445312,0,0,0.45864
2.3921385279973038,0,0,1.419761584472656,0,0,0.53508
2.393524401006289,0,0,1.2928688964843749,0,0,1.2994800000000002
2.394919922982808,0,0,1.209071838378906,0,0,1.2230400000000001
2.396306148992153,0,0,1.3527239379882812,0,0,0.07644000000000001
2.397692022001138,0,0,1.1444283935546875,0,0,0.0
2.399077766982373,0,0,1.448492004394531,0,0,0.6115200000000001
2.400463658996159,0,0,1.3862427612304686,0,0,0.53508
2.401849735993892,0,0,1.4724340209960938,0,0,1.07016
2.4032346099847928,0,0,1.2880804931640624,0,0,1.1465999999999998
2.4046221500029787,0,0,1.1228805786132812,0,0,0.99372
2.4060223939886782,0,0,1.1252747802734375,0,0,-0.22932
2.40742291600327,0,0,1.1156979736328125,0,0,0.07644000000000001
2.4088221229903866,0,0,1.484405029296875,0,0,0.45864
2.4102103110053577,0,0,1.4796166259765624,0,0,0.53508
2.4115988329867832,0,0,1.3335703247070312,0,0,0.84084
2.4129863179987296,0,0,1.209071838378906,0,0,0.84084
2.414375802996801,0,0,1.1635820068359375,0,0,0.84084
2.4157626209780574,0,0,1.1851298217773436,0,0,0.0
2.417149254004471,0,0,1.2904746948242187,0,0,0.68796
2.418537905003177,0,0,1.4341267944335936,0,0,0.53508
2.419924057001481,0,0,1.39821376953125,0,0,0.15288000000000002
2.421311134006828,0,0,1.3742717529296875,0,0,1.2230400000000001
2.422698877984658,0,0,1.2713210815429687,0,0,1.1465999999999998
2.424108010978671,0,0,1.3383587280273437,0,0,1.07016
2.4254968109889887,0,0,1.1635820068359375,0,0,0.6115200000000001
2.4268844809848815,0,0,1.3287819213867187,0,0,0.91728
2.4282723539799917,0,0,1.5945383056640625,0,0,0.30576000000000003
2.42968274600571,0,0,1.4939818359375,0,0,0.30576000000000003
2.4310713419981766,0,0,1.3048399047851562,0,0,1.2994800000000002
2.43245865998324,0,0,1.177947216796875,0,0,1.07016
2.433845311985351,0,0,1.2928688964843749,0,0,0.91728
2.435233073978452,0,0,1.24498486328125,0,0,1.45236
2.436620299995411,0,0,1.2617442749023438,0,0,1.37592
2.4380074509826954,0,0,1.0989385620117187,0,0,0.84084
2.4393940469890367,0,0,1.465251416015625,0,0,0.7644
2.440781346987933,0,0,1.3120225097656248,0,0,0.84084
2.4421683870023116,0,0,1.3862427612304686,0,0,-9.555
2.4435571499925572,0,0,1.2114660400390624,0,0,0.99372
2.444944319984643,0,0,1.2114660400390624,0,0,1.45236
2.44633169399458,0,0,1.3024457031249999,0,0,1.2994800000000002
2.4477190489997156,0,0,1.2521674682617188,0,0,0.91728
2.4491055340040475,0,0,1.5418658691406248,0,0,1.2230400000000001
2.45049277797807,0,0,1.2569558715820313,0,0,0.7644
2.4518790769798215,0,0,1.3479355346679687,0,0,0.22932
2.453274765983224,0,0,1.24498486328125,0,0,0.45864
2.4546617869928014,0,0,1.1420341918945311,0,0,1.2230400000000001
2.4560487539856695,0,0,1.350329736328125,0,0,0.99372
2.4574359609978274,0,0,1.2665326782226562,0,0,0.7644
2.458823463995941,0,0,1.6400281372070311,0,0,0.6115200000000001
2.4602095790032763,0,0,1.3215993164062498,0,0,0.91728
2.4615964889817405,0,0,1.218648645019531,0,0,0.22932
2.4629836779786274,0,0,1.1516109985351561,0,0,0.45864
2.4643706629867665,0,0,1.197100830078125,0,0,1.07016
2.4657577959878836,0,0,1.3718775512695311,0,0,0.30576000000000003
2.4671444470004644,0,0,1.149216796875,0,0,0.30576000000000003
2.4685311909997836,0,0,1.5729904907226562,0,0,0.7644
2.469917860988062,0,0,1.2330138549804688,0,0,0.30576000000000003
2.4713053639861755,0,0,1.1947066284179686,0,0,0.68796
2.4726924969872925,0,0,1.1827356201171875,0,0,1.45236
2.4740862229955383,0,0,1.2785036865234374,0,0,1.37592
2.4754675409931224,0,0,1.2785036865234374,0,0,0.07644000000000001
2.476846192992525,0,0,1.1252747802734375,0,0,0.07644000000000001
2.4782244550006,0,0,1.47482822265625,0,0,1.1465999999999998
2.4806019849784207,0,0,1.458068811035156,0,0,1.60524
2.4819894139945973,0,0,1.2713210815429687,0,0,1.2230400000000001
2.483374528994318,0,0,1.216254443359375,0,0,0.91728
2.4848093829932623,0,0,1.1348515869140625,0,0,0.30576000000000003
2.4861956639797427,0,0,1.22583125,0,0,0.84084
2.4875815199920908,0,0,1.4173673828125,0,0,1.07016
2.4889675969898235,0,0,1.5658078857421873,0,0,0.7644
2.4903545819979627,0,0,1.4173673828125,0,0,1.2230400000000001
2.4917412890063133,0,0,1.3144167114257812,0,0,0.68796
2.493127533001825,0,0,1.2306196533203124,0,0,0.3822
2.4945136290043592,0,0,1.1851298217773436,0,0,0.53508
2.495931612997083,0,0,1.3335703247070312,0,0,1.1465999999999998
2.4973184499831405,0,0,1.4341267944335936,0,0,0.84084
2.4987056009995285,0,0,1.6735469604492186,0,0,0.99372
2.5000911229872145,0,0,1.1420341918945311,0,0,0.84084
2.50147747900337,0,0,1.1659762084960936,0,0,0.68796
2.5028624999977183,0,0,1.0749965454101562,0,0,0.3822
2.504246669996064,0,0,1.216254443359375,0,0,1.2230400000000001
2.5056303959863726,0,0,1.3431471313476562,0,0,1.2994800000000002
2.507028306979919,0,0,1.139639990234375,0,0,0.91728
2.5084149400063325,0,0,1.5322890624999999,0,0,1.1465999999999998
2.509801312990021,0,0,1.2928688964843749,0,0,0.6115200000000001
2.5111876869923435,0,0,1.1324573852539062,0,0,0.30576000000000003
2.5125883010041434,0,0,1.177947216796875,0,0,0.30576000000000003
2.5139750079833902,0,0,1.0845733520507812,0,0,1.2230400000000001
2.515361864003353,0,0,1.3383587280273437,0,0,0.84084
2.516748533991631,0,0,1.1611878051757811,0,0,0.68796
2.5181414439866785,0,0,1.484405029296875,0,0,1.07016
2.519533799000783,0,0,1.3215993164062498,0,0,0.53508
2.520926616998622,0,0,1.4700398193359374,0,0,0.15288000000000002
2.5223284539824817,0,0,1.254561669921875,0,0,0.53508
2.523717215983197,0,0,1.1659762084960936,0,0,1.2230400000000001
2.525103385996772,0,0,1.3239935180664062,0,0,0.53508
2.526489871001104,0,0,1.1707646118164061,0,0,0.45864
2.5278764669783413,0,0,1.5107412475585937,0,0,0.91728
2.529262619005749,0,0,1.3311761230468748,0,0,0.3822
2.530648936983198,0,0,1.426944189453125,0,0,0.6115200000000001
2.53203536599176,0,0,1.0726023437499999,0,0,1.07016
2.5334211099834647,0,0,1.1133037719726562,0,0,1.1465999999999998
2.5348074279900175,0,0,1.1109095703125,0,0,1.1465999999999998
2.536385336978128,0,0,1.158793603515625,0,0,0.68796
2.5377754700020887,0,0,1.47482822265625,0,0,0.53508
2.539164065994555,0,0,1.3479355346679687,0,0,0.45864
2.540551013982622,0,0,1.3431471313476562,0,0,0.15288000000000002
2.5419438690005336,0,0,1.1827356201171875,0,0,0.99372
2.5433343350014184,0,0,1.0797849487304687,0,0,0.91728
2.5447218570043333,0,0,1.1540052001953125,0,0,0.45864
2.5461091749893967,0,0,1.1180921752929687,0,0,0.22932
2.547496474988293,0,0,1.465251416015625,0,0,0.53508
2.548891588987317,0,0,1.37906015625,0,0,0.84084
2.5502781289978884,0,0,1.3335703247070312,0,0,0.15288000000000002
2.551665132981725,0,0,1.0773907470703123,0,0,1.2230400000000001
2.553052117000334,0,0,1.2713210815429687,0,0,0.7644
2.5544391019793693,0,0,1.2593500732421874,0,0,0.22932
2.555825346003985,0,0,1.2808978881835937,0,0,0.07644000000000001
2.5572128309868276,0,0,1.6472107421875,0,0,0.45864
2.5585998719907366,0,0,1.429338391113281,0,0,0.91728
2.5599883559916634,0,0,1.2952630981445312,0,0,0.91728
2.5613760449923575,0,0,1.20667763671875,0,0,1.2230400000000001
2.5628026030026376,0,0,1.199495031738281,0,0,1.1465999999999998
2.564218162006,0,0,1.2617442749023438,0,0,-0.15288000000000002
2.5656077949970495,0,0,1.3263877197265623,0,0,0.15288000000000002
2.5669966870045755,0,0,1.2880804931640624,0,0,0.15288000000000002
2.5683874499809463,0,0,1.438915197753906,0,0,0.53508
2.5697750269901007,0,0,1.2401964599609374,0,0,1.2994800000000002
2.5711761599814054,0,0,1.2473790649414063,0,0,1.2994800000000002
2.572563903988339,0,0,1.4006079711914061,0,0,0.84084
2.5739513330045156,0,0,1.0749965454101562,0,0,0.0
2.5753327069978695,0,0,1.0941501586914062,0,0,0.30576000000000003
2.5767113579786383,0,0,1.22583125,0,0,0.45864
2.578090102993883,0,0,1.3479355346679687,0,0,0.91728
2.579492290999042,0,0,1.3814543579101561,0,0,1.37592
2.5808796460041776,0,0,1.2042834350585936,0,0,1.45236
2.5822664269944653,0,0,1.2138602416992186,0,0,0.53508
2.583653448993573,0,0,1.1755530151367186,0,0,0.6115200000000001
2.5850398969778325,0,0,1.1372457885742187,0,0,1.2994800000000002
2.586428604001412,0,0,1.350329736328125,0,0,0.84084
2.587814995989902,0,0,1.6735469604492186,0,0,0.68796
2.589201498980401,0,0,1.4700398193359374,0,0,1.45236
2.5905890580033883,0,0,1.2713210815429687,0,0,0.7644
2.591974654002115,0,0,1.3646949462890625,0,0,0.30576000000000003
2.5933666759810876,0,0,1.2473790649414063,0,0,0.68796
2.5947533829894383,0,0,1.3311761230468748,0,0,1.2994800000000002
2.5961394420010038,0,0,1.4221557861328125,0,0,0.7644
2.597525538003538,0,0,1.5777788940429687,0,0,0.84084
2.5989885960007086,0,0,1.2641384765625,0,0,0.99372
2.6003777839941904,0,0,1.22583125,0,0,0.22932
2.6017640279897023,0,0,1.350329736328125,0,0,0.68796
2.6031597910041455,0,0,1.158793603515625,0,0,1.45236
2.60454418300651,0,0,1.2713210815429687,0,0,1.5288
2.6059426489809994,0,0,1.2018892333984375,0,0,1.07016
2.607373392995214,0,0,1.637633935546875,0,0,1.1465999999999998
2.6087604700005613,0,0,1.2425906616210938,0,0,1.2230400000000001
2.610146695980802,0,0,1.0797849487304687,0,0,0.07644000000000001
2.6115329769963864,0,0,1.235408056640625,0,0,0.45864
2.6129193139786366,0,0,1.158793603515625,0,0,1.1465999999999998
2.614320205990225,0,0,1.3287819213867187,0,0,0.7644
2.6157075979863293,0,0,1.1755530151367186,0,0,0.6115200000000001
2.6170933789981063,0,0,1.5155296508789062,0,0,1.2230400000000001
2.6184804379881825,0,0,1.2425906616210938,0,0,0.84084
2.61986586698913,0,0,1.3623007446289062,0,0,0.53508
2.62125138900592,0,0,1.2737152832031249,0,0,0.7644
2.6226381699962076,0,0,1.1133037719726562,0,0,1.2230400000000001
2.624023654992925,0,0,1.3407529296874998,0,0,0.6115200000000001
2.625410231994465,0,0,1.2713210815429687,0,0,0.30576000000000003
2.6267971429915633,0,0,1.6519991455078125,0,0,0.84084
2.628182960994309,0,0,1.3048399047851562,0,0,0.45864
2.6296065379865468,0,0,1.4341267944335936,0,0,0.91728
2.6310668560035992,0,0,1.3144167114257812,0,0,0.15288000000000002
2.6324673219933175,0,0,1.1324573852539062,0,0,1.1465999999999998
2.633854102983605,0,0,1.3311761230468748,0,0,0.7644
2.6352409579849336,0,0,1.2401964599609374,0,0,0.7644
2.6366267389967106,0,0,1.6639701538085936,0,0,0.91728
2.6380132979829796,0,0,1.3263877197265623,0,0,0.3822
2.6393998019921128,0,0,1.3239935180664062,0,0,0.68796
2.6407861939806025,0,0,1.16837041015625,0,0,0.53508
2.642172492982354,0,0,1.2330138549804688,0,0,1.1465999999999998
2.6437626609986182,0,0,1.2593500732421874,0,0,0.68796
2.645149924006546,0,0,1.2785036865234374,0,0,0.6115200000000001
2.646536408981774,0,0,1.6136919189453125,0,0,0.53508
2.647922670992557,0,0,1.4963760375976562,0,0,0.3822
2.6493090629810467,0,0,1.3144167114257812,0,0,0.53508
2.6507137889857404,0,0,1.1348515869140625,0,0,1.1465999999999998
2.6520988660049625,0,0,1.1061211669921875,0,0,1.1465999999999998
2.653485239978181,0,0,1.209071838378906,0,0,0.45864
2.654871409991756,0,0,1.350329736328125,0,0,0.07644000000000001
2.6562580979953054,0,0,1.5298948608398437,0,0,0.30576000000000003
2.6576444910024293,0,0,1.4915876342773438,0,0,0.45864
2.659030568000162,0,0,1.4030021728515625,0,0,0.99372
2.660416811995674,0,0,1.199495031738281,0,0,1.07016
2.661802833987167,0,0,1.1156979736328125,0,0,0.84084
2.6631896710023284,0,0,1.254561669921875,0,0,0.07644000000000001
2.6645759329840075,0,0,1.254561669921875,0,0,0.3822
2.6667139279888943,0,0,1.8195932617187498,0,0,1.1465999999999998
2.668149061006261,0,0,1.3407529296874998,0,0,0.99372
2.6695368599903304,0,0,1.235408056640625,0,0,0.15288000000000002
2.670923881989438,0,0,1.2018892333984375,0,0,0.22932
2.672309792978922,0,0,1.189918225097656,0,0,1.1465999999999998
2.673701555992011,0,0,1.3096283081054687,0,0,1.1465999999999998
2.6750880400068127,0,0,1.407790576171875,0,0,1.07016
2.6764742840023246,0,0,1.649604943847656,0,0,0.91728
2.6778610280016437,0,0,1.20667763671875,0,0,0.53508
2.679247364983894,0,0,1.2737152832031249,0,0,0.3822
2.680634016986005,0,0,1.189918225097656,0,0,0.22932
2.682019964006031,0,0,1.1037269653320312,0,0,1.45236
2.6834073749778327,0,0,1.3215993164062498,0,0,0.91728
2.684793249005452,0,0,1.2018892333984375,0,0,0.53508
2.686180066986708,0,0,1.608903515625,0,0,1.1465999999999998
2.6875665329862386,0,0,1.3048399047851562,0,0,0.6115200000000001
2.6889717029989697,0,0,1.2497732666015624,0,0,0.45864
2.6903751509962603,0,0,1.2138602416992186,0,0,0.6115200000000001
2.6917621909815352,0,0,1.0941501586914062,0,0,0.91728
2.6931479350023437,0,0,1.2593500732421874,0,0,0.30576000000000003
2.6945417529786937,0,0,1.2234370483398436,0,0,0.3822
2.695927144988673,0,0,1.5538368774414062,0,0,0.53508
2.697312945005251,0,0,1.3000515014648437,0,0,0.30576000000000003
2.6986996339983307,0,0,1.465251416015625,0,0,0.68796
2.7000851740012877,0,0,1.2641384765625,0,0,0.84084
2.701471454987768,0,0,1.1659762084960936,0,0,1.2230400000000001
2.7028575699951034,0,0,1.199495031738281,0,0,0.0
2.7042414989846293,0,0,1.189918225097656,0,0,0.22932
2.705625186994439,0,0,1.484405029296875,0,0,0.84084
2.707024208997609,0,0,1.2928688964843749,0,0,0.45864
2.708411100989906,0,0,1.43652099609375,0,0,0.99372
2.7098007159947883,0,0,1.235408056640625,0,0,1.5288
2.711185755993938,0,0,1.1276689819335937,0,0,0.84084
2.712571925978409,0,0,1.3024457031249999,0,0,-0.22932
2.71396022598492,0,0,1.1228805786132812,0,0,0.22932
2.7153469509794377,0,0,1.5227122558593749,0,0,0.53508
2.716733139997814,0,0,1.4030021728515625,0,0,0.53508
2.718119327997556,0,0,1.4101847778320311,0,0,1.2994800000000002
2.719505405984819,0,0,1.3311761230468748,0,0,1.1465999999999998
2.7208971309883054,0,0,1.0773907470703123,0,0,1.1465999999999998
2.7222833749838173,0,0,1.1947066284179686,0,0,-0.22932
2.723670637991745,0,0,1.2713210815429687,0,0,0.53508
2.7251020849798806,0,0,1.5490484741210937,0,0,0.53508
2.7265235699887853,0,0,1.4604630126953124,0,0,0.6115200000000001
2.72791090598912,0,0,1.35990654296875,0,0,1.1465999999999998
2.729297354002483,0,0,1.1372457885742187,0,0,1.2230400000000001
2.7306838759977836,0,0,1.1324573852539062,0,0,1.07016
2.7320701199932955,0,0,1.149216796875,0,0,0.22932
2.7334563639888074,0,0,1.3383587280273437,0,0,0.99372
2.7348621639830526,0,0,1.4796166259765624,0,0,0.45864
2.736248297005659,0,0,1.446097802734375,0,0,0.84084
2.7376344289805274,0,0,1.3910311645507811,0,0,1.2230400000000001
2.73903502500616,0,0,1.149216796875,0,0,1.45236
2.740420879999874,0,0,1.1731588134765625,0,0,0.7644
2.741810198989697,0,0,1.01514150390625,0,0,0.7644
2.743198793992633,0,0,1.24498486328125,0,0,1.07016
2.744589445996098,0,0,1.3646949462890625,0,0,0.3822
2.745975893980358,0,0,1.5203180541992187,0,0,1.07016
2.747372377983993,0,0,1.3862427612304686,0,0,1.2230400000000001
2.748757919005584,0,0,1.2976572998046874,0,0,1.2994800000000002
2.7501441439962946,0,0,1.1444283935546875,0,0,0.45864
2.751530424982775,0,0,1.139639990234375,0,0,0.84084
2.752916520985309,0,0,1.2569558715820313,0,0,1.1465999999999998
2.754302599001676,0,0,1.3144167114257812,0,0,0.84084
2.7557073429925367,0,0,1.637633935546875,0,0,1.1465999999999998
2.7570938089920674,0,0,1.3479355346679687,0,0,0.91728
2.75848012699862,0,0,1.1563994018554686,0,0,0.84084
2.7598656119953375,0,0,1.1827356201171875,0,0,0.53508
2.761251263000304,0,0,1.1540052001953125,0,0,1.45236
2.762637045001611,0,0,1.3527239379882812,0,0,1.1465999999999998
2.764022899995325,0,0,1.1827356201171875,0,0,1.07016
2.765408735984238,0,0,1.6160861206054686,0,0,0.99372
2.7667957579833455,0,0,1.2976572998046874,0,0,0.45864
2.768180538987508,0,0,1.180341418457031,0,0,0.22932
2.7695662649930455,0,0,1.3742717529296875,0,0,0.30576000000000003
2.770952713006409,0,0,1.0582371337890624,0,0,0.99372
2.7723379009985365,0,0,1.1516109985351561,0,0,0.68796
2.773723848978989,0,0,1.2042834350585936,0,0,1.2230400000000001
2.775109555979725,0,0,1.6472107421875,0,0,0.99372
2.7764956149912905,0,0,1.3024457031249999,0,0,0.30576000000000003
2.777881358982995,0,0,1.2617442749023438,0,0,0.3822
2.7792835290019866,0,0,1.2665326782226562,0,0,0.22932
2.780669420986669,0,0,1.16837041015625,0,0,1.1465999999999998
2.7820617760007735,0,0,1.3742717529296875,0,0,0.30576000000000003
2.7834479279990774,0,0,1.218648645019531,0,0,0.7644
2.7848337269970216,0,0,1.5251064575195312,0,0,0.68796
2.786219767993316,0,0,1.2401964599609374,0,0,0.15288000000000002
2.7876055669912603,0,0,1.4604630126953124,0,0,0.68796
2.7889914409897756,0,0,1.2808978881835937,0,0,0.68796
2.790378370002145,0,0,1.1156979736328125,0,0,0.84084
2.7917640219966415,0,0,1.2665326782226562,0,0,0.07644000000000001
2.793150154990144,0,0,1.235408056640625,0,0,0.0
2.7945361769816373,0,0,1.4891934326171874,0,0,0.7644
2.7959211620036513,0,0,1.3048399047851562,0,0,0.07644000000000001
2.797307145985542,0,0,1.4173673828125,0,0,0.84084
2.798693741991883,0,0,1.2737152832031249,0,0,0.68796
2.8000792090024333,0,0,1.1468225952148436,0,0,1.07016
2.801465359982103,0,0,1.120486376953125,0,0,0.0
2.80285114099388,0,0,1.235408056640625,0,0,0.22932
2.8042344040004537,0,0,1.458068811035156,0,0,0.3822
2.805635665979935,0,0,1.4628572143554686,0,0,0.68796
2.807036206999328,0,0,1.388636962890625,0,0,1.2994800000000002
2.8084236169815995,0,0,1.0917559570312498,0,0,1.45236
2.809811045997776,0,0,1.1611878051757811,0,0,1.45236
2.8112005869916175,0,0,1.2138602416992186,0,0,0.15288000000000002
2.8125880349834915,0,0,1.419761584472656,0,0,0.22932
2.813974649005104,0,0,1.5179238525390624,0,0,0.53508
2.8153619119839277,0,0,1.458068811035156,0,0,0.7644
2.816748932993505,0,0,1.3766659545898436,0,0,1.2230400000000001
2.818137010995997,0,0,1.20667763671875,0,0,1.2994800000000002
2.819523810991086,0,0,1.35990654296875,0,0,0.91728
2.8209102769906167,0,0,1.2210428466796874,0,0,0.30576000000000003
2.8222969099879265,0,0,1.1348515869140625,0,0,0.45864
2.8236851539986674,0,0,1.0773907470703123,0,0,0.3822
2.8250723789969925,0,0,1.47482822265625,0,0,0.6115200000000001
2.8264682709996123,0,0,1.350329736328125,0,0,1.2994800000000002
2.8278545899956953,0,0,1.20667763671875,0,0,0.6115200000000001
2.829241203988204,0,0,1.2785036865234374,0,0,0.6115200000000001
2.830628762982087,0,0,1.0845733520507812,0,0,0.84084
2.83201508098864,0,0,1.3934253662109375,0,0,1.37592
2.8334017139859498,0,0,1.3024457031249999,0,0,0.91728
2.8347891249868553,0,0,1.4030021728515625,0,0,0.7644
2.836175684002228,0,0,1.3407529296874998,0,0,0.91728
2.8375625390035566,0,0,1.2785036865234374,0,0,0.15288000000000002
2.838949597993633,0,0,1.2928688964843749,0,0,0.45864
2.8403366379789077,0,0,1.3168109130859373,0,0,1.68168
2.8417236599780153,0,0,1.2952630981445312,0,0,1.2994800000000002
2.8431109039811417,0,0,1.2234370483398436,0,0,0.99372
2.844497740996303,0,0,1.3838485595703125,0,0,1.07016
2.845892687997548,0,0,1.388636962890625,0,0,0.53508
2.8472786729980726,0,0,1.3168109130859373,0,0,0.22932
2.848688175989082,0,0,1.1947066284179686,0,0,0.30576000000000003
2.850077049981337,0,0,1.1109095703125,0,0,1.68168
2.851464515988482,0,0,1.3670891479492187,0,0,1.1465999999999998
2.8528518159873784,0,0,1.3096283081054687,0,0,0.91728
2.8542387269844767,0,0,1.6160861206054686,0,0,1.07016
2.855625822994625,0,0,1.3048399047851562,0,0,0.68796
2.857012714986922,0,0,1.2401964599609374,0,0,0.45864
2.858400328987045,0,0,1.218648645019531,0,0,0.6115200000000001
2.859786943998188,0,0,1.1755530151367186,0,0,1.07016
2.861173835990485,0,0,1.448492004394531,0,0,0.6115200000000001
2.862696726981085,0,0,1.369483349609375,0,0,0.99372
2.864103100000648,0,0,1.5514426757812498,0,0,0.7644
2.865490954980487,0,0,1.3575123413085937,0,0,0.22932
2.8668785509944428,0,0,1.1324573852539062,0,0,0.15288000000000002
2.8682655919983517,0,0,1.3168109130859373,0,0,0.45864
2.869659057992976,0,0,1.1516109985351561,0,0,1.2994800000000002
2.87104631998227,0,0,1.2330138549804688,0,0,1.2230400000000001
2.872433304990409,0,0,1.177947216796875,0,0,0.68796
2.873820270993747,0,0,1.5610194824218748,0,0,0.91728
2.875202330003958,0,0,1.2689268798828124,0,0,0.22932
2.8765813520003576,0,0,1.455674609375,0,0,0.22932
2.8779601150017697,0,0,1.1947066284179686,0,0,0.53508
2.879347877984401,0,0,1.1276689819335937,0,0,0.91728
2.8807857880019583,0,0,1.2761094848632812,0,0,0.7644
2.882210623996798,0,0,1.1156979736328125,0,0,0.7644
2.883603108988609,0,0,1.5083470458984374,0,0,0.7644
2.8849892230064142,0,0,1.254561669921875,0,0,0.22932
2.886376726994058,0,0,1.2904746948242187,0,0,0.30576000000000003
2.887762821977958,0,0,1.2306196533203124,0,0,0.99372
2.8891491959802806,0,0,1.1420341918945311,0,0,0.91728
2.890535976999672,0,0,1.199495031738281,0,0,0.30576000000000003
2.8919215179921594,0,0,1.2737152832031249,0,0,0.22932
2.893307205988094,0,0,1.5227122558593749,0,0,0.45864
2.8946956169966143,0,0,1.1755530151367186,0,0,0.53508
2.8960809909913223,0,0,1.2282254516601563,0,0,0.7644
2.8974662349792197,0,0,1.216254443359375,0,0,1.2994800000000002
2.89885458999197,0,0,1.20667763671875,0,0,1.07016
2.900240296992706,0,0,1.1731588134765625,0,0,0.0
2.9016363929840736,0,0,1.1228805786132812,0,0,0.0
2.903134505992057,0,0,1.4532804077148436,0,0,0.6115200000000001
2.9045218429819215,0,0,1.3910311645507811,0,0,0.84084
2.905905678984709,0,0,1.3072341064453123,0,0,0.91728
2.90737823699601,0,0,1.1420341918945311,0,0,0.99372
2.9087730739847757,0,0,1.0582371337890624,0,0,0.68796
2.9101606879848987,0,0,1.2617442749023438,0,0,-0.22932
2.911549451004248,0,0,1.4532804077148436,0,0,-9.707880000000001
2.9129354169999715,0,0,1.7022773803710936,0,0,0.6115200000000001
2.9143418280000333,0,0,1.4006079711914061,0,0,1.07016
2.9157281829975545,0,0,1.3263877197265623,0,0,1.2994800000000002
2.917114130978007,0,0,1.1324573852539062,0,0,1.2230400000000001
2.9185014120012056,0,0,1.369483349609375,0,0,0.7644
2.919886896997923,0,0,1.2737152832031249,0,0,0.07644000000000001
2.921276993001811,0,0,1.2282254516601563,0,0,0.15288000000000002
2.9226737739809323,0,0,1.6232687255859375,0,0,0.68796
2.9240601469937246,0,0,1.35990654296875,0,0,0.6115200000000001
2.9254458909854293,0,0,1.2306196533203124,0,0,1.1465999999999998
2.926832060999004,0,0,1.1851298217773436,0,0,1.2230400000000001
2.9282187130011152,0,0,1.1659762084960936,0,0,1.07016
2.9296050120028667,0,0,1.3287819213867187,0,0,0.15288000000000002
2.9310021080018487,0,0,1.2785036865234374,0,0,0.84084
2.932388629997149,0,0,1.2617442749023438,0,0,0.45864
2.933774003991857,0,0,1.4173673828125,0,0,0.84084
2.935159840999404,0,0,1.2641384765625,0,0,1.2994800000000002
2.9365455659863073,0,0,1.2593500732421874,0,0,1.45236
2.937931235996075,0,0,1.2904746948242187,0,0,0.7644
2.939319461991545,0,0,1.0965443603515623,0,0,0.53508
2.940707964997273,0,0,1.2473790649414063,0,0,1.07016
2.942094134981744,0,0,1.3335703247070312,0,0,0.68796
2.9435179900028743,0,0,1.6065093139648436,0,0,0.99372
2.944905882002786,0,0,1.3814543579101561,0,0,1.07016
2.9462925889820326,0,0,1.1923124267578125,0,0,1.2230400000000001
2.9476789069885854,0,0,1.216254443359375,0,0,0.30576000000000003
2.949064743996132,0,0,1.1516109985351561,0,0,1.07016
2.9504514319996815,0,0,1.4532804077148436,0,0,1.37592
2.951837083994178,0,0,1.3263877197265623,0,0,0.91728
2.9532231979828794,0,0,1.5825672973632812,0,0,0.99372
2.9546094049874227,0,0,1.3311761230468748,0,0,0.7644
2.9559953160060104,0,0,1.1372457885742187,0,0,0.84084
2.957394540979294,0,0,1.0845733520507812,0,0,0.15288000000000002
2.958781803987222,0,0,1.1611878051757811,0,0,1.5288
2.9601677329919767,0,0,1.3646949462890625,0,0,0.99372
2.9615536629862618,0,0,1.4820108276367188,0,0,0.68796
2.9629398139950354,0,0,1.5825672973632812,0,0,0.7644
2.964325873006601,0,0,1.2593500732421874,0,0,0.7644
2.9657116909802426,0,0,1.1875240234375,0,0,0.3822
2.967098045977764,0,0,1.3383587280273437,0,0,0.22932
2.968484141980298,0,0,1.180341418457031,0,0,1.2994800000000002
2.969870256987633,0,0,1.3910311645507811,0,0,0.45864
2.971256963995984,0,0,1.2737152832031249,0,0,1.2994800000000002
2.972642929991707,0,0,1.5322890624999999,0,0,0.99372
2.974028932978399,0,0,1.1180921752929687,0,0,0.30576000000000003
2.975415417982731,0,0,1.5035586425781249,0,0,0.45864
2.9768015510053374,0,0,1.2785036865234374,0,0,0.15288000000000002
2.9781873319880106,0,0,1.0941501586914062,0,0,0.84084
2.9795735210063867,0,0,1.3766659545898436,0,0,0.22932
2.980967616982525,0,0,1.2282254516601563,0,0,0.84084
2.9823548419808503,0,0,1.5322890624999999,0,0,0.6115200000000001
2.983742123004049,0,0,1.254561669921875,0,0,0.6115200000000001
2.9851278489804827,0,0,1.426944189453125,0,0,1.07016
2.9865136859880295,0,0,1.22583125,0,0,0.53508
2.9878990589932073,0,0,1.1228805786132812,0,0,0.91728
2.9892850999895018,0,0,1.1228805786132812,0,0,-0.22932
2.9906729179783724,0,0,1.1755530151367186,0,0,0.0
2.9920579769823235,0,0,1.4413093994140624,0,0,0.30576000000000003
2.993444275984075,0,0,1.4053963745117186,0,0,0.6115200000000001
2.994831093994435,0,0,1.458068811035156,0,0,1.1465999999999998
2.9962161159783136,0,0,1.0941501586914062,0,0,1.1465999999999998
2.9976022119808476,0,0,1.158793603515625,0,0,0.99372
2.9989883639791515,0,0,1.209071838378906,0,0,-0.22932
3.0003743859997485,0,0,1.2832920898437499,0,0,-9.555
3.0017685929778963,0,0,1.6208745239257811,0,0,0.6115200000000001
3.003153800003929,0,0,1.4867992309570313,0,0,0.91728
3.004538302979199,0,0,1.2593500732421874,0,0,1.37592
3.005922620999627,0,0,1.0630255371093749,0,0,1.37592
3.007361364987446,0,0,1.1372457885742187,0,0,0.99372
3.008748016000027,0,0,1.2856862915039062,0,0,0.0
3.010134907992324,0,0,1.369483349609375,0,0,0.45864
3.0115464300033636,0,0,1.5921441040039062,0,0,0.22932
3.013063302001683,0,0,1.419761584472656,0,0,0.3822
3.0145252859801985,0,0,1.3215993164062498,0,0,0.91728
3.015972936991602,0,0,1.209071838378906,0,0,1.1465999999999998
3.017370236979332,0,0,1.3335703247070312,0,0,1.07016
3.0187587209802587,0,0,1.254561669921875,0,0,0.0
3.0201440019882284,0,0,1.3527239379882812,0,0,0.07644000000000001
3.0215299499977846,0,0,1.6927005737304686,0,0,0.3822
3.0229164350021165,0,0,1.3862427612304686,0,0,1.07016
3.0243024569936097,0,0,1.4413093994140624,0,0,0.99372
3.025688589987112,0,0,1.2713210815429687,0,0,0.99372
3.0270747040049173,0,0,1.0797849487304687,0,0,1.07016
3.0284599479928147,0,0,1.2665326782226562,0,0,0.07644000000000001
3.0298453959985636,0,0,1.2689268798828124,0,0,0.68796
3.031232306995662,0,0,1.2569558715820313,0,0,0.68796
3.0326178839895874,0,0,1.2976572998046874,0,0,0.7644
3.0340037400019355,0,0,1.3623007446289062,0,0,1.45236
3.035390094999457,0,0,1.3144167114257812,0,0,1.2230400000000001
3.0367760979861487,0,0,1.2593500732421874,0,0,0.84084
3.038161119999131,0,0,1.2234370483398436,0,0,0.22932
3.0395666789845563,0,0,1.235408056640625,0,0,0.99372
3.0409511259931605,0,0,1.388636962890625,0,0,0.99372
3.042355814977782,0,0,1.6304513305664061,0,0,0.91728
3.043760669999756,0,0,1.4437036010742186,0,0,1.37592
3.0451575990009587,0,0,1.2042834350585936,0,0,1.07016
3.0465452130010817,0,0,1.177947216796875,0,0,0.7644
3.047932290995959,0,0,1.0917559570312498,0,0,0.7644
3.0493182569916826,0,0,1.3742717529296875,0,0,0.84084
3.050705759989796,0,0,1.3527239379882812,0,0,0.68796
3.052090726996539,0,0,1.6232687255859375,0,0,0.84084
3.053476489003515,0,0,1.3862427612304686,0,0,1.1465999999999998
3.05486217798898,0,0,1.1037269653320312,0,0,0.3822
3.056248421984492,0,0,1.1228805786132812,0,0,0.53508
3.0576336850062944,0,0,1.1468225952148436,0,0,1.07016
3.059019762004027,0,0,1.3718775512695311,0,0,1.07016
3.0604056539887097,0,0,1.1755530151367186,0,0,0.91728
3.0617918059870135,0,0,1.599326708984375,0,0,0.91728
3.0631779200048186,0,0,1.2761094848632812,0,0,0.99372
3.064563886000542,0,0,1.177947216796875,0,0,0.3822
3.0659514639992267,0,0,1.3096283081054687,0,0,0.22932
3.0673375600017607,0,0,1.1731588134765625,0,0,1.2230400000000001
3.068723507982213,0,0,1.2737152832031249,0,0,0.91728
3.0701091589871794,0,0,1.3072341064453123,0,0,0.68796
3.0714951809786726,0,0,1.5227122558593749,0,0,0.99372
3.0728915729850996,0,0,1.2521674682617188,0,0,0.45864
3.0742772429948673,0,0,1.4891934326171874,0,0,0.22932
3.0756630240066443,0,0,1.2785036865234374,0,0,0.99372
3.077048526989529,0,0,1.0175357055664063,0,0,1.2230400000000001
3.0784352899936493,0,0,1.3862427612304686,0,0,0.68796
3.079820866987575,0,0,1.2473790649414063,0,0,0.6115200000000001
3.081206240982283,0,0,1.5634136840820312,0,0,1.07016
3.082593281986192,0,0,1.2880804931640624,0,0,0.3822
3.0839781549875624,0,0,1.3287819213867187,0,0,0.45864
3.0853636959800497,0,0,1.0797849487304687,0,0,-8.867040000000001
3.086752142990008,0,0,1.1659762084960936,0,0,0.84084
3.0881384249951225,0,0,1.16837041015625,0,0,-0.22932
3.0895338539849035,0,0,1.209071838378906,0,0,0.22932
3.0909200419846456,0,0,1.6136919189453125,0,0,0.22932
3.0923061379871797,0,0,1.43652099609375,0,0,0.45864
3.093692327005556,0,0,1.2665326782226562,0,0,0.91728
3.095080662984401,0,0,1.0749965454101562,0,0,1.2994800000000002
3.096466443996178,0,0,1.0342951171875,0,0,0.99372
3.0978607809811365,0,0,1.1827356201171875,0,0,-0.45864
3.099248043989064,0,0,1.2856862915039062,0,0,0.0
3.1006339909799863,0,0,1.6017209106445311,0,0,0.3822
3.102019921003375,0,0,1.5035586425781249,0,0,0.68796
3.103404572000727,0,0,1.3958195678710936,0,0,0.99372
3.104788094002288,0,0,1.180341418457031,0,0,1.2994800000000002
3.1061927450064104,0,0,1.3766659545898436,0,0,0.99372
3.1076464699872304,0,0,1.180341418457031,0,0,-0.22932
3.109036602982087,0,0,1.2976572998046874,0,0,-9.32568
3.1104280139843468,0,0,1.5059528442382812,0,0,0.30576000000000003
3.111814942996716,0,0,1.4030021728515625,0,0,0.6115200000000001
3.1132014089962468,0,0,1.2497732666015624,0,0,1.2994800000000002
3.1145882089913357,0,0,1.218648645019531,0,0,1.2994800000000002
3.11597400897881,0,0,1.2689268798828124,0,0,0.99372
3.117359808005858,0,0,1.2952630981445312,0,0,0.15288000000000002
3.118746608000947,0,0,1.3215993164062498,0,0,0.84084
3.1201383890002035,0,0,1.369483349609375,0,0,0.53508
3.121525947994087,0,0,1.2952630981445312,0,0,0.68796
3.1229121549986303,0,0,1.2808978881835937,0,0,1.2230400000000001
3.124298157985322,0,0,1.0989385620117187,0,0,0.99372
3.125683513004333,0,0,1.1540052001953125,0,0,0.68796
3.1270701460016426,0,0,1.189918225097656,0,0,0.53508
3.1284561499778647,0,0,1.2641384765625,0,0,1.2994800000000002
3.1298419490049127,0,0,1.3311761230468748,0,0,0.53508
3.1312865630025044,0,0,1.5514426757812498,0,0,1.07016
3.132740028988337,0,0,1.3215993164062498,0,0,1.1465999999999998
3.1341314949968364,0,0,1.1851298217773436,0,0,1.2994800000000002
3.135518331982894,0,0,1.1755530151367186,0,0,0.6115200000000001
3.136904927989235,0,0,1.1468225952148436,0,0,0.99372
3.13829080099822,0,0,1.3646949462890625,0,0,0.68796
3.1396775449975394,0,0,1.4508862060546874,0,0,0.68796
3.141063438000856,0,0,1.5490484741210937,0,0,0.7644
3.1424567739886697,0,0,1.3383587280273437,0,0,0.91728
3.1438439069897868,0,0,1.1755530151367186,0,0,0.84084
3.145229780988302,0,0,1.2617442749023438,0,0,0.30576000000000003
3.1466156730020884,0,0,1.2378022583007813,0,0,1.2994800000000002
3.1480015099805314,0,0,1.3623007446289062,0,0,1.1465999999999998
3.1493875320011284,0,0,1.458068811035156,0,0,0.99372
3.150774645997444,0,0,1.5346832641601562,0,0,0.91728
3.152160389989149,0,0,1.2904746948242187,0,0,0.91728
3.153545948996907,0,0,1.1923124267578125,0,0,0.7644
3.1549322859791573,0,0,1.3455413330078123,0,0,0.45864
3.156328658980783,0,0,1.189918225097656,0,0,1.1465999999999998
3.157714754983317,0,0,1.4006079711914061,0,0,0.6115200000000001
3.159100906981621,0,0,1.2928688964843749,0,0,1.07016
3.160486762004439,0,0,1.5490484741210937,0,0,0.99372
3.161872247001156,0,0,1.149216796875,0,0,0.99372
3.1633549529942684,0,0,1.158793603515625,0,0,0.15288000000000002
3.164743159984937,0,0,1.209071838378906,0,0,0.22932
3.1661293850047514,0,0,1.218648645019531,0,0,0.99372
3.167516628978774,0,0,1.3263877197265623,0,0,1.1465999999999998
3.168902909994358,0,0,1.189918225097656,0,0,1.1465999999999998
3.170288580004126,0,0,1.5538368774414062,0,0,0.99372
3.171674509998411,0,0,1.2808978881835937,0,0,0.3822
3.1730598830035888,0,0,1.2976572998046874,0,0,0.45864
3.174446478980826,0,0,1.199495031738281,0,0,0.7644
3.1758320569933858,0,0,1.0845733520507812,0,0,0.91728
3.1772395969892386,0,0,1.3072341064453123,0,0,0.84084
3.1786260079825297,0,0,1.1516109985351561,0,0,0.7644
3.1800139179977123,0,0,1.4867992309570313,0,0,0.7644
3.1814005879859906,0,0,1.2210428466796874,0,0,0.68796
3.18278727697907,0,0,1.3910311645507811,0,0,0.22932
3.184172003006097,0,0,1.2018892333984375,0,0,0.7644
3.1855576539819594,0,0,1.0845733520507812,0,0,0.91728
3.1869432310049888,0,0,1.13006318359375,0,0,0.30576000000000003
3.188328938005725,0,0,1.2425906616210938,0,0,0.53508
3.189722126990091,0,0,1.5634136840820312,0,0,0.53508
3.1911097599950153,0,0,1.5945383056640625,0,0,0.6115200000000001
3.1924953929847106,0,0,1.2378022583007813,0,0,0.7644
3.1938807669794187,0,0,1.2234370483398436,0,0,1.2230400000000001
3.1952841029851697,0,0,1.0630255371093749,0,0,0.91728
3.196670513978461,0,0,1.2665326782226562,0,0,-0.3822
3.1980582019896246,0,0,1.3407529296874998,0,0,0.0
3.1994446869939566,0,0,1.6208745239257811,0,0,0.45864
3.2008309309894685,0,0,1.254561669921875,0,0,0.68796
3.202216804987984,0,0,1.2880804931640624,0,0,1.2994800000000002
3.20360091899056,0,0,1.1276689819335937,0,0,1.37592
3.204989792982815,0,0,1.3120225097656248,0,0,1.07016
3.2064613699913025,0,0,1.235408056640625,0,0,-0.45864
3.207851816987386,0,0,1.235408056640625,0,0,0.3822
3.2092384129937273,0,0,1.678335363769531,0,0,0.6115200000000001
3.2106256389815826,0,0,1.3718775512695311,0,0,0.91728
3.2120117159793153,0,0,1.2952630981445312,0,0,1.1465999999999998
3.213398033985868,0,0,1.1444283935546875,0,0,1.1465999999999998
3.2148265189898666,0,0,1.1540052001953125,0,0,0.68796
3.2162123919988517,0,0,1.1420341918945311,0,0,-0.3822
3.21759935899172,0,0,1.3958195678710936,0,0,0.6115200000000001
3.2189860100043006,0,0,1.3383587280273437,0,0,0.53508
3.220378661993891,0,0,1.35990654296875,0,0,0.6115200000000001
3.221766128001036,0,0,1.37906015625,0,0,1.37592
3.223152538994327,0,0,1.158793603515625,0,0,0.91728
3.2245386529830284,0,0,1.1635820068359375,0,0,0.45864
3.2259250079805497,0,0,1.16837041015625,0,0,0.30576000000000003
3.227311788999941,0,0,1.3024457031249999,0,0,1.1465999999999998
3.2286977369803935,0,0,1.3168109130859373,0,0,1.07016
3.230083295988152,0,0,1.599326708984375,0,0,0.7644
3.231469410005957,0,0,1.388636962890625,0,0,1.1465999999999998
3.2328555620042607,0,0,1.0749965454101562,0,0,0.6115200000000001
3.2342411759891547,0,0,1.2282254516601563,0,0,0.45864
3.235627679998288,0,0,1.20667763671875,0,0,0.7644
3.2370135719829705,0,0,1.2330138549804688,0,0,1.1465999999999998
3.23840050099534,0,0,1.4125789794921875,0,0,0.84084
3.239786449004896,0,0,1.5514426757812498,0,0,0.84084
3.241172156005632,0,0,1.2306196533203124,0,0,1.2230400000000001
3.242560844984837,0,0,1.1540052001953125,0,0,0.6115200000000001
3.2439526439993642,0,0,1.0726023437499999,0,0,0.45864
3.245338573004119,0,0,1.180341418457031,0,0,1.07016
3.2467257989919744,0,0,1.3431471313476562,0,0,1.07016
3.248111061984673,0,0,1.3072341064453123,0,0,1.07016
3.2494970279803965,0,0,1.62805712890625,0,0,1.1465999999999998
3.2508828830032144,0,0,1.3575123413085937,0,0,0.84084
3.252269015996717,0,0,1.0606313354492187,0,0,0.30576000000000003
3.25365503798821,0,0,1.1611878051757811,0,0,0.68796
3.255040874995757,0,0,1.120486376953125,0,0,1.07016
3.2564275629993062,0,0,1.369483349609375,0,0,0.7644
3.2578135849907994,0,0,1.3646949462890625,0,0,0.6115200000000001
3.259199791995343,0,0,1.608903515625,0,0,0.68796
3.260585961979814,0,0,1.3359645263671873,0,0,0.91728
3.261972075997619,0,0,1.429338391113281,0,0,0.45864
3.2633583580027334,0,0,1.216254443359375,0,0,0.7644
3.264753102004761,0,0,1.0965443603515623,0,0,0.7644
3.266139530984219,0,0,1.3670891479492187,0,0,0.15288000000000002
3.2675259599927813,0,0,1.2234370483398436,0,0,0.45864
3.2689117229892872,0,0,1.5777788940429687,0,0,0.6115200000000001
3.2702980960020795,0,0,1.199495031738281,0,0,0.53508
3.271685580984922,0,0,1.3335703247070312,0,0,0.3822
3.2730942879861686,0,0,1.0893617553710937,0,0,0.91728
3.274481383996317,0,0,1.1444283935546875,0,0,0.91728
3.275867127988022,0,0,1.3239935180664062,0,0,0.0
3.277253630978521,0,0,1.2378022583007813,0,0,0.15288000000000002
3.2786403379868716,0,0,1.5275006591796874,0,0,0.30576000000000003
3.2800256379996426,0,0,1.5370774658203123,0,0,0.3822
3.281411900999956,0,0,1.2904746948242187,0,0,0.99372
3.282807348005008,0,0,1.1420341918945311,0,0,0.99372
3.284193202998722,0,0,1.1635820068359375,0,0,-8.943480000000001
3.2855795029900037,0,0,1.1755530151367186,0,0,-0.22932
3.2869668399798684,0,0,1.2617442749023438,0,0,0.22932
3.288352601986844,0,0,1.5586252807617187,0,0,0.45864
3.289738438994391,0,0,1.4437036010742186,0,0,0.6115200000000001
3.2911243679991458,0,0,1.2785036865234374,0,0,1.2994800000000002
3.292510315979598,0,0,1.149216796875,0,0,1.2994800000000002
3.293896393995965,0,0,1.3120225097656248,0,0,0.68796
3.2952828599954955,0,0,1.180341418457031,0,0,0.0
3.2966689000022598,0,0,1.3527239379882812,0,0,0.53508
3.298054291983135,0,0,1.3239935180664062,0,0,0.6115200000000001
3.299465610005427,0,0,1.3144167114257812,0,0,0.91728
3.300852872984251,0,0,1.1324573852539062,0,0,1.2994800000000002
3.3022390799887944,0,0,1.1851298217773436,0,0,1.2230400000000001
3.3036240649817046,0,0,1.2042834350585936,0,0,0.91728
3.3050087899900973,0,0,1.149216796875,0,0,0.7644
3.306436811981257,0,0,1.4030021728515625,0,0,0.99372
3.3078369259892497,0,0,1.3742717529296875,0,0,0.84084
3.3092237069795374,0,0,1.3335703247070312,0,0,0.6115200000000001
3.310611691995291,0,0,1.2401964599609374,0,0,1.2994800000000002
3.311997157987207,0,0,1.0726023437499999,0,0,0.7644
3.313383236003574,0,0,1.235408056640625,0,0,-9.555
3.3147698319808114,0,0,1.0773907470703123,0,0,0.84084
3.3161677790049,0,0,1.2641384765625,0,0,1.1465999999999998
3.3175540969823487,0,0,1.2856862915039062,0,0,0.68796
3.3189402489806525,0,0,1.6711527587890624,0,0,0.91728
3.3203298449807335,0,0,1.3263877197265623,0,0,0.99372
3.321715995989507,0,0,1.0917559570312498,0,0,0.3822
3.3231024440028705,0,0,1.139639990234375,0,0,0.45864
3.324488483980531,0,0,1.1420341918945311,0,0,1.37592
3.3258750989916734,0,0,1.3646949462890625,0,0,1.1465999999999998
3.3272627129917964,0,0,1.2952630981445312,0,0,1.2230400000000001
3.3286486429860815,0,0,1.637633935546875,0,0,1.1465999999999998
3.3300348309858236,0,0,1.2808978881835937,0,0,0.84084
3.3314328159904107,0,0,1.0773907470703123,0,0,0.22932
3.3328188009909354,0,0,1.1755530151367186,0,0,0.45864
3.334204766986659,0,0,1.2617442749023438,0,0,0.91728
3.335590547998436,0,0,1.35990654296875,0,0,0.84084
3.33697664400097,0,0,1.2234370483398436,0,0,0.68796
3.3383760919969063,0,0,1.649604943847656,0,0,0.3822
3.3397625210054684,0,0,1.3192051147460937,0,0,0.53508
3.3411499689973425,0,0,1.1755530151367186,0,0,0.3822
3.342537452990655,0,0,1.3000515014648437,0,0,0.6115200000000001
3.3439246969937813,0,0,1.158793603515625,0,0,0.84084
3.3453103299834765,0,0,1.3144167114257812,0,0,0.07644000000000001
3.3466967970016412,0,0,1.3575123413085937,0,0,0.6115200000000001
3.348082318989327,0,0,1.6232687255859375,0,0,0.45864
3.3494680259900633,0,0,1.1468225952148436,0,0,0.3822
3.350853695999831,0,0,1.4820108276367188,0,0,0.53508
3.352246661990648,0,0,1.1635820068359375,0,0,-8.7906
3.353735330980271,0,0,1.0558429321289062,0,0,1.07016
3.355118463980034,0,0,1.2641384765625,0,0,0.0
3.3564974299806636,0,0,1.2114660400390624,0,0,0.30576000000000003
3.3578761740063783,0,0,1.4101847778320311,0,0,0.84084
3.359256473981077,0,0,1.2856862915039062,0,0,0.30576000000000003
3.360634865995962,0,0,1.4221557861328125,0,0,0.91728
3.362013998994371,0,0,1.2234370483398436,0,0,1.2994800000000002
3.363393651001388,0,0,1.1133037719726562,0,0,0.68796
3.3647722649911884,0,0,1.1516109985351561,0,0,-0.45864
3.366151769005228,0,0,1.1611878051757811,0,0,0.30576000000000003
3.3675312169943936,0,0,1.4341267944335936,0,0,0.45864
3.3689101460040547,0,0,1.5251064575195312,0,0,0.30576000000000003
3.3702883899968583,0,0,1.3551181396484375,0,0,1.2230400000000001
3.371675874979701,0,0,1.1420341918945311,0,0,1.07016
3.373062211991055,0,0,1.1540052001953125,0,0,-9.24924
3.3744495479913894,0,0,1.189918225097656,0,0,0.0
3.3758345149981324,0,0,1.39821376953125,0,0,0.53508
3.377220424998086,0,0,1.5562310791015623,0,0,0.84084
3.3786068729823455,0,0,1.465251416015625,0,0,0.91728
3.379991820984287,0,0,1.180341418457031,0,0,1.37592
3.3814209349802695,0,0,1.13006318359375,0,0,1.1465999999999998
3.3828570490004495,0,0,1.3670891479492187,0,0,0.84084
3.3842480150051415,0,0,1.1827356201171875,0,0,0.30576000000000003
3.3856446849822532,0,0,1.2593500732421874,0,0,0.99372
3.387031243997626,0,0,1.5849614990234373,0,0,-8.943480000000001
3.388418229005765,0,0,1.5179238525390624,0,0,1.1465999999999998
3.3898266019823495,0,0,1.3024457031249999,0,0,1.2994800000000002
3.3912142909830436,0,0,1.0702081420898437,0,0,0.7644
3.392600330989808,0,0,1.1468225952148436,0,0,0.53508
3.393986926996149,0,0,1.1875240234375,0,0,0.53508
3.3953799119917676,0,0,1.3838485595703125,0,0,1.07016
3.3967660820053425,0,0,1.3623007446289062,0,0,1.2230400000000001
3.3981518439832143,0,0,1.4628572143554686,0,0,0.91728
3.399538773985114,0,0,1.2665326782226562,0,0,1.2230400000000001
3.400924796005711,0,0,1.2617442749023438,0,0,0.15288000000000002
3.4023227430006955,0,0,1.2330138549804688,0,0,0.45864
3.4037081910064444,0,0,1.197100830078125,0,0,1.1465999999999998
3.4050923610047903,0,0,1.3958195678710936,0,0,1.2230400000000001
3.40652462298749,0,0,1.2282254516601563,0,0,0.99372
3.407909923000261,0,0,1.5777788940429687,0,0,1.07016
3.4093061849998776,0,0,1.3120225097656248,0,0,0.84084
3.4106944850063883,0,0,1.209071838378906,0,0,0.45864
3.4120820069801994,0,0,1.2330138549804688,0,0,0.53508
3.413468009995995,0,0,1.0749965454101562,0,0,1.2994800000000002
3.414854957984062,0,0,1.3646949462890625,0,0,0.45864
3.416240591002861,0,0,1.3575123413085937,0,0,0.7644
3.4176265760033857,0,0,1.618480322265625,0,0,0.91728
3.419013411999913,0,0,1.2976572998046874,0,0,0.6115200000000001
3.4203995449934155,0,0,1.2210428466796874,0,0,0.45864
3.4217853079899214,0,0,1.1755530151367186,0,0,0.30576000000000003
3.4231715700007044,0,0,1.2138602416992186,0,0,0.7644
3.424557369988179,0,0,1.3144167114257812,0,0,0.3822
3.425943335983902,0,0,1.24498486328125,0,0,0.22932
3.4273292659781873,0,0,1.6065093139648436,0,0,1.07016
3.428715083980933,0,0,1.3072341064453123,0,0,0.6115200000000001
3.4301087349886075,0,0,1.2138602416992186,0,0,0.7644
3.431494794000173,0,0,1.180341418457031,0,0,0.68796
3.4328806859848555,0,0,1.0749965454101562,0,0,0.99372
3.4342663190036546,0,0,1.2761094848632812,0,0,20
3.435652988991933,0,0,1.2928688964843749,0,0,0.22932
3.437038992997259,0,0,1.5179238525390624,0,0,0.6115200000000001
3.438426070002606,0,0,1.3000515014648437,0,0,0.3822
3.4398259989975486,0,0,1.254561669921875,0,0,0.84084
3.4412124099908397,0,0,1.1420341918945311,0,0,1.37592
3.4425993759941775,0,0,1.199495031738281,0,0,0.99372
3.4439844169828575,0,0,1.3335703247070312,0,0,0.0
3.445370086992625,0,0,1.3646949462890625,0,0,0.3822
3.4467564600054175,0,0,1.4867992309570313,0,0,0.53508
3.4481487779994495,0,0,1.2521674682617188,0,0,0.53508
3.4495355779945385,0,0,1.3192051147460937,0,0,1.37592
3.4509218409948517,0,0,1.1635820068359375,0,0,1.1465999999999998
3.452307658997597,0,0,1.1372457885742187,0,0,0.6115200000000001
3.4536936990043614,0,0,1.2473790649414063,0,0,-0.30576000000000003
3.455081183987204,0,0,1.2234370483398436,0,0,0.22932
3.4564671689877287,0,0,1.3718775512695311,0,0,0.30576000000000003
3.4578534129832406,0,0,1.6352397338867186,0,0,0.6115200000000001
3.459239452990005,0,0,1.3359645263671873,0,0,1.37592
3.4606253639794886,0,0,1.0797849487304687,0,0,0.91728
3.4620113669952843,0,0,1.2689268798828124,0,0,0.84084
3.463407647999702,0,0,1.218648645019531,0,0,0.84084
3.464797706983518,0,0,1.3263877197265623,0,0,0.84084
3.4661835620063357,0,0,1.3383587280273437,0,0,0.99372
3.4675697319908068,0,0,1.5514426757812498,0,0,0.84084
3.4689552539784927,0,0,1.3407529296874998,0,0,1.5288
3.470342405984411,0,0,1.1013327636718748,0,0,0.53508
3.471728815988172,0,0,1.2761094848632812,0,0,0.68796
3.473114597989479,0,0,1.1875240234375,0,0,1.07016
3.4745013600040693,0,0,1.4030021728515625,0,0,1.37592
3.4758864379837178,0,0,1.2832920898437499,0,0,1.2230400000000001
3.4772727369854692,0,0,1.659181750488281,0,0,0.91728
3.478659204003634,0,0,1.3431471313476562,0,0,0.7644
3.48004466999555,0,0,1.149216796875,0,0,0.22932
3.4814304879982956,0,0,1.2976572998046874,0,0,0.45864
3.4828275280015077,0,0,1.2737152832031249,0,0,1.45236
3.484214123978745,0,0,1.3335703247070312,0,0,1.07016
3.48560010897927,0,0,1.2737152832031249,0,0,0.68796
3.486986056988826,0,0,1.5011644409179687,0,0,1.1465999999999998
3.488372078980319,0,0,1.1348515869140625,0,0,1.07016
3.4897582120029256,0,0,1.3000515014648437,0,0,0.3822
3.49114376999205,0,0,1.2737152832031249,0,0,0.45864
3.4925299029855523,0,0,1.1707646118164061,0,0,0.91728
3.4939156659820583,0,0,1.3479355346679687,0,0,0.53508
3.4952997060026973,0,0,1.22583125,0,0,0.7644
3.4967086349788588,0,0,1.62805712890625,0,0,1.1465999999999998
3.4980977310042363,0,0,1.2234370483398436,0,0,0.6115200000000001
3.499479400983546,0,0,1.3742717529296875,0,0,0.53508
3.5008583309827372,0,0,1.0630255371093749,0,0,0.68796
3.50223698199261,0,0,1.3670891479492187,0,0,-0.3822
3.504618863982614,0,0,1.22583125,0,0,0.45864
3.5060045339923818,0,0,1.5418658691406248,0,0,0.6115200000000001
