Time,AccelX1,AccelY1,AccelZ1,AccelX2,AccelY2,AccelZ2
4.8340007197111845e-06,0,0,1.3024457031249999,0,0,0.7644
0.003323904995340854,0,0,1.189918225097656,0,0,0.45864
0.006952102005016059,0,0,1.2713210815429687,0,0,0.53508
0.010602780006593093,0,0,1.2401964599609374,0,0,0.68796
0.014132014999631792,0,0,1.2713210815429687,0,0,0.6115200000000001
0.017654175986535847,0,0,1.2856862915039062,0,0,0.99372
0.021237670007394627,0,0,1.3096283081054687,0,0,0.91728
0.024765312991803512,0,0,1.0821791503906248,0,0,0.91728
0.028296066011535004,0,0,1.446097802734375,0,0,0.7644
0.031930188997648656,0,0,1.5035586425781249,0,0,0.68796
0.035473850002745166,0,0,1.1133037719726562,0,0,0.68796
0.0389894190011546,0,0,1.3455413330078123,0,0,0.6115200000000001
0.042581226996844634,0,0,1.4915876342773438,0,0,0.91728
0.04611179500352591,0,0,1.1468225952148436,0,0,0.7644
0.049656345014227554,0,0,1.3072341064453123,0,0,0.84084
0.053220339003019035,0,0,1.4101847778320311,0,0,1.75812
0.05674407401238568,0,0,1.2928688964843749,0,0,0.53508
0.060267883993219584,0,0,1.2617442749023438,0,0,1.07016
0.06378648898680694,0,0,1.3838485595703125,0,0,0.84084
0.06730926199816167,0,0,1.2282254516601563,0,0,0.6115200000000001
0.0708605149993673,0,0,1.4341267944335936,0,0,0.7644
0.07437791698612273,0,0,1.1731588134765625,0,0,0.84084
0.07804140998632647,0,0,1.1851298217773436,0,0,0.68796
0.08160516299540177,0,0,1.458068811035156,0,0,0.68796
0.08514230599394068,0,0,1.4006079711914061,0,0,0.7644
0.08867987399571575,0,0,1.3048399047851562,0,0,1.45236
0.09220146099687554,0,0,1.458068811035156,0,0,0.7644
0.0957224190060515,0,0,1.3192051147460937,0,0,0.68796
0.09933311599888839,0,0,1.2904746948242187,0,0,0.91728
0.10298553499160334,0,0,1.4939818359375,0,0,0.7644
0.10621143999742344,0,0,1.2569558715820313,0,0,0.68796
0.10931640298804268,0,0,1.2497732666015624,0,0,0.3822
0.11243771700537764,0,0,1.4245499877929686,0,0,1.1465999999999998
0.11555830898578279,0,0,1.4772224243164063,0,0,0.91728
0.11867627099854872,0,0,1.1156979736328125,0,0,0.84084
0.12179045600350946,0,0,1.3766659545898436,0,0,0.91728
0.12490491798962466,0,0,1.3072341064453123,0,0,0.68796
0.1283621350012254,0,0,1.1109095703125,0,0,0.6115200000000001
0.13149132000398822,0,0,1.350329736328125,0,0,0.3822
0.13460711599327624,0,0,1.1324573852539062,0,0,0.7644
0.13772163400426507,0,0,1.120486376953125,0,0,0.91728
0.1409668170090299,0,0,1.3120225097656248,0,0,1.68168
0.14421118499012664,0,0,1.3862427612304686,0,0,0.7644
0.14734168400173075,0,0,1.1180921752929687,0,0,0.99372
0.15046496101422235,0,0,1.3670891479492187,0,0,0.68796
0.1535839049902279,0,0,1.4317325927734375,0,0,0.99372
0.15668658999493346,0,0,1.5083470458984374,0,0,0.53508
0.1598291260015685,0,0,1.3096283081054687,0,0,0.6115200000000001
0.1629490880004596,0,0,1.2114660400390624,0,0,2.36964
0.16606456899899058,0,0,1.2665326782226562,0,0,0.91728
0.16921419798745774,0,0,1.2713210815429687,0,0,0.6115200000000001
0.17231917899334803,0,0,1.3431471313476562,0,0,1.2994800000000002
0.17543384499731474,0,0,1.4915876342773438,0,0,0.7644
0.17856549200951122,0,0,1.0917559570312498,0,0,0.6115200000000001
0.1816830100142397,0,0,1.0749965454101562,0,0,0.30576000000000003
0.18479891700553708,0,0,1.4963760375976562,0,0,0.84084
0.18791321301250719,0,0,1.446097802734375,0,0,0.6115200000000001
0.1910282300086692,0,0,1.2617442749023438,0,0,0.6115200000000001
0.1941819519852288,0,0,1.2976572998046874,0,0,0.91728
0.19732520999968983,0,0,1.2282254516601563,0,0,0.91728
0.20044506099657156,0,0,1.3335703247070312,0,0,1.07016
0.20359128201380372,0,0,1.3263877197265623,0,0,0.45864
0.20672465200186707,0,0,1.4915876342773438,0,0,0.84084
0.20984279998810962,0,0,1.1827356201171875,0,0,0.99372
0.21296074299607426,0,0,1.2282254516601563,0,0,0.3822
0.21608029800700024,0,0,1.3287819213867187,0,0,0.7644
0.21919079800136387,0,0,1.3168109130859373,0,0,0.7644
0.2222859830071684,0,0,1.1563994018554686,0,0,0.53508
0.22540268598822877,0,0,1.3144167114257812,0,0,0.99372
0.22852085198974237,0,0,1.3766659545898436,0,0,0.99372
0.23163685100735165,0,0,1.2018892333984375,0,0,0.84084
0.2347792579967063,0,0,1.3144167114257812,0,0,0.53508
0.23789351599407382,0,0,1.5155296508789062,0,0,0.7644
0.24102401599520817,0,0,1.2521674682617188,0,0,0.68796
0.24415810700156726,0,0,1.1156979736328125,0,0,0.3822
0.24727403299766593,0,0,1.5179238525390624,0,0,0.15288000000000002
0.25038542100810446,0,0,1.458068811035156,0,0,0.84084
0.25350506900576875,0,0,1.2401964599609374,0,0,0.6115200000000001
0.2566192350059282,0,0,1.2282254516601563,0,0,0.84084
0.2597694929863792,0,0,1.3575123413085937,0,0,0.99372
0.2628848259919323,0,0,1.1109095703125,0,0,0.84084
0.26601536199450493,0,0,1.1348515869140625,0,0,1.07016
0.26913237999542616,0,0,1.2952630981445312,0,0,0.53508
0.27224837901303545,0,0,1.2138602416992186,0,0,0.53508
0.27536276800674386,0,0,1.3168109130859373,0,0,0.6115200000000001
0.27847722999285907,0,0,1.5011644409179687,0,0,1.07016
0.2815910810022615,0,0,1.6041151123046875,0,0,0.7644
0.2847143030085135,0,0,1.1611878051757811,0,0,0.7644
0.28783728400594555,0,0,1.3742717529296875,0,0,1.07016
0.2909491529862862,0,0,1.1228805786132812,0,0,0.91728
0.29404482000973076,0,0,1.3120225097656248,0,0,0.84084
0.2971696339955088,0,0,1.2737152832031249,0,0,0.68796
0.3002842259884346,0,0,1.2856862915039062,0,0,0.7644
0.3034910020069219,0,0,1.1851298217773436,0,0,0.68796
0.3068634429946542,0,0,1.2641384765625,0,0,0.91728
0.31005749700125307,0,0,1.4125789794921875,0,0,0.99372
0.3133725860097911,0,0,1.3383587280273437,0,0,1.07016
0.316491567005869,0,0,1.3575123413085937,0,0,0.53508
0.3196375289990101,0,0,1.3383587280273437,0,0,0.6115200000000001
0.3227674539957661,0,0,1.2378022583007813,0,0,0.53508
0.32588715699966997,0,0,1.199495031738281,0,0,0.53508
0.32902378600556403,0,0,1.3239935180664062,0,0,0.6115200000000001
0.33214010001393035,0,0,1.2234370483398436,0,0,0.99372
0.33525837800698355,0,0,1.0749965454101562,0,0,0.91728
0.33835445099975914,0,0,1.120486376953125,0,0,1.07016
0.34147224700427614,0,0,1.5227122558593749,0,0,0.7644
0.34458689400344156,0,0,1.22583125,0,0,0.99372
0.34770346799632534,0,0,1.1276689819335937,0,0,0.3822
0.35081959699164145,0,0,1.2593500732421874,0,0,0.7644
0.35393418901367113,0,0,1.2904746948242187,0,0,0.7644
0.35704791100579314,0,0,1.3527239379882812,0,0,0.45864
0.36031488998560235,0,0,1.2808978881835937,0,0,1.1465999999999998
0.36343774100532755,0,0,1.3096283081054687,0,0,0.84084
0.36657992500113323,0,0,1.0965443603515623,0,0,0.91728
0.3696992580080405,0,0,1.1252747802734375,0,0,0.84084
0.3727991649939213,0,0,1.6160861206054686,0,0,0.6115200000000001
0.37591338698985055,0,0,1.4700398193359374,0,0,0.91728
0.3790288860036526,0,0,1.2952630981445312,0,0,0.53508
0.3821404589980375,0,0,1.4772224243164063,0,0,0.99372
0.38525431099697016,0,0,1.465251416015625,0,0,0.84084
0.38835740298964083,0,0,1.3623007446289062,0,0,0.53508
0.3921544309996534,0,0,1.4724340209960938,0,0,0.91728
0.39573290600674227,0,0,1.388636962890625,0,0,0.91728
0.39885770200635307,0,0,1.3096283081054687,0,0,0.68796
0.40215206998982467,0,0,1.39821376953125,0,0,0.99372
0.4051830150128808,0,0,1.2832920898437499,0,0,0.91728
0.40798783299396746,0,0,1.2401964599609374,0,0,0.7644
0.4107907990110107,0,0,1.1133037719726562,0,0,1.2230400000000001
0.4135893390048295,0,0,1.5873557006835937,0,0,0.68796
0.416391601000214,0,0,1.3814543579101561,0,0,0.68796
0.41918588199769147,0,0,1.2761094848632812,0,0,0.45864
0.4219652930041775,0,0,1.2497732666015624,0,0,0.68796
0.42477022198727354,0,0,1.4891934326171874,0,0,0.68796
0.42757055899710394,0,0,1.2497732666015624,0,0,1.07016
0.43036715500056744,0,0,1.1731588134765625,0,0,0.7644
0.4331661770120263,0,0,1.2330138549804688,0,0,0.99372
0.43596345800324343,0,0,1.2425906616210938,0,0,0.68796
0.43876353499945253,0,0,1.0989385620117187,0,0,0.6115200000000001
0.4415616680053063,0,0,1.2689268798828124,0,0,0.45864
0.4443595230113715,0,0,1.4245499877929686,0,0,0.7644
0.4471593589987606,0,0,1.4915876342773438,0,0,0.53508
0.4499567149905488,0,0,1.2713210815429687,0,0,0.68796
0.4527676989964675,0,0,1.3048399047851562,0,0,1.07016
0.4556379239948001,0,0,1.5107412475585937,0,0,0.84084
0.45845564900082536,0,0,1.3239935180664062,0,0,0.99372
0.46125817100983113,0,0,1.2785036865234374,0,0,0.7644
0.4640486919961404,0,0,1.2761094848632812,0,0,0.30576000000000003
0.46684834398911335,0,0,1.2282254516601563,0,0,0.68796
0.4696512729860842,0,0,1.3646949462890625,0,0,0.7644
0.47247759098536335,0,0,1.2210428466796874,0,0,0.45864
0.47528009398956783,0,0,1.3359645263671873,0,0,0.7644
0.4780771159857977,0,0,1.4772224243164063,0,0,0.91728
0.48086237799725495,0,0,1.2497732666015624,0,0,0.91728
0.48397274801391177,0,0,1.3096283081054687,0,0,1.07016
0.48680819501169026,0,0,1.4053963745117186,0,0,0.99372
0.4896058099984657,0,0,1.448492004394531,0,0,0.68796
0.49240951699903235,0,0,1.199495031738281,0,0,0.68796
0.4952106680138968,0,0,1.3096283081054687,0,0,0.53508
0.49800839301315136,0,0,1.2018892333984375,0,0,0.84084
0.5008098410035018,0,0,1.2306196533203124,0,0,0.84084
0.5129853049875237,0,0,1.2569558715820313,0,0,0.91728
0.5162235249881633,0,0,1.2521674682617188,0,0,1.07016
0.5193416730035096,0,0,1.235408056640625,0,0,0.7644
0.5225532820040826,0,0,1.3718775512695311,0,0,0.68796
0.5256767999962904,0,0,1.3311761230468748,0,0,20
0.5287797809869517,0,0,1.1516109985351561,0,0,0.53508
0.5318853550124913,0,0,1.1085153686523437,0,0,0.84084
0.5349945760099217,0,0,1.2569558715820313,0,0,0.68796
0.5380922610056587,0,0,1.4724340209960938,0,0,0.91728
0.5411958349868655,0,0,1.3814543579101561,0,0,1.07016
0.5444308140140492,0,0,1.3718775512695311,0,0,0.68796
0.5477264410001226,0,0,1.4149731811523436,0,0,0.84084
0.550859829003457,0,0,1.4149731811523436,0,0,0.68796
0.5539627549878787,0,0,1.3168109130859373,0,0,0.6115200000000001
0.5570886800123844,0,0,1.3527239379882812,0,0,0.22932
0.5602085680002347,0,0,1.3335703247070312,0,0,0.84084
0.5633586409967393,0,0,1.120486376953125,0,0,0.7644
0.566477677988587,0,0,1.35990654296875,0,0,0.91728
0.5695960290031508,0,0,1.4101847778320311,0,0,1.1465999999999998
0.5727144170086831,0,0,1.209071838378906,0,0,1.5288
0.5759919149859343,0,0,1.1324573852539062,0,0,0.45864
0.579351169988513,0,0,1.3287819213867187,0,0,0.7644
0.5824801510025281,0,0,1.5107412475585937,0,0,0.91728
0.585580298997229,0,0,1.2593500732421874,0,0,-9.24924
0.5887187419866677,0,0,1.2330138549804688,0,0,0.7644
0.5919915919948835,0,0,1.13006318359375,0,0,0.91728
0.5981306839967147,0,0,1.3287819213867187,0,0,0.53508
0.601252980006393,0,0,1.407790576171875,0,0,0.53508
0.6044735710020177,0,0,1.3168109130859373,0,0,0.68796
0.6074263310001697,0,0,1.1133037719726562,0,0,0.7644
0.6102295200107619,0,0,1.4939818359375,0,0,1.1465999999999998
0.6130295229959302,0,0,1.3814543579101561,0,0,0.68796
0.6158458220015746,0,0,1.2785036865234374,0,0,0.7644
0.6186551220016554,0,0,1.2401964599609374,0,0,1.2230400000000001
0.6214626060100272,0,0,1.3862427612304686,0,0,0.91728
0.6242604799917899,0,0,1.5179238525390624,0,0,0.99372
0.6275985690008383,0,0,1.216254443359375,0,0,0.7644
0.6304260540055111,0,0,1.2330138549804688,0,0,1.1465999999999998
0.633228741993662,0,0,1.1444283935546875,0,0,1.07016
0.6360285409900825,0,0,1.2210428466796874,0,0,0.6115200000000001
0.638839174003806,0,0,1.2282254516601563,0,0,0.15288000000000002
0.6430303459928837,0,0,1.3407529296874998,0,0,0.91728
0.6458770709868986,0,0,1.1133037719726562,0,0,0.99372
0.6486792590003461,0,0,1.2210428466796874,0,0,0.68796
0.6514804099861067,0,0,1.2713210815429687,0,0,0.84084
0.6542766909988131,0,0,1.1276689819335937,0,0,0.99372
0.6570751020044554,0,0,1.1228805786132812,0,0,0.84084
0.6599017349944916,0,0,1.2689268798828124,0,0,0.3822
0.6627034969860688,0,0,1.4508862060546874,0,0,0.68796
0.6655015189899132,0,0,1.5131354492187499,0,0,0.6115200000000001
0.6682997070020065,0,0,1.3766659545898436,0,0,0.68796
0.6710990070132539,0,0,1.2832920898437499,0,0,0.91728
0.6738939920032863,0,0,1.388636962890625,0,0,0.99372
0.6766925319971051,0,0,1.139639990234375,0,0,1.07016
0.6794950719922781,0,0,1.3431471313476562,0,0,0.84084
0.6822904460132122,0,0,1.3431471313476562,0,0,0.68796
0.685107725992566,0,0,1.3359645263671873,0,0,0.7644
0.6879382850020193,0,0,1.2785036865234374,0,0,0.53508
0.690809972002171,0,0,1.2378022583007813,0,0,0.68796
0.69361482700333,0,0,1.438915197753906,0,0,0.68796
0.6964141269854736,0,0,1.2425906616210938,0,0,0.53508
0.6995228859886993,0,0,1.2401964599609374,0,0,0.84084
0.7023322960012592,0,0,1.2593500732421874,0,0,0.45864
0.7052596680005081,0,0,1.3192051147460937,0,0,0.53508
0.7083342419937253,0,0,1.1420341918945311,0,0,0.53508
0.7114547599921934,0,0,1.209071838378906,0,0,0.6115200000000001
0.7145878149894997,0,0,1.407790576171875,0,0,1.07016
0.7177354249870405,0,0,1.4006079711914061,0,0,1.1465999999999998
0.7208525169990025,0,0,1.2761094848632812,0,0,0.7644
0.723970035003731,0,0,1.2737152832031249,0,0,0.68796
0.7270862940058578,0,0,1.2210428466796874,0,0,0.68796
0.7302008669939823,0,0,1.1707646118164061,0,0,0.53508
0.7333164410083555,0,0,1.0893617553710937,0,0,0.53508
0.7364312729914673,0,0,1.2593500732421874,0,0,0.68796
0.739580716995988,0,0,1.1563994018554686,0,0,0.6115200000000001
0.7427649559976999,0,0,1.2904746948242187,0,0,0.84084
0.7458874000003561,0,0,1.467645617675781,0,0,0.91728
0.7490078620030545,0,0,1.455674609375,0,0,1.1465999999999998
0.7521271950099617,0,0,1.254561669921875,0,0,0.7644
0.7552666749979835,0,0,1.3575123413085937,0,0,0.91728
0.7583834340039175,0,0,1.3670891479492187,0,0,0.68796
0.7615018039941788,0,0,1.1755530151367186,0,0,0.91728
0.764620581001509,0,0,1.3335703247070312,0,0,0.07644000000000001
0.7677730429859366,0,0,1.2497732666015624,0,0,0.91728
0.7708932269888464,0,0,1.1851298217773436,0,0,0.7644
0.7740094310138375,0,0,1.120486376953125,0,0,1.07016
0.7771288370131515,0,0,1.4700398193359374,0,0,0.99372
0.780246670008637,0,0,1.5083470458984374,0,0,0.7644
0.7833598179859109,0,0,1.2832920898437499,0,0,0.6115200000000001
0.7864544469921384,0,0,1.3407529296874998,0,0,0.7644
0.7895740940002725,0,0,1.4891934326171874,0,0,0.45864
0.7934570659999736,0,0,1.2497732666015624,0,0,0.7644
0.7966149910062086,0,0,1.2856862915039062,0,0,0.91728
0.7997751380025875,0,0,1.4772224243164063,0,0,0.45864
0.8028924890095368,0,0,1.2689268798828124,0,0,0.68796
0.8070112360001076,0,0,1.2713210815429687,0,0,0.91728
0.810158826992847,0,0,1.1611878051757811,0,0,0.68796
0.8132806420035195,0,0,1.1827356201171875,0,0,0.6115200000000001
0.8163991959881969,0,0,1.3670891479492187,0,0,0.22932
0.8195178069872782,0,0,1.2234370483398436,0,0,0.6115200000000001
0.8226823059958406,0,0,1.3718775512695311,0,0,0.68796
0.8258018239866942,0,0,1.2737152832031249,0,0,1.2994800000000002
0.8289218599966262,0,0,1.2593500732421874,0,0,0.99372
0.832040045002941,0,0,1.419761584472656,0,0,1.1465999999999998
0.8351583770127036,0,0,1.1635820068359375,0,0,0.7644
0.8382730429875664,0,0,1.1516109985351561,0,0,0.84084
0.8414027830003761,0,0,1.419761584472656,0,0,0.53508
0.8445194119994994,0,0,1.3551181396484375,0,0,0.6115200000000001
0.8476304860087112,0,0,1.3287819213867187,0,0,-20
0.8507424110139254,0,0,1.2473790649414063,0,0,0.84084
0.8538603369961493,0,0,1.1180921752929687,0,0,0.53508
0.8569771879992913,0,0,1.0797849487304687,0,0,1.45236
0.8600932800036389,0,0,1.4317325927734375,0,0,1.2230400000000001
0.8632114270003513,0,0,1.4341267944335936,0,0,0.99372
0.8663282789930236,0,0,1.2928688964843749,0,0,0.84084
0.8694462220009882,0,0,1.2785036865234374,0,0,0.84084
0.872564074001275,0,0,1.2904746948242187,0,0,0.99372
0.8756808140024077,0,0,1.5346832641601562,0,0,1.45236
0.8787973499856889,0,0,2.2553379638671873,0,0,1.37592
0.8819133499928284,0,0,2.308010400390625,0,0,2.14032
0.8850557749974541,0,0,2.7198130859375,0,0,0.53508
0.888178347988287,0,0,1.3072341064453123,0,0,1.2994800000000002
0.8912919400027022,0,0,1.9919757812499999,0,0,1.75812
0.8960240870073903,0,0,1.4413093994140624,0,0,1.60524
0.8991684560023714,0,0,2.2577321655273437,0,0,0.91728
0.9022597339935601,0,0,1.7262193969726563,0,0,0.84084
0.9054127880081069,0,0,1.458068811035156,0,0,0.68796
0.9085257689876016,0,0,1.5825672973632812,0,0,1.1465999999999998
0.9116345650108997,0,0,1.8148048583984373,0,0,1.911
0.9147436379862484,0,0,2.597708801269531,0,0,2.4460800000000003
0.9178538419946562,0,0,2.1978771240234374,0,0,0.91728
0.9209950630029198,0,0,1.6136919189453125,0,0,0.68796
0.9241025620140135,0,0,1.8124106567382812,0,0,0.15288000000000002
0.927212173002772,0,0,0.8738836059570312,0,0,1.2994800000000002
0.930318875994999,0,0,2.2960393920898436,0,0,1.2230400000000001
0.9334280240000226,0,0,2.408566870117187,0,0,1.1465999999999998
0.9365352269960567,0,0,1.7477672119140624,0,0,0.91728
0.9396430409979075,0,0,1.5490484741210937,0,0,2.4460800000000003
0.9427746520086657,0,0,2.3870190551757813,0,0,1.98744
0.945879873004742,0,0,2.1715409057617188,0,0,1.07016
0.9489947060064878,0,0,1.848323681640625,0,0,1.2230400000000001
0.9521005020069424,0,0,1.9991583862304687,0,0,2.06388
0.9552085020113736,0,0,0.7948749511718749,0,0,0.99372
0.958309815992834,0,0,1.7932570434570312,0,0,1.98744
0.9614136859891005,0,0,2.7198130859375,0,0,1.68168
0.9645190190058202,0,0,1.3862427612304686,0,0,0.7644
0.9676267030008603,0,0,1.8339584716796873,0,0,1.5288
0.9707294990075752,0,0,2.616862414550781,0,0,0.99372
0.9738328320090659,0,0,0.7757213378906249,0,0,0.15288000000000002
0.9769411839952227,0,0,2.2481553588867187,0,0,2.2931999999999997
0.9800474049989134,0,0,2.5737667846679684,0,0,1.1465999999999998
0.9831543489999603,0,0,0.33039982910156246,0,0,0.7644
0.9862549779936671,0,0,2.6719290527343746,0,0,1.75812
0.9893599780043587,0,0,0.5770026000976562,0,0,1.5288
0.9924638480006251,0,0,2.1691467041015624,0,0,1.911
0.9955704209860414,0,0,1.6065093139648436,0,0,1.2230400000000001
0.9986725880007725,0,0,2.0470424194335934,0,0,1.911
1.0040423379978165,0,0,2.2194249389648437,0,0,3.0576
1.0072860950022005,0,0,1.3000515014648437,0,0,1.37592
1.0106318320031278,0,0,1.9895815795898437,0,0,0.6115200000000001
1.0137003140116576,0,0,1.3239935180664062,0,0,0.15288000000000002
1.016716907004593,0,0,1.8028338500976562,0,0,0.15288000000000002
1.0196226869884413,0,0,1.0295067138671874,0,0,0.45864
1.0225897250056732,0,0,2.597708801269531,0,0,2.06388
1.0254489310027566,0,0,2.446874096679687,0,0,2.90472
1.028331044013612,0,0,1.2330138549804688,0,0,0.7644
1.0312145839852747,0,0,1.637633935546875,0,0,1.2230400000000001
1.0340497159922961,0,0,1.2880804931640624,0,0,0.84084
1.0368785340106115,0,0,2.0063409912109376,0,0,-9.784320000000001
1.039698111009784,0,0,0.6584054565429687,0,0,0.30576000000000003
1.0425380769884214,0,0,1.8650830932617186,0,0,2.98116
1.0453528199868742,0,0,3.5386300537109374,0,0,2.6754
1.0481625460088253,0,0,0.2154781494140625,0,0,-0.99372
1.051011011004448,0,0,0.6823474731445313,0,0,1.45236
1.0538303659996018,0,0,3.201047619628906,0,0,3.2869200000000003
1.056880070012994,0,0,1.8124106567382812,0,0,20
1.0597225360106677,0,0,0.6871358764648438,0,0,0.99372
1.0625721119868103,0,0,4.00310517578125,0,0,1.98744
1.0654785030055791,0,0,1.2665326782226562,0,0,0.07644000000000001
1.0683764310088009,0,0,-0.1484405029296875,0,0,20
1.0712785070063546,0,0,2.990357873535156,0,0,1.45236
1.0741844169970136,0,0,0.37828386230468747,0,0,0.15288000000000002
1.07713823299855,0,0,0.19393033447265623,0,0,0.6115200000000001
1.0800280130060855,0,0,2.93050283203125,0,0,0.99372
1.084017112996662,0,0,0.24660277099609373,0,0,-0.22932
1.0872081670095213,0,0,3.4859576171874997,0,0,2.06388
1.0900762800010853,0,0,1.4101847778320311,0,0,9.47856
1.094245045009302,0,0,1.9800047729492187,0,0,1.68168
1.0984681230038404,0,0,1.6208745239257811,0,0,-0.30576000000000003
1.1013744219962973,0,0,0.18914193115234373,0,0,1.45236
1.104256627993891,0,0,2.779668127441406,0,0,0.68796
1.1072557019942906,0,0,0.38307226562499996,0,0,9.01992
1.1101408159884159,0,0,1.4796166259765624,0,0,0.0
1.111629463994177,0,0,2.501940734863281,0,0,1.5288
1.1130310030130204,0,0,1.6304513305664061,0,0,1.2994800000000002
1.1144125419959892,0,0,1.5227122558593749,0,0,0.91728
1.1157965069869533,0,0,0.6296750366210937,0,0,0.0
1.1171762309968472,0,0,0.5027823486328125,0,0,0.7644
1.118565770011628,0,0,2.73896669921875,0,0,1.98744
1.1199457900074776,0,0,3.342305517578125,0,0,2.14032
1.1213252920133527,0,0,1.8602946899414061,0,0,1.07016
1.122708220005734,0,0,1.5705962890624998,0,0,1.07016
1.1240872950002085,0,0,-0.5267243652343749,0,0,-0.6115200000000001
1.1254710009961855,0,0,0.55545478515625,0,0,-0.15288000000000002
1.1268521510064602,0,0,2.4492682983398435,0,0,1.75812
1.1282334119896404,0,0,1.7980454467773437,0,0,2.2931999999999997
1.1296125990047585,0,0,1.0319009155273438,0,0,0.15288000000000002
1.1310511190094985,0,0,0.06464344482421874,0,0,0.68796
1.1325265640043654,0,0,-0.603338818359375,0,0,-0.3822
1.133913917990867,0,0,0.24660277099609373,0,0,0.0
1.1352965859987307,0,0,2.882618798828125,0,0,2.75184
1.1366760880046058,0,0,2.360682836914062,0,0,2.2167600000000003
1.1380554969946388,0,0,1.2282254516601563,0,0,1.45236
1.1394368140026927,0,0,0.7302315063476562,0,0,0.3822
1.140816333994735,0,0,-0.46208092041015625,0,0,-0.68796
1.1422120030038059,0,0,2.6671406494140624,0,0,0.45864
1.1438893160084262,0,0,3.208230224609375,0,0,1.911
1.1453041869972367,0,0,2.0087351928710935,0,0,1.07016
1.1466952819901053,0,0,1.43652099609375,0,0,1.60524
1.148083061008947,0,0,-1.37906015625,0,0,-0.6115200000000001
1.1494737300090492,0,0,-0.7517793212890624,0,0,-0.45864
1.1508635279897135,0,0,1.3048399047851562,0,0,0.99372
1.1522505290049594,0,0,2.205059729003906,0,0,1.45236
1.1536379389872309,0,0,1.8004396484374998,0,0,0.7644
1.1550242000084836,0,0,1.0797849487304687,0,0,2.4460800000000003
1.1564018680073787,0,0,-0.10773907470703124,0,0,0.22932
1.1577817770012189,0,0,0.4477157104492187,0,0,0.7644
1.1591700759890955,0,0,2.3726538452148436,0,0,2.14032
1.1605565029894933,0,0,2.1811177124023438,0,0,1.07016
1.161942672013538,0,0,1.9800047729492187,0,0,-0.30576000000000003
1.16332967299968,0,0,1.8291700683593748,0,0,0.91728
1.1647154719976243,0,0,0.05746083984375,0,0,-0.22932
1.166101973009063,0,0,1.8770541015625,0,0,0.07644000000000001
1.167490012012422,0,0,2.023100402832031,0,0,1.98744
1.1688772549969144,0,0,1.3862427612304686,0,0,0.15288000000000002
1.1702639969880693,0,0,0.8451531860351562,0,0,0.68796
1.1716449430095963,0,0,0.8738836059570312,0,0,0.0
1.17303374101175,0,0,0.6488286499023437,0,0,0.45864
1.1744127430138178,0,0,2.3295582153320313,0,0,1.911
1.175800466997316,0,0,2.6767174560546874,0,0,2.4460800000000003
1.1771874320111237,0,0,1.6352397338867186,0,0,1.68168
1.1785768039990216,0,0,1.3646949462890625,0,0,1.60524
1.1799628610024229,0,0,-0.17956512451171874,0,0,0.3822
1.1813497520051897,0,0,0.8690952026367187,0,0,0.22932
1.1827367350051645,0,0,2.6096798095703124,0,0,1.60524
1.18412207099027,0,0,2.365471240234375,0,0,1.45236
1.1855079240049236,0,0,0.8283937744140625,0,0,0.15288000000000002
1.1868959630082827,0,0,1.0366893188476562,0,0,1.2994800000000002
1.1882804649940226,0,0,-0.689530078125,0,0,-0.84084
1.1896668369881809,0,0,0.2920926025390625,0,0,-0.30576000000000003
1.191145115008112,0,0,2.2960393920898436,0,0,1.83456
1.192532654007664,0,0,1.8028338500976562,0,0,0.99372
1.19391965601244,0,0,0.7110778930664062,0,0,0.45864
1.1953498419898096,0,0,1.0031704956054688,0,0,1.5288
1.1967379369889386,0,0,0.13646949462890623,0,0,1.37592
1.1981256979925092,0,0,2.834734765625,0,0,1.5288
1.19951316199149,0,0,3.105279553222656,0,0,3.0576
1.2009000899852253,0,0,2.1021090576171875,0,0,1.2230400000000001
1.2022874809917994,0,0,0.8212111694335937,0,0,0.6115200000000001
1.2036770379927475,0,0,0.8116343627929687,0,0,-0.22932
1.2050647620053496,0,0,1.6639701538085936,0,0,0.7644
1.206452412006911,0,0,2.636016027832031,0,0,1.45236
1.207833043008577,0,0,2.5546131713867184,0,0,2.06388
1.209215156006394,0,0,0.10773907470703124,0,0,0.22932
1.210599176993128,0,0,-0.040701428222656245,0,0,0.7644
1.2119877710065339,0,0,-0.2154781494140625,0,0,-1.2230400000000001
1.21337612500065,0,0,1.0438719238281249,0,0,0.0
1.2147645890072454,0,0,2.8467057739257813,0,0,1.98744
1.2161508690041956,0,0,2.7844565307617186,0,0,1.83456
1.2175376300001517,0,0,1.2904746948242187,0,0,0.53508
1.2189300580066629,0,0,0.26815058593749996,0,0,1.68168
1.2203201889933553,0,0,-0.8259995727539062,0,0,0.0
1.221708283002954,0,0,0.1292868896484375,0,0,0.0
1.2230908409983385,0,0,2.731784094238281,0,0,2.4460800000000003
1.2244699170114473,0,0,2.626439221191406,0,0,1.45236
1.2258488810039125,0,0,1.5418658691406248,0,0,0.30576000000000003
1.227237420011079,0,0,0.7565677246093749,0,0,1.68168
1.2286237369989976,0,0,-0.30885201416015623,0,0,0.68796
1.2300109789939597,0,0,2.020706201171875,0,0,0.53508
1.2313969809911214,0,0,2.6216508178710938,0,0,2.4460800000000003
1.2327835570031311,0,0,2.408566870117187,0,0,-0.3822
1.2341703920101281,0,0,0.9959878906249999,0,0,20
1.2355570050131064,0,0,0.7422025146484375,0,0,0.15288000000000002
1.236943080992205,0,0,1.3048399047851562,0,0,0.7644
1.2383291010046378,0,0,2.3965958618164063,0,0,1.68168
1.2397148990130518,0,0,2.597708801269531,0,0,2.36964
1.2411012339871377,0,0,0.11013327636718749,0,0,0.45864
1.242496291990392,0,0,0.13646949462890623,0,0,1.68168
1.2438857379893307,0,0,-0.181959326171875,0,0,-0.84084
1.245277073001489,0,0,1.0773907470703123,0,0,0.45864
1.2466637780016754,0,0,2.9640216552734375,0,0,1.98744
1.2480504470004234,0,0,2.73896669921875,0,0,2.06388
1.249436929996591,0,0,0.7876923461914062,0,0,0.91728
1.2508236909925472,0,0,0.29448680419921874,0,0,0.7644
1.252210025995737,0,0,-1.0726023437499999,0,0,-1.2230400000000001
1.2535973800113425,0,0,0.36152445068359373,0,0,-0.6115200000000001
1.2549849369970616,0,0,3.708618371582031,0,0,2.4460800000000003
1.25637290198938,0,0,3.7397429931640622,0,0,2.14032
1.257759033003822,0,0,1.5777788940429687,0,0,0.91728
1.2591454049979802,0,0,0.040701428222656245,0,0,1.07016
1.260531721985899,0,0,-1.2641384765625,0,0,-0.6115200000000001
1.2619188159878831,0,0,1.6998831787109374,0,0,-0.84084
1.2633052619930822,0,0,3.2728736694335936,0,0,2.6754
1.2646914120123256,0,0,3.517082238769531,0,0,1.83456
1.2660772480012383,0,0,1.2234370483398436,0,0,1.07016
1.26747993400204,0,0,0.3806780639648437,0,0,20
1.2688661399879493,0,0,-0.33039982910156246,0,0,0.0
1.2702526969951577,0,0,1.5251064575195312,0,0,0.3822
1.271638995007379,0,0,3.2034418212890623,0,0,2.2167600000000003
1.2730251449975185,0,0,1.3646949462890625,0,0,0.68796
1.2744111839856487,0,0,1.419761584472656,0,0,0.0
1.2757979260059074,0,0,0.7015010864257812,0,0,20
1.277184390986804,0,0,0.622492431640625,0,0,-20
1.2785720039973967,0,0,1.9823989746093749,0,0,1.98744
1.2799581350118387,0,0,2.8898014038085935,0,0,1.98744
1.2813437670120038,0,0,1.2306196533203124,0,0,0.6115200000000001
1.2827300280041527,0,0,0.9313444458007812,0,0,1.07016
1.2841138259973377,0,0,-0.9145850341796874,0,0,-1.1465999999999998
1.285549494001316,0,0,0.2657563842773437,0,0,-0.45864
1.2869504769914784,0,0,3.555389465332031,0,0,2.90472
1.288332664000336,0,0,3.5721488769531247,0,0,1.911
1.2897122770082206,0,0,1.6615759521484375,0,0,1.37592
1.291142389003653,0,0,-0.39264907226562495,0,0,1.2994800000000002
1.2925244100042619,0,0,-1.9416975463867185,0,0,20
1.2939047259860672,0,0,1.484405029296875,0,0,-0.7644
1.2953053390083369,0,0,3.4739866088867184,0,0,1.5288
1.2966848590003792,0,0,3.9312791259765625,0,0,1.45236
1.2980641390022356,0,0,2.185906115722656,0,0,2.06388
1.2994562890089583,0,0,0.7757213378906249,0,0,1.5288
1.3008441609854344,0,0,-1.0127473022460938,0,0,0.30576000000000003
1.3022315519920085,0,0,0.8188169677734375,0,0,0.15288000000000002
1.3036424420133699,0,0,2.636016027832031,0,0,1.45236
1.3052187190041877,0,0,2.252943762207031,0,0,0.30576000000000003
1.306668683013413,0,0,2.3870190551757813,0,0,1.5288
1.3081493320059963,0,0,-0.5626373901367188,0,0,-0.84084
1.3095422410115134,0,0,-0.2753331909179687,0,0,20
1.3109285759855993,0,0,2.2553379638671873,0,0,1.83456
1.3123080040095374,0,0,2.3223756103515623,0,0,1.2994800000000002
1.3136866730055772,0,0,1.2808978881835937,0,0,1.2994800000000002
1.3150928959948942,0,0,0.842758984375,0,0,2.06388
1.3164809540030546,0,0,-0.11731588134765625,0,0,0.45864
1.3178687329927925,0,0,1.8531120849609375,0,0,0.3822
1.3192513829853851,0,0,2.999934680175781,0,0,3.0576
1.320631033013342,0,0,2.446874096679687,0,0,1.45236
1.3220101459883153,0,0,1.438915197753906,0,0,0.84084
1.3233972589951009,0,0,0.8044517578125,0,0,0.07644000000000001
1.3247847789898515,0,0,0.29927520751953124,0,0,-0.53508
1.3261722440074664,0,0,1.9297265380859374,0,0,9.172799999999999
1.3275600979977753,0,0,2.971204260253906,0,0,2.14032
1.328947469999548,0,0,1.4915876342773438,0,0,1.2230400000000001
1.3303345830063336,0,0,1.2497732666015624,0,0,0.7644
1.3317211770045105,0,0,0.39264907226562495,0,0,-0.3822
1.3331091229920276,0,0,-0.3112462158203125,0,0,-0.53508
1.334519513999112,0,0,1.2497732666015624,0,0,0.7644
1.3358989779953845,0,0,2.817975354003906,0,0,1.83456
1.3372779799974523,0,0,2.068590234375,0,0,1.68168
1.3386636860086583,0,0,1.9919757812499999,0,0,2.52252
1.3400491880020127,0,0,-0.411802685546875,0,0,0.07644000000000001
1.341435893002199,0,0,-0.6703764648437499,0,0,-0.6115200000000001
1.342823765007779,0,0,2.3223756103515623,0,0,0.7644
1.3442083970003296,0,0,2.8993782104492185,0,0,0.53508
1.3455958609993104,0,0,2.3319524169921872,0,0,0.91728
1.3469827889930457,0,0,1.4628572143554686,0,0,1.75812
1.348368383012712,0,0,-0.21308394775390624,0,0,-0.30576000000000003
1.3497554959903937,0,0,-1.0726023437499999,0,0,-0.7644
1.3511507390066981,0,0,1.4700398193359374,0,0,1.45236
1.3525380920036696,0,0,1.9297265380859374,0,0,0.7644
1.3539251500042155,0,0,1.89620771484375,0,0,0.0
1.3553126140031964,0,0,1.3670891479492187,0,0,1.45236
1.3566991350089666,0,0,0.3136404174804687,0,0,0.53508
1.3580854139872827,0,0,2.0781670410156248,0,0,0.99372
1.3594680640089791,0,0,2.901772412109375,0,0,3.36336
1.3608467509911861,0,0,0.8906430175781249,0,0,1.45236
1.3622257350070868,0,0,0.6560112548828124,0,0,0.7644
1.3636140509916004,0,0,0.6679822631835937,0,0,-0.3822
1.365002775011817,0,0,0.44532150878906246,0,0,-0.22932
1.366390240000328,0,0,2.389413256835937,0,0,0.30576000000000003
1.367777631006902,0,0,3.0238766967773434,0,0,1.07016
1.3691645580111071,0,0,1.429338391113281,0,0,1.1465999999999998
1.3705521899973974,0,0,0.6703764648437499,0,0,0.91728
1.3719394879881293,0,0,-0.7589619262695312,0,0,0.22932
1.3733269709919114,0,0,-0.51714755859375,0,0,20
1.3747124359942973,0,0,1.6543933471679686,0,0,1.37592
1.3760904929949902,0,0,2.901772412109375,0,0,1.68168
1.3774691250000615,0,0,1.5562310791015623,0,0,1.2994800000000002
1.3788536629872397,0,0,1.2904746948242187,0,0,2.4460800000000003
1.3802400169952307,0,0,0.28969840087890625,0,0,0.45864
1.3816259820014238,0,0,0.15322890625,0,0,-9.631440000000001
1.3830134099989664,0,0,2.281674182128906,0,0,2.4460800000000003
1.3843988369917497,0,0,2.70065947265625,0,0,0.91728
1.3857848579937126,0,0,1.2521674682617188,0,0,0.07644000000000001
1.3871700069867074,0,0,0.9121908325195311,0,0,0.91728
1.388553934986703,0,0,0.47884033203125,0,0,-0.6115200000000001
1.3899385110125877,0,0,1.4724340209960938,0,0,-20
1.3913394570117816,0,0,2.427720483398437,0,0,2.14032
1.3927267369872425,0,0,0.7589619262695312,0,0,0.45864
1.3941532940079924,0,0,0.8020575561523438,0,0,0.91728
1.3956295899988618,0,0,0.9528922607421875,0,0,0.6115200000000001
1.3970197589951567,0,0,0.8786720092773437,0,0,0.84084
1.3984073530009482,0,0,1.9847931762695312,0,0,1.2994800000000002
1.3997968549956568,0,0,2.068590234375,0,0,1.75812
1.4011839120066725,0,0,0.737414111328125,0,0,-0.15288000000000002
1.4025755070033483,0,0,1.0702081420898437,0,0,0.84084
1.4039619709947146,0,0,0.6368576416015624,0,0,20
1.405351788009284,0,0,0.6584054565429687,0,0,0.91728
1.4067376040038653,0,0,2.6240450195312497,0,0,2.36964
1.4081155319872778,0,0,2.454056701660156,0,0,1.5288
1.4094942749943584,0,0,0.9888052856445312,0,0,0.07644000000000001
1.410880592011381,0,0,-0.11252747802734374,0,0,1.5288
1.4122687230119482,0,0,-0.11013327636718749,0,0,-0.15288000000000002
1.4136561880004592,0,0,0.5195417602539062,0,0,0.0
1.4150537080131471,0,0,3.5984850952148437,0,0,2.4460800000000003
1.4164407470088918,0,0,3.5386300537109374,0,0,1.911
1.4178276190068573,0,0,0.7230489013671875,0,0,0.3822
1.4192147869907785,0,0,-0.22505495605468748,0,0,1.1465999999999998
1.4206027520122007,0,0,-0.8499415893554687,0,0,-0.3822
1.421990809001727,0,0,1.9512743530273435,0,0,0.0
1.4233735890011303,0,0,3.1316157714843746,0,0,2.06388
1.4247538500058,0,0,1.678335363769531,0,0,1.68168
1.426132796012098,0,0,0.928950244140625,0,0,0.7644
1.42752144599217,0,0,0.17477672119140625,0,0,0.30576000000000003
1.4289077630091924,0,0,-0.19871873779296872,0,0,0.30576000000000003
1.4302945419913158,0,0,1.5658078857421873,0,0,0.0
1.4316804140107706,0,0,2.8514941772460936,0,0,1.2994800000000002
1.4330663979926612,0,0,1.8100164550781248,0,0,0.91728
1.4344522139872424,0,0,1.0797849487304687,0,0,0.91728
1.4358383459912147,0,0,0.00718260498046875,0,0,-9.784320000000001
1.4372245699923951,0,0,0.34715924072265625,0,0,0.07644000000000001
1.4386209599906579,0,0,2.379836450195312,0,0,2.36964
1.4400068139948417,0,0,2.8012159423828122,0,0,1.911
1.4413923530082684,0,0,1.1061211669921875,0,0,0.3822
1.4427786690066569,0,0,-0.05027823486328125,0,0,0.53508
1.4442255779867992,0,0,-0.2920926025390625,0,0,-1.2230400000000001
1.4456176910025533,0,0,0.430956298828125,0,0,0.68796
1.4470059890008997,0,0,3.3255461059570313,0,0,2.52252
1.448392360995058,0,0,2.990357873535156,0,0,1.75812
1.4497792510082945,0,0,0.47165772705078124,0,0,1.1465999999999998
1.4511659010022413,0,0,-0.38307226562499996,0,0,0.84084
1.4525530700047966,0,0,-1.0893617553710937,0,0,20
1.4539409049903043,0,0,2.5665841796874997,0,0,0.0
1.4553228880104143,0,0,4.0988732421875,0,0,2.90472
1.4567010379978456,0,0,2.085349645996094,0,0,2.2167600000000003
1.4580800959956832,0,0,1.2138602416992186,0,0,1.2994800000000002
1.459482948994264,0,0,-0.4381389038085937,0,0,0.6115200000000001
1.460870340000838,0,0,-1.2713210815429687,0,0,-1.2230400000000001
1.462258693005424,0,0,1.656787548828125,0,0,-0.3822
1.4636460279871244,0,0,4.0222587890625,0,0,1.911
1.4650325489928946,0,0,2.2601263671875,0,0,0.91728
1.4664196989906486,0,0,1.5849614990234373,0,0,1.2230400000000001
1.4678062000020873,0,0,-0.82360537109375,0,0,-0.15288000000000002
1.4692720159946475,0,0,-0.7781155395507812,0,0,0.0
1.4706601469952147,0,0,2.205059729003906,0,0,2.14032
1.4720393710013013,0,0,2.786850732421875,0,0,1.07016
1.473418428999139,0,0,1.5610194824218748,0,0,0.6115200000000001
1.4748041899874806,0,0,1.438915197753906,0,0,1.75812
1.4761904879997019,0,0,0.023942016601562498,0,0,-0.22932
1.4775770269916393,0,0,-0.086191259765625,0,0,0.30576000000000003
1.4789656210050453,0,0,2.437297290039062,0,0,2.2931999999999997
1.4803511789941695,0,0,2.616862414550781,0,0,0.6115200000000001
1.4817397170118056,0,0,1.47482822265625,0,0,-20
1.4831265519896988,0,0,1.0726023437499999,0,0,1.45236
1.484510684007546,0,0,0.0047884033203125,0,0,0.0
1.4860104990075342,0,0,1.7094599853515624,0,0,0.3822
1.487409908004338,0,0,2.834734765625,0,0,2.4460800000000003
1.4887901319889352,0,0,1.924938134765625,0,0,1.68168
1.490170097007649,0,0,1.3263877197265623,0,0,0.6115200000000001
1.4915633760101628,0,0,0.201112939453125,0,0,0.91728
1.4929438040126115,0,0,-1.4437036010742186,0,0,8.71416
1.4943246390030254,0,0,0.9840168823242187,0,0,0.22932
1.495706251997035,0,0,3.708618371582031,0,0,2.2931999999999997
1.4970857170119416,0,0,2.3822306518554686,0,0,1.5288
1.4984647190140095,0,0,2.0254946044921875,0,0,3.0576
1.499845035985345,0,0,-0.9720458740234375,0,0,-20
1.50122588899103,0,0,-1.886630908203125,0,0,8.48484
1.502636335004354,0,0,3.337517114257812,0,0,9.555
1.5040159480122384,0,0,4.7931917236328125,0,0,1.60524
1.5053953760070726,0,0,3.277662072753906,0,0,1.45236
1.506781025993405,0,0,0.9002198242187499,0,0,2.4460800000000003
1.5081675279943738,0,0,-1.0893617553710937,0,0,20
1.5095551410049666,0,0,-2.2864625854492187,0,0,-1.37592
1.5109432349854615,0,0,1.465251416015625,0,0,1.37592
1.5123287370079197,0,0,2.9041666137695312,0,0,1.2230400000000001
1.5137150159862358,0,0,2.5641899780273434,0,0,1.37592
1.515100907010492,0,0,2.0781670410156248,0,0,2.75184
1.5164869269938208,0,0,0.3758896606445312,0,0,0.0
1.5178734110086225,0,0,0.7709329345703124,0,0,-9.707880000000001
1.5192644860071596,0,0,2.061407629394531,0,0,2.4460800000000003
1.5206515619938727,0,0,1.7501614135742187,0,0,1.37592
1.5220580080058426,0,0,1.5945383056640625,0,0,0.0
1.5234776019933634,0,0,1.637633935546875,0,0,0.07644000000000001
1.5248668999993242,0,0,-0.4070142822265625,0,0,-0.6115200000000001
1.52625714300666,0,0,1.438915197753906,0,0,0.0
1.527637607010547,0,0,2.750937707519531,0,0,1.45236
1.5290162579913158,0,0,1.5562310791015623,0,0,1.2230400000000001
1.5303947039938066,0,0,1.1061211669921875,0,0,1.45236
1.5317846869875211,0,0,-0.5770026000976562,0,0,-0.45864
1.5331720410031267,0,0,-0.8259995727539062,0,0,0.15288000000000002
1.5345663200132549,0,0,2.6958710693359373,0,0,1.5288
1.5359528959961608,0,0,3.3782185424804685,0,0,1.83456
1.5373391380126122,0,0,2.31758720703125,0,0,1.45236
1.5387267140031327,0,0,1.197100830078125,0,0,2.82828
1.540112215996487,0,0,-0.3495534423828125,0,0,8.33196
1.5414991620054934,0,0,-1.3144167114257812,0,0,-0.7644
1.5429004229954444,0,0,2.5857377929687497,0,0,2.36964
1.5442862769996282,0,0,3.6080619018554687,0,0,1.37592
1.5456725189869758,0,0,1.7262193969726563,0,0,0.99372
1.5470593539939728,0,0,1.4508862060546874,0,0,2.4460800000000003
1.5484453749959357,0,0,-0.20350714111328125,0,0,-1.1465999999999998
1.5498349879926536,0,0,0.3950432739257812,0,0,-1.18482
1.551221544999862,0,0,1.8770541015625,0,0,1.911
1.552607343008276,0,0,2.128445275878906,0,0,0.91728
1.5539937150024343,0,0,2.212242333984375,0,0,1.37592
1.5553800690104254,0,0,2.212242333984375,0,0,2.36964
1.5567692189943045,0,0,-0.5913678100585937,0,0,20
1.558156165003311,0,0,0.5315127685546874,0,0,0.0
1.559542130009504,0,0,2.109291662597656,0,0,1.07016
1.5609287430124823,0,0,1.66636435546875,0,0,0.30576000000000003
1.5623146519938018,0,0,1.8507178833007811,0,0,0.3822
1.5637006349861622,0,0,0.8451531860351562,0,0,0.3822
1.5650871550024021,0,0,-0.229843359375,0,0,0.30576000000000003
1.5664808980072848,0,0,1.0223241088867188,0,0,1.2230400000000001
1.5678676769894082,0,0,2.176329309082031,0,0,1.75812
1.5692544009943958,0,0,0.7685387329101562,0,0,0.07644000000000001
1.5706407919933554,0,0,1.1851298217773436,0,0,1.45236
1.5720265340059996,0,0,0.7805097412109374,0,0,20
1.5734124440059531,0,0,0.59376201171875,0,0,0.3822
1.5747988339862786,0,0,2.9472622436523435,0,0,2.06388
1.5761843360087369,0,0,3.2513258544921873,0,0,1.83456
1.5775704859988764,0,0,0.8403647827148437,0,0,0.15288000000000002
1.578956968995044,0,0,0.6177040283203125,0,0,1.5288
1.5803421750024427,0,0,-0.612915625,0,0,20
1.5817293250001967,0,0,1.5442600708007812,0,0,20
1.5831158079963643,0,0,2.877830395507812,0,0,2.14032
1.5845018470135983,0,0,1.4532804077148436,0,0,1.2994800000000002
1.5858877559949178,0,0,0.7661445312499999,0,0,-0.15288000000000002
1.5872728129907046,0,0,0.47644613037109373,0,0,1.45236
1.5886563149979338,0,0,0.0526724365234375,0,0,0.3822
1.590040520997718,0,0,1.9225439331054686,0,0,0.30576000000000003
1.5914411149860825,0,0,2.6862942626953124,0,0,2.36964
1.5928286720009055,0,0,1.5155296508789062,0,0,0.91728
1.5942156740056816,0,0,0.8595183959960937,0,0,0.6115200000000001
1.5956028049986344,0,0,0.21308394775390624,0,0,0.45864
1.5969898809853476,0,0,-0.016759411621093748,0,0,0.15288000000000002
1.5983775130007416,0,0,1.7573440185546874,0,0,0.99372
1.5997709030052647,0,0,2.8993782104492185,0,0,1.37592
1.601158164005028,0,0,1.1540052001953125,0,0,1.5288
1.602557017991785,0,0,0.5291185668945312,0,0,1.68168
1.6039447970106266,0,0,0.00239420166015625,0,0,-20
1.605333003011765,0,0,-0.40940848388671874,0,0,0.84084
1.60672263399465,0,0,2.7820623291015623,0,0,1.5288
1.6081086909980513,0,0,3.0693665283203124,0,0,1.45236
1.609495729993796,0,0,0.93852705078125,0,0,0.3822
1.6108900099934544,0,0,0.59376201171875,0,0,1.68168
1.6122767520137131,0,0,0.11731588134765625,0,0,-1.07016
1.613663716998417,0,0,2.1260510742187497,0,0,-20
1.6150481259974185,0,0,3.009511486816406,0,0,2.5989600000000004
1.6164277950010728,0,0,1.5466542724609373,0,0,1.2230400000000001
1.6178063699917402,0,0,0.8858546142578124,0,0,1.60524
1.6204088389931712,0,0,-0.6871358764648438,0,0,-1.2230400000000001
1.621799082000507,0,0,1.5897499023437498,0,0,-0.3822
1.623188472003676,0,0,3.124433166503906,0,0,2.90472
1.6245755109994207,0,0,1.9512743530273435,0,0,1.45236
1.625962457008427,0,0,1.218648645019531,0,0,1.45236
1.627349199989112,0,0,0.6272808349609375,0,0,0.22932
1.6287355159875005,0,0,-0.8020575561523438,0,0,0.0
1.6301229629898444,0,0,1.6615759521484375,0,0,9.172799999999999
1.6315100750070997,0,0,3.699041564941406,0,0,1.68168
1.632896928989794,0,0,2.1499930908203124,0,0,1.2230400000000001
1.6342834859970026,0,0,1.5275006591796874,0,0,0.6115200000000001
1.6356748400139622,0,0,-0.6009446166992187,0,0,0.30576000000000003
1.6370562119991519,0,0,-0.8595183959960937,0,0,0.22932
1.638436362001812,0,0,2.9975404785156248,0,0,0.91728
1.6398169749882072,0,0,3.42849677734375,0,0,1.911
1.6411961810081266,0,0,1.5682020874023437,0,0,0.68796
1.642579942010343,0,0,0.26336218261718747,0,0,1.68168
1.6439749989949632,0,0,-0.603338818359375,0,0,-0.68796
1.6455321650137194,0,0,1.7860744384765623,0,0,0.15288000000000002
1.6469238339923322,0,0,3.1124621582031247,0,0,2.2931999999999997
1.648303947004024,0,0,3.7229835815429686,0,0,1.37592
1.6496836710139178,0,0,1.1180921752929687,0,0,0.7644
1.6510725610132795,0,0,0.5458779785156249,0,0,1.75812
1.6524653779924847,0,0,-0.8116343627929687,0,0,20
1.653854639007477,0,0,1.5514426757812498,0,0,-0.6115200000000001
1.6552572890068404,0,0,2.952050646972656,0,0,2.52252
1.6566379019932356,0,0,1.9225439331054686,0,0,0.7644
1.658016625995515,0,0,1.7310078002929687,0,0,0.99372
1.6594048679980915,0,0,-0.6727706665039062,0,0,0.0
1.6607928329904098,0,0,-1.1635820068359375,0,0,0.22932
1.6621804269962013,0,0,1.13006318359375,0,0,-0.3822
1.6635766139952466,0,0,3.4931402221679684,0,0,1.45236
1.6649676160013769,0,0,1.608903515625,0,0,1.2994800000000002
1.6663547839852981,0,0,0.8595183959960937,0,0,1.5288
1.6677422120119445,0,0,-0.5793968017578125,0,0,0.30576000000000003
1.6691294540069066,0,0,-1.1013327636718748,0,0,0.0
1.670518622995587,0,0,2.327164013671875,0,0,0.91728
1.6718984949984588,0,0,3.679887951660156,0,0,1.1465999999999998
1.6732773119874764,0,0,1.7094599853515624,0,0,1.2230400000000001
1.6746634620067198,0,0,1.707065783691406,0,0,2.6754
1.6760497970099095,0,0,0.05027823486328125,0,0,-0.45864
1.6774361690040678,0,0,0.6296750366210937,0,0,-20
1.6788233559927903,0,0,2.540247961425781,0,0,1.83456
1.6802099320048,0,0,3.5242648437499997,0,0,0.53508
1.681595878006192,0,0,2.0087351928710935,0,0,0.3822
1.682981675985502,0,0,1.6041151123046875,0,0,2.4460800000000003
1.6843656779965386,0,0,-1.2904746948242187,0,0,0.0
1.6857734940131195,0,0,0.143652099609375,0,0,-1.2994800000000002
1.6872392729856074,0,0,2.01112939453125,0,0,2.90472
1.6886256629950367,0,0,2.1164742675781247,0,0,1.83456
1.6900049989926629,0,0,2.4851813232421875,0,0,1.37592
1.6913983339909464,0,0,-0.08140285644531249,0,0,2.06388
1.6927878719870932,0,0,-1.158793603515625,0,0,0.0
1.6941686889913399,0,0,0.19153613281249998,0,0,0.0
1.6955500429903623,0,0,3.6942531616210936,0,0,1.911
1.6969290630077012,0,0,2.6599580444335937,0,0,0.84084
1.6983083430095576,0,0,2.1883003173828124,0,0,1.2230400000000001
1.6997036410029978,0,0,-0.3711012573242187,0,0,-1.2230400000000001
1.7010846800112631,0,0,-1.8507178833007811,0,0,-0.84084
1.7024651439860463,0,0,2.3343466186523436,0,0,0.15288000000000002
1.7038458499882836,0,0,3.4165257690429685,0,0,0.91728
1.7052247039973736,0,0,2.5330653564453125,0,0,1.5288
1.706626408995362,0,0,1.3144167114257812,0,0,2.4460800000000003
1.7080139289901126,0,0,-0.1197100830078125,0,0,-0.30576000000000003
1.709402782988036,0,0,-0.033518823242187495,0,0,0.0
1.7107909510086756,0,0,2.2864625854492187,0,0,2.2167600000000003
1.712177009001607,0,0,3.5410242553710933,0,0,1.60524
1.7135638250038028,0,0,2.8610709838867185,0,0,1.37592
1.714951864007162,0,0,1.8626888916015625,0,0,3.0576
1.7163378469995223,0,0,-1.47482822265625,0,0,-0.84084
1.7177257940056734,0,0,-0.679953271484375,0,0,-1.83456
1.7191096100141294,0,0,1.7717092285156248,0,0,1.5288
1.7204882229852956,0,0,2.636016027832031,0,0,0.07644000000000001
1.7218673180032056,0,0,2.3247698120117186,0,0,1.1465999999999998
1.7232622269948479,0,0,1.7932570434570312,0,0,1.83456
1.7246480989851989,0,0,-1.426944189453125,0,0,-0.45864
1.7260350639990065,0,0,-0.4429273071289062,0,0,-0.6115200000000001
1.7274221580009907,0,0,2.365471240234375,0,0,1.83456
1.7288080299913418,0,0,2.109291662597656,0,0,0.7644
1.7301941610057838,0,0,2.0733786376953125,0,0,2.4460800000000003
1.7315797559858765,0,0,0.9457096557617187,0,0,1.2994800000000002
1.7329655349894892,0,0,-0.46208092041015625,0,0,0.22932
1.7343516850087326,0,0,2.0087351928710935,0,0,0.53508
1.7359394619998056,0,0,2.4779987182617185,0,0,1.2230400000000001
1.7373758339963388,0,0,1.8028338500976562,0,0,0.84084
1.738769299001433,0,0,1.668758557128906,0,0,1.68168
1.7401538930134848,0,0,0.488417138671875,0,0,-1.2994800000000002
1.7415428209933452,0,0,0.17956512451171874,0,0,-1.37592
1.74294813699089,0,0,1.9608511596679685,0,0,1.911
1.744335453986423,0,0,2.1499930908203124,0,0,0.91728
1.7457225850084797,0,0,1.656787548828125,0,0,0.84084
1.7471052350010723,0,0,1.8219874633789062,0,0,2.5989600000000004
1.7484841629920993,0,0,-1.2234370483398436,0,0,-0.68796
1.7498649609915446,0,0,-0.36631285400390623,0,0,-1.1465999999999998
1.7512542399927042,0,0,3.507505432128906,0,0,2.4460800000000003
1.7526416679902468,0,0,2.952050646972656,0,0,1.45236
1.754028596013086,0,0,2.379836450195312,0,0,0.99372
1.7554156529949978,0,0,0.8906430175781249,0,0,1.68168
1.7568024699867237,0,0,-1.0773907470703123,0,0,-0.15288000000000002
1.7581903229875024,0,0,-0.6536170532226562,0,0,-1.2230400000000001
1.759578566008713,0,0,2.4109610717773435,0,0,1.60524
1.760965549008688,0,0,1.9321207397460936,0,0,1.5288
1.7623518659966066,0,0,2.003946789550781,0,0,0.7644
1.7637324419920333,0,0,0.9983820922851562,0,0,0.84084
1.7651134810002986,0,0,-0.5578489868164063,0,0,0.91728
1.7664933709893376,0,0,1.458068811035156,0,0,0.99372
1.7678814099926967,0,0,2.50912333984375,0,0,0.15288000000000002
1.7692670600081328,0,0,1.618480322265625,0,0,0.99372
1.7706540249928366,0,0,1.8004396484374998,0,0,1.60524
1.7720390819886234,0,0,1.1875240234375,0,0,8.4084
1.773424214014085,0,0,0.8283937744140625,0,0,0.30576000000000003
1.7748110489919782,0,0,2.473210314941406,0,0,1.68168
1.7761963279917836,0,0,3.399766357421875,0,0,0.91728
1.7775817000074312,0,0,0.5770026000976562,0,0,0.53508
1.7789681649883278,0,0,0.7398083129882812,0,0,2.36964
1.7803541109897196,0,0,-1.0366893188476562,0,0,-0.84084
1.7817576680099592,0,0,0.7134720947265625,0,0,-0.15288000000000002
1.783144540997455,0,0,3.0502129150390624,0,0,2.90472
1.7845305420050863,0,0,1.8531120849609375,0,0,1.37592
1.7859213030023966,0,0,1.0342951171875,0,0,0.91728
1.787327638012357,0,0,0.03591302490234375,0,0,1.2230400000000001
1.788712454988854,0,0,-0.9169792358398436,0,0,-0.53508
1.7900983830040786,0,0,0.3902548706054687,0,0,-0.30576000000000003
1.7915671060036402,0,0,3.706224169921875,0,0,2.2167600000000003
1.7929549220134504,0,0,2.5905261962890624,0,0,1.37592
1.7943418869981542,0,0,1.8124106567382812,0,0,1.83456
1.7957232590124477,0,0,0.55545478515625,0,0,0.07644000000000001
1.7971023349964526,0,0,-1.0702081420898437,0,0,20
1.798482410988072,0,0,2.291250988769531,0,0,0.0
1.799871319992235,0,0,3.0430303100585934,0,0,0.22932
1.8012586369877681,0,0,0.9888052856445312,0,0,0.91728
1.8026469530013856,0,0,1.455674609375,0,0,2.14032
1.8040330660005566,0,0,0.7900865478515624,0,0,-1.07016
1.8054202159983106,0,0,0.25139117431640623,0,0,0.3822
1.8068572540069,0,0,2.3822306518554686,0,0,2.14032
1.8082471629895736,0,0,1.5634136840820312,0,0,0.45864
1.8096340170013718,0,0,1.0342951171875,0,0,0.45864
1.8110187969869003,0,0,1.3024457031249999,0,0,2.4460800000000003
1.8124023170094006,0,0,-0.2561795776367187,0,0,-1.68168
1.8137903560127597,0,0,1.467645617675781,0,0,-0.68796
1.8151871350128204,0,0,3.7612908081054686,0,0,3.822
1.8165741919947322,0,0,2.1715409057617188,0,0,1.2994800000000002
1.817960360989673,0,0,0.8475473876953125,0,0,0.6115200000000001
1.819354770006612,0,0,-0.7661445312499999,0,0,0.53508
1.8207434570067562,0,0,-1.5921441040039062,0,0,-1.2230400000000001
1.822131235996494,0,0,0.3711012573242187,0,0,-0.68796
1.8235180900082923,0,0,4.3263223999023435,0,0,3.59268
1.8249038700014353,0,0,2.7533319091796873,0,0,1.98744
1.8262900009867735,0,0,1.005564697265625,0,0,2.14032
1.827676391985733,0,0,-0.12449848632812499,0,0,0.6115200000000001
1.8290628009999637,0,0,-1.5490484741210937,0,0,-0.45864
1.8304684140020981,0,0,2.806004345703125,0,0,0.15288000000000002
1.8318559149920475,0,0,4.3263223999023435,0,0,2.2167600000000003
1.8332422130042687,0,0,1.9105729248046874,0,0,1.68168
1.834628899989184,0,0,1.407790576171875,0,0,2.5989600000000004
1.8360139580036048,0,0,-0.11731588134765625,0,0,-1.2994800000000002
1.8374006999947596,0,0,-0.5698199951171875,0,0,-1.1465999999999998
1.8387885350093711,0,0,2.205059729003906,0,0,1.37592
1.8401826299959794,0,0,2.959233251953125,0,0,0.68796
1.8415690019901376,0,0,1.4173673828125,0,0,1.1465999999999998
1.8429558550124057,0,0,0.9074024291992187,0,0,2.4460800000000003
1.844341338990489,0,0,-1.6543933471679686,0,0,-1.2994800000000002
1.845728173997486,0,0,-0.354341845703125,0,0,20
1.8471153790014796,0,0,3.859453076171875,0,0,2.36964
1.8485011029988527,0,0,3.0502129150390624,0,0,1.2230400000000001
1.849886993994005,0,0,1.5658078857421873,0,0,0.99372
1.8512739219877403,0,0,-0.1149216796875,0,0,2.5989600000000004
1.8526602199999616,0,0,-1.4820108276367188,0,0,-0.84084
1.8540471470041666,0,0,-0.21068974609375,0,0,0.0
1.855434241995681,0,0,4.61602080078125,0,0,2.2931999999999997
1.856819946988253,0,0,3.909731311035156,0,0,1.1465999999999998
1.8582062640052754,0,0,1.2617442749023438,0,0,1.68168
1.8596582459867932,0,0,-0.7805097412109374,0,0,-0.53508
1.8610466000100132,0,0,-2.3439234252929686,0,0,8.48484
1.8624332130129915,0,0,2.3343466186523436,0,0,9.172799999999999
1.8638239369902294,0,0,4.407725256347656,0,0,1.37592
1.8652097349986434,0,0,2.0829554443359375,0,0,2.2931999999999997
1.8665969030116685,0,0,1.180341418457031,0,0,2.4460800000000003
1.867983367992565,0,0,-0.4429273071289062,0,0,-1.2994800000000002
1.8693703140015714,0,0,-1.8411410766601561,0,0,-1.75812
1.8707577970053535,0,0,1.216254443359375,0,0,1.5288
1.8723130929865874,0,0,3.632003918457031,0,0,0.53508
1.8737017060047947,0,0,1.9943699829101562,0,0,0.3822
1.8751048000121955,0,0,0.09816226806640624,0,0,3.51624
1.8765418939874507,0,0,-1.66636435546875,0,0,-2.36964
1.8779437289922498,0,0,-2.214636535644531,0,0,20
1.8793320269905962,0,0,2.8371289672851563,0,0,3.822
1.8807191030064132,0,0,3.071760729980469,0,0,20
1.8821048639947549,0,0,0.9457096557617187,0,0,0.84084
1.8834855880122632,0,0,-0.19393033447265623,0,0,1.2994800000000002
1.8848655709880404,0,0,-1.139639990234375,0,0,20
1.8862697209988255,0,0,0.18914193115234373,0,0,0.0
1.8876682599948253,0,0,2.0254946044921875,0,0,0.45864
1.889049076999072,0,0,3.5889082885742187,0,0,1.98744
1.890428412007168,0,0,1.1851298217773436,0,0,2.6754
1.891821153985802,0,0,0.9409212524414062,0,0,0.0
1.8932016369944904,0,0,-1.0175357055664063,0,0,-7.94976
1.8946254540060181,0,0,-1.915361328125,0,0,0.0
1.8962478970061056,0,0,3.3351229125976563,0,0,-1.2230400000000001
1.8976964539906476,0,0,4.879382983398437,0,0,3.51624
1.8990874179871753,0,0,0.7326257080078125,0,0,9.47856
1.9004860499990173,0,0,-0.12689268798828124,0,0,-0.53508
1.9018683850008529,0,0,-1.7286135986328124,0,0,0.07644000000000001
1.903250127012143,0,0,-2.327164013671875,0,0,-4.0513200000000005
1.9046311110141687,0,0,-0.05746083984375,0,0,0.3822
1.906013889994938,0,0,2.221819140625,0,0,-0.30576000000000003
1.9073963180126157,0,0,3.1555577880859373,0,0,3.59268
1.9087753199855797,0,0,0.44532150878906246,0,0,0.15288000000000002
1.9101543769938871,0,0,-0.584185205078125,0,0,2.14032
1.9115356749971397,0,0,-0.9026140258789062,0,0,0.30576000000000003
1.9129148249921855,0,0,0.20350714111328125,0,0,-2.2931999999999997
1.9142946419888176,0,0,1.9728221679687499,0,0,1.1465999999999998
1.9156747729866765,0,0,3.9935283691406247,0,0,0.15288000000000002
1.917054385994561,0,0,3.459621398925781,0,0,5.04504
1.918442091991892,0,0,0.3327940307617187,0,0,0.3822
1.9198229459871072,0,0,-1.608903515625,0,0,2.4460800000000003
1.9212029470072594,0,0,-1.599326708984375,0,0,6.1916400000000005
1.9225843379972503,0,0,0.4477157104492187,0,0,-0.53508
1.9239640070009045,0,0,1.3072341064453123,0,0,-1.68168
1.925342989998171,0,0,2.032677209472656,0,0,1.07016
1.9267282699875068,0,0,1.9680337646484374,0,0,0.68796
1.9281150120077655,0,0,0.8475473876953125,0,0,2.36964
1.9295011440117378,0,0,-1.0893617553710937,0,0,0.53508
1.9308898120070808,0,0,-1.7477672119140624,0,0,0.22932
1.9322752029984258,0,0,0.7805097412109374,0,0,-0.84084
1.933661407994805,0,0,2.6695348510742187,0,0,0.0
1.935048890998587,0,0,1.915361328125,0,0,1.07016
1.9364347819937393,0,0,0.8307879760742187,0,0,0.53508
1.9378203020023648,0,0,0.603338818359375,0,0,0.99372
1.939206267008558,0,0,0.8164227661132812,0,0,0.22932
1.9405924169986974,0,0,0.33518823242187495,0,0,-9.47856
1.9419903260131832,0,0,-0.5746083984375,0,0,-0.3822
1.9433796610101126,0,0,0.05746083984375,0,0,0.0
1.9448962539900094,0,0,0.8978256225585937,0,0,0.6115200000000001
1.9462899409991223,0,0,1.2401964599609374,0,0,0.0
1.9476786089944653,0,0,0.6464344482421874,0,0,1.07016
1.949066055007279,0,0,0.0,0,0,8.943480000000001
1.950453130993992,0,0,0.6344634399414062,0,0,0.6115200000000001
1.9518351889855694,0,0,2.032677209472656,0,0,1.1465999999999998
1.9532142280077096,0,0,1.8842367065429686,0,0,1.75812
1.9545985810109414,0,0,1.005564697265625,0,0,1.1465999999999998
1.9559860639856197,0,0,-1.120486376953125,0,0,-0.6115200000000001
1.9573749550036155,0,0,-0.6488286499023437,0,0,-1.5288
1.9587786420015618,0,0,1.1156979736328125,0,0,9.555
1.96016525500454,0,0,2.521094348144531,0,0,-0.30576000000000003
1.9615526080015115,0,0,1.20667763671875,0,0,0.84084
1.9629890540090855,0,0,-0.9888052856445312,0,0,1.1465999999999998
1.9643774630094413,0,0,-1.2306196533203124,0,0,-0.6115200000000001
1.965764816995943,0,0,-0.4333505004882812,0,0,0.07644000000000001
1.9671480410033837,0,0,2.0159177978515626,0,0,0.84084
1.968527246004669,0,0,1.7022773803710936,0,0,0.91728
1.9699060450075194,0,0,1.1276689819335937,0,0,1.45236
1.9712926569918636,0,0,-0.11013327636718749,0,0,0.15288000000000002
1.9726794179878198,0,0,0.2609679809570312,0,0,-0.22932
1.9740657350048423,0,0,2.398990063476562,0,0,0.07644000000000001
1.9754627369984519,0,0,2.6575638427734374,0,0,1.37592
1.9768487199908122,0,0,1.189918225097656,0,0,0.15288000000000002
1.9782342220132705,0,0,-0.7445967163085937,0,0,-0.45864
1.9796212050132453,0,0,-1.1635820068359375,0,0,-1.45236
1.981007613998372,0,0,0.30885201416015623,0,0,-1.75812
1.9823940790083725,0,0,2.24097275390625,0,0,0.68796
1.983779895992484,0,0,3.076549133300781,0,0,1.2230400000000001
1.9851652680081315,0,0,0.9624690673828125,0,0,2.2931999999999997
1.986551898997277,0,0,-0.9361328491210937,0,0,0.3822
1.9879374009906314,0,0,-0.9792284790039062,0,0,-0.68796
1.9893224030092824,0,0,0.12689268798828124,0,0,0.3822
1.9907235889986623,0,0,1.687912170410156,0,0,0.0
1.9921109619899653,0,0,3.1747114013671873,0,0,1.1465999999999998
1.9934971669863444,0,0,2.81558115234375,0,0,1.37592
1.9948841499863192,0,0,1.3239935180664062,0,0,1.5288
1.9962698740127962,0,0,-1.6256629272460936,0,0,-0.91728
1.9976566719997209,0,0,-1.5586252807617187,0,0,-1.68168
1.9990602670004591,0,0,1.3479355346679687,0,0,-0.91728
2.0004467869875953,0,0,2.2481553588867187,0,0,0.22932
2.0018326959980186,0,0,1.905784521484375,0,0,0.84084
2.0032188649929594,0,0,1.209071838378906,0,0,1.2230400000000001
2.004604476998793,0,0,1.0510545288085937,0,0,0.84084
2.00599903499824,0,0,0.1149216796875,0,0,1.07016
2.007385387987597,0,0,0.031124621582031248,0,0,0.15288000000000002
2.008770963991992,0,0,0.24899697265624998,0,0,-9.707880000000001
2.0101569470134564,0,0,1.407790576171875,0,0,0.22932
2.011542633990757,0,0,2.1212626708984375,0,0,0.30576000000000003
2.012928340001963,0,0,1.2018892333984375,0,0,0.91728
2.0143161560117733,0,0,0.5123591552734374,0,0,0.6115200000000001
2.0157158620131668,0,0,-0.11252747802734374,0,0,-0.15288000000000002
2.017112456000177,0,0,0.1005564697265625,0,0,-0.15288000000000002
2.0185028100095224,0,0,0.6727706665039062,0,0,0.0
2.019910441013053,0,0,1.5442600708007812,0,0,0.07644000000000001
2.021296775987139,0,0,1.2042834350585936,0,0,0.0
2.022683944000164,0,0,0.6081272216796875,0,0,0.0
2.0240678720001597,0,0,0.0383072265625,0,0,-0.22932
2.025454243994318,0,0,0.5243301635742187,0,0,-0.45864
2.0268415049940813,0,0,1.197100830078125,0,0,0.91728
2.028226136986632,0,0,1.1611878051757811,0,0,0.6115200000000001
2.0296123609878123,0,0,0.7230489013671875,0,0,0.68796
2.030998861999251,0,0,-0.13407529296874998,0,0,0.6115200000000001
2.0323848460102454,0,0,-0.086191259765625,0,0,0.0
2.033771569986129,0,0,0.2609679809570312,0,0,0.07644000000000001
2.035162385989679,0,0,2.3343466186523436,0,0,0.91728
2.0365480729960836,0,0,2.262520568847656,0,0,0.99372
2.037934038002277,0,0,1.0989385620117187,0,0,1.5288
2.039320020994637,0,0,0.3447650390625,0,0,0.91728
2.040705727005843,0,0,-0.4213794921875,0,0,-0.22932
2.042093116993783,0,0,0.22026655273437498,0,0,-1.75812
2.0434796749905217,0,0,0.9313444458007812,0,0,-0.45864
2.044865269010188,0,0,1.9847931762695312,0,0,0.07644000000000001
2.0462550669908524,0,0,1.2737152832031249,0,0,0.30576000000000003
2.047641142999055,0,0,0.7158662963867187,0,0,0.53508
2.049026811000658,0,0,-0.4836287353515625,0,0,0.07644000000000001
2.0504243499890435,0,0,-0.45010991210937495,0,0,0.22932
2.0518105560040567,0,0,0.17477672119140625,0,0,0.6115200000000001
2.0531956870108843,0,0,1.467645617675781,0,0,0.30576000000000003
2.0545818000100553,0,0,1.2689268798828124,0,0,0.91728
2.0559897639905103,0,0,1.2234370483398436,0,0,0.45864
2.057377191988053,0,0,0.8379705810546875,0,0,1.2994800000000002
2.058764935005456,0,0,0.7326257080078125,0,0,0.0
2.060150622011861,0,0,0.8690952026367187,0,0,0.45864
2.061536271008663,0,0,0.9026140258789062,0,0,-0.30576000000000003
2.0629231249913573,0,0,0.9169792358398436,0,0,9.555
2.0643084599869326,0,0,1.1085153686523437,0,0,0.07644000000000001
2.065694368997356,0,0,1.5634136840820312,0,0,0.84084
2.0670799819927197,0,0,0.4644751220703125,0,0,0.30576000000000003
2.0684655029908754,0,0,0.32561142578124996,0,0,0.3822
2.069850819010753,0,0,0.7038952880859375,0,0,0.45864
2.0712365620129276,0,0,1.1444283935546875,0,0,0.45864
2.0726224149984773,0,0,1.3958195678710936,0,0,1.60524
2.0740082320116926,0,0,1.6543933471679686,0,0,1.37592
2.0754029559902847,0,0,1.3263877197265623,0,0,1.2230400000000001
2.0767888280097395,0,0,1.1061211669921875,0,0,1.07016
2.0781741630053148,0,0,1.0295067138671874,0,0,0.99372
2.0795645540056285,0,0,1.4006079711914061,0,0,0.84084
2.0809501849871594,0,0,1.714248388671875,0,0,0.91728
2.0823352799925487,0,0,1.6615759521484375,0,0,0.99372
2.083718948008027,0,0,1.4867992309570313,0,0,0.45864
2.0853075580089353,0,0,0.9864110839843749,0,0,0.22932
2.086706892994698,0,0,1.1252747802734375,0,0,0.68796
2.0881093950010836,0,0,1.2473790649414063,0,0,0.22932
2.089489081990905,0,0,1.467645617675781,0,0,0.7644
2.090880620991811,0,0,1.218648645019531,0,0,0.91728
2.0922606230014935,0,0,1.1252747802734375,0,0,0.7644
2.093651661009062,0,0,1.1420341918945311,0,0,1.1465999999999998
2.0950329969928134,0,0,1.4053963745117186,0,0,0.91728
2.0964119429991115,0,0,1.419761584472656,0,0,0.7644
2.0977907970082015,0,0,1.407790576171875,0,0,0.68796
2.0991708539950196,0,0,1.3623007446289062,0,0,0.91728
2.100549244991271,0,0,1.3359645263671873,0,0,0.53508
2.1019279129977804,0,0,1.120486376953125,0,0,0.3822
2.1033083040092606,0,0,1.2234370483398436,0,0,0.68796
2.10468702801154,0,0,1.4101847778320311,0,0,0.30576000000000003
2.106065862986725,0,0,1.2737152832031249,0,0,0.68796
2.1074448649887927,0,0,1.407790576171875,0,0,0.84084
2.108823034010129,0,0,1.0319009155273438,0,0,0.84084
2.1102016280055977,0,0,1.0462661254882812,0,0,0.99372
2.1115812780044507,0,0,0.9576806640625,0,0,0.7644
2.113085296994541,0,0,1.3838485595703125,0,0,0.6115200000000001
2.114561557013076,0,0,1.66636435546875,0,0,0.15288000000000002
2.1159939100034535,0,0,1.4341267944335936,0,0,0.68796
2.1174728740006685,0,0,1.5227122558593749,0,0,0.6115200000000001
2.118932985991705,0,0,1.0773907470703123,0,0,0.7644
2.120381690998329,0,0,1.2378022583007813,0,0,0.7644
2.121811377000995,0,0,1.3623007446289062,0,0,-0.07644000000000001
2.1233995989896357,0,0,1.3144167114257812,0,0,0.3822
2.1248637110111304,0,0,1.3551181396484375,0,0,0.3822
2.126336045010248,0,0,1.3120225097656248,0,0,0.7644
2.127825211995514,0,0,1.4891934326171874,0,0,0.91728
2.129302730987547,0,0,1.2832920898437499,0,0,0.99372
2.130783213011455,0,0,1.235408056640625,0,0,0.7644
2.1322670289955568,0,0,1.1731588134765625,0,0,0.84084
2.133665862987982,0,0,1.1755530151367186,0,0,0.45864
2.135081976011861,0,0,1.3192051147460937,0,0,0.45864
2.1364630149910226,0,0,1.6328455322265625,0,0,0.7644
2.1378491460054647,0,0,1.429338391113281,0,0,0.84084
2.1392421110067517,0,0,1.3814543579101561,0,0,0.7644
2.1406220569915604,0,0,1.1540052001953125,0,0,0.68796
2.1420015410112683,0,0,1.2761094848632812,0,0,1.07016
2.1433843759878073,0,0,1.2761094848632812,0,0,0.99372
2.145801272999961,0,0,1.3000515014648437,0,0,0.22932
2.147311679989798,0,0,1.2952630981445312,0,0,0.53508
2.148698923003394,0,0,1.2330138549804688,0,0,0.91728
2.150079498998821,0,0,1.3096283081054687,0,0,0.99372
2.1514844259945676,0,0,1.4413093994140624,0,0,1.1465999999999998
2.1528648720122874,0,0,1.0893617553710937,0,0,0.84084
2.154244078003103,0,0,1.1133037719726562,0,0,0.7644
2.1556275979964994,0,0,1.1156979736328125,0,0,1.1465999999999998
2.1570113959896844,0,0,1.369483349609375,0,0,0.45864
2.158391008997569,0,0,1.2018892333984375,0,0,0.22932
2.159773141000187,0,0,1.3958195678710936,0,0,0.6115200000000001
2.16115260598599,0,0,1.197100830078125,0,0,0.45864
2.1625443479861133,0,0,1.2832920898437499,0,0,0.53508
2.1639259429939557,0,0,0.9983820922851562,0,0,0.68796
2.165304814989213,0,0,1.0845733520507812,0,0,0.3822
2.1666911680076737,0,0,1.2928688964843749,0,0,0.30576000000000003
2.168079374008812,0,0,1.3383587280273437,0,0,0.68796
2.1694672089943197,0,0,1.4939818359375,0,0,0.91728
2.170854803000111,0,0,1.3623007446289062,0,0,0.91728
2.1722421380109154,0,0,1.446097802734375,0,0,1.2230400000000001
2.1736295289883856,0,0,1.2617442749023438,0,0,0.6115200000000001
2.175018567999359,0,0,1.1923124267578125,0,0,0.6115200000000001
2.1764049589983188,0,0,1.2808978881835937,0,0,1.1465999999999998
2.177792238013353,0,0,1.4820108276367188,0,0,0.84084
2.1791809810092673,0,0,1.3934253662109375,0,0,0.53508
2.18056816799799,0,0,1.5322890624999999,0,0,0.99372
2.181955892010592,0,0,1.2378022583007813,0,0,0.7644
2.18336329999147,0,0,1.2952630981445312,0,0,0.84084
2.1847513210086618,0,0,1.13006318359375,0,0,0.84084
2.186138544988353,0,0,1.1611878051757811,0,0,0.6115200000000001
2.1875258430081885,0,0,1.2521674682617188,0,0,0.0
2.1889130669878796,0,0,1.2617442749023438,0,0,0.7644
2.190300254005706,0,0,1.5777788940429687,0,0,0.7644
2.191705125995213,0,0,1.1659762084960936,0,0,0.7644
2.193092664005235,0,0,1.24498486328125,0,0,0.99372
2.194489573012106,0,0,1.0869675537109373,0,0,0.45864
2.1958780009881593,0,0,1.0941501586914062,0,0,0.84084
2.1972655770077836,0,0,1.216254443359375,0,0,0.45864
2.198653467989061,0,0,1.3431471313476562,0,0,0.68796
2.200069413986057,0,0,1.5011644409179687,0,0,0.6115200000000001
2.2014613409992307,0,0,1.656787548828125,0,0,0.84084
2.2028506950009614,0,0,1.3766659545898436,0,0,1.2230400000000001
2.2042372149880975,0,0,1.20667763671875,0,0,0.99372
2.2056282539851964,0,0,1.139639990234375,0,0,0.84084
2.207017440989148,0,0,1.1563994018554686,0,0,0.91728
2.2084044239891227,0,0,1.3718775512695311,0,0,0.22932
2.2097919629886746,0,0,1.5107412475585937,0,0,0.6115200000000001
2.211180039012106,0,0,1.7573440185546874,0,0,0.91728
2.2125679109885823,0,0,1.4149731811523436,0,0,0.6115200000000001
2.2139550980064087,0,0,1.1324573852539062,0,0,0.91728
2.215342821989907,0,0,1.0917559570312498,0,0,0.68796
2.2167300829896703,0,0,1.1085153686523437,0,0,0.45864
2.2181173989956733,0,0,1.2880804931640624,0,0,0.45864
2.21950453100726,0,0,1.5873557006835937,0,0,0.6115200000000001
2.2208926810126286,0,0,1.5059528442382812,0,0,0.68796
2.2222804790071677,0,0,1.5658078857421873,0,0,0.68796
2.223668035992887,0,0,1.16837041015625,0,0,0.84084
2.2250552230107132,0,0,1.139639990234375,0,0,0.53508
2.226442040002439,0,0,1.2234370483398436,0,0,0.68796
2.2278446709970012,0,0,1.3048399047851562,0,0,0.84084
2.22923252399778,0,0,1.2473790649414063,0,0,0.45864
2.230636118998518,0,0,1.2018892333984375,0,0,0.53508
2.2320241940033156,0,0,1.5801730957031248,0,0,0.91728
2.2334121220046654,0,0,1.3120225097656248,0,0,0.7644
2.234804809006164,0,0,1.3431471313476562,0,0,0.7644
2.236192051001126,0,0,1.1947066284179686,0,0,0.7644
2.237578867992852,0,0,0.9888052856445312,0,0,0.45864
2.238967148005031,0,0,1.2593500732421874,0,0,0.30576000000000003
2.2403534640034195,0,0,1.3359645263671873,0,0,0.6115200000000001
2.241740336001385,0,0,1.7238251953125,0,0,0.91728
2.243128022993915,0,0,1.62805712890625,0,0,0.7644
2.244515672995476,0,0,1.2282254516601563,0,0,1.07016
2.2459030819882173,0,0,1.2521674682617188,0,0,0.84084
2.2472907140036114,0,0,1.1468225952148436,0,0,0.99372
2.24867838199134,0,0,1.2569558715820313,0,0,0.99372
2.250065550993895,0,0,1.4724340209960938,0,0,0.53508
2.251453662989661,0,0,1.4245499877929686,0,0,0.84084
2.252849498006981,0,0,1.6256629272460936,0,0,0.91728
2.2542368340073153,0,0,1.3287819213867187,0,0,0.7644
2.2556243170110974,0,0,1.0390835205078124,0,0,0.45864
2.2570114110130817,0,0,1.0079588989257813,0,0,0.7644
2.2583984679949936,0,0,1.1563994018554686,0,0,0.45864
2.2597863959963433,0,0,1.4413093994140624,0,0,0.7644
2.2611737129918765,0,0,1.4963760375976562,0,0,0.84084
2.2625740290095564,0,0,1.446097802734375,0,0,0.91728
2.2639619749970734,0,0,1.407790576171875,0,0,0.3822
2.265349644003436,0,0,1.3383587280273437,0,0,0.91728
2.266737664001994,0,0,1.235408056640625,0,0,0.99372
2.2681248509907164,0,0,1.20667763671875,0,0,0.6115200000000001
2.269512149010552,0,0,1.2282254516601563,0,0,0.99372
2.2709068919939455,0,0,1.3263877197265623,0,0,0.68796
2.272294244990917,0,0,1.1276689819335937,0,0,0.68796
2.2736815249954816,0,0,1.5514426757812498,0,0,0.7644
2.2750686749932356,0,0,1.3359645263671873,0,0,0.7644
2.276456176012289,0,0,1.3024457031249999,0,0,0.84084
2.2778435490035918,0,0,1.0773907470703123,0,0,0.68796
2.2792306059855036,0,0,1.2138602416992186,0,0,0.45864
2.280617866985267,0,0,1.3120225097656248,0,0,0.45864
2.282005332002882,0,0,1.5227122558593749,0,0,0.6115200000000001
2.283392721990822,0,0,1.4532804077148436,0,0,0.84084
2.284780112997396,0,0,1.4101847778320311,0,0,-8.867040000000001
2.2861757630016655,0,0,1.2234370483398436,0,0,1.1465999999999998
2.287567505001789,0,0,1.0773907470703123,0,0,0.68796
2.2889553960121702,0,0,1.0797849487304687,0,0,0.7644
2.2903430639998987,0,0,1.0749965454101562,0,0,0.7644
2.291724898997927,0,0,1.4149731811523436,0,0,0.84084
2.2931039569957647,0,0,1.2928688964843749,0,0,0.6115200000000001
2.2944829589978326,0,0,1.5610194824218748,0,0,0.99372
2.2958639609860256,0,0,1.2234370483398436,0,0,1.07016
2.2972432959941216,0,0,1.3431471313476562,0,0,0.7644
2.2986537230026443,0,0,1.13006318359375,0,0,0.6115200000000001
2.300042113987729,0,0,1.2952630981445312,0,0,0.68796
2.301429579005344,0,0,1.35990654296875,0,0,0.22932
2.3028141359973233,0,0,1.3575123413085937,0,0,0.6115200000000001
2.304194249009015,0,0,1.2785036865234374,0,0,0.99372
2.3057266380055808,0,0,1.4149731811523436,0,0,0.53508
2.307213527004933,0,0,1.2904746948242187,0,0,0.99372
2.3086753060051706,0,0,1.1707646118164061,0,0,0.68796
2.310081214993261,0,0,1.149216796875,0,0,0.84084
2.31150421599159,0,0,1.1468225952148436,0,0,0.53508
2.3128836810064968,0,0,1.407790576171875,0,0,0.53508
2.314263664011378,0,0,1.2785036865234374,0,0,0.53508
2.31566016600118,0,0,1.3718775512695311,0,0,0.6115200000000001
2.317048333992716,0,0,1.2138602416992186,0,0,0.7644
2.3184357809950598,0,0,1.2952630981445312,0,0,0.84084
2.3198174680001102,0,0,1.0486603271484374,0,0,0.68796
2.321196561999386,0,0,1.2114660400390624,0,0,0.84084
2.322621841012733,0,0,1.4341267944335936,0,0,0.53508
2.32400984299602,0,0,1.3646949462890625,0,0,0.84084
2.325396197004011,0,0,1.3359645263671873,0,0,0.84084
2.326784142991528,0,0,1.1707646118164061,0,0,0.7644
2.328170107997721,0,0,1.199495031738281,0,0,1.07016
2.32955655400292,0,0,1.1875240234375,0,0,0.7644
2.330944259010721,0,0,1.2952630981445312,0,0,0.91728
2.3323297050083056,0,0,1.3479355346679687,0,0,0.6115200000000001
2.3337159660004545,0,0,1.3814543579101561,0,0,0.84084
2.335104986996157,0,0,1.24498486328125,0,0,0.6115200000000001
2.3364917660073843,0,0,1.3431471313476562,0,0,0.68796
2.3378782130021136,0,0,1.3192051147460937,0,0,0.99372
2.339266585011501,0,0,1.2473790649414063,0,0,0.84084
2.340653290011687,0,0,1.1324573852539062,0,0,0.6115200000000001
2.3420397549925838,0,0,1.1324573852539062,0,0,0.7644
2.3434262750088237,0,0,1.3407529296874998,0,0,0.22932
2.344813055009581,0,0,1.3766659545898436,0,0,0.45864
2.346200094005326,0,0,1.6328455322265625,0,0,0.91728
2.347586799005512,0,0,1.2617442749023438,0,0,0.68796
2.3489734859904274,0,0,1.3479355346679687,0,0,0.99372
2.350359395000851,0,0,1.0726023437499999,0,0,0.91728
2.3517454710090533,0,0,1.1013327636718748,0,0,0.6115200000000001
2.353131862008013,0,0,1.3072341064453123,0,0,0.6115200000000001
2.354518086009193,0,0,1.455674609375,0,0,0.84084
2.3559066799934953,0,0,1.407790576171875,0,0,0.53508
2.3572931259986944,0,0,1.618480322265625,0,0,0.45864
2.3586898320063483,0,0,1.1611878051757811,0,0,1.07016
2.3600761480047368,0,0,1.158793603515625,0,0,0.7644
2.36146481698961,0,0,1.0989385620117187,0,0,0.91728
2.3628529850102495,0,0,1.1707646118164061,0,0,0.68796
2.36423761601327,0,0,1.37906015625,0,0,0.30576000000000003
2.36562389601022,0,0,1.3024457031249999,0,0,0.7644
2.367010546004167,0,0,1.5705962890624998,0,0,1.07016
2.3683968069963157,0,0,1.3862427612304686,0,0,0.7644
2.369792752986541,0,0,1.254561669921875,0,0,0.91728
2.3711793099937495,0,0,1.3287819213867187,0,0,0.7644
2.37256553399493,0,0,1.2593500732421874,0,0,0.3822
2.3739518510119524,0,0,1.2593500732421874,0,0,0.6115200000000001
2.3753377049870323,0,0,1.4413093994140624,0,0,0.6115200000000001
2.376724020985421,0,0,1.5418658691406248,0,0,0.45864
2.3781105969974305,0,0,1.6304513305664061,0,0,0.6115200000000001
2.379497006011661,0,0,1.369483349609375,0,0,0.91728
2.380883340985747,0,0,1.209071838378906,0,0,0.53508
2.382269842986716,0,0,0.9217676391601562,0,0,0.53508
2.3836564189987257,0,0,1.2114660400390624,0,0,0.91728
2.3850426620047074,0,0,1.484405029296875,0,0,0.0
2.3864288860058878,0,0,1.3862427612304686,0,0,0.91728
2.3878154609992635,0,0,1.5921441040039062,0,0,0.91728
2.389201445010258,0,0,1.22583125,0,0,0.91728
2.3906221310026012,0,0,1.197100830078125,0,0,0.53508
2.392009411007166,0,0,1.1276689819335937,0,0,0.84084
2.3933957089902833,0,0,1.1563994018554686,0,0,0.84084
2.394782137009315,0,0,1.3479355346679687,0,0,0.84084
2.3971907740051392,0,0,1.0797849487304687,0,0,0.6115200000000001
2.398658052989049,0,0,1.5586252807617187,0,0,0.68796
2.4000482030096464,0,0,1.2880804931640624,0,0,1.1465999999999998
2.401435890002176,0,0,1.235408056640625,0,0,0.84084
2.4028237799939234,0,0,1.2832920898437499,0,0,0.91728
2.4042280779976863,0,0,1.2018892333984375,0,0,0.68796
2.4056202089996077,0,0,1.3718775512695311,0,0,0.30576000000000003
2.407006266992539,0,0,1.4987702392578124,0,0,0.53508
2.4083916939853225,0,0,1.4820108276367188,0,0,0.7644
2.4097784369951114,0,0,1.1611878051757811,0,0,0.7644
2.4111645680095535,0,0,1.2832920898437499,0,0,0.91728
2.412550792010734,0,0,1.1156979736328125,0,0,0.99372
2.413937720004469,0,0,1.1013327636718748,0,0,0.99372
2.4153237770078704,0,0,1.1540052001953125,0,0,0.91728
2.416710241988767,0,0,1.4413093994140624,0,0,0.53508
2.418096743989736,0,0,1.2689268798828124,0,0,0.84084
2.419549634010764,0,0,1.43652099609375,0,0,0.6115200000000001
2.4209385240101255,0,0,1.2808978881835937,0,0,0.7644
2.4223263600142673,0,0,1.3192051147460937,0,0,0.68796
2.4237133610004093,0,0,1.0390835205078124,0,0,0.84084
2.425099993008189,0,0,1.0821791503906248,0,0,0.6115200000000001
2.426486271986505,0,0,1.429338391113281,0,0,0.0
2.427873662993079,0,0,1.3934253662109375,0,0,0.99372
2.4292740719974972,0,0,1.426944189453125,0,0,1.07016
2.4306615550012793,0,0,1.218648645019531,0,0,0.84084
2.4320472049876116,0,0,1.1133037719726562,0,0,0.99372
2.433433744008653,0,0,1.0582371337890624,0,0,0.6115200000000001
2.4348215789941605,0,0,1.1731588134765625,0,0,0.45864
2.4362073770025745,0,0,1.2521674682617188,0,0,0.84084
2.437593934009783,0,0,1.3958195678710936,0,0,0.91728
2.4389813620073255,0,0,1.24498486328125,0,0,0.53508
2.4403666789876297,0,0,1.3144167114257812,0,0,0.84084
2.441753124992829,0,0,1.1875240234375,0,0,0.84084
2.4431394599960186,0,0,1.2808978881835937,0,0,0.91728
2.444525683997199,0,0,1.1923124267578125,0,0,1.1465999999999998
2.445911890012212,0,0,1.2210428466796874,0,0,0.6115200000000001
2.4473053730034735,0,0,1.2497732666015624,0,0,-0.15288000000000002
2.448694060003618,0,0,1.3000515014648437,0,0,0.84084
2.4500805429997854,0,0,1.5346832641601562,0,0,1.07016
2.4514838779869024,0,0,1.20667763671875,0,0,0.7644
2.4529076750040986,0,0,1.1085153686523437,0,0,0.68796
2.4542972880008165,0,0,1.0797849487304687,0,0,0.7644
2.4556898460141383,0,0,1.1827356201171875,0,0,0.6115200000000001
2.4570766249962617,0,0,1.3335703247070312,0,0,0.99372
2.45846342301229,0,0,1.3814543579101561,0,0,0.6115200000000001
2.4598534060060047,0,0,1.3934253662109375,0,0,0.68796
2.461242649005726,0,0,1.5610194824218748,0,0,0.53508
2.4626302430115175,0,0,1.2521674682617188,0,0,0.7644
2.464016448997427,0,0,1.1156979736328125,0,0,0.91728
2.4654031730024144,0,0,1.0773907470703123,0,0,0.53508
2.466790840990143,0,0,1.1875240234375,0,0,0.84084
2.4681767690053675,0,0,1.235408056640625,0,0,0.91728
2.4695639190031216,0,0,1.2042834350585936,0,0,0.68796
2.470950605988037,0,0,1.5945383056640625,0,0,1.2230400000000001
2.4723373299930245,0,0,1.2306196533203124,0,0,1.07016
2.47372414599522,0,0,1.2401964599609374,0,0,0.6115200000000001
2.4751109259959776,0,0,1.1276689819335937,0,0,0.53508
2.476497297990136,0,0,1.1947066284179686,0,0,0.6115200000000001
2.4778842809901107,0,0,1.2785036865234374,0,0,0.30576000000000003
2.479271079006139,0,0,1.429338391113281,0,0,0.84084
2.4806575260008685,0,0,1.4101847778320311,0,0,0.7644
2.4820442119962536,0,0,1.47482822265625,0,0,0.68796
2.4834308619902004,0,0,1.3048399047851562,0,0,0.84084
2.4848174570070114,0,0,1.216254443359375,0,0,0.7644
2.4862044590117875,0,0,1.1516109985351561,0,0,0.84084
2.487631552008679,0,0,1.2138602416992186,0,0,1.1465999999999998
2.489020757988328,0,0,1.4053963745117186,0,0,0.45864
2.490407814999344,0,0,1.3431471313476562,0,0,0.91728
2.491805761004798,0,0,1.6400281372070311,0,0,0.84084
2.493192430003546,0,0,1.2569558715820313,0,0,0.68796
2.494579819991486,0,0,1.20667763671875,0,0,0.53508
2.4959660260064993,0,0,1.1324573852539062,0,0,-8.943480000000001
2.4973543050000444,0,0,1.2593500732421874,0,0,0.3822
2.499038748006569,0,0,1.2856862915039062,0,0,0.0
2.5004386760119814,0,0,1.3527239379882812,0,0,0.84084
2.501826750987675,0,0,1.4700398193359374,0,0,0.7644
2.503215178992832,0,0,1.47482822265625,0,0,0.53508
2.5046022729948163,0,0,1.2928688964843749,0,0,1.2230400000000001
2.5059891830023844,0,0,1.0797849487304687,0,0,0.53508
2.5073764070111793,0,0,1.1659762084960936,0,0,0.53508
2.508763149002334,0,0,1.1635820068359375,0,0,1.1465999999999998
2.5101494469854515,0,0,1.369483349609375,0,0,0.6115200000000001
2.5115366709942464,0,0,1.2593500732421874,0,0,-9.172799999999999
2.5129239879897796,0,0,1.5729904907226562,0,0,0.84084
2.514310470985947,0,0,1.1635820068359375,0,0,0.99372
2.5156988429953344,0,0,1.1707646118164061,0,0,0.53508
2.5170857520133723,0,0,1.2018892333984375,0,0,0.91728
2.518472772993846,0,0,1.2497732666015624,0,0,0.53508
2.51985986699583,0,0,1.4796166259765624,0,0,0.0
2.5212466650118586,0,0,1.3407529296874998,0,0,0.6115200000000001
2.5226341109955683,0,0,1.465251416015625,0,0,0.6115200000000001
2.5240791859978344,0,0,1.4724340209960938,0,0,0.7644
2.525466780993156,0,0,1.3359645263671873,0,0,0.7644
2.526854727009777,0,0,1.1516109985351561,0,0,0.68796
2.5282423209864646,0,0,1.1324573852539062,0,0,0.7644
2.529628879012307,0,0,1.20667763671875,0,0,0.7644
2.5310156400082633,0,0,1.4030021728515625,0,0,0.6115200000000001
2.532402623008238,0,0,1.448492004394531,0,0,0.7644
2.53380347599159,0,0,1.4820108276367188,0,0,0.45864
2.5352011079958174,0,0,1.3527239379882812,0,0,0.99372
2.5365901839977596,0,0,1.1372457885742187,0,0,0.68796
2.537977222003974,0,0,1.1851298217773436,0,0,0.91728
2.539364057010971,0,0,1.2952630981445312,0,0,0.3822
2.5407510960067157,0,0,1.448492004394531,0,0,0.07644000000000001
2.542137709009694,0,0,1.4772224243164063,0,0,0.91728
2.5435246549895965,0,0,1.599326708984375,0,0,0.68796
2.5449109349865466,0,0,1.3623007446289062,0,0,0.91728
2.5463059000030626,0,0,1.1875240234375,0,0,0.68796
2.547693178988993,0,0,1.1180921752929687,0,0,0.6115200000000001
2.5490803100110497,0,0,1.1109095703125,0,0,0.6115200000000001
2.550466996995965,0,0,1.2234370483398436,0,0,0.91728
2.5518534810107667,0,0,1.465251416015625,0,0,0.84084
2.5532405189878773,0,0,1.39821376953125,0,0,0.68796
2.5546295770036522,0,0,1.47482822265625,0,0,0.7644
2.556016707996605,0,0,1.1420341918945311,0,0,0.84084
2.557404024992138,0,0,1.139639990234375,0,0,0.84084
2.5587912859919015,0,0,1.1013327636718748,0,0,0.91728
2.560176880011568,0,0,1.199495031738281,0,0,0.6115200000000001
2.5615629559906665,0,0,1.3239935180664062,0,0,0.22932
2.562949512997875,0,0,1.4867992309570313,0,0,0.7644
2.564514864992816,0,0,1.5777788940429687,0,0,0.99372
2.5659169029968325,0,0,1.3311761230468748,0,0,0.7644
2.5673055530060083,0,0,1.24498486328125,0,0,0.53508
2.568693648005137,0,0,1.120486376953125,0,0,0.7644
2.570081279001897,0,0,1.0893617553710937,0,0,0.30576000000000003
2.571489224996185,0,0,1.467645617675781,0,0,0.6115200000000001
2.5728769680135883,0,0,1.4149731811523436,0,0,0.6115200000000001
2.5742645249993075,0,0,1.4891934326171874,0,0,0.7644
2.5756460269913077,0,0,1.3215993164062498,0,0,0.84084
2.5770247140026186,0,0,0.9720458740234375,0,0,0.99372
2.5784044559986796,0,0,1.2210428466796874,0,0,0.84084
2.5798049390141387,0,0,1.0893617553710937,0,0,0.99372
2.5811915890080854,0,0,1.3048399047851562,0,0,0.68796
2.5825794620031957,0,0,1.4437036010742186,0,0,0.3822
2.583965778001584,0,0,1.5059528442382812,0,0,0.84084
2.5853521690005437,0,0,1.5251064575195312,0,0,0.68796
2.5867398930131458,0,0,1.3287819213867187,0,0,1.2230400000000001
2.588125617010519,0,0,1.2713210815429687,0,0,0.84084
2.5895120440109167,0,0,1.149216796875,0,0,0.84084
2.590898972004652,0,0,1.1827356201171875,0,0,0.3822
2.592285326012643,0,0,1.3766659545898436,0,0,0.84084
2.5936716239957605,0,0,1.4796166259765624,0,0,0.53508
2.5950578849879093,0,0,1.2521674682617188,0,0,0.68796
2.5964480160037056,0,0,1.2737152832031249,0,0,0.7644
2.5979928679880686,0,0,1.0893617553710937,0,0,1.07016
2.5993852220126428,0,0,1.2210428466796874,0,0,0.7644
2.60077316800016,0,0,1.2665326782226562,0,0,0.6115200000000001
2.602160818001721,0,0,1.4053963745117186,0,0,0.84084
2.6035489680070896,0,0,1.5370774658203123,0,0,0.91728
2.604953450994799,0,0,1.3910311645507811,0,0,0.68796
2.6063408970076125,0,0,1.4796166259765624,0,0,0.6115200000000001
2.607728547009174,0,0,1.180341418457031,0,0,0.6115200000000001
2.609116103994893,0,0,1.2689268798828124,0,0,0.7644
2.610535327985417,0,0,1.0893617553710937,0,0,0.84084
2.6119253849901725,0,0,1.2018892333984375,0,0,0.6115200000000001
2.613313923997339,0,0,1.3910311645507811,0,0,0.30576000000000003
2.614703074010322,0,0,1.407790576171875,0,0,0.45864
2.6160906679870095,0,0,1.2904746948242187,0,0,0.7644
2.6174787989875767,0,0,1.3239935180664062,0,0,0.84084
2.6188672269927338,0,0,1.1252747802734375,0,0,0.91728
2.6202549879963044,0,0,1.0438719238281249,0,0,0.84084
2.6216428600018844,0,0,1.1109095703125,0,0,0.68796
2.6230383799993433,0,0,1.1611878051757811,0,0,0.84084
2.6244256969948765,0,0,1.455674609375,0,0,0.68796
2.6258133839874063,0,0,1.3646949462890625,0,0,0.84084
2.6272032929991838,0,0,1.5298948608398437,0,0,0.53508
2.628594849986257,0,0,1.2713210815429687,0,0,0.68796
2.6299826850008685,0,0,1.3479355346679687,0,0,0.84084
2.6313703909981996,0,0,1.1563994018554686,0,0,0.84084
2.63275791099295,0,0,1.2018892333984375,0,0,0.6115200000000001
2.634145913005341,0,0,1.3718775512695311,0,0,0.07644000000000001
2.6355270629865117,0,0,1.429338391113281,0,0,0.53508
2.636906269006431,0,0,1.5131354492187499,0,0,0.53508
2.6382859559962526,0,0,1.2856862915039062,0,0,0.53508
2.639691419986775,0,0,1.3120225097656248,0,0,0.91728
2.6410788290086202,0,0,1.0749965454101562,0,0,0.6115200000000001
2.6424656829913147,0,0,1.2282254516601563,0,0,0.91728
2.6438575919892173,0,0,1.2330138549804688,0,0,1.2994800000000002
2.6452443530142773,0,0,1.4532804077148436,0,0,0.84084
2.6476737869961653,0,0,1.656787548828125,0,0,0.99372
2.6491253990097903,0,0,1.1540052001953125,0,0,1.1465999999999998
2.650521697010845,0,0,1.1827356201171875,0,0,0.68796
2.6519099950091913,0,0,1.1324573852539062,0,0,0.6115200000000001
2.653297107986873,0,0,1.2330138549804688,0,0,0.3822
2.654684665001696,0,0,1.2904746948242187,0,0,0.3822
2.656070203986019,0,0,1.4006079711914061,0,0,0.30576000000000003
2.6574569279910065,0,0,1.4604630126953124,0,0,0.30576000000000003
2.65884442999959,0,0,1.4772224243164063,0,0,0.7644
2.660230949986726,0,0,1.3168109130859373,0,0,1.2230400000000001
2.6616174890077673,0,0,1.1061211669921875,0,0,0.68796
2.663004213012755,0,0,1.0223241088867188,0,0,20
2.664413065998815,0,0,1.2737152832031249,0,0,0.0
2.6658001049945597,0,0,1.5083470458984374,0,0,0.84084
2.6671871620055754,0,0,1.4006079711914061,0,0,0.7644
2.668580978992395,0,0,1.5514426757812498,0,0,1.07016
2.669967313995585,0,0,1.3120225097656248,0,0,0.6115200000000001
2.6713543529913295,0,0,1.216254443359375,0,0,0.91728
2.6727407249854878,0,0,1.1013327636718748,0,0,0.7644
2.674127114994917,0,0,1.3623007446289062,0,0,0.7644
2.6755637649912387,0,0,1.369483349609375,0,0,0.15288000000000002
2.676960043987492,0,0,1.3934253662109375,0,0,0.6115200000000001
2.678347100998508,0,0,1.4628572143554686,0,0,1.07016
2.679734511009883,0,0,1.4030021728515625,0,0,0.45864
2.6811209750012495,0,0,1.2928688964843749,0,0,0.99372
2.682525809999788,0,0,1.209071838378906,0,0,0.6115200000000001
2.683914294000715,0,0,1.1731588134765625,0,0,0.7644
2.6853009430051316,0,0,1.4006079711914061,0,0,0.99372
2.6866970009868965,0,0,1.4700398193359374,0,0,0.6115200000000001
2.6880866319988854,0,0,1.3527239379882812,0,0,0.84084
2.689475819002837,0,0,1.5658078857421873,0,0,1.07016
2.6908638020104263,0,0,1.3287819213867187,0,0,0.84084
2.692249952000566,0,0,1.1348515869140625,0,0,0.68796
2.6936367689922918,0,0,1.0223241088867188,0,0,0.68796
2.695023862994276,0,0,1.1037269653320312,0,0,0.91728
2.696410291013308,0,0,1.426944189453125,0,0,0.53508
2.6977967930142768,0,0,1.4221557861328125,0,0,0.7644
2.699183479999192,0,0,1.455674609375,0,0,0.91728
2.700570073997369,0,0,1.2617442749023438,0,0,0.6115200000000001
2.7019560020125937,0,0,1.1037269653320312,0,0,1.1465999999999998
2.703347965987632,0,0,1.0965443603515623,0,0,0.68796
2.7047349119966384,0,0,1.2018892333984375,0,0,0.30576000000000003
2.7061215809953865,0,0,1.2856862915039062,0,0,0.91728
2.7075083979871124,0,0,1.4772224243164063,0,0,0.53508
2.7088951590121724,0,0,1.2928688964843749,0,0,0.7644
2.7102820680011064,0,0,1.5155296508789062,0,0,1.07016
2.7116830140003003,0,0,1.3575123413085937,0,0,0.68796
2.713071108009899,0,0,1.1851298217773436,0,0,0.91728
2.714457683992805,0,0,1.1659762084960936,0,0,0.6115200000000001
2.715844204009045,0,0,1.197100830078125,0,0,0.6115200000000001
2.717230631998973,0,0,1.4317325927734375,0,0,0.3822
2.7186348190007266,0,0,1.484405029296875,0,0,0.45864
2.720064282999374,0,0,1.5155296508789062,0,0,0.6115200000000001
2.7214534140075557,0,0,1.2425906616210938,0,0,0.68796
2.7228535269969143,0,0,1.139639990234375,0,0,0.84084
2.7242389360035304,0,0,1.2401964599609374,0,0,0.68796
2.725625474995468,0,0,1.1875240234375,0,0,0.84084
2.727012718009064,0,0,1.2856862915039062,0,0,0.99372
2.728398756007664,0,0,1.4867992309570313,0,0,0.7644
2.7297850539907813,0,0,1.1085153686523437,0,0,0.91728
2.731172277999576,0,0,1.4125789794921875,0,0,0.84084
2.7325592249981128,0,0,1.1755530151367186,0,0,0.6115200000000001
2.733945596992271,0,0,1.2425906616210938,0,0,0.6115200000000001
2.735330913012149,0,0,1.1707646118164061,0,0,0.53508
2.7367157860135194,0,0,1.149216796875,0,0,0.84084
2.738123324001208,0,0,1.39821376953125,0,0,0.3822
2.7395106960029807,0,0,1.4317325927734375,0,0,0.84084
2.7408969569951296,0,0,1.4820108276367188,0,0,1.07016
2.7422832919983193,0,0,1.2138602416992186,0,0,0.68796
2.7436698309902567,0,0,1.1037269653320312,0,0,0.84084
2.7450561849982478,0,0,1.189918225097656,0,0,0.6115200000000001
2.746442631003447,0,0,1.2042834350585936,0,0,1.07016
2.747829374013236,0,0,1.3407529296874998,0,0,0.91728
2.7492153749917634,0,0,1.4173673828125,0,0,0.68796
2.7506030070071574,0,0,1.235408056640625,0,0,1.07016
2.7519897680031136,0,0,1.429338391113281,0,0,0.68796
2.7533761769882403,0,0,1.1947066284179686,0,0,0.91728
2.7547632709902246,0,0,1.3096283081054687,0,0,0.68796
2.7561574399878737,0,0,1.1372457885742187,0,0,0.68796
2.7575440159998834,0,0,1.218648645019531,0,0,0.68796
2.758930979995057,0,0,1.2785036865234374,0,0,0.22932
2.7603165009932127,0,0,1.3168109130859373,0,0,0.53508
2.7617026689986233,0,0,1.4053963745117186,0,0,1.1465999999999998
2.763089170999592,0,0,1.2473790649414063,0,0,0.6115200000000001
2.7644756170047913,0,0,1.2952630981445312,0,0,0.91728
2.765861785999732,0,0,1.149216796875,0,0,-9.01992
2.767249491007533,0,0,1.1324573852539062,0,0,0.6115200000000001
2.7686356409976725,0,0,1.2042834350585936,0,0,0.91728
2.770021976000862,0,0,1.467645617675781,0,0,0.6115200000000001
2.7714085330080707,0,0,1.2928688964843749,0,0,0.91728
2.772794905991759,0,0,1.5753846923828123,0,0,0.68796
2.774180684995372,0,0,1.2521674682617188,0,0,0.91728
2.775567372009391,0,0,1.3168109130859373,0,0,1.1465999999999998
2.7769529659999534,0,0,1.1659762084960936,0,0,0.68796
2.7783388569951057,0,0,1.209071838378906,0,0,0.68796
2.779725063010119,0,0,1.2425906616210938,0,0,0.45864
2.7811180269927718,0,0,1.3670891479492187,0,0,0.91728
2.782518510008231,0,0,1.3958195678710936,0,0,1.1465999999999998
2.7839062710118014,0,0,1.5083470458984374,0,0,0.91728
2.7852922359888908,0,0,1.3335703247070312,0,0,0.7644
2.7866794420115184,0,0,1.1133037719726562,0,0,0.84084
2.7880648509890307,0,0,1.1635820068359375,0,0,0.6115200000000001
2.7894514270010404,0,0,1.3192051147460937,0,0,0.91728
2.790837984008249,0,0,1.4437036010742186,0,0,-9.01992
2.7922248560062144,0,0,1.4053963745117186,0,0,0.6115200000000001
2.793611172994133,0,0,1.5155296508789062,0,0,0.7644
2.7949981369893067,0,0,1.2713210815429687,0,0,1.1465999999999998
2.7963838239957113,0,0,1.1444283935546875,0,0,0.68796
2.797770400007721,0,0,1.1851298217773436,0,0,0.91728
2.7991874940053094,0,0,1.3670891479492187,0,0,0.53508
2.800576292007463,0,0,1.2593500732421874,0,0,0.07644000000000001
2.8019641829887405,0,0,1.2880804931640624,0,0,0.7644
2.8033496850111987,0,0,1.4987702392578124,0,0,0.91728
2.804734297998948,0,0,1.2497732666015624,0,0,0.91728
2.8067437729914673,0,0,1.3024457031249999,0,0,0.6115200000000001
2.8081487379968166,0,0,1.01514150390625,0,0,0.91728
2.809537813998759,0,0,1.197100830078125,0,0,0.68796
2.8109266120009124,0,0,1.5011644409179687,0,0,0.30576000000000003
2.812315021001268,0,0,1.37906015625,0,0,1.07016
2.8137024859897792,0,0,1.4772224243164063,0,0,0.91728
2.8150910430122167,0,0,1.2042834350585936,0,0,0.91728
2.816478933993494,0,0,1.2401964599609374,0,0,0.7644
2.817865860997699,0,0,1.1468225952148436,0,0,0.68796
2.81925362200127,0,0,1.197100830078125,0,0,0.53508
2.820641828002408,0,0,1.2689268798828124,0,0,0.84084
2.8220288300071843,0,0,1.3431471313476562,0,0,0.84084
2.823416202008957,0,0,1.2234370483398436,0,0,0.84084
2.824803889001487,0,0,1.4963760375976562,0,0,0.45864
2.8261910759902094,0,0,1.3096283081054687,0,0,0.84084
2.827578669996001,0,0,1.3383587280273437,0,0,0.91728
2.8289656350098085,0,0,1.0917559570312498,0,0,0.7644
2.8303523770009633,0,0,1.1731588134765625,0,0,0.7644
2.8317697120073717,0,0,1.2425906616210938,0,0,0.45864
2.8331567510031164,0,0,1.4030021728515625,0,0,0.7644
2.8345441780111287,0,0,1.5586252807617187,0,0,0.91728
2.8359314579865895,0,0,1.16837041015625,0,0,0.91728
2.837318737991154,0,0,1.1875240234375,0,0,0.6115200000000001
2.8387067019939423,0,0,1.1444283935546875,0,0,0.53508
2.840110888995696,0,0,1.1875240234375,0,0,0.53508
2.8414992979960516,0,0,1.2665326782226562,0,0,0.68796
2.842887522012461,0,0,1.369483349609375,0,0,0.6115200000000001
2.8442807650135364,0,0,1.3335703247070312,0,0,0.6115200000000001
2.845668747992022,0,0,1.484405029296875,0,0,0.68796
2.8470563610026147,0,0,1.197100830078125,0,0,0.84084
2.848443436989328,0,0,1.35990654296875,0,0,0.84084
2.8498304940003436,0,0,0.9409212524414062,0,0,0.68796
2.8512132359901443,0,0,1.1540052001953125,0,0,0.45864
2.8525924230052624,0,0,1.350329736328125,0,0,0.3822
2.853970833006315,0,0,1.2928688964843749,0,0,0.7644
2.85535940900445,0,0,1.5442600708007812,0,0,0.91728
2.8567456509917974,0,0,1.2856862915039062,0,0,0.7644
2.8581320229859557,0,0,1.3024457031249999,0,0,0.84084
2.8595190059859306,0,0,1.1348515869140625,0,0,0.6115200000000001
2.8609053599939216,0,0,1.2306196533203124,0,0,-9.172799999999999
2.8622930469864514,0,0,1.2952630981445312,0,0,0.30576000000000003
2.863680326991016,0,0,1.467645617675781,0,0,0.7644
2.8650663839944173,0,0,1.4317325927734375,0,0,0.84084
2.866452551999828,0,0,1.458068811035156,0,0,0.68796
2.867839368991554,0,0,1.1851298217773436,0,0,0.99372
2.869225425994955,0,0,1.158793603515625,0,0,0.99372
2.8706261870102026,0,0,1.149216796875,0,0,0.6115200000000001
2.872013132990105,0,0,1.2952630981445312,0,0,0.7644
2.8733992649940774,0,0,1.5203180541992187,0,0,0.15288000000000002
2.8747863410098944,0,0,1.3958195678710936,0,0,0.91728
2.8761721389892045,0,0,1.637633935546875,0,0,0.84084
2.8775584370014258,0,0,1.2306196533203124,0,0,0.91728
2.878945197997382,0,0,1.1563994018554686,0,0,0.84084
2.8803309770009946,0,0,1.1133037719726562,0,0,0.91728
2.881716961011989,0,0,1.1156979736328125,0,0,0.3822
2.883103147993097,0,0,1.4341267944335936,0,0,0.6115200000000001
2.8844896120135672,0,0,1.6519991455078125,0,0,0.6115200000000001
2.885875522013521,0,0,1.5131354492187499,0,0,-8.943480000000001
2.887279744987609,0,0,1.419761584472656,0,0,0.6115200000000001
2.8886683770106174,0,0,1.139639990234375,0,0,0.91728
2.890794350998476,0,0,1.0797849487304687,0,0,0.6115200000000001
2.8921784269914497,0,0,1.1875240234375,0,0,0.7644
2.893558910000138,0,0,1.3048399047851562,0,0,0.68796
2.8950109670113306,0,0,1.388636962890625,0,0,0.45864
2.8964084679901134,0,0,1.2665326782226562,0,0,0.7644
2.897827562002931,0,0,1.2018892333984375,0,0,0.6115200000000001
2.8992932479886804,0,0,1.2114660400390624,0,0,0.91728
2.9006796210014727,0,0,1.0821791503906248,0,0,0.91728
2.9020597340131644,0,0,1.199495031738281,0,0,0.84084
2.903441512986319,0,0,1.3623007446289062,0,0,0.68796
2.904820293013472,0,0,1.4317325927734375,0,0,0.84084
2.906204238999635,0,0,1.2593500732421874,0,0,0.91728
2.9075836300035007,0,0,1.656787548828125,0,0,0.84084
2.9089625579945277,0,0,1.1061211669921875,0,0,0.7644
2.9103410780080594,0,0,1.139639990234375,0,0,0.68796
2.9117205800139345,0,0,0.9935936889648437,0,0,0.68796
2.913099377998151,0,0,1.235408056640625,0,0,0.45864
2.9144781389913987,0,0,1.3072341064453123,0,0,0.07644000000000001
2.9158681590051856,0,0,1.3718775512695311,0,0,0.6115200000000001
2.917255717009539,0,0,1.35990654296875,0,0,0.6115200000000001
2.9186440700141247,0,0,1.6400281372070311,0,0,0.7644
2.920030276000034,0,0,1.2617442749023438,0,0,1.1465999999999998
2.9214172039937694,0,0,1.0989385620117187,0,0,0.6115200000000001
2.9228048349905293,0,0,1.158793603515625,0,0,0.91728
2.924305408989312,0,0,1.2497732666015624,0,0,1.2994800000000002
2.925710003997665,0,0,1.3192051147460937,0,0,0.6115200000000001
2.9270928759942763,0,0,1.3455413330078123,0,0,0.84084
2.928471896011615,0,0,1.5825672973632812,0,0,0.6115200000000001
2.9298505279875826,0,0,1.120486376953125,0,0,0.84084
2.931238529010443,0,0,1.24498486328125,0,0,0.99372
2.932637474994408,0,0,1.0965443603515623,0,0,0.91728
2.9340240329911467,0,0,1.2306196533203124,0,0,0.53508
2.935410831007175,0,0,1.465251416015625,0,0,-0.15288000000000002
2.9367984989949036,0,0,1.3575123413085937,0,0,0.3822
2.9381845009920653,0,0,1.5538368774414062,0,0,0.99372
2.9395710949902423,0,0,1.4245499877929686,0,0,0.84084
2.9409569120034575,0,0,1.177947216796875,0,0,1.07016
2.9423434879863635,0,0,1.158793603515625,0,0,0.91728
2.943730600993149,0,0,1.1372457885742187,0,0,0.53508
2.9451167510123923,0,0,1.2856862915039062,0,0,0.91728
2.946518956014188,0,0,1.426944189453125,0,0,0.7644
2.947906587010948,0,0,1.3072341064453123,0,0,0.91728
2.949300514999777,0,0,1.4173673828125,0,0,0.45864
2.950687164993724,0,0,1.35990654296875,0,0,0.68796
2.9520724439935293,0,0,1.2234370483398436,0,0,0.91728
2.953542945004301,0,0,1.216254443359375,0,0,0.84084
2.9549320210062433,0,0,1.2521674682617188,0,0,0.3822
2.9563188749889378,0,0,1.3575123413085937,0,0,0.07644000000000001
2.9577155619917903,0,0,1.3359645263671873,0,0,0.53508
2.959104303998174,0,0,1.5275006591796874,0,0,0.6115200000000001
2.9604906020103954,0,0,1.3934253662109375,0,0,0.53508
2.96187764100614,0,0,1.35990654296875,0,0,1.2230400000000001
2.9632598829921335,0,0,1.1947066284179686,0,0,0.6115200000000001
2.964638292993186,0,0,1.0127473022460938,0,0,0.68796
2.9660170350107364,0,0,1.2306196533203124,0,0,1.2230400000000001
2.9674042589904275,0,0,1.3934253662109375,0,0,1.1465999999999998
2.9687911499931943,0,0,1.2952630981445312,0,0,0.84084
2.970178429997759,0,0,1.5322890624999999,0,0,0.91728
2.9715655419859104,0,0,1.2808978881835937,0,0,1.2230400000000001
2.9729523959977087,0,0,1.2306196533203124,0,0,0.53508
2.9743394720135257,0,0,0.9409212524414062,0,0,0.68796
2.9757333630113862,0,0,1.2306196533203124,0,0,-9.09636
2.977121698000701,0,0,1.3670891479492187,0,0,0.0
2.97852016199613,0,0,1.4508862060546874,0,0,0.7644
2.9798997009929735,0,0,1.6352397338867186,0,0,0.91728
2.9812781660002656,0,0,1.2737152832031249,0,0,0.91728
2.9826645010034554,0,0,1.0821791503906248,0,0,1.07016
2.9840503919986077,0,0,1.1109095703125,0,0,0.6115200000000001
2.985436374990968,0,0,0.967257470703125,0,0,0.6115200000000001
2.9868225250102114,0,0,1.3144167114257812,0,0,1.1465999999999998
2.988206842012005,0,0,1.455674609375,0,0,1.1465999999999998
2.989591288001975,0,0,1.2497732666015624,0,0,0.99372
2.990990566991968,0,0,1.4867992309570313,0,0,1.07016
2.992377699003555,0,0,1.1755530151367186,0,0,0.91728
2.9937656259862706,0,0,1.2473790649414063,0,0,0.6115200000000001
2.995151442999486,0,0,1.1348515869140625,0,0,0.7644
2.996537166996859,0,0,1.0821791503906248,0,0,1.75812
2.997923112998251,0,0,1.419761584472656,0,0,0.07644000000000001
2.999309706996428,0,0,1.37906015625,0,0,0.3822
3.000701893994119,0,0,1.5682020874023437,0,0,0.6115200000000001
3.002088154986268,0,0,1.1420341918945311,0,0,0.84084
3.003481305000605,0,0,1.1851298217773436,0,0,0.84084
3.0048683809873182,0,0,1.0702081420898437,0,0,0.68796
3.0062546239933,0,0,1.1013327636718748,0,0,0.7644
3.007640347990673,0,0,1.3527239379882812,0,0,0.91728
3.009026535000885,0,0,1.467645617675781,0,0,0.84084
3.0104129439860117,0,0,1.3192051147460937,0,0,1.07016
3.011799019994214,0,0,1.4939818359375,0,0,0.6115200000000001
3.0131851510086562,0,0,1.16837041015625,0,0,0.99372
3.0145721709995996,0,0,1.2641384765625,0,0,0.53508
3.0159713400062174,0,0,1.0175357055664063,0,0,0.84084
3.017358860000968,0,0,1.1635820068359375,0,0,0.6115200000000001
3.018747435999103,0,0,1.5107412475585937,0,0,0.15288000000000002
3.0201480480027385,0,0,1.4245499877929686,0,0,0.3822
3.0215345690085087,0,0,1.4101847778320311,0,0,0.84084
3.0229217740125023,0,0,1.1444283935546875,0,0,1.1465999999999998
3.0243066090042703,0,0,1.180341418457031,0,0,0.84084
3.0256924070126843,0,0,1.1875240234375,0,0,0.7644
3.0270785389875527,0,0,1.22583125,0,0,0.45864
3.0284643739869352,0,0,1.3383587280273437,0,0,1.2230400000000001
3.02985030200216,0,0,1.4700398193359374,0,0,0.84084
3.031236192007782,0,0,1.3407529296874998,0,0,0.99372
3.0326220089918934,0,0,1.3551181396484375,0,0,0.68796
3.034007843991276,0,0,1.1180921752929687,0,0,0.91728
3.0353937530016992,0,0,1.2114660400390624,0,0,0.68796
3.036779421992833,0,0,1.139639990234375,0,0,0.91728
3.038165404985193,0,0,1.2952630981445312,0,0,0.53508
3.039551350986585,0,0,1.2473790649414063,0,0,0.22932
3.0409369459957816,0,0,1.3239935180664062,0,0,0.3822
3.0423229100124445,0,0,1.4796166259765624,0,0,1.07016
3.0437087079917546,0,0,1.1133037719726562,0,0,0.91728
3.045094544009771,0,0,1.1707646118164061,0,0,1.1465999999999998
3.046480101009365,0,0,1.1133037719726562,0,0,0.91728
3.0478659179934766,0,0,1.216254443359375,0,0,0.53508
3.0492518820101395,0,0,1.2832920898437499,0,0,1.07016
3.0506384769978467,0,0,1.484405029296875,0,0,0.91728
3.052023497002665,0,0,1.3144167114257812,0,0,0.68796
3.053408962005051,0,0,1.5825672973632812,0,0,0.84084
3.054794592986582,0,0,1.1947066284179686,0,0,0.7644
3.056178021011874,0,0,1.0726023437499999,0,0,0.6115200000000001
3.057584930007579,0,0,1.1731588134765625,0,0,0.84084
3.058972634986276,0,0,1.235408056640625,0,0,0.45864
3.0603583219926804,0,0,1.4963760375976562,0,0,0.15288000000000002
3.061744731006911,0,0,1.2689268798828124,0,0,0.6115200000000001
3.0631405290041585,0,0,1.4867992309570313,0,0,1.07016
3.064526605012361,0,0,1.6424223388671875,0,0,0.7644
3.065912310994463,0,0,1.2569558715820313,0,0,1.07016
3.0672985349956434,0,0,1.1755530151367186,0,0,0.53508
3.068684128986206,0,0,1.1013327636718748,0,0,0.68796
3.0700696679996327,0,0,1.350329736328125,0,0,1.2994800000000002
3.071455817989772,0,0,1.4053963745117186,0,0,0.84084
3.072841671993956,0,0,1.254561669921875,0,0,0.91728
3.074234007013729,0,0,1.5083470458984374,0,0,0.91728
3.0756202680058777,0,0,1.180341418457031,0,0,0.7644
3.0770058060006704,0,0,1.254561669921875,0,0,0.84084
3.0783912900078576,0,0,1.1540052001953125,0,0,0.7644
3.07977693999419,0,0,1.149216796875,0,0,0.3822
3.081163238006411,0,0,1.3192051147460937,0,0,0.22932
3.0825504059903324,0,0,1.448492004394531,0,0,0.7644
3.0839375010109507,0,0,1.5203180541992187,0,0,1.07016
3.0853228729974944,0,0,1.426944189453125,0,0,0.7644
3.0867086889920756,0,0,1.149216796875,0,0,0.91728
3.088289484992856,0,0,1.13006318359375,0,0,0.91728
3.089685468003154,0,0,1.177947216796875,0,0,0.68796
3.091172265005298,0,0,1.2761094848632812,0,0,0.7644
3.092552173999138,0,0,1.4508862060546874,0,0,0.84084
3.0939316019939724,0,0,1.4772224243164063,0,0,0.84084
3.0953122150094714,0,0,1.6472107421875,0,0,0.6115200000000001
3.09669086500071,0,0,1.2761094848632812,0,0,1.07016
3.0980695149919484,0,0,1.1611878051757811,0,0,0.84084
3.099455368996132,0,0,1.218648645019531,0,0,0.7644
3.1009012589929625,0,0,1.2306196533203124,0,0,0.6115200000000001
3.102325482002925,0,0,1.3455413330078123,0,0,0.68796
3.103707428992493,0,0,1.3527239379882812,0,0,0.6115200000000001
3.105086911993567,0,0,1.5370774658203123,0,0,1.1465999999999998
3.1064663210127037,0,0,1.3646949462890625,0,0,0.84084
3.107870100007858,0,0,1.1276689819335937,0,0,0.68796
3.109256658004597,0,0,1.13006318359375,0,0,0.68796
3.110644956002943,0,0,1.2665326782226562,0,0,0.3822
3.1120334760053083,0,0,1.388636962890625,0,0,0.22932
3.1134202370012645,0,0,1.4125789794921875,0,0,0.84084
3.1148077200050466,0,0,1.4030021728515625,0,0,0.53508
3.116196166985901,0,0,1.5035586425781249,0,0,0.7644
3.1175827239931095,0,0,1.2665326782226562,0,0,0.99372
3.118970226001693,0,0,1.2497732666015624,0,0,0.7644
3.120355708990246,0,0,1.1635820068359375,0,0,0.68796
3.1217421919864137,0,0,1.2689268798828124,0,0,0.91728
3.1231286200054456,0,0,1.3862427612304686,0,0,0.7644
3.124514769995585,0,0,1.3838485595703125,0,0,0.99372
3.125901030987734,0,0,1.5610194824218748,0,0,1.1465999999999998
3.1272878849995323,0,0,1.1659762084960936,0,0,0.6115200000000001
3.1286742569936905,0,0,1.1444283935546875,0,0,0.84084
3.130060961993877,0,0,1.0702081420898437,0,0,0.84084
3.131447407999076,0,0,1.1061211669921875,0,0,0.84084
3.13284092899994,0,0,1.3814543579101561,0,0,0.30576000000000003
3.1342278750089463,0,0,1.3862427612304686,0,0,0.7644
3.1356141910073347,0,0,1.5059528442382812,0,0,0.45864
3.1370005079952534,0,0,1.3144167114257812,0,0,0.84084
3.1383868620032445,0,0,1.20667763671875,0,0,1.2230400000000001
3.139773640985368,0,0,1.197100830078125,0,0,0.68796
3.1411607910122257,0,0,1.0749965454101562,0,0,0.84084
3.142547736992128,0,0,1.2713210815429687,0,0,0.91728
3.143934886989882,0,0,1.4724340209960938,0,0,0.68796
3.1453214820066933,0,0,1.3958195678710936,0,0,0.84084
3.1467058539856225,0,0,1.5753846923828123,0,0,0.84084
3.148107799992431,0,0,1.3623007446289062,0,0,0.68796
3.1495611899881624,0,0,1.1875240234375,0,0,0.68796
3.1509746729861945,0,0,1.139639990234375,0,0,0.45864
3.152361562999431,0,0,1.149216796875,0,0,0.3822
3.1537488980102353,0,0,1.465251416015625,0,0,0.0
3.1551357340067625,0,0,1.426944189453125,0,0,0.7644
3.1565222720091697,0,0,1.5322890624999999,0,0,0.84084
3.157909347995883,0,0,1.3263877197265623,0,0,0.7644
3.159291627991479,0,0,1.1755530151367186,0,0,1.07016
3.160670573997777,0,0,1.16837041015625,0,0,0.53508
3.162049280013889,0,0,1.1444283935546875,0,0,0.84084
3.1634361149917822,0,0,1.0773907470703123,0,0,0.3822
3.164822060993174,0,0,1.5275006591796874,0,0,0.6115200000000001
3.1662082849943545,0,0,1.369483349609375,0,0,0.7644
3.1675947309995536,0,0,1.4101847778320311,0,0,1.07016
3.168981602997519,0,0,1.1180921752929687,0,0,0.91728
3.170368975988822,0,0,1.3455413330078123,0,0,0.99372
3.1717556070070714,0,0,1.1420341918945311,0,0,0.84084
3.1731417939881794,0,0,1.1372457885742187,0,0,0.45864
3.174529721989529,0,0,1.4604630126953124,0,0,0.30576000000000003
3.175909075012896,0,0,1.3742717529296875,0,0,1.07016
3.1772875589958858,0,0,1.2282254516601563,0,0,0.7644
3.1786730790045112,0,0,1.197100830078125,0,0,0.84084
3.1800586550089065,0,0,1.1061211669921875,0,0,0.91728
3.1814440460002515,0,0,1.350329736328125,0,0,0.68796
3.18283054701169,0,0,1.197100830078125,0,0,0.99372
3.184215196990408,0,0,1.2569558715820313,0,0,0.68796
3.185600828990573,0,0,1.4820108276367188,0,0,0.45864
3.1869860340084415,0,0,1.2425906616210938,0,0,0.91728
3.188369147013873,0,0,1.465251416015625,0,0,0.68796
3.189752870996017,0,0,1.1180921752929687,0,0,0.84084
3.1911609469971154,0,0,1.3024457031249999,0,0,0.6115200000000001
3.192551096988609,0,0,1.1468225952148436,0,0,0.68796
3.193941061006626,0,0,1.2641384765625,0,0,0.53508
3.1953342299966607,0,0,1.2928688964843749,0,0,0.6115200000000001
3.1967204170068726,0,0,1.3814543579101561,0,0,0.30576000000000003
3.198106010997435,0,0,1.4245499877929686,0,0,0.6115200000000001
3.199491717008641,0,0,1.16837041015625,0,0,0.68796
3.2008773289853707,0,0,1.1563994018554686,0,0,0.91728
3.2022628500126302,0,0,1.0989385620117187,0,0,0.99372
3.203709016990615,0,0,1.1659762084960936,0,0,0.6115200000000001
3.2050973899895325,0,0,1.3072341064453123,0,0,1.2230400000000001
3.2064840770035516,0,0,1.5442600708007812,0,0,0.91728
3.2078704299929086,0,0,1.2330138549804688,0,0,0.99372
3.2092573209956754,0,0,1.3814543579101561,0,0,1.1465999999999998
3.210644434002461,0,0,1.177947216796875,0,0,0.53508
3.212030232010875,0,0,1.3263877197265623,0,0,0.45864
3.213417399994796,0,0,1.1635820068359375,0,0,0.53508
3.2148017720028292,0,0,1.1635820068359375,0,0,0.53508
3.2161796260043047,0,0,1.2473790649414063,0,0,0.53508
3.217558091011597,0,0,1.3718775512695311,0,0,0.7644
3.2189432040031534,0,0,1.426944189453125,0,0,0.7644
3.2203305019938853,0,0,1.43652099609375,0,0,0.84084
3.221718040993437,0,0,1.1228805786132812,0,0,0.84084
3.2231047280074563,0,0,1.13006318359375,0,0,0.6115200000000001
3.2244910809968133,0,0,1.1851298217773436,0,0,0.68796
3.2258780830015894,0,0,1.3814543579101561,0,0,1.07016
3.2272648260113783,0,0,1.5131354492187499,0,0,0.84084
3.2286614569893572,0,0,1.3623007446289062,0,0,0.84084
3.2300485330051742,0,0,1.5825672973632812,0,0,1.2230400000000001
3.2314308490022086,0,0,1.1348515869140625,0,0,0.7644
3.232809092005482,0,0,1.216254443359375,0,0,0.91728
3.23418761198991,0,0,1.3431471313476562,0,0,0.45864
3.2355749850103166,0,0,1.2904746948242187,0,0,0.30576000000000003
3.236960985988844,0,0,1.3239935180664062,0,0,0.15288000000000002
3.2383554140105844,0,0,1.5275006591796874,0,0,0.53508
3.2397428789990954,0,0,1.467645617675781,0,0,0.45864
3.241128399007721,0,0,1.3862427612304686,0,0,0.7644
3.2425273080007173,0,0,1.2018892333984375,0,0,0.99372
3.2439158099878114,0,0,1.0917559570312498,0,0,0.7644
3.2453088669863064,0,0,1.16837041015625,0,0,0.91728
3.2466958129953127,0,0,1.35990654296875,0,0,1.2994800000000002
3.2480832409928553,0,0,1.5179238525390624,0,0,0.99372
3.2494867609930225,0,0,1.3144167114257812,0,0,1.1465999999999998
3.2508732069982216,0,0,1.4939818359375,0,0,0.6115200000000001
3.2522518199984916,0,0,1.2497732666015624,0,0,0.7644
3.253630007005995,0,0,1.1851298217773436,0,0,0.68796
3.255015083006583,0,0,1.1324573852539062,0,0,0.45864
3.256401196005754,0,0,1.216254443359375,0,0,0.6115200000000001
3.257786994014168,0,0,1.4006079711914061,0,0,0.07644000000000001
3.2591727919934783,0,0,1.4820108276367188,0,0,0.6115200000000001
3.2605590159946587,0,0,1.5155296508789062,0,0,0.45864
3.261944833007874,0,0,1.4006079711914061,0,0,0.99372
3.263330890011275,0,0,1.1923124267578125,0,0,1.07016
3.264716984995175,0,0,1.1659762084960936,0,0,0.7644
3.2661028009897564,0,0,1.1516109985351561,0,0,0.84084
3.2674887100001797,0,0,1.3431471313476562,0,0,1.2994800000000002
3.2688744899933226,0,0,1.5394716674804687,0,0,0.99372
3.2702598070027307,0,0,1.5298948608398437,0,0,0.99372
3.271645808010362,0,0,1.5083470458984374,0,0,0.91728
3.273031977005303,0,0,1.0821791503906248,0,0,0.84084
3.2744179790024646,0,0,1.158793603515625,0,0,0.53508
3.2758043140056543,0,0,1.13006318359375,0,0,0.68796
3.277190018998226,0,0,1.1348515869140625,0,0,0.7644
3.2785763909923844,0,0,1.3838485595703125,0,0,0.0
3.279961763008032,0,0,1.2306196533203124,0,0,0.45864
3.281347449985333,0,0,1.6160861206054686,0,0,0.91728
3.2827416000072844,0,0,1.2976572998046874,0,0,0.7644
3.284127213002648,0,0,1.2138602416992186,0,0,0.91728
3.285513067006832,0,0,1.218648645019531,0,0,0.84084
3.286899346014252,0,0,1.2138602416992186,0,0,0.30576000000000003
3.2884991969913244,0,0,1.3192051147460937,0,0,1.07016
3.2898801440023817,0,0,1.4867992309570313,0,0,0.99372
3.29127258999506,0,0,1.3192051147460937,0,0,0.91728
3.292655758006731,0,0,1.5083470458984374,0,0,0.68796
3.294035389990313,0,0,1.1061211669921875,0,0,0.84084
3.295416873006616,0,0,1.1420341918945311,0,0,0.68796
3.2967963189876173,0,0,1.1037269653320312,0,0,0.91728
3.298175080999499,0,0,1.139639990234375,0,0,0.6115200000000001
3.2995547679893207,0,0,1.4437036010742186,0,0,0.30576000000000003
3.3009336210088804,0,0,1.3838485595703125,0,0,0.53508
3.302312123007141,0,0,1.2856862915039062,0,0,1.07016
3.3036998469906393,0,0,1.177947216796875,0,0,0.68796
3.305086089996621,0,0,1.2018892333984375,0,0,0.91728
3.306609682011185,0,0,1.2234370483398436,0,0,0.68796
3.30813751599635,0,0,1.1180921752929687,0,0,0.3822
3.309585147013422,0,0,1.4245499877929686,0,0,0.07644000000000001
3.3110264069982804,0,0,1.4149731811523436,0,0,0.7644
3.3124165009940043,0,0,1.5346832641601562,0,0,0.84084
3.313803706987528,0,0,1.448492004394531,0,0,0.6115200000000001
3.3151866529951803,0,0,1.2138602416992186,0,0,1.07016
3.3165653590112925,0,0,1.180341418457031,0,0,0.68796
3.3179435640049633,0,0,1.0223241088867188,0,0,0.68796
3.31933628799743,0,0,1.3455413330078123,0,0,1.1465999999999998
3.3207161230093334,0,0,1.5801730957031248,0,0,0.7644
3.322094792005373,0,0,1.5777788940429687,0,0,0.84084
3.3234916270012036,0,0,1.5083470458984374,0,0,0.99372
3.324879277002765,0,0,1.2114660400390624,0,0,0.84084
3.326284704002319,0,0,1.1923124267578125,0,0,0.91728
3.327672187006101,0,0,1.197100830078125,0,0,0.6115200000000001
3.329059485986363,0,0,1.1827356201171875,0,0,0.53508
3.3304463580134325,0,0,1.3455413330078123,0,0,0.30576000000000003
3.331833692995133,0,0,1.4867992309570313,0,0,0.22932
3.3332202690071426,0,0,1.3670891479492187,0,0,0.84084
3.3346203629917,0,0,1.3096283081054687,0,0,0.91728
3.3359997720108368,0,0,1.209071838378906,0,0,1.1465999999999998
3.3373783669958357,0,0,1.1923124267578125,0,0,0.84084
3.338763553998433,0,0,1.1827356201171875,0,0,0.53508
3.3401500920008402,0,0,1.0726023437499999,0,0,0.84084
3.3415358159982134,0,0,1.37906015625,0,0,0.22932
3.34292252198793,0,0,1.3263877197265623,0,0,1.1465999999999998
3.3443075790128205,0,0,1.4604630126953124,0,0,1.07016
3.34569348799414,0,0,1.0965443603515623,0,0,0.7644
3.34707976799109,0,0,1.1228805786132812,0,0,0.6115200000000001
3.348465621995274,0,0,1.1276689819335937,0,0,0.91728
3.349851659993874,0,0,1.20667763671875,0,0,0.30576000000000003
3.3512376619910356,0,0,1.120486376953125,0,0,0.15288000000000002
3.3526236820034683,0,0,1.4341267944335936,0,0,0.53508
3.3540095550124533,0,0,1.254561669921875,0,0,0.84084
3.355395482009044,0,0,1.2497732666015624,0,0,0.6115200000000001
3.3567813920089975,0,0,1.1420341918945311,0,0,0.91728
3.3581674490123987,0,0,1.177947216796875,0,0,0.6115200000000001
3.359553488000529,0,0,1.2282254516601563,0,0,0.7644
3.3609508039953653,0,0,1.3479355346679687,0,0,1.1465999999999998
3.362338954000734,0,0,1.438915197753906,0,0,0.22932
3.3637267150043044,0,0,1.2521674682617188,0,0,1.07016
3.3651133840030525,0,0,1.4173673828125,0,0,1.1465999999999998
3.366523478005547,0,0,1.0845733520507812,0,0,0.6115200000000001
3.3679119239968713,0,0,1.3359645263671873,0,0,1.07016
3.369298795994837,0,0,1.0702081420898437,0,0,0.53508
3.3706905569997616,0,0,1.197100830078125,0,0,0.6115200000000001
3.3720683369901963,0,0,1.3646949462890625,0,0,0.6115200000000001
3.373446615994908,0,0,1.458068811035156,0,0,0.45864
3.374831950990483,0,0,1.2569558715820313,0,0,0.6115200000000001
3.3762174530129414,0,0,1.637633935546875,0,0,0.7644
3.3776031770103145,0,0,1.197100830078125,0,0,1.07016
3.378989474993432,0,0,1.1180921752929687,0,0,0.84084
3.380374884000048,0,0,1.1827356201171875,0,0,0.68796
3.3817606829979923,0,0,1.2904746948242187,0,0,1.2230400000000001
3.3831467400013935,0,0,1.5155296508789062,0,0,0.53508
3.3845327050075866,0,0,1.2761094848632812,0,0,0.7644
3.3859180950094014,0,0,1.6136919189453125,0,0,1.1465999999999998
3.38729968998814,0,0,1.1180921752929687,0,0,1.07016
3.3886777659936342,0,0,1.2330138549804688,0,0,0.84084
3.3900560270121787,0,0,1.1276689819335937,0,0,0.68796
3.391456435987493,0,0,1.0869675537109373,0,0,0.68796
3.3928431599924807,0,0,1.235408056640625,0,0,0.7644
3.394229625002481,0,0,1.3383587280273437,0,0,0.3822
3.395615812012693,0,0,1.3670891479492187,0,0,0.84084
3.397001776000252,0,0,1.446097802734375,0,0,0.68796
3.3983877779974137,0,0,1.2880804931640624,0,0,0.91728
3.3998287419963162,0,0,1.1420341918945311,0,0,0.6115200000000001
3.4013701679941732,0,0,1.1276689819335937,0,0,0.68796
3.402764872997068,0,0,1.2808978881835937,0,0,1.1465999999999998
3.4041489489900414,0,0,1.3838485595703125,0,0,0.91728
3.405535895988578,0,0,1.2665326782226562,0,0,1.1465999999999998
3.406928175012581,0,0,1.599326708984375,0,0,0.68796
3.4083135100081563,0,0,1.1372457885742187,0,0,0.7644
3.409711549000349,0,0,1.1659762084960936,0,0,0.68796
3.411093864997383,0,0,1.1444283935546875,0,0,0.53508
3.4124725149886217,0,0,1.3096283081054687,0,0,0.45864
3.4138699989998713,0,0,1.3958195678710936,0,0,0.0
3.4152585369884036,0,0,1.2976572998046874,0,0,0.7644
3.4166462610010058,0,0,1.4125789794921875,0,0,0.91728
3.418032855988713,0,0,1.2808978881835937,0,0,0.91728
3.419419709010981,0,0,1.189918225097656,0,0,1.1465999999999998
3.420806451991666,0,0,1.0726023437499999,0,0,0.7644
3.4221937129914295,0,0,1.2234370483398436,0,0,0.6115200000000001
3.423580770002445,0,0,1.2641384765625,0,0,1.37592
3.424975809000898,0,0,1.3838485595703125,0,0,0.91728
3.426363089005463,0,0,1.3862427612304686,0,0,0.84084
3.427743239008123,0,0,1.5370774658203123,0,0,0.7644
3.4291218330035917,0,0,1.1468225952148436,0,0,0.68796
3.430500704998849,0,0,1.1037269653320312,0,0,0.53508
3.4319077619875316,0,0,1.1324573852539062,0,0,0.7644
3.433295357011957,0,0,1.2018892333984375,0,0,0.30576000000000003
3.4346822290099226,0,0,1.3096283081054687,0,0,0.0
3.436067100992659,0,0,1.4867992309570313,0,0,0.84084
3.4374822140089236,0,0,1.5873557006835937,0,0,0.7644
3.4388731599901803,0,0,1.3766659545898436,0,0,0.68796
3.440258865011856,0,0,1.2928688964843749,0,0,1.1465999999999998
3.441645607992541,0,0,1.1563994018554686,0,0,0.84084
3.4430340719991364,0,0,1.209071838378906,0,0,0.68796
3.4444188330089673,0,0,1.3239935180664062,0,0,0.91728
3.4458049650129396,0,0,1.4532804077148436,0,0,0.6115200000000001
3.4471927440026775,0,0,1.4245499877929686,0,0,0.7644
3.448579765012255,0,0,1.5131354492187499,0,0,0.84084
3.44996674801223,0,0,1.1923124267578125,0,0,0.53508
3.4513494159909897,0,0,1.1563994018554686,0,0,0.7644
3.452728306991048,0,0,1.216254443359375,0,0,0.6115200000000001
3.454194585996447,0,0,1.3000515014648437,0,0,0.53508
3.455583958013449,0,0,1.3766659545898436,0,0,0.30576000000000003
3.4569716260011774,0,0,1.438915197753906,0,0,0.68796
3.458373979985481,0,0,1.5610194824218748,0,0,0.53508
3.459763037011726,0,0,1.2306196533203124,0,0,0.68796
3.461149927985389,0,0,1.235408056640625,0,0,0.99372
3.4625375409959815,0,0,1.158793603515625,0,0,0.68796
3.463916504988447,0,0,1.2234370483398436,0,0,0.6115200000000001
3.4652950259915087,0,0,1.3862427612304686,0,0,0.91728
3.4666798610123806,0,0,1.5370774658203123,0,0,0.68796
3.4680670659872703,0,0,1.35990654296875,0,0,0.7644
3.4694542530050967,0,0,1.4939818359375,0,0,0.6115200000000001
3.470842606999213,0,0,1.0845733520507812,0,0,0.91728
3.472228645987343,0,0,1.1276689819335937,0,0,0.91728
3.4736154440033715,0,0,1.0917559570312498,0,0,0.91728
3.475003038009163,0,0,1.1540052001953125,0,0,0.68796
3.476389207004104,0,0,1.455674609375,0,0,0.3822
3.4777817449939903,0,0,1.4413093994140624,0,0,0.45864
3.4791641359915957,0,0,1.5107412475585937,0,0,0.6115200000000001
3.4805421569908503,0,0,1.24498486328125,0,0,0.7644
3.4819202139915433,0,0,1.149216796875,0,0,0.68796
3.4833141599956434,0,0,1.1348515869140625,0,0,0.53508
3.4847006619966123,0,0,1.1659762084960936,0,0,0.6115200000000001
3.4860864040092565,0,0,1.3455413330078123,0,0,1.07016
3.4874722580134403,0,0,1.458068811035156,0,0,0.53508
3.4890173689927906,0,0,1.2497732666015624,0,0,0.6115200000000001
3.490398185997037,0,0,1.3527239379882812,0,0,0.68796
3.4917899100109935,0,0,1.005564697265625,0,0,1.07016
3.493169614986982,0,0,1.209071838378906,0,0,0.68796
3.494550690986216,0,0,1.1516109985351561,0,0,0.6115200000000001
3.4959304519870784,0,0,1.1133037719726562,0,0,0.84084
3.4973138800123706,0,0,1.467645617675781,0,0,0.0
3.4986935860069934,0,0,1.429338391113281,0,0,1.2230400000000001
3.5000727729930077,0,0,1.5107412475585937,0,0,1.45236
3.501462348009227,0,0,1.1348515869140625,0,0,0.84084
3.50284836901119,0,0,1.13006318359375,0,0,0.91728
3.504235036991304,0,0,1.139639990234375,0,0,0.3822
3.505621408985462,0,0,1.1133037719726562,0,0,0.6115200000000001
3.507010319008259,0,0,1.254561669921875,0,0,0.91728
3.508395782992011,0,0,1.47482822265625,0,0,0.68796
3.509781747998204,0,0,1.3407529296874998,0,0,0.6115200000000001
3.511168639000971,0,0,1.2521674682617188,0,0,0.68796
3.51255484399735,0,0,1.1563994018554686,0,0,1.07016
3.5139412349963095,0,0,1.199495031738281,0,0,0.68796
3.5153275330085307,0,0,1.197100830078125,0,0,0.91728
3.5167132380011026,0,0,1.1611878051757811,0,0,0.53508
3.5180995549890213,0,0,1.4245499877929686,0,0,0.45864
3.5194859270122834,0,0,1.3383587280273437,0,0,0.91728
3.520872058987152,0,0,1.659181750488281,0,0,0.91728
3.522258523007622,0,0,1.149216796875,0,0,0.68796
3.52364495099755,0,0,1.2880804931640624,0,0,0.6115200000000001
3.5250735630106647,0,0,1.209071838378906,0,0,0.68796
3.5264629909943324,0,0,1.3168109130859373,0,0,0.53508
3.5278515850077383,0,0,1.3766659545898436,0,0,0.15288000000000002
3.5292381060135085,0,0,1.5035586425781249,0,0,0.53508
3.5306226259854157,0,0,1.2928688964843749,0,0,0.68796
3.5320133870118298,0,0,1.5083470458984374,0,0,0.53508
3.533391778008081,0,0,1.2306196533203124,0,0,1.1465999999999998
3.5347781130112708,0,0,1.149216796875,0,0,0.6115200000000001
3.536164874007227,0,0,1.1563994018554686,0,0,0.84084
3.537550987006398,0,0,1.2689268798828124,0,0,0.6115200000000001
3.5389388219919056,0,0,1.2785036865234374,0,0,0.22932
3.540324898000108,0,0,1.3311761230468748,0,0,0.84084
3.541721935995156,0,0,1.4796166259765624,0,0,0.91728
3.5431091969949193,0,0,1.0175357055664063,0,0,0.7644
3.544495106994873,0,0,1.1923124267578125,0,0,0.84084
3.54588825700921,0,0,1.1276689819335937,0,0,0.68796
3.547274943004595,0,0,1.1851298217773436,0,0,0.84084
3.5486610190127976,0,0,1.3575123413085937,0,0,0.45864
3.5500471139966976,0,0,1.3958195678710936,0,0,0.7644
3.5514334669860546,0,0,1.3527239379882812,0,0,0.84084
3.5528193399950396,0,0,1.5538368774414062,0,0,0.84084
3.554206359985983,0,0,1.2569558715820313,0,0,0.99372
3.555592176009668,0,0,1.1324573852539062,0,0,0.68796
3.556977808009833,0,0,0.9624690673828125,0,0,0.68796
3.5583637910021935,0,0,1.1923124267578125,0,0,0.91728
3.559749884996563,0,0,1.3287819213867187,0,0,0.53508
3.561135572002968,0,0,1.3000515014648437,0,0,0.7644
