Time,AccelX1,AccelY1,AccelZ1,AccelX2,AccelY2,AccelZ2
4.481000360101461e-06,0,0,1.4125789794921875,0,0,1.83456
0.0036573449906427413,0,0,1.13006318359375,0,0,1.37592
0.007259542006067932,0,0,1.2425906616210938,0,0,0.45864
0.010850888007553294,0,0,1.4963760375976562,0,0,0.68796
0.014374587015481666,0,0,1.1707646118164061,0,0,0.0
0.017900063015986234,0,0,1.2306196533203124,0,0,0.53508
0.021405020990641788,0,0,1.3431471313476562,0,0,0.91728
0.024976404005428776,0,0,1.0965443603515623,0,0,0.84084
0.028498417988885194,0,0,1.455674609375,0,0,0.7644
0.032647201005602255,0,0,1.2569558715820313,0,0,0.7644
0.03623428801074624,0,0,1.235408056640625,0,0,0.30576000000000003
0.03975619000266306,0,0,1.5251064575195312,0,0,1.2994800000000002
0.04327287001069635,0,0,1.1156979736328125,0,0,1.5288
0.04678797599626705,0,0,1.3742717529296875,0,0,0.68796
0.05030345299746841,0,0,1.5059528442382812,0,0,0.91728
0.05381811401457526,0,0,0.9744400756835937,0,0,0.99372
0.0573870160151273,0,0,1.3527239379882812,0,0,0.68796
0.06069966100039892,0,0,1.467645617675781,0,0,0.84084
0.06386280900915153,0,0,1.2234370483398436,0,0,1.2994800000000002
0.0669779560121242,0,0,1.3000515014648437,0,0,0.0
0.07009243799257092,0,0,1.3120225097656248,0,0,0.99372
0.07331497300765477,0,0,1.1563994018554686,0,0,1.60524
0.076724117010599,0,0,1.2665326782226562,0,0,0.68796
0.07991483798832633,0,0,1.3862427612304686,0,0,0.91728
0.08303589400020428,0,0,1.3024457031249999,0,0,0.6115200000000001
0.08615570800611749,0,0,1.2785036865234374,0,0,0.68796
0.0892621889943257,0,0,1.5969325073242187,0,0,0.45864
0.0923750410147477,0,0,1.3311761230468748,0,0,0.53508
0.09549378100200556,0,0,1.0893617553710937,0,0,0.91728
0.09861031800392084,0,0,1.5083470458984374,0,0,0.7644
0.10173113300697878,0,0,1.3311761230468748,0,0,1.07016
0.10483607699279673,0,0,1.0797849487304687,0,0,0.91728
0.10794994700700045,0,0,1.3144167114257812,0,0,0.99372
0.11106579899205826,0,0,1.3455413330078123,0,0,0.7644
0.11418033498921432,0,0,1.0199299072265624,0,0,0.07644000000000001
0.11729289099457674,0,0,1.2880804931640624,0,0,0.7644
0.12041298300027847,0,0,1.3096283081054687,0,0,0.68796
0.12352414900669828,0,0,1.149216796875,0,0,1.37592
0.1266391120152548,0,0,1.3742717529296875,0,0,0.84084
0.129751741013024,0,0,1.448492004394531,0,0,1.07016
0.13286398199852556,0,0,1.1851298217773436,0,0,0.68796
0.13605761001235805,0,0,1.3168109130859373,0,0,0.7644
0.13917481401585974,0,0,1.675941162109375,0,0,0.91728
0.14229201700072736,0,0,1.0845733520507812,0,0,0.6115200000000001
0.14539821998914704,0,0,1.120486376953125,0,0,0.45864
0.1485089049965609,0,0,1.426944189453125,0,0,0.45864
0.15162564601632766,0,0,1.3455413330078123,0,0,0.84084
0.1547414230008144,0,0,1.1851298217773436,0,0,0.99372
0.15788962598890066,0,0,1.22583125,0,0,0.84084
0.16099549698992632,0,0,1.3431471313476562,0,0,0.68796
0.16452478800783865,0,0,0.9648632690429687,0,0,0.6115200000000001
0.16764478699769825,0,0,1.3431471313476562,0,0,0.7644
0.17076013900805265,0,0,1.5083470458984374,0,0,0.91728
0.1739070639887359,0,0,1.2210428466796874,0,0,0.15288000000000002
0.17702274900511838,0,0,1.350329736328125,0,0,0.91728
0.18013767499360256,0,0,1.3311761230468748,0,0,0.7644
0.18325860000913963,0,0,1.158793603515625,0,0,1.60524
0.18637919198954478,0,0,1.369483349609375,0,0,0.53508
0.18949334000353701,0,0,1.6543933471679686,0,0,0.91728
0.19265589499264024,0,0,1.1755530151367186,0,0,0.91728
0.1957728209963534,0,0,1.0941501586914062,0,0,0.53508
0.1988863570149988,0,0,1.4939818359375,0,0,0.53508
0.20200087601551786,0,0,1.0630255371093749,0,0,0.7644
0.20511163500486873,0,0,1.1276689819335937,0,0,0.45864
0.20855324101285078,0,0,1.4604630126953124,0,0,0.68796
0.21171590700396337,0,0,1.3215993164062498,0,0,0.53508
0.21502646000590175,0,0,1.209071838378906,0,0,0.6115200000000001
0.21815305200289004,0,0,1.5969325073242187,0,0,0.6115200000000001
0.2212726630095858,0,0,1.197100830078125,0,0,0.84084
0.22439342201687396,0,0,1.0941501586914062,0,0,0.91728
0.22751103300834075,0,0,1.2737152832031249,0,0,0.7644
0.23061362499720417,0,0,1.350329736328125,0,0,0.30576000000000003
0.23705447401152924,0,0,1.4101847778320311,0,0,0.91728
0.2401873620110564,0,0,1.3479355346679687,0,0,1.1465999999999998
0.2433031580003444,0,0,1.1133037719726562,0,0,0.22932
0.24642095400486141,0,0,1.2665326782226562,0,0,0.7644
0.24953762101358734,0,0,1.438915197753906,0,0,0.91728
0.25266102800378576,0,0,1.0103531005859374,0,0,1.1465999999999998
0.2558854340168182,0,0,1.3168109130859373,0,0,0.6115200000000001
0.25902748899534345,0,0,1.4245499877929686,0,0,0.68796
0.2622116169950459,0,0,1.139639990234375,0,0,1.1465999999999998
0.26535743099520914,0,0,1.3479355346679687,0,0,0.53508
0.2684655050106812,0,0,1.3910311645507811,0,0,0.84084
0.2716009489959106,0,0,1.3646949462890625,0,0,0.84084
0.27472954100812785,0,0,1.0917559570312498,0,0,0.7644
0.2778504299931228,0,0,1.5634136840820312,0,0,0.91728
0.2809674660093151,0,0,1.2641384765625,0,0,0.7644
0.2840869289939292,0,0,1.189918225097656,0,0,0.84084
0.2871999840135686,0,0,1.2282254516601563,0,0,0.91728
0.2903192620142363,0,0,1.24498486328125,0,0,0.99372
0.2934344279929064,0,0,1.1420341918945311,0,0,0.30576000000000003
0.29655105699202977,0,0,1.388636962890625,0,0,0.68796
0.299694001005264,0,0,1.3766659545898436,0,0,0.84084
0.30281279698829167,0,0,0.9361328491210937,0,0,0.15288000000000002
0.30592950101708993,0,0,1.3383587280273437,0,0,0.6115200000000001
0.30904457400902174,0,0,1.2737152832031249,0,0,0.68796
0.3121612959948834,0,0,1.1348515869140625,0,0,0.53508
0.31527377699967474,0,0,1.3096283081054687,0,0,0.68796
0.318389035994187,0,0,1.656787548828125,0,0,0.99372
0.3215031099971384,0,0,1.2737152832031249,0,0,0.7644
0.32461824000347406,0,0,1.1037269653320312,0,0,0.3822
0.32775683200452477,0,0,1.4939818359375,0,0,0.99372
0.33087329400586896,0,0,1.149216796875,0,0,0.68796
0.333989089995157,0,0,1.1659762084960936,0,0,0.68796
0.3371043679944705,0,0,1.388636962890625,0,0,0.91728
0.340220053010853,0,0,1.3814543579101561,0,0,0.7644
0.3433330520056188,0,0,1.2042834350585936,0,0,0.30576000000000003
0.3464475150103681,0,0,1.235408056640625,0,0,0.99372
0.3495620329922531,0,0,1.3862427612304686,0,0,0.7644
0.35267890300019644,0,0,1.0582371337890624,0,0,0.68796
0.3558194210054353,0,0,1.3575123413085937,0,0,0.6115200000000001
0.3589716239948757,0,0,1.4030021728515625,0,0,0.6115200000000001
0.36208651299239136,0,0,1.1707646118164061,0,0,1.1465999999999998
0.3652035869890824,0,0,1.139639990234375,0,0,0.6115200000000001
0.3683199569932185,0,0,1.6519991455078125,0,0,0.91728
0.37143153001670726,0,0,1.3024457031249999,0,0,0.6115200000000001
0.3745649369957391,0,0,1.1563994018554686,0,0,0.68796
0.3776790669944603,0,0,1.668758557128906,0,0,0.53508
0.3807933439966291,0,0,1.1444283935546875,0,0,0.7644
0.3839090290130116,0,0,1.0989385620117187,0,0,0.6115200000000001
0.3870364179892931,0,0,1.6831237670898436,0,0,0.53508
0.39015234299586155,0,0,1.5083470458984374,0,0,0.84084
0.393257732008351,0,0,1.1348515869140625,0,0,0.6115200000000001
0.39636897199670784,0,0,1.3646949462890625,0,0,0.84084
0.3994842130050529,0,0,1.4053963745117186,0,0,1.1465999999999998
0.4025981939921621,0,0,1.218648645019531,0,0,0.15288000000000002
0.4057406380015891,0,0,1.419761584472656,0,0,0.53508
0.40885439701378345,0,0,1.2425906616210938,0,0,1.68168
0.41197028500027955,0,0,1.13006318359375,0,0,1.1465999999999998
0.4150828779966105,0,0,1.3120225097656248,0,0,0.53508
0.4181965439929627,0,0,1.5275006591796874,0,0,0.91728
0.42131213599350303,0,0,1.3718775512695311,0,0,0.53508
0.42442789499182254,0,0,1.1947066284179686,0,0,2.14032
0.42753978399559855,0,0,1.4891934326171874,0,0,0.91728
0.43068250600481406,0,0,1.120486376953125,0,0,0.68796
0.43379793100757524,0,0,1.1947066284179686,0,0,0.91728
0.4369123009964824,0,0,1.5586252807617187,0,0,1.07016
0.44002678300603293,0,0,1.3096283081054687,0,0,0.91728
0.4431402079935651,0,0,1.1731588134765625,0,0,1.07016
0.4462543010013178,0,0,1.3575123413085937,0,0,0.91728
0.4493687259964645,0,0,1.2928688964843749,0,0,0.91728
0.45248192999861203,0,0,1.1827356201171875,0,0,0.0
0.45565339201129973,0,0,1.4149731811523436,0,0,0.68796
0.45882426100433804,0,0,1.3623007446289062,0,0,0.99372
0.4619561870058533,0,0,1.2042834350585936,0,0,0.68796
0.4650604269991163,0,0,1.2282254516601563,0,0,0.6115200000000001
0.46815974201308563,0,0,1.455674609375,0,0,1.07016
0.4713066669937689,0,0,1.1109095703125,0,0,1.1465999999999998
0.47457253499305807,0,0,1.3144167114257812,0,0,0.53508
0.4777834409906063,0,0,1.2856862915039062,0,0,0.7644
0.48096344000077806,0,0,1.0845733520507812,0,0,1.37592
0.48461365600815043,0,0,1.3263877197265623,0,0,0.91728
0.48785354298888706,0,0,1.4628572143554686,0,0,1.07016
0.4909603389969561,0,0,1.180341418457031,0,0,0.84084
0.4940861350041814,0,0,1.13006318359375,0,0,0.68796
0.4972029310010839,0,0,1.6232687255859375,0,0,0.7644
0.5003204309905414,0,0,1.2880804931640624,0,0,1.07016
0.5139604150026571,0,0,1.2713210815429687,0,0,0.45864
0.5172388940118253,0,0,1.5682020874023437,0,0,0.7644
0.52037204199587,0,0,1.5227122558593749,0,0,1.07016
0.5234725789923687,0,0,1.2138602416992186,0,0,0.68796
0.5265922640101053,0,0,1.675941162109375,0,0,0.68796
0.5299573900119867,0,0,1.3024457031249999,0,0,0.53508
0.5331129629921634,0,0,1.22583125,0,0,0.53508
0.5362336479884107,0,0,1.2282254516601563,0,0,0.6115200000000001
0.5393482409999706,0,0,1.2425906616210938,0,0,0.84084
0.5424635180097539,0,0,1.120486376953125,0,0,0.53508
0.5455790359992534,0,0,1.39821376953125,0,0,0.99372
0.5486960179987364,0,0,1.2832920898437499,0,0,0.68796
0.5518493129929993,0,0,1.209071838378906,0,0,0.15288000000000002
0.5549599239893723,0,0,1.22583125,0,0,0.6115200000000001
0.5582002930168528,0,0,1.4987702392578124,0,0,0.99372
0.5612395890057087,0,0,1.350329736328125,0,0,0.84084
0.5640600740152877,0,0,1.2641384765625,0,0,0.45864
0.5668541149934754,0,0,1.678335363769531,0,0,0.7644
0.5696511740097776,0,0,1.24498486328125,0,0,0.84084
0.5724513999884948,0,0,1.177947216796875,0,0,0.53508
0.5752470509905834,0,0,1.5083470458984374,0,0,0.84084
0.578043499001069,0,0,1.3359645263671873,0,0,0.84084
0.5808684279909357,0,0,1.1013327636718748,0,0,0.84084
0.5837055789888836,0,0,1.3144167114257812,0,0,0.53508
0.5865715079999063,0,0,1.5538368774414062,0,0,0.7644
0.5894648249959573,0,0,1.2282254516601563,0,0,1.07016
0.5922734950145241,0,0,1.0726023437499999,0,0,0.53508
0.595068999013165,0,0,1.3479355346679687,0,0,0.68796
0.5978941319917794,0,0,1.5179238525390624,0,0,0.91728
0.6006941350060515,0,0,1.1444283935546875,0,0,0.6115200000000001
0.6034926570137031,0,0,1.2617442749023438,0,0,0.30576000000000003
0.6062909940083046,0,0,1.446097802734375,0,0,0.68796
0.609090126992669,0,0,1.2473790649414063,0,0,1.07016
0.6118891859950963,0,0,1.218648645019531,0,0,0.15288000000000002
0.6146865969931241,0,0,1.3335703247070312,0,0,0.53508
0.6175205449981149,0,0,1.5203180541992187,0,0,0.99372
0.6203219180169981,0,0,1.0941501586914062,0,0,0.53508
0.6231184040079825,0,0,0.9265560424804687,0,0,-9.172799999999999
0.6259075179987121,0,0,1.5298948608398437,0,0,0.53508
0.6287042440089863,0,0,1.2952630981445312,0,0,1.1465999999999998
0.6314998400048353,0,0,1.1420341918945311,0,0,0.15288000000000002
0.6342957330052741,0,0,1.2713210815429687,0,0,0.45864
0.6370927180105355,0,0,1.678335363769531,0,0,1.07016
0.6398921280051582,0,0,1.1468225952148436,0,0,0.6115200000000001
0.6427478720142972,0,0,1.3096283081054687,0,0,0.68796
0.6455534310080111,0,0,1.388636962890625,0,0,0.7644
0.6483526010124478,0,0,1.2832920898437499,0,0,0.91728
0.6511499379994348,0,0,1.1180921752929687,0,0,0.68796
0.6539420709887054,0,0,1.3359645263671873,0,0,0.6115200000000001
0.6568486850010231,0,0,1.5298948608398437,0,0,1.07016
0.6599168140091933,0,0,1.1851298217773436,0,0,0.45864
0.6629611480166204,0,0,1.1827356201171875,0,0,0.22932
0.666082648007432,0,0,1.678335363769531,0,0,0.84084
0.6692222029960249,0,0,1.3215993164062498,0,0,0.7644
0.6723419619956985,0,0,1.1037269653320312,0,0,0.6115200000000001
0.6754596279934049,0,0,1.5011644409179687,0,0,0.68796
0.678577832004521,0,0,1.2330138549804688,0,0,0.7644
0.6816996830166318,0,0,1.1707646118164061,0,0,0.91728
0.684817330999067,0,0,1.448492004394531,0,0,0.99372
0.6879366080102045,0,0,1.2808978881835937,0,0,1.2994800000000002
0.6910517560027074,0,0,1.1156979736328125,0,0,0.22932
0.694169922004221,0,0,1.2761094848632812,0,0,0.68796
0.697298718005186,0,0,1.2904746948242187,0,0,0.7644
0.7004180510120932,0,0,1.1324573852539062,0,0,1.1465999999999998
0.7035318099951837,0,0,1.350329736328125,0,0,0.53508
0.7066836430167314,0,0,1.4915876342773438,0,0,0.99372
0.7098008090106305,0,0,1.16837041015625,0,0,0.68796
0.7129238090128638,0,0,1.1252747802734375,0,0,0.68796
0.7160543270001654,0,0,1.4796166259765624,0,0,0.99372
0.7191714929940645,0,0,1.1085153686523437,0,0,0.84084
0.7223004930128809,0,0,1.2785036865234374,0,0,0.6115200000000001
0.7254209370003082,0,0,1.6448165405273436,0,0,0.30576000000000003
0.7285404370049946,0,0,1.369483349609375,0,0,0.6115200000000001
0.7316574180149473,0,0,1.1947066284179686,0,0,0.68796
0.734785473003285,0,0,1.2497732666015624,0,0,0.99372
0.7382484129921068,0,0,1.2952630981445312,0,0,0.91728
0.7413819119974505,0,0,1.0941501586914062,0,0,0.91728
0.7445028749934863,0,0,1.3910311645507811,0,0,0.91728
0.7476228190062102,0,0,1.4724340209960938,0,0,0.6115200000000001
0.7507266149914358,0,0,1.1563994018554686,0,0,0.07644000000000001
0.7538476150075439,0,0,1.3048399047851562,0,0,0.6115200000000001
0.7569633919920307,0,0,1.5035586425781249,0,0,0.91728
0.7601879650028422,0,0,1.1635820068359375,0,0,1.45236
0.7631056339887436,0,0,1.3144167114257812,0,0,0.45864
0.7658919889945537,0,0,1.678335363769531,0,0,0.99372
0.7687928430095781,0,0,1.350329736328125,0,0,0.68796
0.7715915690059774,0,0,1.1109095703125,0,0,0.84084
0.774388017016463,0,0,1.3862427612304686,0,0,1.07016
0.7771942609979305,0,0,1.3646949462890625,0,0,0.7644
0.7799928020103835,0,0,1.1037269653320312,0,0,1.2994800000000002
0.7828265640127938,0,0,1.1276689819335937,0,0,0.53508
0.785738306993153,0,0,1.5825672973632812,0,0,0.7644
0.7885428100125864,0,0,1.3048399047851562,0,0,0.7644
0.7913401469995733,0,0,1.0773907470703123,0,0,0.7644
0.7948291049979161,0,0,1.3838485595703125,0,0,0.68796
0.7976502010133117,0,0,1.3646949462890625,0,0,1.1465999999999998
0.800446926994482,0,0,1.1516109985351561,0,0,0.15288000000000002
0.8032458930101711,0,0,1.2856862915039062,0,0,0.7644
0.8060436189989559,0,0,1.5490484741210937,0,0,0.84084
0.8088406599999871,0,0,1.2976572998046874,0,0,0.99372
0.8116358300030697,0,0,1.1563994018554686,0,0,1.07016
0.8144370740046725,0,0,1.37906015625,0,0,0.84084
0.8172342810139526,0,0,1.4341267944335936,0,0,0.84084
0.8200341179908719,0,0,1.0917559570312498,0,0,1.5288
0.8228289550170302,0,0,1.218648645019531,0,0,0.53508
0.8256256250024308,0,0,1.4006079711914061,0,0,1.1465999999999998
0.8284239619970322,0,0,1.209071838378906,0,0,0.84084
0.8312181690125726,0,0,1.0726023437499999,0,0,1.1465999999999998
0.8340138210041914,0,0,1.5251064575195312,0,0,0.84084
0.8368097690108698,0,0,1.3287819213867187,0,0,0.84084
0.8396069580048788,0,0,1.189918225097656,0,0,1.2230400000000001
0.8424026090069674,0,0,1.2330138549804688,0,0,0.84084
0.8452017050003633,0,0,1.6352397338867186,0,0,0.68796
0.8479974130168557,0,0,1.216254443359375,0,0,0.84084
0.8507913610083051,0,0,1.1324573852539062,0,0,0.30576000000000003
0.8535880859999452,0,0,1.3024457031249999,0,0,0.91728
0.856396830000449,0,0,1.4724340209960938,0,0,0.7644
0.8591992779984139,0,0,1.1611878051757811,0,0,1.45236
0.8622442790074274,0,0,1.3479355346679687,0,0,0.53508
0.8653691670042463,0,0,1.407790576171875,0,0,0.99372
0.868483666999964,0,0,1.158793603515625,0,0,0.84084
0.8715963890135754,0,0,1.3383587280273437,0,0,0.6115200000000001
0.8747107410163153,0,0,1.407790576171875,0,0,0.53508
0.8778256479999982,0,0,1.3407529296874998,0,0,0.53508
0.8809397770091891,0,0,1.1276689819335937,0,0,0.84084
0.8840548880107235,0,0,1.5179238525390624,0,0,0.68796
0.8871677950082812,0,0,1.3383587280273437,0,0,0.91728
0.8902817759953905,0,0,1.1851298217773436,0,0,0.6115200000000001
0.8933950350037776,0,0,1.4820108276367188,0,0,0.53508
0.8965076460153796,0,0,1.2808978881835937,0,0,1.07016
0.8996226270101033,0,0,1.1755530151367186,0,0,-0.15288000000000002
0.9027374419965781,0,0,1.3120225097656248,0,0,0.6115200000000001
0.9058521449915133,0,0,1.5658078857421873,0,0,0.53508
0.9089645339990966,0,0,1.1085153686523437,0,0,1.1465999999999998
0.9120787930150982,0,0,1.180341418457031,0,0,0.7644
0.9151912000088487,0,0,1.43652099609375,0,0,0.68796
0.9183047370170243,0,0,1.0821791503906248,0,0,-9.24924
0.9214187549951021,0,0,1.0965443603515623,0,0,0.68796
0.9245332179998513,0,0,1.6136919189453125,0,0,0.7644
0.9276449400058482,0,0,1.2401964599609374,0,0,0.7644
0.9307534580002539,0,0,1.1875240234375,0,0,0.53508
0.9350144249910954,0,0,1.438915197753906,0,0,0.99372
0.9381396099925041,0,0,1.1252747802734375,0,0,0.45864
0.9412491660041269,0,0,1.1276689819335937,0,0,0.53508
0.9443661470140796,0,0,1.6304513305664061,0,0,0.7644
0.9474821280164178,0,0,1.2880804931640624,0,0,0.91728
0.950598813011311,0,0,1.1180921752929687,0,0,0.84084
0.9537455709942151,0,0,1.3000515014648437,0,0,0.68796
0.9568635710165836,0,0,1.2593500732421874,0,0,0.84084
0.9600186260067858,0,0,1.1923124267578125,0,0,0.84084
0.9631327370007057,0,0,1.2976572998046874,0,0,1.07016
0.9662475509976503,0,0,1.2952630981445312,0,0,0.91728
0.9693666620005388,0,0,1.1540052001953125,0,0,0.0
0.9724816250090953,0,0,1.2497732666015624,0,0,0.7644
0.9755954949941952,0,0,1.5275006591796874,0,0,0.84084
0.9787091980106197,0,0,1.1109095703125,0,0,1.2230400000000001
0.981824215996312,0,0,1.2928688964843749,0,0,0.84084
0.9849756420007907,0,0,1.3766659545898436,0,0,0.7644
0.9881696960073896,0,0,1.3144167114257812,0,0,1.1465999999999998
0.9913550280034542,0,0,1.3407529296874998,0,0,0.6115200000000001
0.9944729169947095,0,0,1.5873557006835937,0,0,0.45864
0.9975923419988248,0,0,1.2976572998046874,0,0,0.7644
1.0041653930093162,0,0,1.6807295654296874,0,0,0.68796
1.0074629090086091,0,0,1.350329736328125,0,0,0.91728
1.0107213520095684,0,0,1.218648645019531,0,0,0.68796
1.0139453870069701,0,0,1.5801730957031248,0,0,0.91728
1.017215144005604,0,0,1.2832920898437499,0,0,0.7644
1.020457456994336,0,0,1.120486376953125,0,0,0.53508
1.0237531769962516,0,0,1.5298948608398437,0,0,0.53508
1.0269242500071414,0,0,1.1061211669921875,0,0,0.68796
1.030121137999231,0,0,1.139639990234375,0,0,0.7644
1.0333001920080278,0,0,1.4317325927734375,0,0,0.91728
1.0364943210151978,0,0,1.350329736328125,0,0,0.7644
1.0396401160105597,0,0,1.1611878051757811,0,0,0.7644
1.0427851529966574,0,0,1.465251416015625,0,0,0.99372
1.0459217079915106,0,0,1.3623007446289062,0,0,0.91728
1.0490667069971096,0,0,1.1923124267578125,0,0,0.0
1.0522021139913704,0,0,1.2713210815429687,0,0,0.68796
1.0553723910124972,0,0,1.4149731811523436,0,0,0.84084
1.058542574988678,0,0,1.1180921752929687,0,0,0.6115200000000001
1.061692593008047,0,0,1.3742717529296875,0,0,0.15288000000000002
1.0638932890142314,0,0,1.649604943847656,0,0,0.7644
1.0660745399945881,0,0,1.350329736328125,0,0,0.7644
1.0682648660149425,0,0,1.0821791503906248,0,0,0.7644
1.0704767100105528,0,0,1.1252747802734375,0,0,0.84084
1.0727205160073936,0,0,1.484405029296875,0,0,0.68796
1.0749639520072378,0,0,1.369483349609375,0,0,0.91728
1.0772409249912016,0,0,1.2856862915039062,0,0,0.84084
1.0794780460128095,0,0,1.16837041015625,0,0,0.84084
1.0822557909996249,0,0,1.2904746948242187,0,0,0.53508
1.0845107820059638,0,0,1.4891934326171874,0,0,0.6115200000000001
1.086698922998039,0,0,1.2785036865234374,0,0,1.07016
1.0889169150032103,0,0,1.1372457885742187,0,0,0.91728
1.0911139250092674,0,0,1.3335703247070312,0,0,0.68796
1.0933638800051995,0,0,1.419761584472656,0,0,0.84084
1.0956326120067388,0,0,1.369483349609375,0,0,0.68796
1.0978979179926682,0,0,1.2018892333984375,0,0,-8.867040000000001
1.1001196140132379,0,0,0.9265560424804687,0,0,0.6115200000000001
1.1023434390081093,0,0,1.2401964599609374,0,0,0.6115200000000001
1.1046229859930463,0,0,1.3407529296874998,0,0,0.91728
1.1067907749966253,0,0,1.216254443359375,0,0,1.07016
1.1089312300027814,0,0,1.0845733520507812,0,0,1.2230400000000001
1.1110637419915292,0,0,1.24498486328125,0,0,0.3822
1.1131979569909163,0,0,1.5155296508789062,0,0,0.7644
1.115329524007393,0,0,1.4987702392578124,0,0,0.91728
1.1174627580039669,0,0,1.1085153686523437,0,0,0.68796
1.1195938989985734,0,0,1.1516109985351561,0,0,0.0
1.1217273919901345,0,0,1.4006079711914061,0,0,0.7644
1.1238638290087692,0,0,1.4532804077148436,0,0,0.7644
1.1259956189896911,0,0,1.4413093994140624,0,0,0.6115200000000001
1.1281287969904952,0,0,1.2042834350585936,0,0,-9.40212
1.130262363993097,0,0,1.149216796875,0,0,1.2230400000000001
1.1324026710062753,0,0,1.2976572998046874,0,0,0.45864
1.1345332199998666,0,0,1.4939818359375,0,0,0.7644
1.136664120014757,0,0,1.1180921752929687,0,0,0.84084
1.1387946130125783,0,0,1.197100830078125,0,0,1.1465999999999998
1.1409396060043946,0,0,1.3024457031249999,0,0,0.68796
1.1430825619900133,0,0,1.5275006591796874,0,0,0.91728
1.145225832995493,0,0,1.2928688964843749,0,0,1.07016
1.1473805849964265,0,0,1.1659762084960936,0,0,0.6115200000000001
1.149524576991098,0,0,1.2521674682617188,0,0,0.0
1.151668533013435,0,0,1.3910311645507811,0,0,0.7644
1.153811674012104,0,0,1.4772224243164063,0,0,0.68796
1.1559547779907007,0,0,1.2785036865234374,0,0,0.91728
1.1580976780096535,0,0,1.1635820068359375,0,0,0.99372
1.160271892993478,0,0,1.189918225097656,0,0,0.91728
1.1626433650089893,0,0,1.448492004394531,0,0,0.84084
1.1654469240165781,0,0,1.3623007446289062,0,0,1.07016
1.1682455200061668,0,0,1.149216796875,0,0,0.7644
1.1710401710006408,0,0,1.2904746948242187,0,0,0.3822
1.1738381560135167,0,0,1.5083470458984374,0,0,1.1465999999999998
1.1766735299897846,0,0,1.1324573852539062,0,0,0.84084
1.179469477996463,0,0,1.1372457885742187,0,0,0.91728
1.182265481009381,0,0,1.2306196533203124,0,0,1.1465999999999998
1.1850621149933431,0,0,1.3718775512695311,0,0,0.84084
1.1878587660030462,0,0,0.9792284790039062,0,0,1.68168
1.1906529359985143,0,0,1.3263877197265623,0,0,0.68796
1.1934496439935174,0,0,1.5035586425781249,0,0,0.99372
1.1962451839935966,0,0,1.350329736328125,0,0,0.7644
1.1990402250085026,0,0,1.2018892333984375,0,0,0.84084
1.2018353579915129,0,0,1.4006079711914061,0,0,0.84084
1.2046572870167438,0,0,1.3215993164062498,0,0,0.68796
1.2074530679965392,0,0,1.216254443359375,0,0,0.99372
1.2102512939891312,0,0,1.2473790649414063,0,0,0.91728
1.2130508529953659,0,0,1.6017209106445311,0,0,0.6115200000000001
1.2158473750168923,0,0,1.3670891479492187,0,0,0.7644
1.2186417680059094,0,0,1.1133037719726562,0,0,9.555
1.2214375490148086,0,0,1.39821376953125,0,0,0.7644
1.224233885994181,0,0,1.649604943847656,0,0,0.91728
1.2270295380149037,0,0,1.0893617553710937,0,0,0.45864
1.229826282011345,0,0,1.139639990234375,0,0,0.45864
1.232625378004741,0,0,1.467645617675781,0,0,0.6115200000000001
1.2354224369919393,0,0,1.2928688964843749,0,0,0.6115200000000001
1.2382883839891292,0,0,1.197100830078125,0,0,0.07644000000000001
1.2411227760021575,0,0,1.3048399047851562,0,0,0.68796
1.2439214650075883,0,0,1.4867992309570313,0,0,0.91728
1.2467165419948287,0,0,1.1133037719726562,0,0,0.7644
1.249512545997277,0,0,1.3742717529296875,0,0,0.84084
1.252306715992745,0,0,1.4341267944335936,0,0,0.91728
1.2550994979974348,0,0,1.2665326782226562,0,0,0.84084
1.2581468500138726,0,0,1.1875240234375,0,0,0.0
1.2610538520093542,0,0,1.2378022583007813,0,0,0.84084
1.2639094850164838,0,0,1.6041151123046875,0,0,0.91728
1.267006725014653,0,0,1.120486376953125,0,0,1.07016
1.27010711398907,0,0,1.180341418457031,0,0,0.6115200000000001
1.2732055769884028,0,0,1.458068811035156,0,0,0.68796
1.2763033359951805,0,0,1.199495031738281,0,0,0.6115200000000001
1.27939922499354,0,0,1.2042834350585936,0,0,0.84084
1.2825170019932557,0,0,1.6160861206054686,0,0,0.6115200000000001
1.285634186991956,0,0,1.2737152832031249,0,0,0.84084
1.2887519279902335,0,0,1.1420341918945311,0,0,0.7644
1.291867946012644,0,0,1.5131354492187499,0,0,0.68796
1.2949788160040043,0,0,1.2976572998046874,0,0,0.99372
1.2980929820041638,0,0,1.1037269653320312,0,0,0.45864
1.3012078900064807,0,0,1.4628572143554686,0,0,1.07016
1.304322834010236,0,0,1.2569558715820313,0,0,0.84084
1.3074349449889269,0,0,0.9911994873046874,0,0,0.6115200000000001
1.3113786749891005,0,0,1.419761584472656,0,0,0.91728
1.3144964709936175,0,0,1.3407529296874998,0,0,0.91728
1.3176130450156052,0,0,1.158793603515625,0,0,0.0
1.3207294330059085,0,0,1.3407529296874998,0,0,0.53508
1.323843191988999,0,0,1.5227122558593749,0,0,0.84084
1.3269558220054023,0,0,1.1420341918945311,0,0,1.45236
1.3300694700155873,0,0,1.3215993164062498,0,0,0.45864
1.3331844689964782,0,0,1.4341267944335936,0,0,1.07016
1.3363018769887276,0,0,1.0893617553710937,0,0,0.68796
1.3394141730095726,0,0,1.3575123413085937,0,0,0.45864
1.3425278390059248,0,0,1.5658078857421873,0,0,1.07016
1.3456413020030595,0,0,1.2617442749023438,0,0,0.3822
1.3488465409900527,0,0,1.197100830078125,0,0,0.6115200000000001
1.351963799999794,0,0,1.5203180541992187,0,0,0.6115200000000001
1.3550783370155841,0,0,1.4149731811523436,0,0,0.68796
1.3581954659894109,0,0,1.0989385620117187,0,0,0.91728
1.3613403539930005,0,0,1.446097802734375,0,0,0.99372
1.3644594280049205,0,0,1.2761094848632812,0,0,1.07016
1.3675967789895367,0,0,1.1755530151367186,0,0,0.15288000000000002
1.370713871991029,0,0,1.2617442749023438,0,0,0.84084
1.3738286120060366,0,0,1.3048399047851562,0,0,1.1465999999999998
1.3769427039951552,0,0,1.0845733520507812,0,0,-8.7906
1.3800614630163182,0,0,1.2330138549804688,0,0,0.7644
1.3832732400042005,0,0,1.3311761230468748,0,0,0.99372
1.3863989980018232,0,0,1.0917559570312498,0,0,1.1465999999999998
1.3895191280171275,0,0,1.3646949462890625,0,0,0.30576000000000003
1.3926390900160186,0,0,1.5921441040039062,0,0,1.2994800000000002
1.3957574050000403,0,0,1.2689268798828124,0,0,0.91728
1.3988741640059743,0,0,1.1324573852539062,0,0,0.45864
1.4019926080072764,0,0,1.458068811035156,0,0,0.99372
1.405108125996776,0,0,1.2617442749023438,0,0,0.7644
1.4082249960047193,0,0,1.1420341918945311,0,0,2.06388
1.4113386259996332,0,0,1.5179238525390624,0,0,0.99372
1.4144531069905497,0,0,1.3646949462890625,0,0,0.7644
1.417567107011564,0,0,1.005564697265625,0,0,0.45864
1.420679958013352,0,0,1.2497732666015624,0,0,0.91728
1.4238685500167776,0,0,1.455674609375,0,0,1.1465999999999998
1.4269886229885742,0,0,1.139639990234375,0,0,-9.631440000000001
1.4301082160091028,0,0,1.3431471313476562,0,0,0.45864
1.43322706699837,0,0,1.2761094848632812,0,0,0.68796
1.4363460300082806,0,0,1.216254443359375,0,0,1.37592
1.4394624000124168,0,0,1.2306196533203124,0,0,0.68796
1.4425633630016819,0,0,1.4724340209960938,0,0,1.1465999999999998
1.4456782700144686,0,0,1.350329736328125,0,0,0.7644
1.448782936000498,0,0,1.1947066284179686,0,0,0.6115200000000001
1.4518965099996421,0,0,1.5801730957031248,0,0,-9.01992
1.4550134360033553,0,0,1.158793603515625,0,0,0.7644
1.4581677679962013,0,0,1.1180921752929687,0,0,0.7644
1.461316656001145,0,0,1.3862427612304686,0,0,0.84084
1.4644681740028318,0,0,1.1875240234375,0,0,0.84084
1.4675875440007076,0,0,1.0749965454101562,0,0,1.2994800000000002
1.4706841180159245,0,0,1.22583125,0,0,0.84084
1.4747693660028744,0,0,1.35990654296875,0,0,0.6115200000000001
1.4780292340146843,0,0,1.16837041015625,0,0,0.91728
1.481317305995617,0,0,1.4796166259765624,0,0,0.45864
1.4844427130010445,0,0,1.254561669921875,0,0,1.1465999999999998
1.4889524180034641,0,0,1.3551181396484375,0,0,1.37592
1.4921143609972205,0,0,1.5035586425781249,0,0,0.84084
1.495220787008293,0,0,1.1420341918945311,0,0,0.68796
1.4983468980062753,0,0,1.1540052001953125,0,0,0.6115200000000001
1.5014731569972355,0,0,1.6232687255859375,0,0,0.45864
1.5045921010023449,0,0,1.2737152832031249,0,0,0.7644
1.5077162490051705,0,0,1.1252747802734375,0,0,0.84084
1.510832489002496,0,0,1.419761584472656,0,0,0.84084
1.513947580999229,0,0,1.3407529296874998,0,0,1.07016
1.5170631550136022,0,0,1.1540052001953125,0,0,0.6115200000000001
1.5201825810072478,0,0,1.2617442749023438,0,0,0.99372
1.5232958580018021,0,0,1.3144167114257812,0,0,0.99372
1.5264118949999101,0,0,1.0797849487304687,0,0,0.0
1.5295270240167156,0,0,1.3000515014648437,0,0,0.3822
1.53264483899693,0,0,1.5275006591796874,0,0,0.7644
1.5357601899886504,0,0,1.1444283935546875,0,0,1.1465999999999998
1.538874209014466,0,0,1.2952630981445312,0,0,0.6115200000000001
1.541989782010205,0,0,1.5083470458984374,0,0,1.07016
1.5451037450111471,0,0,1.2018892333984375,0,0,0.7644
1.5482187629968394,0,0,1.189918225097656,0,0,0.45864
1.551332633011043,0,0,1.5227122558593749,0,0,0.84084
1.5544440039957408,0,0,1.24498486328125,0,0,0.6115200000000001
1.5575936140085105,0,0,1.2042834350585936,0,0,0.7644
1.5607132250152063,0,0,1.3455413330078123,0,0,0.68796
1.5639370559947565,0,0,1.3383587280273437,0,0,0.6115200000000001
1.5668849470093846,0,0,1.177947216796875,0,0,0.15288000000000002
1.5696835620037746,0,0,1.3383587280273437,0,0,0.6115200000000001
1.572482306015445,0,0,1.455674609375,0,0,0.99372
1.5752766059886198,0,0,1.1324573852539062,0,0,0.6115200000000001
1.5780737200111616,0,0,1.235408056640625,0,0,0.84084
1.5808842609985732,0,0,1.5298948608398437,0,0,0.91728
1.5837124490062706,0,0,1.235408056640625,0,0,0.84084
1.5865099160000682,0,0,1.1540052001953125,0,0,0.3822
1.589307660004124,0,0,1.3646949462890625,0,0,0.53508
1.592105960007757,0,0,1.4915876342773438,0,0,0.91728
1.5949006479931995,0,0,1.1611878051757811,0,0,0.6115200000000001
1.59769779999624,0,0,1.2904746948242187,0,0,0.99372
1.6004955999960657,0,0,1.3862427612304686,0,0,0.99372
1.6032914739917032,0,0,1.254561669921875,0,0,1.07016
1.6061091250157915,0,0,1.1947066284179686,0,0,0.45864
1.6089567210001405,0,0,1.3670891479492187,0,0,0.84084
1.6117629279906396,0,0,1.438915197753906,0,0,0.99372
1.614561986993067,0,0,1.2904746948242187,0,0,0.7644
1.6173633240105119,0,0,1.1851298217773436,0,0,0.99372
1.6201599570049439,0,0,1.37906015625,0,0,0.91728
1.622956683015218,0,0,1.2138602416992186,0,0,0.7644
1.6257595749921165,0,0,1.1061211669921875,0,0,1.37592
1.628556801006198,0,0,1.2042834350585936,0,0,0.53508
1.631352155993227,0,0,1.5131354492187499,0,0,0.91728
1.6341489930055104,0,0,1.3527239379882812,0,0,0.68796
1.6369472370133735,0,0,1.1109095703125,0,0,1.07016
1.6397453699901234,0,0,1.43652099609375,0,0,0.7644
1.6425415959965903,0,0,1.3311761230468748,0,0,0.99372
1.6453389890084509,0,0,1.1252747802734375,0,0,1.1465999999999998
1.648157103016274,0,0,1.3623007446289062,0,0,0.68796
1.6509568839974236,0,0,1.6735469604492186,0,0,0.7644
1.6537492770003155,0,0,1.2497732666015624,0,0,0.6115200000000001
1.65658226099913,0,0,1.0726023437499999,0,0,0.6115200000000001
1.6598143340088427,0,0,1.438915197753906,0,0,0.7644
1.6626680030021816,0,0,1.3862427612304686,0,0,0.68796
1.6655881350161508,0,0,1.1180921752929687,0,0,0.84084
1.6686436540039722,0,0,1.3120225097656248,0,0,0.3822
1.6717456910118926,0,0,1.4772224243164063,0,0,0.91728
1.674843560991576,0,0,1.0199299072265624,0,0,1.1465999999999998
1.677943190006772,0,0,1.350329736328125,0,0,0.45864
1.6810416530061048,0,0,1.4867992309570313,0,0,1.1465999999999998
1.6844526499917265,0,0,1.2378022583007813,0,0,0.68796
1.6875698899966665,0,0,1.0845733520507812,0,0,0.53508
1.690667704999214,0,0,1.5011644409179687,0,0,0.84084
1.6937865010113455,0,0,1.2808978881835937,0,0,0.84084
1.696902408002643,0,0,1.1635820068359375,0,0,0.91728
1.7000221110065468,0,0,1.446097802734375,0,0,0.68796
1.7031742400140502,0,0,1.446097802734375,0,0,0.68796
1.7062887029896956,0,0,1.3407529296874998,0,0,0.6115200000000001
1.7094038510113023,0,0,1.2761094848632812,0,0,1.07016
1.712518665008247,0,0,1.3311761230468748,0,0,0.91728
1.715633423998952,0,0,1.149216796875,0,0,0.22932
1.7187472569930833,0,0,1.2521674682617188,0,0,0.6115200000000001
1.7218609979900066,0,0,1.4700398193359374,0,0,0.91728
1.7249747200112324,0,0,1.1516109985351561,0,0,1.45236
1.7280916820163839,0,0,1.3287819213867187,0,0,0.6115200000000001
1.731204219016945,0,0,1.6160861206054686,0,0,1.2230400000000001
1.7343179589952342,0,0,1.1109095703125,0,0,0.3822
1.7374417550163344,0,0,1.0749965454101562,0,0,0.53508
1.7409881390049122,0,0,1.5490484741210937,0,0,0.99372
1.744121546013048,0,0,1.2234370483398436,0,0,0.45864
1.7472334339981899,0,0,1.1516109985351561,0,0,0.6115200000000001
1.7503508600057103,0,0,1.37906015625,0,0,0.7644
1.7534983220102731,0,0,1.177947216796875,0,0,0.7644
1.756619358988246,0,0,1.1875240234375,0,0,0.7644
1.759741710004164,0,0,1.5466542724609373,0,0,0.84084
1.762894284009235,0,0,1.2808978881835937,0,0,0.91728
1.7660533759917598,0,0,1.0821791503906248,0,0,0.91728
1.7691598199889995,0,0,1.3168109130859373,0,0,0.91728
1.7722782450146042,0,0,1.37906015625,0,0,1.07016
1.7753964299918152,0,0,1.16837041015625,0,0,-0.84084
1.7785160779894795,0,0,1.2521674682617188,0,0,0.6115200000000001
1.7816315590171143,0,0,1.24498486328125,0,0,0.91728
1.7851178139972035,0,0,1.218648645019531,0,0,0.30576000000000003
1.7882567390042823,0,0,1.2569558715820313,0,0,0.53508
1.7914059610047843,0,0,1.3646949462890625,0,0,0.91728
1.794523812015541,0,0,1.209071838378906,0,0,1.60524
1.7976406819943804,0,0,1.426944189453125,0,0,0.68796
1.800787089014193,0,0,1.4915876342773438,0,0,0.99372
1.8044121199927758,0,0,1.189918225097656,0,0,0.91728
1.8075366190169007,0,0,1.35990654296875,0,0,0.30576000000000003
1.8107002670003567,0,0,1.5322890624999999,0,0,1.07016
1.8138433959975373,0,0,1.1276689819335937,0,0,0.45864
1.8169504319957923,0,0,1.1324573852539062,0,0,0.53508
1.8200627280166373,0,0,1.4724340209960938,0,0,0.99372
1.8231784870149568,0,0,1.3239935180664062,0,0,0.84084
1.8262931350036524,0,0,0.9792284790039062,0,0,1.07016
1.8294071720156353,0,0,1.4532804077148436,0,0,0.53508
1.832522226992296,0,0,1.3551181396484375,0,0,0.84084
1.8356380420154892,0,0,1.20667763671875,0,0,0.15288000000000002
1.8387534669891465,0,0,1.35990654296875,0,0,1.07016
1.8418678560119588,0,0,1.455674609375,0,0,0.84084
1.8449817080108915,0,0,1.1444283935546875,0,0,0.6115200000000001
1.848097559006419,0,0,1.3479355346679687,0,0,0.6115200000000001
1.8512094290053938,0,0,1.5203180541992187,0,0,0.91728
1.8543229660135694,0,0,1.1372457885742187,0,0,1.60524
1.8574516880034935,0,0,1.35990654296875,0,0,0.53508
1.8605702060158364,0,0,1.4724340209960938,0,0,0.68796
1.8637494829890784,0,0,1.189918225097656,0,0,0.68796
1.8669019080116414,0,0,1.1611878051757811,0,0,0.7644
1.870020147995092,0,0,1.467645617675781,0,0,0.6115200000000001
1.8731367040018085,0,0,1.3670891479492187,0,0,0.68796
1.8762509440130088,0,0,1.1659762084960936,0,0,0.99372
1.8793654440087266,0,0,1.6807295654296874,0,0,0.91728
1.8824812399980146,0,0,1.467645617675781,0,0,1.1465999999999998
1.8855955910112243,0,0,1.0917559570312498,0,0,0.3822
1.8887101839936804,0,0,1.2569558715820313,0,0,0.99372
1.8918528130161576,0,0,1.4963760375976562,0,0,2.2167600000000003
1.8949662199884187,0,0,1.3575123413085937,0,0,-9.707880000000001
1.8980850529915188,0,0,1.3311761230468748,0,0,0.7644
1.9012021269882098,0,0,1.2641384765625,0,0,0.99372
1.9043167000054382,0,0,1.1468225952148436,0,0,1.45236
1.9074282369983848,0,0,1.2737152832031249,0,0,0.7644
1.9105420150153805,0,0,1.4796166259765624,0,0,0.84084
1.9136551629926544,0,0,1.149216796875,0,0,0.53508
1.9167959770129528,0,0,1.1372457885742187,0,0,0.84084
1.919912031997228,0,0,1.6017209106445311,0,0,0.99372
1.9230240129982121,0,0,1.3335703247070312,0,0,0.84084
1.926137569011189,0,0,1.218648645019531,0,0,0.45864
1.9292514940025285,0,0,1.3862427612304686,0,0,0.99372
1.9336986260022968,0,0,1.2234370483398436,0,0,1.2230400000000001
1.9368780700024217,0,0,1.3000515014648437,0,0,0.68796
1.939999254012946,0,0,1.446097802734375,0,0,0.84084
1.9431168650044128,0,0,1.13006318359375,0,0,0.7644
1.946218958008103,0,0,1.1348515869140625,0,0,0.84084
1.9493357350002043,0,0,1.5658078857421873,0,0,0.53508
1.9524524199950974,0,0,1.1563994018554686,0,0,0.91728
1.9555943080049474,0,0,1.1755530151367186,0,0,0.99372
1.9587140860094223,0,0,1.37906015625,0,0,0.68796
1.961827382008778,0,0,1.3742717529296875,0,0,0.68796
1.964979807002237,0,0,1.0654197387695312,0,0,0.30576000000000003
1.9680978989927098,0,0,1.2665326782226562,0,0,0.6115200000000001
1.9712088989908807,0,0,1.3623007446289062,0,0,0.7644
1.9743242500117049,0,0,1.1324573852539062,0,0,0.53508
1.9774368240032345,0,0,1.2425906616210938,0,0,0.7644
1.9805514170147944,0,0,1.3910311645507811,0,0,0.91728
1.983714656002121,0,0,1.1875240234375,0,0,1.45236
1.986833878007019,0,0,1.2713210815429687,0,0,0.91728
1.9920562600018457,0,0,1.2617442749023438,0,0,0.7644
1.9951865010079928,0,0,1.0845733520507812,0,0,1.1465999999999998
1.9983002780063543,0,0,1.2425906616210938,0,0,0.91728
2.001409888995113,0,0,1.235408056640625,0,0,0.53508
2.0045513510121964,0,0,1.16837041015625,0,0,0.0
2.0076618140155915,0,0,1.3742717529296875,0,0,0.84084
2.0107720170053653,0,0,1.2880804931640624,0,0,0.84084
2.013878758007195,0,0,1.0845733520507812,0,0,1.2230400000000001
2.0169866470096167,0,0,1.3455413330078123,0,0,0.68796
2.020096184016438,0,0,1.2593500732421874,0,0,0.91728
2.0231994240020867,0,0,1.1659762084960936,0,0,0.68796
2.026307665015338,0,0,1.3096283081054687,0,0,0.68796
2.0294152940041386,0,0,1.5610194824218748,0,0,0.68796
2.0325239050143864,0,0,1.2904746948242187,0,0,0.68796
2.0356303860025946,0,0,1.1180921752929687,0,0,0.3822
2.038740774994949,0,0,1.388636962890625,0,0,0.7644
2.0418481820088346,0,0,1.22583125,0,0,0.7644
2.044955312012462,0,0,1.2401964599609374,0,0,2.5989600000000004
2.0480636630090885,0,0,1.37906015625,0,0,0.99372
2.0513769010140095,0,0,1.4628572143554686,0,0,1.07016
2.054486753011588,0,0,1.0749965454101562,0,0,-0.22932
2.057612456002971,0,0,1.2737152832031249,0,0,0.68796
2.0607172890158836,0,0,1.4245499877929686,0,0,0.68796
2.063913583988324,0,0,1.149216796875,0,0,0.6115200000000001
2.0670567319903057,0,0,1.426944189453125,0,0,0.68796
2.070147454011021,0,0,1.4413093994140624,0,0,0.7644
2.0732553059933707,0,0,1.1875240234375,0,0,1.1465999999999998
2.076354232005542,0,0,1.2928688964843749,0,0,0.6115200000000001
2.079438935004873,0,0,1.5586252807617187,0,0,0.84084
2.0825498240010347,0,0,1.2593500732421874,0,0,0.53508
2.0856727310165297,0,0,1.1755530151367186,0,0,0.6115200000000001
2.088829785992857,0,0,1.4149731811523436,0,0,0.84084
2.0919378969992977,0,0,1.3192051147460937,0,0,1.07016
2.0950439709995408,0,0,1.180341418457031,0,0,0.84084
2.09815052599879,0,0,1.4508862060546874,0,0,0.53508
2.1012575259956066,0,0,1.3072341064453123,0,0,0.84084
2.104366359009873,0,0,1.1516109985351561,0,0,0.45864
2.107539821008686,0,0,1.3096283081054687,0,0,0.68796
2.1108748549886514,0,0,1.3646949462890625,0,0,1.1465999999999998
2.1140330210037064,0,0,1.1348515869140625,0,0,0.0
2.1172641860030126,0,0,1.4173673828125,0,0,0.84084
2.1204520920000505,0,0,1.3144167114257812,0,0,0.84084
2.1236515910131857,0,0,1.1324573852539062,0,0,0.84084
2.126829331013141,0,0,1.429338391113281,0,0,0.68796
2.1300679220003076,0,0,1.4700398193359374,0,0,0.99372
2.1332437350065447,0,0,1.1540052001953125,0,0,1.45236
2.1364628080045804,0,0,1.0821791503906248,0,0,0.99372
2.1396708440151997,0,0,1.4820108276367188,0,0,0.68796
2.1428506759984884,0,0,1.1420341918945311,0,0,2.52252
2.1460480999958236,0,0,1.3455413330078123,0,0,0.7644
2.1492849880014546,0,0,1.426944189453125,0,0,0.91728
2.1524479310028255,0,0,1.22583125,0,0,0.7644
2.155534968012944,0,0,1.3144167114257812,0,0,0.68796
2.158642635011347,0,0,1.5035586425781249,0,0,0.6115200000000001
2.161793059989577,0,0,1.149216796875,0,0,0.99372
2.164884116005851,0,0,1.0965443603515623,0,0,0.6115200000000001
2.1680728000064846,0,0,1.5538368774414062,0,0,1.2230400000000001
2.17068480499438,0,0,1.3263877197265623,0,0,0.53508
2.1732106269919313,0,0,1.199495031738281,0,0,0.53508
2.175738410995109,0,0,1.350329736328125,0,0,0.7644
2.178258566011209,0,0,1.656787548828125,0,0,0.7644
2.180779110000003,0,0,1.3431471313476562,0,0,0.6115200000000001
2.183319672010839,0,0,1.149216796875,0,0,0.84084
2.1858405499951914,0,0,1.2904746948242187,0,0,0.53508
2.1883635930134915,0,0,1.4006079711914061,0,0,0.7644
2.1908822859986685,0,0,1.35990654296875,0,0,0.84084
2.193406070000492,0,0,1.120486376953125,0,0,1.37592
2.1959365399961825,0,0,1.3311761230468748,0,0,0.3822
2.1984706209914293,0,0,1.3862427612304686,0,0,-9.172799999999999
2.201008534990251,0,0,1.369483349609375,0,0,0.99372
2.203565152012743,0,0,1.177947216796875,0,0,0.99372
2.20609947401681,0,0,1.2928688964843749,0,0,0.53508
2.2086398510145955,0,0,1.5059528442382812,0,0,1.1465999999999998
2.211178764991928,0,0,1.35990654296875,0,0,0.91728
2.21371367899701,0,0,1.1180921752929687,0,0,0.99372
2.216250166995451,0,0,1.2473790649414063,0,0,0.68796
2.2187823400017805,0,0,1.4963760375976562,0,0,0.99372
2.2213189390022308,0,0,1.3287819213867187,0,0,0.99372
2.223855390009703,0,0,1.13006318359375,0,0,0.7644
2.2263872679905035,0,0,1.2569558715820313,0,0,-9.32568
2.228916071006097,0,0,1.4125789794921875,0,0,0.6115200000000001
2.2314348180079833,0,0,1.3479355346679687,0,0,0.68796
2.2339720469899476,0,0,1.197100830078125,0,0,0.0
2.2365082390024327,0,0,1.22583125,0,0,0.7644
2.2390632450114936,0,0,1.43652099609375,0,0,0.6115200000000001
2.2416979169938713,0,0,1.1707646118164061,0,0,0.91728
2.244248517003143,0,0,1.1659762084960936,0,0,9.631440000000001
2.246778948989231,0,0,1.369483349609375,0,0,-9.09636
2.249381881003501,0,0,1.39821376953125,0,0,0.99372
2.251922221010318,0,0,1.1180921752929687,0,0,0.99372
2.254454172012629,0,0,1.1180921752929687,0,0,0.84084
2.257006216008449,0,0,1.4867992309570313,0,0,0.91728
2.259568259003572,0,0,1.4987702392578124,0,0,1.1465999999999998
2.2621061360114254,0,0,1.1611878051757811,0,0,0.6115200000000001
2.264641643007053,0,0,1.218648645019531,0,0,0.99372
2.2672631109890062,0,0,1.1468225952148436,0,0,0.91728
2.2699175419984385,0,0,1.3239935180664062,0,0,0.99372
2.2730251160101034,0,0,1.1827356201171875,0,0,0.22932
2.2761228010058403,0,0,1.2928688964843749,0,0,0.45864
2.2792077269987203,0,0,1.4915876342773438,0,0,0.68796
2.2823318570153788,0,0,1.1755530151367186,0,0,1.07016
2.28544250401319,0,0,1.2042834350585936,0,0,0.7644
2.2885533189983107,0,0,1.5107412475585937,0,0,0.99372
2.2916565600025933,0,0,1.1156979736328125,0,0,0.68796
2.2947625590022653,0,0,1.2210428466796874,0,0,0.7644
2.297941169992555,0,0,1.6304513305664061,0,0,0.91728
2.301074946997687,0,0,1.2737152832031249,0,0,0.53508
2.304183947009733,0,0,1.22583125,0,0,0.91728
2.307289149990538,0,0,1.465251416015625,0,0,0.7644
2.3103954280086327,0,0,1.2928688964843749,0,0,1.07016
2.3134996680018958,0,0,1.1372457885742187,0,0,0.68796
2.3166082790121436,0,0,1.3551181396484375,0,0,0.84084
2.3197151310159825,0,0,1.120486376953125,0,0,0.91728
2.322820927016437,0,0,1.20667763671875,0,0,0.68796
2.3259261310158763,0,0,1.2593500732421874,0,0,0.53508
2.3290323530090973,0,0,1.4628572143554686,0,0,0.6115200000000001
2.3321406859904528,0,0,1.149216796875,0,0,1.37592
2.335244315007003,0,0,1.3646949462890625,0,0,0.53508
2.338350778009044,0,0,1.3934253662109375,0,0,0.99372
2.3414558520016726,0,0,1.2306196533203124,0,0,0.53508
2.344562370009953,0,0,1.3455413330078123,0,0,0.3822
2.3476887400029227,0,0,1.5418658691406248,0,0,0.68796
2.35079427700839,0,0,1.3479355346679687,0,0,0.84084
2.353901925001992,0,0,1.1468225952148436,0,0,1.07016
2.357056034990819,0,0,1.3383587280273437,0,0,0.53508
2.3601989049930125,0,0,1.2808978881835937,0,0,0.99372
2.3633135720156133,0,0,1.0749965454101562,0,0,0.68796
2.366421201004414,0,0,1.4006079711914061,0,0,0.6115200000000001
2.3695587560068816,0,0,1.3766659545898436,0,0,0.6115200000000001
2.372666200011736,0,0,1.1468225952148436,0,0,0.0
2.375783347990364,0,0,1.3168109130859373,0,0,0.84084
2.378869792999467,0,0,1.5275006591796874,0,0,0.68796
2.3819777549942955,0,0,1.0773907470703123,0,0,1.60524
2.385084087989526,0,0,1.3359645263671873,0,0,-9.172799999999999
2.3882000140147284,0,0,1.6160861206054686,0,0,1.07016
2.3913051990093663,0,0,1.158793603515625,0,0,0.45864
2.394392735994188,0,0,1.2785036865234374,0,0,0.68796
2.397498236008687,0,0,1.6807295654296874,0,0,0.91728
2.4006021800159942,0,0,1.35990654296875,0,0,0.7644
2.403709253994748,0,0,1.1659762084960936,0,0,0.53508
2.40681260600104,0,0,1.3958195678710936,0,0,0.99372
2.409918271994684,0,0,1.3407529296874998,0,0,0.99372
2.4130235690099653,0,0,1.1156979736328125,0,0,0.07644000000000001
2.4161324570013676,0,0,1.5035586425781249,0,0,0.68796
2.419235679000849,0,0,1.2952630981445312,0,0,0.84084
2.4223415500018746,0,0,1.0989385620117187,0,0,0.15288000000000002
2.425446475011995,0,0,1.4053963745117186,0,0,0.6115200000000001
2.428553086007014,0,0,1.350329736328125,0,0,0.53508
2.431658771005459,0,0,1.1156979736328125,0,0,1.2230400000000001
2.4347639750048984,0,0,1.1635820068359375,0,0,0.6115200000000001
2.437869715009583,0,0,1.4772224243164063,0,0,1.07016
2.440975289006019,0,0,1.0989385620117187,0,0,0.91728
2.4440821780008264,0,0,1.3670891479492187,0,0,0.68796
2.44718476998969,0,0,1.6256629272460936,0,0,0.6115200000000001
2.4502912890166044,0,0,1.2282254516601563,0,0,0.7644
2.4533967140014283,0,0,1.1707646118164061,0,0,0.91728
2.4565269729937427,0,0,1.455674609375,0,0,0.99372
2.459636824991321,0,0,1.2641384765625,0,0,0.84084
2.4627218059904408,0,0,1.0773907470703123,0,0,0.91728
2.4658292690000962,0,0,1.2641384765625,0,0,0.6115200000000001
2.4689553799980786,0,0,1.2617442749023438,0,0,0.68796
2.4720576209947467,0,0,1.189918225097656,0,0,0.0
2.4753181929991115,0,0,1.235408056640625,0,0,0.84084
2.478551153995795,0,0,1.4221557861328125,0,0,0.45864
2.4817720600112807,0,0,0.9720458740234375,0,0,1.1465999999999998
2.484879041003296,0,0,1.5227122558593749,0,0,0.45864
2.487982132995967,0,0,1.4772224243164063,0,0,0.91728
2.4911767430021428,0,0,1.1133037719726562,0,0,1.45236
2.4945492029946763,0,0,1.3287819213867187,0,0,0.53508
2.497668183990754,0,0,1.5275006591796874,0,0,0.91728
2.5007800169987604,0,0,0.9457096557617187,0,0,0.68796
2.5038896100013517,0,0,1.3335703247070312,0,0,0.30576000000000003
2.5070245350070763,0,0,1.5921441040039062,0,0,0.91728
2.510133367992239,0,0,1.2569558715820313,0,0,0.53508
2.513240164000308,0,0,1.2282254516601563,0,0,0.6115200000000001
2.5163476830057334,0,0,1.659181750488281,0,0,0.6115200000000001
2.5194515339971986,0,0,1.5298948608398437,0,0,0.7644
2.522557793010492,0,0,1.1037269653320312,0,0,0.84084
2.5256638299906626,0,0,1.3575123413085937,0,0,0.91728
2.5288007000053767,0,0,1.2401964599609374,0,0,0.84084
2.531908644014038,0,0,1.0726023437499999,0,0,0.0
2.535012070002267,0,0,1.3263877197265623,0,0,0.91728
2.538118774013128,0,0,1.429338391113281,0,0,0.6115200000000001
2.5412249590153806,0,0,1.13006318359375,0,0,1.2230400000000001
2.5443319950136356,0,0,1.5011644409179687,0,0,0.30576000000000003
2.547434642998269,0,0,1.3072341064453123,0,0,1.07016
2.5505397169908974,0,0,1.1420341918945311,0,0,0.68796
2.553644310013624,0,0,1.3718775512695311,0,0,0.91728
2.55679440201493,0,0,1.5610194824218748,0,0,0.84084
2.5599023830145597,0,0,1.254561669921875,0,0,0.84084
2.5630034010100644,0,0,1.3192051147460937,0,0,0.68796
2.5661119199940003,0,0,1.3120225097656248,0,0,0.91728
2.5692491230147425,0,0,1.3168109130859373,0,0,0.91728
2.572355456009973,0,0,1.1707646118164061,0,0,1.07016
2.5754601410008036,0,0,1.47482822265625,0,0,0.91728
2.5785649369936436,0,0,1.3551181396484375,0,0,0.7644
2.5817086590104736,0,0,1.0845733520507812,0,0,0.15288000000000002
2.5848083250166383,0,0,1.3862427612304686,0,0,0.91728
2.587895233009476,0,0,1.3479355346679687,0,0,0.91728
2.5909793250029907,0,0,1.0845733520507812,0,0,1.45236
2.5940876220120117,0,0,1.3311761230468748,0,0,0.84084
2.5971925840131007,0,0,1.388636962890625,0,0,1.1465999999999998
2.6003002880024724,0,0,1.16837041015625,0,0,0.6115200000000001
2.6034025280096103,0,0,1.16837041015625,0,0,0.53508
2.6065077320090495,0,0,1.6735469604492186,0,0,0.53508
2.6096142870082986,0,0,1.3455413330078123,0,0,0.68796
2.6127212319988757,0,0,1.0797849487304687,0,0,0.53508
2.615848398010712,0,0,1.5107412475585937,0,0,0.6115200000000001
2.6189562680083327,0,0,1.35990654296875,0,0,0.7644
2.622061472007772,0,0,1.1324573852539062,0,0,0.91728
2.625166342011653,0,0,1.448492004394531,0,0,0.6115200000000001
2.628273526992416,0,0,1.3551181396484375,0,0,0.99372
2.631375377997756,0,0,1.1659762084960936,0,0,0.0
2.634481118991971,0,0,1.2282254516601563,0,0,0.68796
2.6376087669923436,0,0,1.5227122558593749,0,0,0.68796
2.640718618000392,0,0,1.0941501586914062,0,0,1.1465999999999998
2.6438468400156125,0,0,1.2785036865234374,0,0,0.45864
2.646950933005428,0,0,1.429338391113281,0,0,0.91728
2.650056376995053,0,0,1.197100830078125,0,0,0.6115200000000001
2.65317711699754,0,0,1.3455413330078123,0,0,0.7644
2.656310616992414,0,0,1.4508862060546874,0,0,0.7644
2.659416709007928,0,0,1.1133037719726562,0,0,0.7644
2.662577393988613,0,0,1.1540052001953125,0,0,0.3822
2.6656714680138975,0,0,1.419761584472656,0,0,0.7644
2.6690069460019004,0,0,1.2641384765625,0,0,0.68796
2.672109631006606,0,0,1.0821791503906248,0,0,1.1465999999999998
2.675213445996633,0,0,1.5945383056640625,0,0,0.7644
2.678317946003517,0,0,1.5298948608398437,0,0,0.99372
2.681424148991937,0,0,1.2018892333984375,0,0,0.30576000000000003
2.684537408000324,0,0,1.3168109130859373,0,0,1.2230400000000001
2.687651056010509,0,0,1.2976572998046874,0,0,0.6115200000000001
2.6907571670017205,0,0,1.1228805786132812,0,0,0.15288000000000002
2.69386361099896,0,0,1.35990654296875,0,0,0.53508
2.696970315009821,0,0,1.668758557128906,0,0,0.91728
2.7000762410170864,0,0,1.1755530151367186,0,0,0.91728
2.70318172199768,0,0,1.3311761230468748,0,0,0.53508
2.7062892589892726,0,0,1.668758557128906,0,0,1.1465999999999998
2.709395370009588,0,0,1.1516109985351561,0,0,0.68796
2.7126736270147376,0,0,1.1755530151367186,0,0,0.6115200000000001
2.715778126992518,0,0,1.678335363769531,0,0,0.91728
2.7188844039919786,0,0,1.2928688964843749,0,0,0.7644
2.721974218991818,0,0,1.22583125,0,0,0.99372
2.7250793669954874,0,0,1.5131354492187499,0,0,0.7644
2.728184681996936,0,0,1.4149731811523436,0,0,0.84084
2.731290199997602,0,0,1.1827356201171875,0,0,1.07016
2.734395717998268,0,0,1.3551181396484375,0,0,0.91728
2.737503200012725,0,0,1.4053963745117186,0,0,0.84084
2.7406403289933223,0,0,1.1923124267578125,0,0,0.6115200000000001
2.7441428049933165,0,0,1.3383587280273437,0,0,-8.7906
2.7472488050116226,0,0,1.3455413330078123,0,0,0.99372
2.750356322998414,0,0,1.1085153686523437,0,0,0.07644000000000001
2.753496138000628,0,0,1.3551181396484375,0,0,0.53508
2.7566046740103047,0,0,1.467645617675781,0,0,0.99372
2.759715045016492,0,0,1.1228805786132812,0,0,1.2230400000000001
2.7628227850073017,0,0,1.3000515014648437,0,0,0.68796
2.7659288220165763,0,0,1.43652099609375,0,0,1.07016
2.7690936730068643,0,0,1.158793603515625,0,0,-9.172799999999999
2.772204968990991,0,0,1.35990654296875,0,0,0.68796
2.775311431993032,0,0,1.6448165405273436,0,0,0.7644
2.7784186910139397,0,0,1.2713210815429687,0,0,0.91728
2.7815251540159807,0,0,1.0917559570312498,0,0,0.99372
2.7846335420035757,0,0,1.4341267944335936,0,0,0.6115200000000001
2.7877385239989962,0,0,1.2665326782226562,0,0,0.68796
2.7908430240058806,0,0,1.1180921752929687,0,0,0.22932
2.7939479679916985,0,0,1.484405029296875,0,0,0.91728
2.797061652992852,0,0,1.3383587280273437,0,0,0.91728
2.800187023007311,0,0,1.2210428466796874,0,0,0.15288000000000002
2.803292466996936,0,0,1.2904746948242187,0,0,0.6115200000000001
2.8063986329943873,0,0,1.4700398193359374,0,0,0.91728
2.8095040780026466,0,0,1.1611878051757811,0,0,1.45236
2.8126097439962905,0,0,1.0965443603515623,0,0,0.3822
2.815723595995223,0,0,1.5466542724609373,0,0,1.1465999999999998
2.8190629259916022,0,0,1.16837041015625,0,0,0.45864
2.8221740559965838,0,0,1.199495031738281,0,0,0.6115200000000001
2.8252808329998516,0,0,1.5753846923828123,0,0,0.7644
2.8283884070115164,0,0,1.3000515014648437,0,0,0.91728
2.8314907400053926,0,0,1.218648645019531,0,0,0.84084
2.83459898098954,0,0,1.4413093994140624,0,0,0.68796
2.8377391470130533,0,0,1.4173673828125,0,0,0.7644
2.8408445169916376,0,0,1.1468225952148436,0,0,0.91728
2.8439522389962804,0,0,1.43652099609375,0,0,0.68796
2.8470552200160455,0,0,1.2569558715820313,0,0,0.84084
2.8501910350169055,0,0,1.0223241088867188,0,0,0.0
2.8532981089956593,0,0,1.3192051147460937,0,0,0.7644
2.8564169419987593,0,0,1.5251064575195312,0,0,0.91728
2.8595241270086262,0,0,1.0989385620117187,0,0,0.91728
2.8626190520008095,0,0,1.2617442749023438,0,0,0.3822
2.8658157360041514,0,0,1.4939818359375,0,0,1.07016
2.8689242730033584,0,0,1.216254443359375,0,0,0.91728
2.8720667909947224,0,0,1.350329736328125,0,0,0.45864
2.8751633469946682,0,0,1.5322890624999999,0,0,1.1465999999999998
2.8783062529983,0,0,1.3383587280273437,0,0,0.68796
2.8814271980081685,0,0,1.1013327636718748,0,0,0.84084
2.884554604010191,0,0,1.4221557861328125,0,0,0.68796
2.8877074740012176,0,0,1.3239935180664062,0,0,0.91728
2.8908224920160137,0,0,1.120486376953125,0,0,1.07016
2.893937732995255,0,0,1.3934253662109375,0,0,0.84084
2.897054102999391,0,0,1.3838485595703125,0,0,0.99372
2.900449025008129,0,0,1.1540052001953125,0,0,0.84084
2.9036000430060085,0,0,1.4939818359375,0,0,0.84084
2.9067150430055335,0,0,1.407790576171875,0,0,1.07016
2.9098310050030705,0,0,1.1180921752929687,0,0,0.0
2.912944615993183,0,0,1.2473790649414063,0,0,0.99372
2.9160613199928775,0,0,1.2497732666015624,0,0,0.84084
2.9191732270119246,0,0,1.1947066284179686,0,0,1.1465999999999998
2.9222877449938096,0,0,1.24498486328125,0,0,0.53508
2.9254452070163097,0,0,1.649604943847656,0,0,1.07016
2.9285642440081574,0,0,1.1276689819335937,0,0,0.84084
2.9317136320169084,0,0,1.3479355346679687,0,0,0.68796
2.934875667997403,0,0,1.6160861206054686,0,0,0.99372
2.9379953530151397,0,0,1.2306196533203124,0,0,0.6115200000000001
2.941111722990172,0,0,1.2018892333984375,0,0,0.15288000000000002
2.944229204003932,0,0,1.5322890624999999,0,0,0.7644
2.947340556012932,0,0,1.254561669921875,0,0,0.6115200000000001
2.9505449059943203,0,0,1.1755530151367186,0,0,0.84084
2.953658924991032,0,0,1.6041151123046875,0,0,0.7644
2.9569846260128543,0,0,1.4700398193359374,0,0,0.91728
2.960103846999118,0,0,1.1707646118164061,0,0,1.1465999999999998
2.9632231619907543,0,0,1.3766659545898436,0,0,0.68796
2.96634117999929,0,0,1.3766659545898436,0,0,0.99372
2.969477161008399,0,0,1.1659762084960936,0,0,-0.30576000000000003
2.972633085999405,0,0,1.3527239379882812,0,0,0.68796
2.975751363992458,0,0,1.2617442749023438,0,0,0.68796
2.978868345002411,0,0,1.1156979736328125,0,0,0.84084
2.9819857889960986,0,0,1.3335703247070312,0,0,0.6115200000000001
2.9851574919885024,0,0,1.5011644409179687,0,0,0.68796
2.988697485998273,0,0,1.1444283935546875,0,0,0.84084
2.9920560019963887,0,0,1.3359645263671873,0,0,0.84084
2.995255037007155,0,0,1.3096283081054687,0,0,0.6115200000000001
2.9983770190156065,0,0,1.0893617553710937,0,0,1.2230400000000001
3.001492295996286,0,0,1.3000515014648437,0,0,0.91728
3.0046078329905868,0,0,1.4245499877929686,0,0,0.7644
3.0077221659885254,0,0,1.3407529296874998,0,0,0.6115200000000001
3.0108349249931052,0,0,1.2042834350585936,0,0,0.6115200000000001
3.013949832005892,0,0,1.599326708984375,0,0,0.53508
3.0170643129968084,0,0,1.2808978881835937,0,0,0.91728
3.0202679419890046,0,0,1.2042834350585936,0,0,0.68796
3.023391922994051,0,0,1.37906015625,0,0,0.84084
3.026505904010264,0,0,1.3718775512695311,0,0,0.6115200000000001
3.0296214219997637,0,0,1.1707646118164061,0,0,0.68796
3.0329264379979577,0,0,1.235408056640625,0,0,0.84084
3.0361253260052763,0,0,1.4796166259765624,0,0,0.91728
3.039235047996044,0,0,1.1372457885742187,0,0,-0.30576000000000003
3.0423532880085986,0,0,1.3455413330078123,0,0,0.84084
3.045472547004465,0,0,1.4317325927734375,0,0,0.68796
3.0486111390055157,0,0,1.149216796875,0,0,0.53508
3.0517253240104765,0,0,1.3215993164062498,0,0,0.15288000000000002
3.0548361940018367,0,0,1.2401964599609374,0,0,0.84084
3.0580209149920847,0,0,1.1444283935546875,0,0,1.1465999999999998
3.0611593590001576,0,0,1.177947216796875,0,0,0.53508
3.06426235899562,0,0,1.4939818359375,0,0,0.7644
3.067359248001594,0,0,1.3311761230468748,0,0,0.6115200000000001
3.0704587289947085,0,0,1.2593500732421874,0,0,0.6115200000000001
3.0735915249970276,0,0,1.4149731811523436,0,0,0.6115200000000001
3.076702580001438,0,0,1.2952630981445312,0,0,0.53508
3.079842061008094,0,0,1.0965443603515623,0,0,0.84084
3.082956191006815,0,0,1.3383587280273437,0,0,0.84084
3.0860733939916827,0,0,1.2401964599609374,0,0,1.1465999999999998
3.0891870600171387,0,0,0.967257470703125,0,0,0.3822
3.0923020229965914,0,0,1.3096283081054687,0,0,0.99372
3.0954138379893266,0,0,1.3096283081054687,0,0,0.68796
3.0985267820069566,0,0,1.158793603515625,0,0,0.0
3.1016402810055297,0,0,1.2761094848632812,0,0,20
3.10478187300032,0,0,1.4532804077148436,0,0,0.91728
3.107898151007248,0,0,1.1133037719726562,0,0,1.37592
3.111010021006223,0,0,1.3551181396484375,0,0,0.6115200000000001
3.114122817001771,0,0,1.675941162109375,0,0,0.99372
3.1172913720074575,0,0,1.2713210815429687,0,0,0.6115200000000001
3.1204086859943345,0,0,1.22583125,0,0,0.53508
3.123523407994071,0,0,1.5346832641601562,0,0,0.99372
3.1266397970030084,0,0,1.3527239379882812,0,0,0.99372
3.129761388991028,0,0,1.0749965454101562,0,0,0.91728
3.132875500014052,0,0,1.4173673828125,0,0,0.7644
3.1359903890115675,0,0,1.4413093994140624,0,0,0.84084
3.1391013140091673,0,0,1.1516109985351561,0,0,1.1465999999999998
3.142214629013324,0,0,1.4867992309570313,0,0,1.07016
3.145328165992396,0,0,1.3934253662109375,0,0,0.68796
3.1484697200066876,0,0,1.1516109985351561,0,0,0.0
3.151584183011437,0,0,1.3623007446289062,0,0,0.3822
3.15469314600341,0,0,1.4437036010742186,0,0,0.7644
3.1578825890028384,0,0,1.1731588134765625,0,0,1.07016
3.160999570012791,0,0,1.3215993164062498,0,0,0.68796
3.164134088001447,0,0,1.6400281372070311,0,0,0.91728
3.1672480140114203,0,0,1.2665326782226562,0,0,0.91728
3.170361458003754,0,0,1.1420341918945311,0,0,0.91728
3.1735063279920723,0,0,1.5251064575195312,0,0,0.7644
3.176622105005663,0,0,1.3670891479492187,0,0,0.7644
3.1797359570045955,0,0,1.1444283935546875,0,0,0.91728
3.182859549007844,0,0,1.5394716674804687,0,0,0.6115200000000001
3.18597597500775,0,0,1.3215993164062498,0,0,0.99372
3.1890883079904597,0,0,1.20667763671875,0,0,0.91728
3.1922027519904077,0,0,1.2401964599609374,0,0,0.84084
3.1953134190116543,0,0,1.3000515014648437,0,0,1.07016
3.198425770009635,0,0,1.0773907470703123,0,0,0.22932
3.2015376219933387,0,0,1.2497732666015624,0,0,0.7644
3.204652324988274,0,0,1.3670891479492187,0,0,0.7644
3.207764529011911,0,0,1.158793603515625,0,0,0.68796
3.2108769539918285,0,0,1.3479355346679687,0,0,0.53508
3.2139904359937645,0,0,1.4867992309570313,0,0,0.91728
3.217103083006805,0,0,1.0869675537109373,0,0,0.6115200000000001
3.220216417015763,0,0,1.177947216796875,0,0,0.84084
3.2233277870109305,0,0,1.4149731811523436,0,0,0.91728
3.2264397309918422,0,0,1.1156979736328125,0,0,0.7644
3.229551786003867,0,0,1.1468225952148436,0,0,0.30576000000000003
3.232665193005232,0,0,1.6711527587890624,0,0,0.6115200000000001
3.2357813229900785,0,0,1.2952630981445312,0,0,0.68796
3.238895434013102,0,0,1.1875240234375,0,0,0.99372
3.2420331739995163,0,0,1.3766659545898436,0,0,0.7644
3.245249708998017,0,0,1.5275006591796874,0,0,0.99372
3.2483785419899505,0,0,1.2210428466796874,0,0,0.6115200000000001
3.251485209009843,0,0,1.3623007446289062,0,0,0.84084
3.2545948009938,0,0,1.3215993164062498,0,0,0.99372
3.2579752230085433,0,0,1.1444283935546875,0,0,0.07644000000000001
3.261113501008367,0,0,1.3742717529296875,0,0,0.7644
3.2642268339986913,0,0,1.458068811035156,0,0,0.99372
3.2673240560106933,0,0,1.1013327636718748,0,0,1.5288
3.2704221850144677,0,0,1.2521674682617188,0,0,0.45864
3.273556444008136,0,0,1.4532804077148436,0,0,1.07016
3.2766663510119542,0,0,1.1276689819335937,0,0,0.53508
3.279784851009026,0,0,1.180341418457031,0,0,0.45864
3.282898166013183,0,0,1.599326708984375,0,0,0.84084
3.2860119430115446,0,0,1.5298948608398437,0,0,0.68796
3.2891262760094833,0,0,1.1013327636718748,0,0,0.7644
3.2922401090036146,0,0,1.637633935546875,0,0,0.91728
3.29538718299591,0,0,1.3383587280273437,0,0,0.6115200000000001
3.2985030710115097,0,0,1.0749965454101562,0,0,0.7644
3.3016155149962287,0,0,1.4053963745117186,0,0,0.91728
3.3047300149919465,0,0,1.24498486328125,0,0,1.1465999999999998
3.307841719011776,0,0,1.0965443603515623,0,0,0.0
3.310953829990467,0,0,1.3263877197265623,0,0,0.84084
3.3140666630060878,0,0,1.5203180541992187,0,0,0.91728
3.317178569996031,0,0,1.1061211669921875,0,0,1.2230400000000001
3.3202931440027896,0,0,1.35990654296875,0,0,0.53508
3.3234066430013627,0,0,1.2928688964843749,0,0,0.7644
3.326518976013176,0,0,1.1635820068359375,0,0,0.91728
3.3296324019902386,0,0,1.3479355346679687,0,0,0.84084
3.332746308995411,0,0,1.5634136840820312,0,0,0.99372
3.3358604940003715,0,0,1.2306196533203124,0,0,0.91728
3.3389715859957505,0,0,1.1875240234375,0,0,0.6115200000000001
3.3420839570171665,0,0,1.5418658691406248,0,0,0.91728
3.3452133820101153,0,0,1.2665326782226562,0,0,0.6115200000000001
3.348328288993798,0,0,1.1156979736328125,0,0,0.84084
3.351439029996982,0,0,1.4532804077148436,0,0,0.99372
3.3545501960034017,0,0,1.4006079711914061,0,0,0.91728
3.3576946769899223,0,0,1.0726023437499999,0,0,0.0
3.3608098799886648,0,0,1.22583125,0,0,0.68796
3.363924675999442,0,0,1.369483349609375,0,0,0.91728
3.367039917007787,0,0,1.1707646118164061,0,0,0.53508
3.370156101998873,0,0,1.2593500732421874,0,0,0.68796
3.3732685830036644,0,0,1.5322890624999999,0,0,0.6115200000000001
3.3764118420076557,0,0,1.1252747802734375,0,0,1.1465999999999998
3.3795238599996082,0,0,1.369483349609375,0,0,0.68796
3.3826398230157793,0,0,1.6232687255859375,0,0,0.68796
3.3857544519996736,0,0,1.2976572998046874,0,0,0.84084
3.388867803994799,0,0,1.2401964599609374,0,0,0.6115200000000001
3.3919819699949585,0,0,1.4867992309570313,0,0,0.6115200000000001
3.3950926729885396,0,0,1.350329736328125,0,0,0.6115200000000001
3.39820580300875,0,0,1.2904746948242187,0,0,0.6115200000000001
3.4013179689936806,0,0,1.5251064575195312,0,0,0.91728
3.404433413001243,0,0,1.43652099609375,0,0,0.91728
3.4075729130127,0,0,0.9959878906249999,0,0,0.07644000000000001
3.410687746014446,0,0,1.2808978881835937,0,0,0.68796
3.413801374990726,0,0,1.3024457031249999,0,0,0.91728
3.4169156159914564,0,0,1.1540052001953125,0,0,0.91728
3.4200294300098903,0,0,1.2976572998046874,0,0,0.68796
3.423140892991796,0,0,1.3000515014648437,0,0,0.91728
3.426298576989211,0,0,1.1324573852539062,0,0,0.91728
3.429415391990915,0,0,1.3479355346679687,0,0,0.53508
3.432533503015293,0,0,1.4987702392578124,0,0,0.30576000000000003
3.4356469649937935,0,0,1.3407529296874998,0,0,0.7644
3.4387605210067704,0,0,1.1755530151367186,0,0,0.45864
3.441889445995912,0,0,1.4532804077148436,0,0,0.6115200000000001
3.4450028899882454,0,0,1.3646949462890625,0,0,0.91728
3.448118333995808,0,0,1.1324573852539062,0,0,0.45864
3.451229760015849,0,0,1.4915876342773438,0,0,0.91728
3.4543387409939896,0,0,1.3072341064453123,0,0,0.68796
3.4575724250171334,0,0,1.0726023437499999,0,0,0.91728
3.4608723300043494,0,0,1.3144167114257812,0,0,0.84084
3.463979663007194,0,0,1.2713210815429687,0,0,0.91728
3.4670795150159393,0,0,1.3670891479492187,0,0,0.0
3.4702002739941236,0,0,1.3239935180664062,0,0,0.68796
3.473306699015666,0,0,1.3670891479492187,0,0,0.53508
3.476619697001297,0,0,1.1468225952148436,0,0,0.30576000000000003
3.479919601988513,0,0,1.2473790649414063,0,0,0.53508
3.4832938390027266,0,0,1.254561669921875,0,0,0.84084
3.486409931007074,0,0,1.1372457885742187,0,0,1.1465999999999998
3.489528116013389,0,0,1.3407529296874998,0,0,0.3822
3.49272024500533,0,0,1.458068811035156,0,0,0.7644
3.496166611002991,0,0,1.3575123413085937,0,0,1.45236
3.499298276990885,0,0,1.3407529296874998,0,0,0.45864
3.5024078320129775,0,0,1.5873557006835937,0,0,0.84084
3.5055140540061984,0,0,1.1348515869140625,0,0,0.45864
3.5086262949917,0,0,1.149216796875,0,0,0.7644
3.51173310901504,0,0,1.4030021728515625,0,0,0.53508
3.514839479990769,0,0,1.2665326782226562,0,0,0.7644
3.51794888699078,0,0,1.189918225097656,0,0,0.6115200000000001
3.5210562940046657,0,0,1.6352397338867186,0,0,0.84084
3.5241679419996217,0,0,1.3862427612304686,0,0,0.6115200000000001
3.5272719970089383,0,0,1.1156979736328125,0,0,0.7644
3.5303802010021172,0,0,1.3287819213867187,0,0,0.7644
3.533486811997136,0,0,1.5083470458984374,0,0,0.91728
3.5365956450114027,0,0,1.218648645019531,0,0,0.6115200000000001
3.5397379960049875,0,0,1.3551181396484375,0,0,0.91728
3.5428762919909786,0,0,1.3311761230468748,0,0,0.84084
3.545983735995833,0,0,1.1875240234375,0,0,1.07016
3.5490902359888423,0,0,1.3263877197265623,0,0,0.84084
3.552198438992491,0,0,1.4772224243164063,0,0,1.07016
3.555301401996985,0,0,1.2617442749023438,0,0,0.53508
3.5584439760132227,0,0,1.35990654296875,0,0,0.68796
3.561553161009215,0,0,1.5035586425781249,0,0,0.84084
3.5646812340128236,0,0,1.4030021728515625,0,0,0.91728
3.5677872160158586,0,0,1.1755530151367186,0,0,0.7644
3.570892363990424,0,0,1.6424223388671875,0,0,0.91728
3.573999567015562,0,0,1.4628572143554686,0,0,0.68796
3.577140214998508,0,0,1.16837041015625,0,0,0.53508
3.5802483260049485,0,0,1.4867992309570313,0,0,0.99372
3.583351881010458,0,0,1.438915197753906,0,0,0.99372
3.5864575850137044,0,0,1.20667763671875,0,0,0.22932
3.5895660660171416,0,0,1.2378022583007813,0,0,0.84084
3.5926661400008015,0,0,1.4820108276367188,0,0,0.91728
3.595759732008446,0,0,1.1109095703125,0,0,1.2994800000000002
3.598869214009028,0,0,1.1180921752929687,0,0,0.84084
3.601976491016103,0,0,1.3862427612304686,0,0,0.99372
3.605081121000694,0,0,1.35990654296875,0,0,0.53508
3.608188212994719,0,0,1.3287819213867187,0,0,0.3822
3.6112909910152666,0,0,1.5418658691406248,0,0,0.99372
3.6143958430038765,0,0,1.3383587280273437,0,0,0.91728
3.6175025650009047,0,0,1.120486376953125,0,0,0.84084
3.6206109159975313,0,0,1.5083470458984374,0,0,0.91728
3.62371752699255,0,0,1.3048399047851562,0,0,0.99372
3.6268221749924123,0,0,1.1061211669921875,0,0,0.84084
3.6299283230036963,0,0,1.426944189453125,0,0,0.84084
3.6330342669971287,0,0,1.3072341064453123,0,0,0.99372
3.636143212002935,0,0,1.1420341918945311,0,0,-9.09636
3.639269395993324,0,0,1.3215993164062498,0,0,0.6115200000000001
3.6423762110061944,0,0,1.5131354492187499,0,0,0.84084
3.6454821919905953,0,0,1.1013327636718748,0,0,0.91728
3.6485901180130895,0,0,1.1731588134765625,0,0,0.53508
3.6517182099923957,0,0,1.484405029296875,0,0,0.7644
3.654824283992639,0,0,1.1420341918945311,0,0,20
3.6579440429923125,0,0,1.1037269653320312,0,0,0.0
3.66105583900935,0,0,1.6735469604492186,0,0,0.84084
3.664212300995132,0,0,1.3263877197265623,0,0,0.68796
3.667329468007665,0,0,1.158793603515625,0,0,0.91728
3.6704461709887255,0,0,1.3024457031249999,0,0,0.68796
3.673553578002611,0,0,1.254561669921875,0,0,0.91728
3.6766881330113392,0,0,1.1827356201171875,0,0,0.6115200000000001
3.6798312249884475,0,0,1.22583125,0,0,0.99372
3.6829376330133528,0,0,1.2737152832031249,0,0,0.99372
3.686045558017213,0,0,1.189918225097656,0,0,0.07644000000000001
3.68914029901498,0,0,1.2306196533203124,0,0,0.6115200000000001
3.692267501988681,0,0,1.3910311645507811,0,0,0.84084
3.695370150002418,0,0,1.1659762084960936,0,0,1.2230400000000001
3.6984730389958713,0,0,1.2521674682617188,0,0,0.45864
3.70157516899053,0,0,1.4604630126953124,0,0,1.07016
3.7046813539927825,0,0,1.1875240234375,0,0,1.911
3.707783241989091,0,0,1.3359645263671873,0,0,0.45864
3.710871687013423,0,0,1.5610194824218748,0,0,0.7644
3.7139757790137082,0,0,1.2904746948242187,0,0,0.7644
3.717079927009763,0,0,1.218648645019531,0,0,0.68796
3.7201859269989654,0,0,1.4437036010742186,0,0,0.7644
3.7232897419889923,0,0,1.3096283081054687,0,0,0.99372
3.726392907992704,0,0,1.197100830078125,0,0,0.0
3.7294963900058065,0,0,1.5083470458984374,0,0,0.99372
3.7326013339916244,0,0,1.2521674682617188,0,0,1.07016
3.7357050369901117,0,0,1.209071838378906,0,0,-8.943480000000001
3.738826926011825,0,0,1.4006079711914061,0,0,0.68796
3.741930110991234,0,0,1.4245499877929686,0,0,0.99372
3.745092018012656,0,0,1.1372457885742187,0,0,1.2230400000000001
3.748533920996124,0,0,1.350329736328125,0,0,0.68796
3.751638957997784,0,0,1.2761094848632812,0,0,1.2230400000000001
3.7547489760036115,0,0,1.0917559570312498,0,0,0.99372
3.757854530995246,0,0,1.1875240234375,0,0,0.53508
3.7609605680045206,0,0,1.5394716674804687,0,0,0.84084
3.764066994015593,0,0,1.3742717529296875,0,0,0.53508
3.7671678829938173,0,0,1.1037269653320312,0,0,0.99372
3.7702710859884974,0,0,1.4915876342773438,0,0,0.84084
3.773373548989184,0,0,1.2569558715820313,0,0,1.1465999999999998
3.776478159998078,0,0,1.1707646118164061,0,0,0.91728
3.7797162880015094,0,0,1.3814543579101561,0,0,0.91728
3.7828421390149742,0,0,1.3215993164062498,0,0,0.22932
3.7859519539924804,0,0,1.0414777221679687,0,0,0.07644000000000001
3.7890599720121827,0,0,1.2832920898437499,0,0,0.84084
3.792224211996654,0,0,1.2378022583007813,0,0,0.6115200000000001
3.7953327120048925,0,0,1.1563994018554686,0,0,1.07016
3.798440101003507,0,0,1.3575123413085937,0,0,0.84084
3.8015500080073252,0,0,1.3215993164062498,0,0,0.68796
3.8046580819936935,0,0,1.1228805786132812,0,0,0.7644
3.8077612849883735,0,0,1.0773907470703123,0,0,0.7644
3.810865006991662,0,0,1.4437036010742186,0,0,0.84084
3.813973137002904,0,0,1.2737152832031249,0,0,0.91728
3.817079377011396,0,0,1.1156979736328125,0,0,0.68796
3.8201958400022704,0,0,1.458068811035156,0,0,0.68796
3.823336709989235,0,0,1.2306196533203124,0,0,1.07016
3.826445617014542,0,0,1.1180921752929687,0,0,1.1465999999999998
3.8295536910009105,0,0,1.39821376953125,0,0,1.1465999999999998
3.83266178300255,0,0,1.369483349609375,0,0,1.2230400000000001
3.8357838570082095,0,0,1.1635820068359375,0,0,0.0
3.8388901530124713,0,0,1.3024457031249999,0,0,0.84084
3.841996986011509,0,0,1.429338391113281,0,0,0.91728
3.84510455999407,0,0,1.1468225952148436,0,0,1.2230400000000001
3.8482126530143432,0,0,1.3239935180664062,0,0,0.53508
3.8513166519987863,0,0,1.5921441040039062,0,0,0.84084
3.8544218740134966,0,0,1.3407529296874998,0,0,0.6115200000000001
3.857542170007946,0,0,1.0869675537109373,0,0,0.6115200000000001
3.8606512809928972,0,0,1.6136919189453125,0,0,0.7644
3.86385735400836,0,0,1.13006318359375,0,0,0.7644
3.866962724016048,0,0,1.1875240234375,0,0,0.6115200000000001
3.870070687000407,0,0,1.3862427612304686,0,0,0.84084
3.873175317014102,0,0,1.3623007446289062,0,0,0.84084
3.876280575990677,0,0,1.1444283935546875,0,0,0.99372
3.87938500099699,0,0,1.5610194824218748,0,0,1.1465999999999998
3.8824896489968523,0,0,1.3407529296874998,0,0,0.99372
3.885596389998682,0,0,1.1085153686523437,0,0,0.0
3.888704075012356,0,0,1.2808978881835937,0,0,0.68796
3.8918407410092186,0,0,1.3311761230468748,0,0,0.7644
3.894944778003264,0,0,1.0654197387695312,0,0,1.45236
3.898049943993101,0,0,1.2306196533203124,0,0,0.68796
3.901154888997553,0,0,1.5466542724609373,0,0,1.07016
3.904261276999023,0,0,1.2282254516601563,0,0,0.7644
3.9073634069936816,0,0,1.2713210815429687,0,0,0.68796
3.9104704440105706,0,0,1.6160861206054686,0,0,0.99372
3.913577110011829,0,0,1.0726023437499999,0,0,0.6115200000000001
3.916685017000418,0,0,0.967257470703125,0,0,0.6115200000000001
3.919818276015576,0,0,1.4125789794921875,0,0,0.45864
3.9229241459979676,0,0,1.5131354492187499,0,0,1.1465999999999998
3.92603062800481,0,0,1.0869675537109373,0,0,0.99372
3.9291359609924257,0,0,1.3024457031249999,0,0,0.91728
3.932242850016337,0,0,1.2785036865234374,0,0,1.2230400000000001
3.9354241080000065,0,0,1.0390835205078124,0,0,0.0
3.938534756016452,0,0,1.3646949462890625,0,0,0.99372
3.9418033830006607,0,0,1.3958195678710936,0,0,0.68796
3.944918568013236,0,0,1.1085153686523437,0,0,1.2230400000000001
3.9480252350040246,0,0,1.3575123413085937,0,0,0.68796
3.9511300860031042,0,0,1.5945383056640625,0,0,1.07016
3.9542767519888002,0,0,1.1156979736328125,0,0,0.99372
3.9576640269951895,0,0,1.35990654296875,0,0,0.53508
3.9608558769978117,0,0,1.5753846923828123,0,0,0.91728
3.9639667099982034,0,0,1.1109095703125,0,0,0.6115200000000001
3.9670723210147116,0,0,1.1947066284179686,0,0,0.0
3.970178488001693,0,0,1.4915876342773438,0,0,0.6115200000000001
3.973282821010798,0,0,1.139639990234375,0,0,0.91728
3.9764279130031355,0,0,1.1228805786132812,0,0,0.7644
3.979531541990582,0,0,1.6831237670898436,0,0,0.7644
3.9826786709891167,0,0,1.2904746948242187,0,0,0.91728
3.9857853930152487,0,0,1.177947216796875,0,0,0.84084
3.9888923930120654,0,0,1.35990654296875,0,0,1.1465999999999998
3.9920003930164967,0,0,1.3072341064453123,0,0,0.7644
3.99513830000069,0,0,1.1659762084960936,0,0,0.0
3.998373206006363,0,0,1.3263877197265623,0,0,0.7644
4.001493093994213,0,0,1.3718775512695311,0,0,0.84084
4.004604463989381,0,0,1.1540052001953125,0,0,1.2230400000000001
4.007711963990005,0,0,1.235408056640625,0,0,0.3822
4.010816871013958,0,0,1.6615759521484375,0,0,0.91728
4.0139226489991415,0,0,1.1468225952148436,0,0,0.84084
4.01702925999416,0,0,1.1947066284179686,0,0,0.84084
4.020137760002399,0,0,1.4772224243164063,0,0,0.91728
4.023240037000505,0,0,1.0989385620117187,0,0,0.53508
4.02634607400978,0,0,1.1109095703125,0,0,0.68796
4.029453591996571,0,0,1.66636435546875,0,0,0.53508
4.032590777002042,0,0,1.3479355346679687,0,0,0.84084
4.035725961992284,0,0,1.0773907470703123,0,0,0.91728
4.038832961989101,0,0,1.5083470458984374,0,0,0.7644
4.042047016002471,0,0,1.35990654296875,0,0,1.07016
4.045155089988839,0,0,1.0821791503906248,0,0,0.0
4.048261349002132,0,0,1.2401964599609374,0,0,0.7644
4.051364034006838,0,0,1.2976572998046874,0,0,0.68796
4.054469700000482,0,0,1.16837041015625,0,0,0.68796
4.057590144017013,0,0,1.5107412475585937,0,0,0.6115200000000001
4.060702958988259,0,0,1.4508862060546874,0,0,0.91728
4.063840124988928,0,0,1.2330138549804688,0,0,1.1465999999999998
4.066944551013876,0,0,1.2114660400390624,0,0,0.45864
4.07004997698823,0,0,1.438915197753906,0,0,0.7644
4.073157217004336,0,0,1.1540052001953125,0,0,0.84084
4.076307439012453,0,0,1.2114660400390624,0,0,0.68796
4.079414882988203,0,0,1.6232687255859375,0,0,0.99372
4.082532697007991,0,0,1.1156979736328125,0,0,0.7644
4.0856552709883545,0,0,1.2138602416992186,0,0,0.99372
4.088859398994828,0,0,1.2737152832031249,0,0,0.6115200000000001
4.0919683249958325,0,0,1.2856862915039062,0,0,0.99372
4.095070768991718,0,0,1.209071838378906,0,0,0.22932
4.0981760660069995,0,0,1.3862427612304686,0,0,0.7644
4.1013398980139755,0,0,1.3215993164062498,0,0,0.91728
4.10445293498924,0,0,1.180341418457031,0,0,0.53508
4.107591526990291,0,0,1.4149731811523436,0,0,0.68796
4.110698359989328,0,0,1.4413093994140624,0,0,0.91728
4.1138047669955995,0,0,1.1109095703125,0,0,1.45236
4.116910267010098,0,0,1.3670891479492187,0,0,0.53508
4.1200177849968895,0,0,1.4724340209960938,0,0,0.84084
4.123120211006608,0,0,1.209071838378906,0,0,0.30576000000000003
4.126226469990797,0,0,1.1947066284179686,0,0,0.7644
4.129331395990448,0,0,1.5658078857421873,0,0,0.68796
4.132463766000001,0,0,1.3718775512695311,0,0,0.7644
4.135596784006339,0,0,1.0893617553710937,0,0,0.91728
4.13870289499755,0,0,1.4101847778320311,0,0,0.7644
4.1418086730118375,0,0,1.2378022583007813,0,0,0.99372
4.144914191012504,0,0,1.1875240234375,0,0,0.45864
4.148022061010124,0,0,1.4101847778320311,0,0,0.6115200000000001
4.1511252830096055,0,0,1.5227122558593749,0,0,1.1465999999999998
4.154230449988972,0,0,1.180341418457031,0,0,0.22932
4.157334598014131,0,0,1.3168109130859373,0,0,0.53508
4.160443041997496,0,0,1.5131354492187499,0,0,0.84084
4.163584838010138,0,0,1.0821791503906248,0,0,0.84084
4.166671523009427,0,0,1.2497732666015624,0,0,0.53508
4.169780614989577,0,0,1.4532804077148436,0,0,1.1465999999999998
4.172885484993458,0,0,1.3096283081054687,0,0,0.7644
4.175992892996874,0,0,1.2210428466796874,0,0,0.53508
4.179125207010657,0,0,1.5969325073242187,0,0,0.91728
4.182231262006098,0,0,1.1444283935546875,0,0,0.6115200000000001
4.185336483991705,0,0,1.1252747802734375,0,0,0.84084
4.1884433919913135,0,0,1.465251416015625,0,0,0.84084
4.19157509499928,0,0,1.4987702392578124,0,0,0.84084
4.1946814469993114,0,0,0.9744400756835937,0,0,0.15288000000000002
4.197792854014551,0,0,1.2832920898437499,0,0,0.84084
4.200897428003373,0,0,1.3024457031249999,0,0,0.6115200000000001
4.204002187005244,0,0,1.0917559570312498,0,0,0.53508
4.207105445995694,0,0,1.2282254516601563,0,0,0.53508
4.2102831120137125,0,0,1.429338391113281,0,0,1.1465999999999998
4.213393815007294,0,0,1.149216796875,0,0,0.84084
4.2165337030019145,0,0,1.2785036865234374,0,0,0.84084
4.21963957400294,0,0,1.5442600708007812,0,0,0.68796
4.222744296013843,0,0,1.3623007446289062,0,0,0.6115200000000001
4.22584922099486,0,0,1.2665326782226562,0,0,0.6115200000000001
4.22897288799868,0,0,1.5610194824218748,0,0,0.99372
4.232375513995066,0,0,1.0869675537109373,0,0,0.68796
4.235776287998306,0,0,1.0989385620117187,0,0,0.45864
4.238888380001299,0,0,1.5873557006835937,0,0,1.98744
4.241996658005519,0,0,1.3072341064453123,0,0,0.6115200000000001
4.245120583014796,0,0,1.1827356201171875,0,0,0.91728
4.2484266360115726,0,0,1.455674609375,0,0,0.7644
4.251602967997314,0,0,1.2856862915039062,0,0,0.84084
4.254727338004159,0,0,1.3431471313476562,0,0,0.53508
4.25786268999218,0,0,1.4030021728515625,0,0,0.84084
4.2609858000068925,0,0,1.3479355346679687,0,0,1.1465999999999998
4.264106632996118,0,0,1.0797849487304687,0,0,0.15288000000000002
4.267223411006853,0,0,1.2665326782226562,0,0,0.6115200000000001
4.2703412440023385,0,0,1.4724340209960938,0,0,1.60524
4.273458373005269,0,0,1.0965443603515623,0,0,1.1465999999999998
4.276574799005175,0,0,1.13006318359375,0,0,0.6115200000000001
4.279733945993939,0,0,1.6065093139648436,0,0,0.99372
4.282851816009497,0,0,1.1324573852539062,0,0,0.68796
4.2859692980127875,0,0,1.2952630981445312,0,0,0.45864
4.2890861310006585,0,0,1.618480322265625,0,0,0.6115200000000001
4.292209537990857,0,0,1.2665326782226562,0,0,0.7644
4.295323147991439,0,0,1.20667763671875,0,0,0.84084
4.298440481012221,0,0,1.5011644409179687,0,0,0.68796
4.301556369988248,0,0,1.24498486328125,0,0,0.7644
4.304673481005011,0,0,1.1611878051757811,0,0,1.1465999999999998
4.307839073007926,0,0,1.448492004394531,0,0,0.91728
4.310956517001614,0,0,1.3551181396484375,0,0,0.7644
4.3140732390165795,0,0,1.1037269653320312,0,0,0.07644000000000001
4.317190146015491,0,0,1.2832920898437499,0,0,0.91728
4.320309775008354,0,0,1.2737152832031249,0,0,0.91728
4.323425756010693,0,0,1.0726023437499999,0,0,1.45236
4.326543181989109,0,0,1.3144167114257812,0,0,0.45864
4.329690421989653,0,0,1.39821376953125,0,0,0.84084
4.332806996011641,0,0,1.1013327636718748,0,0,0.7644
4.335923792008543,0,0,1.3455413330078123,0,0,0.7644
4.339038236008491,0,0,1.4149731811523436,0,0,0.68796
4.342153698991751,0,0,1.0845733520507812,0,0,0.68796
4.345269643003121,0,0,1.177947216796875,0,0,0.68796
4.348403178999433,0,0,1.5131354492187499,0,0,0.68796
4.351517586008413,0,0,1.3383587280273437,0,0,0.84084
4.354636808013311,0,0,0.9720458740234375,0,0,0.99372
4.357755308010383,0,0,1.5921441040039062,0,0,0.84084
4.3608728449908085,0,0,1.3623007446289062,0,0,1.07016
4.363988047989551,0,0,1.209071838378906,0,0,-9.784320000000001
4.367107528989436,0,0,1.22583125,0,0,1.07016
4.370224418002181,0,0,1.2880804931640624,0,0,0.68796
4.373339918005513,0,0,1.1923124267578125,0,0,0.68796
4.376457936014049,0,0,1.3431471313476562,0,0,0.84084
4.379602583008818,0,0,1.4700398193359374,0,0,0.7644
4.382767100993078,0,0,1.1923124267578125,0,0,0.7644
4.3858900270133745,0,0,1.3144167114257812,0,0,0.53508
4.389017415000126,0,0,1.5394716674804687,0,0,0.7644
4.392136859009042,0,0,1.1037269653320312,0,0,0.84084
4.395254285016563,0,0,1.2114660400390624,0,0,0.6115200000000001
4.3983700620010495,0,0,1.608903515625,0,0,0.68796
4.401485914015211,0,0,1.3335703247070312,0,0,0.68796
4.404603858012706,0,0,1.1444283935546875,0,0,0.91728
4.407719784008805,0,0,1.668758557128906,0,0,0.84084
4.4108348570007365,0,0,1.3479355346679687,0,0,20
4.413951468013693,0,0,1.180341418457031,0,0,0.0
4.417066968017025,0,0,1.429338391113281,0,0,0.99372
4.420183597016148,0,0,1.3311761230468748,0,0,0.84084
4.423297467001248,0,0,1.1276689819335937,0,0,0.30576000000000003
4.4264405780122615,0,0,1.3718775512695311,0,0,0.45864
4.429559818003327,0,0,1.3144167114257812,0,0,0.68796
4.432677281001816,0,0,1.1923124267578125,0,0,1.2230400000000001
4.43583826199756,0,0,1.2689268798828124,0,0,0.22932
4.438954317010939,0,0,1.4772224243164063,0,0,1.2230400000000001
4.442070927994791,0,0,1.1061211669921875,0,0,0.6115200000000001
4.445187075005379,0,0,1.0797849487304687,0,0,0.53508
4.448304519988596,0,0,1.668758557128906,0,0,-9.24924
4.451420592988143,0,0,1.2569558715820313,0,0,0.91728
4.4545208899944555,0,0,1.189918225097656,0,0,0.91728
4.457645351998508,0,0,1.5059528442382812,0,0,0.53508
4.460786648007343,0,0,1.3096283081054687,0,0,0.99372
4.463955813989742,0,0,1.1133037719726562,0,0,0.53508
4.467083516996354,0,0,1.2713210815429687,0,0,0.91728
4.470199905015761,0,0,1.3311761230468748,0,0,0.99372
4.4733122939942405,0,0,1.3287819213867187,0,0,0.7644
4.477634372015018,0,0,1.4125789794921875,0,0,0.45864
4.481111127010081,0,0,1.2473790649414063,0,0,0.68796
4.484382902010111,0,0,1.254561669921875,0,0,0.45864
4.4876412710000295,0,0,1.4125789794921875,0,0,0.30576000000000003
4.4907444739947096,0,0,1.3383587280273437,0,0,0.7644
4.4938471039931756,0,0,1.0989385620117187,0,0,0.7644
4.498443399992539,0,0,1.599326708984375,0,0,1.1465999999999998
