Time,AccelX1,AccelY1,AccelZ1,AccelX2,AccelY2,AccelZ2
3.963010385632515e-06,0,0,1.2569558715820313,0,0,-8.71416
0.003669063007691875,0,0,1.4413093994140624,0,0,0.84084
0.00742436500149779,0,0,1.2665326782226562,0,0,0.53508
0.011087965016486123,0,0,1.39821376953125,0,0,0.6115200000000001
0.014580752002075315,0,0,1.1252747802734375,0,0,0.68796
0.018117243016604334,0,0,1.2665326782226562,0,0,0.91728
0.02159903000574559,0,0,1.4604630126953124,0,0,0.30576000000000003
0.02563979200203903,0,0,1.1156979736328125,0,0,0.22932
0.029105135006830096,0,0,1.4820108276367188,0,0,0.7644
0.03222389001166448,0,0,1.16837041015625,0,0,0.84084
0.035337570996489376,0,0,1.2593500732421874,0,0,0.53508
0.03843728901119903,0,0,1.3766659545898436,0,0,0.7644
0.04152448900276795,0,0,1.4245499877929686,0,0,1.2230400000000001
0.04477846500230953,0,0,1.2737152832031249,0,0,0.6115200000000001
0.047897053009364754,0,0,1.2473790649414063,0,0,0.30576000000000003
0.051012659998377785,0,0,1.39821376953125,0,0,0.68796
0.054120008018799126,0,0,1.3263877197265623,0,0,0.7644
0.057220486021833494,0,0,1.1540052001953125,0,0,1.07016
0.06033874102286063,0,0,1.2521674682617188,0,0,1.07016
0.06345575500745326,0,0,1.1755530151367186,0,0,0.91728
0.0665721770201344,0,0,1.2665326782226562,0,0,0.7644
0.07004235399654135,0,0,1.189918225097656,0,0,1.1465999999999998
0.07329108801786788,0,0,1.2713210815429687,0,0,0.68796
0.07642271401709877,0,0,1.1133037719726562,0,0,0.3822
0.07971768901916221,0,0,1.3168109130859373,0,0,0.45864
0.08309112599818036,0,0,1.350329736328125,0,0,0.7644
0.08621475100517273,0,0,1.2761094848632812,0,0,0.84084
0.08932965400163084,0,0,1.5179238525390624,0,0,0.6115200000000001
0.09244463199866004,0,0,1.3838485595703125,0,0,0.7644
0.09555912800715305,0,0,1.3120225097656248,0,0,1.07016
0.09867623500758782,0,0,1.426944189453125,0,0,1.1465999999999998
0.10182382300263271,0,0,1.3838485595703125,0,0,1.37592
0.10494498501066118,0,0,1.1420341918945311,0,0,0.53508
0.10805949999485165,0,0,1.2928688964843749,0,0,0.3822
0.11117310699773952,0,0,1.4030021728515625,0,0,0.84084
0.11427838102099486,0,0,1.2521674682617188,0,0,0.3822
0.11741806101053953,0,0,1.35990654296875,0,0,0.7644
0.12054150202311575,0,0,1.2952630981445312,0,0,0.45864
0.12377558901789598,0,0,1.2425906616210938,0,0,0.68796
0.12681452999822795,0,0,1.1947066284179686,0,0,0.22932
0.12961277100839652,0,0,1.3479355346679687,0,0,0.68796
0.13241228900733404,0,0,1.37906015625,0,0,1.2230400000000001
0.13520871600485407,0,0,1.1540052001953125,0,0,0.53508
0.13806864101206884,0,0,1.0989385620117187,0,0,0.99372
0.1408712150005158,0,0,1.4173673828125,0,0,0.84084
0.14369615900795907,0,0,1.2880804931640624,0,0,0.84084
0.14649714101688005,0,0,1.2497732666015624,0,0,1.45236
0.1492910670058336,0,0,1.22583125,0,0,1.07016
0.1520862519973889,0,0,1.5083470458984374,0,0,0.84084
0.15491319602006115,0,0,1.180341418457031,0,0,0.6115200000000001
0.15770965901901945,0,0,1.2497732666015624,0,0,1.37592
0.1605056410189718,0,0,1.2689268798828124,0,0,0.99372
0.16390285501256585,0,0,1.3575123413085937,0,0,1.07016
0.16671611400670372,0,0,1.158793603515625,0,0,0.45864
0.16951467000762932,0,0,1.448492004394531,0,0,1.07016
0.17231359600555152,0,0,1.4173673828125,0,0,0.99372
0.175112541008275,0,0,1.1228805786132812,0,0,0.6115200000000001
0.17791431801742874,0,0,1.2952630981445312,0,0,0.84084
0.18071230000350624,0,0,1.4628572143554686,0,0,1.07016
0.18353904099785723,0,0,1.3048399047851562,0,0,0.84084
0.1865402230178006,0,0,1.218648645019531,0,0,0.91728
0.18933864901191555,0,0,1.4508862060546874,0,0,1.1465999999999998
0.19213931600097567,0,0,1.4604630126953124,0,0,0.6115200000000001
0.19493787200190127,0,0,1.0965443603515623,0,0,0.84084
0.19773359401733615,0,0,1.3383587280273437,0,0,0.7644
0.2005284640181344,0,0,1.3742717529296875,0,0,0.91728
0.2033951299963519,0,0,1.1061211669921875,0,0,0.6115200000000001
0.2062043150071986,0,0,1.350329736328125,0,0,0.68796
0.20900709301349707,0,0,1.3527239379882812,0,0,0.6115200000000001
0.21180605600238778,0,0,1.37906015625,0,0,0.53508
0.2146040380175691,0,0,1.1923124267578125,0,0,0.68796
0.21740133399725892,0,0,1.2521674682617188,0,0,0.22932
0.2209463430044707,0,0,1.3287819213867187,0,0,1.2230400000000001
0.22391487800632603,0,0,1.3479355346679687,0,0,0.6115200000000001
0.22701735500595532,0,0,1.254561669921875,0,0,0.3822
0.23021188701386563,0,0,1.3144167114257812,0,0,0.53508
0.23332929101889022,0,0,1.1133037719726562,0,0,0.53508
0.2364560640126001,0,0,1.235408056640625,0,0,0.68796
0.2395738750055898,0,0,1.426944189453125,0,0,0.68796
0.2426933149981778,0,0,1.3359645263671873,0,0,1.07016
0.2458118850190658,0,0,1.2306196533203124,0,0,0.91728
0.24896073201671243,0,0,1.24498486328125,0,0,0.7644
0.2520764320215676,0,0,1.4317325927734375,0,0,0.7644
0.25519376099691726,0,0,1.0893617553710937,0,0,0.68796
0.25831177600775845,0,0,1.2617442749023438,0,0,0.53508
0.26142501199501567,0,0,1.4437036010742186,0,0,0.45864
0.2645401750050951,0,0,1.2042834350585936,0,0,0.68796
0.26765500401961617,0,0,1.235408056640625,0,0,0.7644
0.2707720739999786,0,0,1.3407529296874998,0,0,0.91728
0.2742644539976027,0,0,1.2808978881835937,0,0,0.6115200000000001
0.27755676201195456,0,0,1.4604630126953124,0,0,0.91728
0.2815493759990204,0,0,1.4604630126953124,0,0,0.53508
0.2848757030151319,0,0,1.2018892333984375,0,0,0.6115200000000001
0.28811114199925214,0,0,1.3670891479492187,0,0,0.84084
0.2913528210192453,0,0,1.3263877197265623,0,0,0.91728
0.2946136300161015,0,0,1.3168109130859373,0,0,0.68796
0.2980571580119431,0,0,1.3168109130859373,0,0,0.99372
0.3012580790091306,0,0,1.3623007446289062,0,0,0.84084
0.3045188880059868,0,0,1.1851298217773436,0,0,0.6115200000000001
0.3077519750222564,0,0,1.3192051147460937,0,0,0.6115200000000001
0.3109334330074489,0,0,1.4700398193359374,0,0,1.2994800000000002
0.3140846690221224,0,0,1.2880804931640624,0,0,0.99372
0.317184128012741,0,0,1.2617442749023438,0,0,0.53508
0.32030842002131976,0,0,1.4245499877929686,0,0,0.53508
0.32341454600100406,0,0,1.3527239379882812,0,0,0.53508
0.32662122600595467,0,0,1.3192051147460937,0,0,0.91728
0.33088802100974135,0,0,1.3623007446289062,0,0,0.6115200000000001
0.33345206201192923,0,0,1.3407529296874998,0,0,0.99372
0.3360099350102246,0,0,1.1180921752929687,0,0,0.53508
0.33855253100045957,0,0,1.350329736328125,0,0,1.2230400000000001
0.3410810909990687,0,0,1.1276689819335937,0,0,1.07016
0.34364309400552884,0,0,1.1731588134765625,0,0,0.6115200000000001
0.34634041000390425,0,0,1.3335703247070312,0,0,0.3822
0.3488906910060905,0,0,1.3670891479492187,0,0,0.7644
0.35143738001352176,0,0,1.4724340209960938,0,0,1.2230400000000001
0.35400569799821824,0,0,1.1444283935546875,0,0,0.53508
0.35654979399987496,0,0,1.2593500732421874,0,0,0.53508
0.3590927050099708,0,0,1.2641384765625,0,0,0.53508
0.3616344860056415,0,0,1.3910311645507811,0,0,0.99372
0.364176249015145,0,0,1.1372457885742187,0,0,0.68796
0.3667216589965392,0,0,1.0917559570312498,0,0,0.99372
0.3692618110217154,0,0,1.2425906616210938,0,0,0.6115200000000001
0.37180438899667934,0,0,1.5155296508789062,0,0,0.91728
0.3743480400007684,0,0,1.2497732666015624,0,0,0.84084
0.37688919200445525,0,0,1.2952630981445312,0,0,0.7644
0.3794298249995336,0,0,1.407790576171875,0,0,0.3822
0.3820013650110923,0,0,1.388636962890625,0,0,0.84084
0.3845658680074848,0,0,1.2282254516601563,0,0,0.99372
0.38710983502096497,0,0,1.2497732666015624,0,0,1.45236
0.38965568999992684,0,0,1.4245499877929686,0,0,0.68796
0.3921996380086057,0,0,1.3359645263671873,0,0,0.91728
0.39474464100203477,0,0,1.2808978881835937,0,0,0.91728
0.3972860520007089,0,0,1.2737152832031249,0,0,1.37592
0.3998289630108047,0,0,1.3934253662109375,0,0,0.6115200000000001
0.40242346600280143,0,0,1.3910311645507811,0,0,0.53508
0.4049718400056008,0,0,1.5275006591796874,0,0,0.84084
0.40751734300283715,0,0,1.254561669921875,0,0,1.2994800000000002
0.4100634019996505,0,0,1.43652099609375,0,0,0.6115200000000001
0.4126057760149706,0,0,1.407790576171875,0,0,0.6115200000000001
0.41514665001886897,0,0,1.2713210815429687,0,0,0.7644
0.41768802399747074,0,0,1.2306196533203124,0,0,0.6115200000000001
0.42022960100439377,0,0,1.4532804077148436,0,0,1.1465999999999998
0.4227850860042963,0,0,1.4939818359375,0,0,1.07016
0.42543645901605487,0,0,1.0390835205078124,0,0,0.53508
0.42811951600015163,0,0,1.3192051147460937,0,0,0.68796
0.43123651199857704,0,0,1.4006079711914061,0,0,1.07016
0.43435630400199443,0,0,1.254561669921875,0,0,0.91728
0.437470614007907,0,0,1.1540052001953125,0,0,0.07644000000000001
0.4405855360091664,0,0,1.22583125,0,0,0.53508
0.44371906900778413,0,0,1.3239935180664062,0,0,0.68796
0.4468336760182865,0,0,1.2880804931640624,0,0,1.37592
0.44994745001895353,0,0,1.4987702392578124,0,0,0.91728
0.45306111199897714,0,0,1.5083470458984374,0,0,0.99372
0.45617599700926803,0,0,1.1276689819335937,0,0,0.30576000000000003
0.4592899010167457,0,0,1.4101847778320311,0,0,0.68796
0.4624042110226583,0,0,1.448492004394531,0,0,0.68796
0.4655166150187142,0,0,1.158793603515625,0,0,0.6115200000000001
0.4686330920085311,0,0,1.254561669921875,0,0,0.84084
0.47175531001994386,0,0,1.24498486328125,0,0,0.68796
0.47487391700269654,0,0,1.3000515014648437,0,0,0.84084
0.4779889500059653,0,0,1.2689268798828124,0,0,0.07644000000000001
0.4811034830054268,0,0,1.3455413330078123,0,0,1.07016
0.4842173120123334,0,0,1.254561669921875,0,0,2.36964
0.48733132702182047,0,0,1.3024457031249999,0,0,0.91728
0.4904462670092471,0,0,1.3575123413085937,0,0,0.53508
0.4935590960085392,0,0,1.1228805786132812,0,0,0.7644
0.49667327699717134,0,0,1.2761094848632812,0,0,0.68796
0.49978873602231033,0,0,1.4532804077148436,0,0,1.07016
0.5029039540095255,0,0,1.3934253662109375,0,0,0.91728
0.5176233160018455,0,0,1.2880804931640624,0,0,0.15288000000000002
0.5208409030165058,0,0,1.24498486328125,0,0,0.84084
0.5239796210080385,0,0,1.3144167114257812,0,0,0.68796
0.5270848759973887,0,0,1.2856862915039062,0,0,1.2994800000000002
0.5301859090104699,0,0,1.4125789794921875,0,0,0.91728
0.5340615989989601,0,0,1.3623007446289062,0,0,0.7644
0.5375518120126799,0,0,1.3000515014648437,0,0,0.6115200000000001
0.5406582890136633,0,0,1.3048399047851562,0,0,-0.30576000000000003
0.5437699710018933,0,0,1.2306196533203124,0,0,0.53508
0.5468739670177456,0,0,1.2018892333984375,0,0,1.45236
0.5499786290165503,0,0,1.2425906616210938,0,0,0.84084
0.5530752920021769,0,0,1.3407529296874998,0,0,0.99372
0.5561755660164636,0,0,1.16837041015625,0,0,0.91728
0.559276209998643,0,0,1.407790576171875,0,0,0.84084
0.5623884469969198,0,0,1.4221557861328125,0,0,0.68796
0.5655032579961699,0,0,1.197100830078125,0,0,0.6115200000000001
0.5686412719951477,0,0,1.2330138549804688,0,0,0.91728
0.5717569529952016,0,0,1.3431471313476562,0,0,0.7644
0.5749760770122521,0,0,1.3000515014648437,0,0,0.84084
0.5782875520235393,0,0,1.4413093994140624,0,0,0.7644
0.5814750280114822,0,0,1.24498486328125,0,0,1.1465999999999998
0.5846438940207008,0,0,1.16837041015625,0,0,0.68796
0.5877661490230821,0,0,1.3431471313476562,0,0,0.07644000000000001
0.590889070997946,0,0,1.4413093994140624,0,0,0.53508
0.5940502330195159,0,0,1.218648645019531,0,0,0.68796
0.597170635999646,0,0,1.2282254516601563,0,0,1.07016
0.6002885760099161,0,0,1.4101847778320311,0,0,0.91728
0.6034214420069475,0,0,1.2569558715820313,0,0,1.2994800000000002
0.6065463270060718,0,0,1.0965443603515623,0,0,0.53508
0.6096665080112871,0,0,1.2761094848632812,0,0,0.6115200000000001
0.6127679860219359,0,0,1.5227122558593749,0,0,0.84084
0.6158908890211023,0,0,1.2282254516601563,0,0,1.68168
0.619045792001998,0,0,1.3311761230468748,0,0,0.91728
0.6221769170078915,0,0,1.5203180541992187,0,0,0.7644
0.6253267640131526,0,0,1.3000515014648437,0,0,0.84084
0.6284583340166137,0,0,1.369483349609375,0,0,0.30576000000000003
0.6315812930115499,0,0,1.2641384765625,0,0,1.07016
0.6347050670010503,0,0,1.158793603515625,0,0,1.1465999999999998
0.6378501730214339,0,0,1.2952630981445312,0,0,-9.32568
0.6409930950030684,0,0,1.2689268798828124,0,0,0.91728
0.6441098310169764,0,0,1.2713210815429687,0,0,0.53508
0.6472244200122077,0,0,1.2282254516601563,0,0,1.07016
0.650340841995785,0,0,1.5059528442382812,0,0,0.84084
0.6534545970207546,0,0,1.3311761230468748,0,0,1.1465999999999998
0.6565685370005667,0,0,1.218648645019531,0,0,0.53508
0.6596808850008529,0,0,1.3766659545898436,0,0,0.45864
0.6627961030171718,0,0,1.4963760375976562,0,0,0.7644
0.665940673003206,0,0,1.1731588134765625,0,0,0.84084
0.6690555759996641,0,0,1.2761094848632812,0,0,0.91728
0.6721697940083686,0,0,1.419761584472656,0,0,0.84084
0.6752826980082318,0,0,1.2904746948242187,0,0,0.7644
0.6783970459946431,0,0,1.209071838378906,0,0,0.3822
0.681508505018428,0,0,1.3024457031249999,0,0,1.1465999999999998
0.6846218340215273,0,0,1.2641384765625,0,0,0.91728
0.6877347370027564,0,0,1.3215993164062498,0,0,0.30576000000000003
0.6908504920138512,0,0,1.4532804077148436,0,0,0.68796
0.6939649700070731,0,0,1.2976572998046874,0,0,0.45864
0.6972833150066435,0,0,1.2737152832031249,0,0,1.1465999999999998
0.7004209400038235,0,0,1.4915876342773438,0,0,0.99372
0.7035557140188757,0,0,1.5275006591796874,0,0,0.84084
0.7066611170012038,0,0,1.3431471313476562,0,0,0.91728
0.709796445997199,0,0,1.22583125,0,0,0.53508
0.7129310530144721,0,0,1.4221557861328125,0,0,0.84084
0.7160490300157107,0,0,1.1085153686523437,0,0,0.91728
0.7191722849966027,0,0,1.369483349609375,0,0,0.7644
0.722284726012731,0,0,1.3814543579101561,0,0,0.91728
0.7253787030058447,0,0,1.2856862915039062,0,0,0.53508
0.7285161250038072,0,0,1.3263877197265623,0,0,0.99372
0.7316346020088531,0,0,1.3024457031249999,0,0,0.99372
0.7347758389951196,0,0,1.2880804931640624,0,0,0.91728
0.7379246120108292,0,0,1.3383587280273437,0,0,0.22932
0.7410433299955912,0,0,1.2737152832031249,0,0,0.91728
0.7442766210006084,0,0,1.158793603515625,0,0,0.84084
0.7474050050077494,0,0,1.2378022583007813,0,0,1.2230400000000001
0.7505249090027064,0,0,1.5203180541992187,0,0,0.53508
0.753640812006779,0,0,1.3934253662109375,0,0,1.07016
0.7567584560019895,0,0,1.1707646118164061,0,0,0.45864
0.7598774520156439,0,0,1.3096283081054687,0,0,2.4460800000000003
0.7630392620048951,0,0,1.4604630126953124,0,0,0.7644
0.7661588129994925,0,0,1.1013327636718748,0,0,0.99372
0.769273272017017,0,0,1.2282254516601563,0,0,0.68796
0.7723898790136445,0,0,1.2521674682617188,0,0,0.45864
0.7762578280235175,0,0,1.0702081420898437,0,0,0.91728
0.7794142870116048,0,0,1.2689268798828124,0,0,0.84084
0.7825341900170315,0,0,1.3168109130859373,0,0,0.6115200000000001
0.7856483710056636,0,0,1.2737152832031249,0,0,0.30576000000000003
0.7887647000025027,0,0,1.3072341064453123,0,0,0.3822
0.7918703810137231,0,0,1.2330138549804688,0,0,0.99372
0.7950217660109047,0,0,1.2330138549804688,0,0,0.6115200000000001
0.7981411500077229,0,0,1.254561669921875,0,0,0.22932
0.8012556830071844,0,0,1.3024457031249999,0,0,0.45864
0.8043958090129308,0,0,1.3024457031249999,0,0,0.7644
0.8075220269965939,0,0,1.2785036865234374,0,0,1.2230400000000001
0.810641967022093,0,0,1.3862427612304686,0,0,0.6115200000000001
0.8137571670231409,0,0,1.1851298217773436,0,0,0.84084
0.8168879770091735,0,0,1.3072341064453123,0,0,0.22932
0.8200070290185977,0,0,1.426944189453125,0,0,1.07016
0.8232829670014326,0,0,1.455674609375,0,0,1.07016
0.826446555001894,0,0,1.218648645019531,0,0,0.45864
0.8301611540082376,0,0,1.3646949462890625,0,0,0.68796
0.833344426995609,0,0,1.446097802734375,0,0,0.99372
0.8364471819950268,0,0,0.9552864624023437,0,0,0.7644
0.8395374930114485,0,0,1.2401964599609374,0,0,0.6115200000000001
0.8426321190199815,0,0,1.3527239379882812,0,0,0.45864
0.8457201709970832,0,0,1.1156979736328125,0,0,0.68796
0.8488319629977923,0,0,1.22583125,0,0,0.91728
0.8519421810051426,0,0,1.2976572998046874,0,0,1.07016
0.8550513070076704,0,0,1.3096283081054687,0,0,1.1465999999999998
0.8581542840111069,0,0,1.1516109985351561,0,0,0.45864
0.861237984005129,0,0,1.3263877197265623,0,0,0.53508
0.8643570730055217,0,0,1.2282254516601563,0,0,0.68796
0.8674634759954643,0,0,1.2306196533203124,0,0,1.45236
0.8705714720126707,0,0,1.5298948608398437,0,0,0.68796
0.873673449998023,0,0,1.4963760375976562,0,0,1.2994800000000002
0.8767787980032153,0,0,1.0989385620117187,0,0,0.84084
0.8798825900012162,0,0,2.1883003173828124,0,0,1.83456
0.8835154870175757,0,0,2.454056701660156,0,0,1.911
0.8866449269989971,0,0,2.4971523315429685,0,0,1.68168
0.889751516020624,0,0,1.7717092285156248,0,0,0.53508
0.8928882150212303,0,0,1.8124106567382812,0,0,0.99372
0.8959813959954772,0,0,1.2904746948242187,0,0,1.45236
0.899086392018944,0,0,1.8243816650390623,0,0,1.45236
0.9021941480168607,0,0,2.147598889160156,0,0,1.68168
0.9052984029985964,0,0,1.8650830932617186,0,0,1.07016
0.9084037879947573,0,0,1.5394716674804687,0,0,0.84084
0.9114964510081336,0,0,2.0757728393554684,0,0,0.84084
0.9145975580031518,0,0,1.6328455322265625,0,0,1.1465999999999998
0.9177005359961186,0,0,1.9752163696289062,0,0,1.75812
0.9208038100041449,0,0,1.9632453613281249,0,0,0.68796
0.9239097870013211,0,0,1.62805712890625,0,0,0.99372
0.9270490049966611,0,0,2.1811177124023438,0,0,1.5288
0.9301556120044552,0,0,1.7812860351562498,0,0,0.6115200000000001
0.9332567189994734,0,0,1.7357962036132812,0,0,0.68796
0.936360808002064,0,0,1.7429788085937499,0,0,1.2230400000000001
0.939463989023352,0,0,1.2401964599609374,0,0,1.5288
0.9425689110066742,0,0,2.003946789550781,0,0,1.2230400000000001
0.9456700370064937,0,0,2.47081611328125,0,0,1.37592
0.9487740140175447,0,0,1.9129671264648436,0,0,1.45236
0.9518764920067042,0,0,1.946485949707031,0,0,1.2994800000000002
0.9550037470180541,0,0,1.2928688964843749,0,0,0.6115200000000001
0.958113038999727,0,0,1.2904746948242187,0,0,1.37592
0.9612136280047707,0,0,2.6791116577148437,0,0,2.2931999999999997
0.9643163090222515,0,0,1.9752163696289062,0,0,0.68796
0.9674183610186446,0,0,1.5227122558593749,0,0,1.1465999999999998
0.9705228390230332,0,0,2.6431986328124997,0,0,1.5288
0.9736228160036262,0,0,0.8044517578125,0,0,0.84084
0.9767267010174692,0,0,1.6232687255859375,0,0,1.911
0.9798301790142432,0,0,2.3151930053710936,0,0,1.37592
0.9829344530007802,0,0,1.0773907470703123,0,0,1.1465999999999998
0.9860578190127853,0,0,2.3247698120117186,0,0,1.2230400000000001
0.989159999997355,0,0,1.3766659545898436,0,0,1.2230400000000001
0.9922656810085755,0,0,1.3311761230468748,0,0,1.83456
0.9953692140115891,0,0,2.1619640991210938,0,0,1.98744
0.9984744880057406,0,0,1.7381904052734374,0,0,1.98744
1.0022072910214774,0,0,1.5658078857421873,0,0,0.91728
1.0054491180053446,0,0,1.3359645263671873,0,0,1.911
1.0087007789989002,0,0,1.4724340209960938,0,0,1.07016
1.0119531440141145,0,0,2.6384102294921874,0,0,0.22932
1.015214934013784,0,0,1.5227122558593749,0,0,1.2230400000000001
1.0184838540153578,0,0,2.482787121582031,0,0,1.75812
1.0217181260231882,0,0,1.4891934326171874,0,0,0.6115200000000001
1.0250035270000808,0,0,1.448492004394531,0,0,0.7644
1.0282935580180492,0,0,2.549824768066406,0,0,1.45236
1.0313170730078127,0,0,2.221819140625,0,0,1.2230400000000001
1.0341773870168254,0,0,1.7693150268554687,0,0,2.14032
1.0369715170236304,0,0,1.697488977050781,0,0,3.7455600000000002
1.0398334240016993,0,0,1.5418658691406248,0,0,1.45236
1.0426412759989034,0,0,1.0486603271484374,0,0,-0.68796
1.045504071022151,0,0,1.8842367065429686,0,0,0.6115200000000001
1.0483747190155555,0,0,3.5960908935546874,0,0,3.2869200000000003
1.0512164590181783,0,0,1.7405846069335937,0,0,-0.68796
1.054107643023599,0,0,0.1197100830078125,0,0,0.0
1.056922754010884,0,0,3.066972326660156,0,0,2.98116
1.0597516609996092,0,0,2.2840683837890623,0,0,1.45236
1.0625696790229995,0,0,0.19393033447265623,0,0,0.0
1.065423660009401,0,0,2.3870190551757813,0,0,3.4398000000000004
1.068304104002891,0,0,3.4620156005859375,0,0,-0.45864
1.0712125650024973,0,0,-0.6057330200195312,0,0,-0.6115200000000001
1.0741179159958847,0,0,2.3918074584960936,0,0,0.84084
1.077035711001372,0,0,1.8243816650390623,0,0,-9.172799999999999
1.081592984002782,0,0,1.3048399047851562,0,0,1.37592
1.0845485930040013,0,0,2.626439221191406,0,0,1.45236
1.0874444440123625,0,0,-0.4477157104492187,0,0,0.45864
1.0902948320144787,0,0,1.917755529785156,0,0,1.5288
1.0931463680171873,0,0,2.5809493896484375,0,0,0.53508
1.0960809590178542,0,0,-1.0797849487304687,0,0,0.15288000000000002
1.0990430870151613,0,0,2.3439234252929686,0,0,1.98744
1.102010363014415,0,0,1.6472107421875,0,0,-0.3822
1.1049755639978684,0,0,-0.02633621826171875,0,0,1.2994800000000002
1.1079232100164518,0,0,3.2034418212890623,0,0,1.37592
1.1108737640024628,0,0,0.5315127685546874,0,0,0.0
1.1138713910186198,0,0,1.3383587280273437,0,0,1.07016
1.1167845190211665,0,0,1.879448303222656,0,0,0.6115200000000001
1.119577168021351,0,0,-0.1292868896484375,0,0,1.5288
1.1223735749954358,0,0,2.1619640991210938,0,0,2.14032
1.1253814620140474,0,0,2.2170307373046874,0,0,0.30576000000000003
1.1282652380177751,0,0,-0.10773907470703124,0,0,0.53508
1.1307120390119962,0,0,2.370259643554687,0,0,1.911
1.1320948540233076,0,0,2.4971523315429685,0,0,1.68168
1.1334745950007346,0,0,0.7302315063476562,0,0,0.53508
1.1348572070128284,0,0,-0.42377369384765623,0,0,-0.30576000000000003
1.1362391330185346,0,0,-0.8116343627929687,0,0,-0.15288000000000002
1.1376193930045702,0,0,1.7453730102539062,0,0,0.3822
1.1390040969999973,0,0,2.085349645996094,0,0,2.2167600000000003
1.1403833380027208,0,0,2.6599580444335937,0,0,2.4460800000000003
1.141782504011644,0,0,1.4173673828125,0,0,1.68168
1.1431638750073034,0,0,0.5698199951171875,0,0,0.07644000000000001
1.1445428570150398,0,0,0.4213794921875,0,0,0.07644000000000001
1.14592270902358,0,0,2.1404162841796874,0,0,0.30576000000000003
1.1473011350026354,0,0,2.5761609863281247,0,0,1.68168
1.148680061014602,0,0,2.540247961425781,0,0,1.75812
1.1500593950040638,0,0,1.637633935546875,0,0,0.91728
1.1514382290188223,0,0,-0.7015010864257812,0,0,-0.3822
1.152818192000268,0,0,-0.2609679809570312,0,0,0.0
1.1541982479975559,0,0,1.0103531005859374,0,0,0.68796
1.1555769520055037,0,0,2.300827795410156,0,0,0.91728
1.156955286016455,0,0,1.905784521484375,0,0,1.5288
1.158351638005115,0,0,1.4532804077148436,0,0,1.83456
1.1597309710050467,0,0,0.239420166015625,0,0,0.15288000000000002
1.1611094160180073,0,0,0.565031591796875,0,0,1.07016
1.162490101007279,0,0,1.9991583862304687,0,0,1.5288
1.1638686020160094,0,0,2.5522189697265625,0,0,1.83456
1.1652471020061057,0,0,2.3965958618164063,0,0,0.7644
1.1667251379985828,0,0,1.189918225097656,0,0,1.2994800000000002
1.1681075270171277,0,0,0.36631285400390623,0,0,-0.30576000000000003
1.1696705810027197,0,0,1.5227122558593749,0,0,0.3822
1.1710568770067766,0,0,1.4987702392578124,0,0,1.1465999999999998
1.1724363590183202,0,0,1.5275006591796874,0,0,1.45236
1.1738338959985413,0,0,1.1755530151367186,0,0,0.45864
1.1752132670080755,0,0,0.4285620971679687,0,0,-0.45864
1.1765924710198306,0,0,0.3447650390625,0,0,0.30576000000000003
1.177973526995629,0,0,1.7262193969726563,0,0,1.60524
1.1793542310188059,0,0,2.2864625854492187,0,0,1.68168
1.1807350640010554,0,0,2.1715409057617188,0,0,1.68168
1.1821206570020877,0,0,1.8195932617187498,0,0,1.75812
1.183507287001703,0,0,0.37828386230468747,0,0,0.07644000000000001
1.18489358399529,0,0,0.7422025146484375,0,0,0.91728
1.1862815649947152,0,0,2.2194249389648437,0,0,1.1465999999999998
1.1876672510115895,0,0,2.3822306518554686,0,0,1.1465999999999998
1.1890537510043941,0,0,1.5753846923828123,0,0,0.45864
1.1904403990192804,0,0,0.6368576416015624,0,0,0.15288000000000002
1.1918261219980195,0,0,-0.02154781494140625,0,0,-0.3822
1.1932144000020344,0,0,0.5027823486328125,0,0,0.22932
1.1946010850078892,0,0,1.3311761230468748,0,0,1.5288
1.1959871410217602,0,0,1.429338391113281,0,0,1.37592
1.1973727150179911,0,0,0.7134720947265625,0,0,1.07016
1.1987591969955247,0,0,0.39983167724609375,0,0,0.7644
1.2001452530093957,0,0,0.43574470214843747,0,0,0.15288000000000002
1.2015309200214688,0,0,2.8706477905273435,0,0,1.2994800000000002
1.2029170120076742,0,0,2.7629087158203123,0,0,2.5989600000000004
1.2043029199994635,0,0,2.7365724975585937,0,0,1.83456
1.2056887540093157,0,0,0.8834604125976562,0,0,0.07644000000000001
1.2070746429963037,0,0,0.36631285400390623,0,0,0.0
1.208460402005585,0,0,1.4341267944335936,0,0,0.15288000000000002
1.2098568100191187,0,0,2.5857377929687497,0,0,1.37592
1.2112464770034421,0,0,2.2864625854492187,0,0,1.75812
1.2126329580205493,0,0,1.0630255371093749,0,0,1.2994800000000002
1.2140197179978713,0,0,0.48123453369140623,0,0,0.84084
1.2154050140234176,0,0,-0.51714755859375,0,0,-1.2230400000000001
1.2167937000049278,0,0,0.5530605834960938,0,0,0.7644
1.2181811630143784,0,0,2.427720483398437,0,0,0.84084
1.2195667560154106,0,0,2.8754361938476563,0,0,2.14032
1.220952756004408,0,0,2.0063409912109376,0,0,1.83456
1.2223384780227207,0,0,0.6775590698242188,0,0,1.98744
1.223724238021532,0,0,-0.25139117431640623,0,0,-0.6115200000000001
1.225111794017721,0,0,0.22744915771484372,0,0,0.3822
1.2264982199994847,0,0,2.0350714111328125,0,0,1.2230400000000001
1.2278837570047472,0,0,2.7844565307617186,0,0,1.37592
1.229277367994655,0,0,1.9704279663085937,0,0,0.68796
1.2306635720015038,0,0,0.4213794921875,0,0,0.68796
1.2320492020226084,0,0,-0.5147533569335937,0,0,0.3822
1.2334361649991479,0,0,1.8650830932617186,0,0,0.91728
1.234822073020041,0,0,1.9823989746093749,0,0,1.37592
1.2362077580182813,0,0,2.7150246826171873,0,0,1.2230400000000001
1.2375935730233323,0,0,1.0414777221679687,0,0,0.22932
1.2389788140135352,0,0,0.42377369384765623,0,0,-0.22932
1.2403651290223934,0,0,1.2593500732421874,0,0,0.30576000000000003
1.2417510000232141,0,0,2.6096798095703124,0,0,1.2994800000000002
1.243152037000982,0,0,2.3032219970703123,0,0,1.98744
1.244541685009608,0,0,1.2761094848632812,0,0,1.5288
1.2459291109989863,0,0,0.33758243408203126,0,0,0.7644
1.2473152040038258,0,0,-0.6488286499023437,0,0,-1.45236
1.2487036670208909,0,0,0.9433154541015625,0,0,0.45864
1.250090426998213,0,0,2.710236279296875,0,0,1.5288
1.251476260018535,0,0,3.2058360229492187,0,0,2.36964
1.252862001012545,0,0,1.7621324218749999,0,0,1.1465999999999998
1.2542482239950914,0,0,0.852335791015625,0,0,1.1465999999999998
1.2556367980141658,0,0,-1.2330138549804688,0,0,-1.2230400000000001
1.257236573001137,0,0,0.076614453125,0,0,0.15288000000000002
1.258648314018501,0,0,2.987963671875,0,0,2.14032
1.2600354620080907,0,0,3.5434184570312497,0,0,2.2167600000000003
1.2614219250099268,0,0,1.3168109130859373,0,0,2.2167600000000003
1.2628089070203714,0,0,0.10295067138671875,0,0,1.2994800000000002
1.2641950560209807,0,0,-1.0510545288085937,0,0,0.0
1.2655857040081173,0,0,1.8602946899414061,0,0,0.0
1.266971741017187,0,0,2.8131869506835936,0,0,1.75812
1.2683611670217942,0,0,2.3511060302734372,0,0,1.83456
1.269747112004552,0,0,1.2785036865234374,0,0,1.2230400000000001
1.2711335940111894,0,0,-0.0383072265625,0,0,-0.15288000000000002
1.2725208350166213,0,0,-0.055066638183593745,0,0,9.631440000000001
1.2739703709958121,0,0,1.7812860351562498,0,0,0.99372
1.2755038320028689,0,0,2.9855694702148434,0,0,1.2230400000000001
1.2769583130138926,0,0,2.0877438476562498,0,0,1.07016
1.278402387019014,0,0,0.0430956298828125,0,0,0.45864
1.279795220005326,0,0,-0.967257470703125,0,0,0.0
1.2811840350041166,0,0,0.2609679809570312,0,0,0.84084
1.2825708690215833,0,0,2.703053674316406,0,0,1.98744
1.2839662580227014,0,0,3.3542765258789062,0,0,1.98744
1.2853523869998753,0,0,1.419761584472656,0,0,0.91728
1.2867386100115255,0,0,0.39264907226562495,0,0,0.22932
1.2881248320045415,0,0,-0.6584054565429687,0,0,0.0
1.289511629001936,0,0,1.6711527587890624,0,0,0.53508
1.2908976290200371,0,0,2.549824768066406,0,0,2.14032
1.2922836290090345,0,0,2.346317626953125,0,0,1.5288
1.2936702410224825,0,0,1.7788918334960937,0,0,1.2230400000000001
1.295057370007271,0,0,0.239420166015625,0,0,-0.6115200000000001
1.2964447970152833,0,0,-0.5195417602539062,0,0,-0.3822
1.2978321120026521,0,0,1.1516109985351561,0,0,0.3822
1.2992381670046598,0,0,3.191470812988281,0,0,1.45236
1.3006257970118895,0,0,2.6384102294921874,0,0,0.84084
1.3021095000149217,0,0,2.1691467041015624,0,0,1.83456
1.303528777003521,0,0,-0.6153098266601562,0,0,-1.07016
1.3049187590077054,0,0,-0.5219359619140624,0,0,0.15288000000000002
1.3063081110012718,0,0,1.9680337646484374,0,0,1.1465999999999998
1.3076943890191615,0,0,3.071760729980469,0,0,1.2994800000000002
1.3090805370011367,0,0,2.4564509033203126,0,0,1.2994800000000002
1.3104666490107775,0,0,1.0079588989257813,0,0,0.68796
1.3118525379977655,0,0,-0.5482721801757812,0,0,-0.68796
1.3132402600022033,0,0,1.2785036865234374,0,0,-0.3822
1.3146267970150802,0,0,2.104503259277344,0,0,1.83456
1.3160135200014338,0,0,2.6288334228515624,0,0,1.2994800000000002
1.3173995389952324,0,0,1.5035586425781249,0,0,1.5288
1.3187861129990779,0,0,0.3447650390625,0,0,0.53508
1.3201717430201825,0,0,-0.5482721801757812,0,0,-0.3822
1.3215586500009522,0,0,1.6615759521484375,0,0,0.22932
1.3229446689947508,0,0,2.3151930053710936,0,0,1.75812
1.3243302990158554,0,0,2.1547814941406247,0,0,1.83456
1.325716077000834,0,0,1.6304513305664061,0,0,1.07016
1.3271003550034948,0,0,0.5363011718749999,0,0,0.07644000000000001
1.3284843000001274,0,0,-0.023942016601562498,0,0,0.15288000000000002
1.3309536930173635,0,0,2.059013427734375,0,0,1.75812
1.3324031180236489,0,0,2.4157494750976563,0,0,1.5288
1.3337927300017327,0,0,2.114080065917969,0,0,1.2994800000000002
1.335183119022986,0,0,-0.5913678100585937,0,0,-0.84084
1.3365739340079017,0,0,-0.22266075439453123,0,0,-0.15288000000000002
1.3379630639974494,0,0,1.0295067138671874,0,0,0.3822
1.3393492860195693,0,0,2.5737667846679684,0,0,1.2994800000000002
1.340735638019396,0,0,2.3223756103515623,0,0,1.37592
1.3421219529991504,0,0,2.300827795410156,0,0,2.36964
1.3436935060017277,0,0,0.13646949462890623,0,0,0.0
1.3450809700007085,0,0,-0.5985504150390625,0,0,0.0
1.3464703030185774,0,0,1.2976572998046874,0,0,0.53508
1.3478589139995165,0,0,2.422932080078125,0,0,0.91728
1.349246044002939,0,0,2.6479870361328124,0,0,1.2230400000000001
1.350632656016387,0,0,1.687912170410156,0,0,1.2230400000000001
1.3520222670049407,0,0,0.5099649536132812,0,0,0.0
1.3534085450228304,0,0,0.7350199096679687,0,0,-0.15288000000000002
1.3547958040144295,0,0,0.9864110839843749,0,0,1.1465999999999998
1.3561822299961932,0,0,1.5418658691406248,0,0,0.53508
1.3575681200018153,0,0,1.7836802368164062,0,0,0.68796
1.3589545090217143,0,0,1.2617442749023438,0,0,0.84084
1.360340526996879,0,0,0.5386953735351562,0,0,0.53508
1.3617275090073235,0,0,2.020706201171875,0,0,1.45236
1.3631151760055218,0,0,2.437297290039062,0,0,2.06388
1.364501158008352,0,0,1.2210428466796874,0,0,1.83456
1.3658904730109498,0,0,0.9145850341796874,0,0,0.22932
1.3672762880160008,0,0,0.09337386474609374,0,0,-0.91728
1.3686634180194233,0,0,0.5578489868164063,0,0,0.0
1.3700495469965972,0,0,2.281674182128906,0,0,1.37592
1.3714474920125213,0,0,3.2824504760742186,0,0,1.83456
1.3728345849958714,0,0,1.9991583862304687,0,0,2.06388
1.3742211960197892,0,0,-0.2920926025390625,0,0,1.45236
1.3756075300043449,0,0,-1.0319009155273438,0,0,-0.7644
1.3769949190027546,0,0,-0.5315127685546874,0,0,-0.30576000000000003
1.3783826410071924,0,0,2.231395947265625,0,0,0.91728
1.3797690299979877,0,0,2.978386865234375,0,0,1.68168
1.381158142001368,0,0,2.157175695800781,0,0,2.2167600000000003
1.3825442160014063,0,0,1.3239935180664062,0,0,2.36964
1.3839304380235262,0,0,0.6679822631835937,0,0,0.0
1.3853165869950317,0,0,0.9002198242187499,0,0,0.0
1.38670284600812,0,0,1.7597382202148437,0,0,0.91728
1.3880885319958907,0,0,2.1595698974609374,0,0,0.68796
1.3894742730190046,0,0,1.7621324218749999,0,0,0.68796
1.3908604769967496,0,0,0.8451531860351562,0,0,0.30576000000000003
1.3922461990150623,0,0,0.2154781494140625,0,0,9.555
1.393632551014889,0,0,1.5059528442382812,0,0,0.30576000000000003
1.3950179220119026,0,0,1.8195932617187498,0,0,1.07016
1.3964790140162222,0,0,1.4772224243164063,0,0,1.1465999999999998
1.3978620319976471,0,0,1.2330138549804688,0,0,1.68168
1.3992415880202316,0,0,0.6536170532226562,0,0,0.7644
1.400620569998864,0,0,1.01514150390625,0,0,0.84084
1.40200144101982,0,0,2.001552587890625,0,0,1.2230400000000001
1.403380163013935,0,0,2.1356278808593747,0,0,0.22932
1.4047587189998012,0,0,1.2282254516601563,0,0,0.6115200000000001
1.4061395900207572,0,0,0.40462008056640625,0,0,1.07016
1.407517646002816,0,0,0.22026655273437498,0,0,-0.53508
1.4088977760111447,0,0,0.55545478515625,0,0,0.6115200000000001
1.4103076830215286,0,0,2.2960393920898436,0,0,1.75812
1.4116989610192832,0,0,2.5905261962890624,0,0,1.83456
1.413085553998826,0,0,0.8954314208984374,0,0,0.84084
1.4144724979996681,0,0,0.028730419921875,0,0,1.37592
1.4158585170225706,0,0,-0.40222587890625,0,0,-0.3822
1.4172480730048846,0,0,2.0781670410156248,0,0,0.68796
1.4186352030083071,0,0,2.961627453613281,0,0,1.60524
1.4200227399996947,0,0,3.404554760742187,0,0,2.2931999999999997
1.4214088699955028,0,0,1.7334020019531249,0,0,-8.17908
1.4227959440031555,0,0,0.1292868896484375,0,0,0.3822
1.4242082220152952,0,0,-0.565031591796875,0,0,-0.53508
1.4255981850146782,0,0,1.2401964599609374,0,0,-0.91728
1.4269860000058543,0,0,2.5665841796874997,0,0,1.1465999999999998
1.4283729630114976,0,0,2.2170307373046874,0,0,1.2994800000000002
1.4298217400209978,0,0,1.39821376953125,0,0,0.91728
1.431210351001937,0,0,-0.4070142822265625,0,0,-0.22932
1.4325981480069458,0,0,-0.17956512451171874,0,0,0.91728
1.4339859440224245,0,0,1.5442600708007812,0,0,0.91728
1.4353716110053938,0,0,2.5857377929687497,0,0,0.91728
1.4367580190009903,0,0,2.2098481323242187,0,0,1.2230400000000001
1.438145723019261,0,0,0.6560112548828124,0,0,1.1465999999999998
1.4395313340064604,0,0,-0.031124621582031248,0,0,-0.3822
1.44091902000946,0,0,0.5817910034179687,0,0,0.99372
1.442307315999642,0,0,2.901772412109375,0,0,2.36964
1.443693779001478,0,0,2.971204260253906,0,0,1.07016
1.4450793540163431,0,0,0.6536170532226562,0,0,0.7644
1.446464687003754,0,0,-0.584185205078125,0,0,0.15288000000000002
1.4478514100192115,0,0,-0.7781155395507812,0,0,-0.99372
1.4492366880003829,0,0,2.221819140625,0,0,0.7644
1.4506339660147205,0,0,2.9448680419921875,0,0,1.68168
1.4521640010061674,0,0,2.0877438476562498,0,0,1.68168
1.4535539830103517,0,0,1.005564697265625,0,0,0.68796
1.455144831998041,0,0,-1.24498486328125,0,0,-0.45864
1.4565430729999207,0,0,-0.18914193115234373,0,0,0.6115200000000001
1.4579357950133272,0,0,2.01112939453125,0,0,1.5288
1.459320332010975,0,0,3.821145849609375,0,0,1.5288
1.460707407008158,0,0,3.0430303100585934,0,0,1.60524
1.4620951660035644,0,0,-0.07422025146484375,0,0,0.91728
1.463482221995946,0,0,-1.2808978881835937,0,0,-1.83456
1.4648702220001724,0,0,-0.8020575561523438,0,0,-0.15288000000000002
1.4662582589953672,0,0,2.7533319091796873,0,0,1.60524
1.4676437599991914,0,0,3.086125939941406,0,0,1.2994800000000002
1.469030278007267,0,0,1.659181750488281,0,0,1.37592
1.4704177410167176,0,0,0.20829554443359374,0,0,1.1465999999999998
1.471804055996472,0,0,-0.8547299926757812,0,0,-0.6115200000000001
1.4731913160067052,0,0,1.2808978881835937,0,0,0.30576000000000003
1.4745780750236008,0,0,2.3918074584960936,0,0,1.98744
1.4759637610113714,0,0,3.0358477050781247,0,0,2.2167600000000003
1.4773495200206526,0,0,1.89620771484375,0,0,2.2167600000000003
1.4787372430146206,0,0,0.8188169677734375,0,0,1.1465999999999998
1.4801234280166682,0,0,-0.2346317626953125,0,0,20
1.4815101319982205,0,0,1.2521674682617188,0,0,0.3822
1.4828966690110974,0,0,2.1691467041015624,0,0,1.75812
1.4842824290099088,0,0,2.6312276245117188,0,0,1.911
1.4856687620049343,0,0,1.9321207397460936,0,0,0.3822
1.4870557260001078,0,0,-0.6177040283203125,0,0,-0.30576000000000003
1.4884426700009499,0,0,-0.5961562133789062,0,0,0.0
1.4898309110139962,0,0,1.1611878051757811,0,0,0.6115200000000001
1.4912182450061664,0,0,3.0597897216796874,0,0,1.37592
1.4926046890032012,0,0,2.6862942626953124,0,0,1.83456
1.4939937269955408,0,0,0.8188169677734375,0,0,1.07016
1.4953819310176186,0,0,-1.0175357055664063,0,0,-0.68796
1.4967700419947505,0,0,-1.2737152832031249,0,0,0.0
1.4981585240166169,0,0,2.1260510742187497,0,0,1.2994800000000002
1.4995432830182835,0,0,3.1938650146484373,0,0,1.45236
1.500929597998038,0,0,2.971204260253906,0,0,1.37592
1.502318061015103,0,0,1.37906015625,0,0,2.5989600000000004
1.503704580012709,0,0,-0.4333505004882812,0,0,-1.45236
1.5050952279998455,0,0,0.4165910888671875,0,0,-0.45864
1.5064820990082808,0,0,2.408566870117187,0,0,1.60524
1.5078684690233786,0,0,3.775656018066406,0,0,1.45236
1.5092546920059249,0,0,2.403778466796875,0,0,1.60524
1.5106411919987295,0,0,0.9097966308593749,0,0,1.1465999999999998
1.5120274520013481,0,0,-1.7381904052734374,0,0,-0.30576000000000003
1.5134146370110102,0,0,0.062249243164062495,0,0,-0.68796
1.5148008220130578,0,0,1.3407529296874998,0,0,1.07016
1.5161869340226986,0,0,2.7365724975585937,0,0,1.911
1.5175730640185066,0,0,2.636016027832031,0,0,1.98744
1.5189585449988954,0,0,0.38786066894531246,0,0,1.911
1.5203560079971794,0,0,-0.7326257080078125,0,0,0.3822
1.5217853600042872,0,0,0.5770026000976562,0,0,0.91728
1.523175303998869,0,0,3.0310593017578125,0,0,1.68168
1.5245621940121055,0,0,2.8371289672851563,0,0,2.2931999999999997
1.5259486750001088,0,0,1.2641384765625,0,0,1.68168
1.5273322870198172,0,0,0.033518823242187495,0,0,-0.7644
1.5287475460208952,0,0,-0.737414111328125,0,0,0.0
1.5301973040041048,0,0,1.7357962036132812,0,0,1.45236
1.5315839160175528,0,0,2.4588451049804685,0,0,0.7644
1.532970453001326,0,0,2.003946789550781,0,0,1.83456
1.5343579160107765,0,0,1.1156979736328125,0,0,2.2167600000000003
1.5357441200176254,0,0,-0.2059013427734375,0,0,-0.7644
1.5371318609977607,0,0,0.7589619262695312,0,0,0.45864
1.5385384719993453,0,0,1.7022773803710936,0,0,1.07016
1.5399248430039734,0,0,2.6910826660156246,0,0,2.14032
1.5413108610082418,0,0,2.4205378784179685,0,0,1.2994800000000002
1.5426981390046421,0,0,1.5394716674804687,0,0,1.98744
1.5440842140233144,0,0,-0.6344634399414062,0,0,9.09636
1.545471047022147,0,0,0.6584054565429687,0,0,-0.15288000000000002
1.5468576959974598,0,0,1.8363526733398436,0,0,0.99372
1.5482438440085389,0,0,2.3726538452148436,0,0,1.83456
1.5496297890204005,0,0,1.915361328125,0,0,1.45236
1.5510165480081923,0,0,0.00718260498046875,0,0,0.0
1.5524022150202654,0,0,-0.7781155395507812,0,0,0.07644000000000001
1.553789975005202,0,0,0.6440402465820312,0,0,9.555
1.555176604015287,0,0,2.578555187988281,0,0,0.99372
1.5565625310118776,0,0,2.6384102294921874,0,0,2.2167600000000003
1.5579487899958622,0,0,1.9321207397460936,0,0,2.06388
1.5593370120041072,0,0,0.6416460449218749,0,0,0.7644
1.5607230500027072,0,0,-0.411802685546875,0,0,0.45864
1.5621106050093658,0,0,1.0295067138671874,0,0,0.22932
1.5634960690222215,0,0,1.8650830932617186,0,0,0.0
1.5648816990142222,0,0,2.133233679199219,0,0,0.91728
1.5662682359979954,0,0,1.9488801513671874,0,0,2.36964
1.5676531250064727,0,0,0.7493851196289062,0,0,-0.07644000000000001
1.5690472919959575,0,0,0.86191259765625,0,0,1.2230400000000001
1.5704344029945787,0,0,1.0797849487304687,0,0,2.14032
1.571838272997411,0,0,1.6639701538085936,0,0,0.91728
1.5732261250086594,0,0,1.4628572143554686,0,0,0.68796
1.5746126440062653,0,0,1.5275006591796874,0,0,1.2994800000000002
1.575998515007086,0,0,0.679953271484375,0,0,0.0
1.5773849410179537,0,0,2.085349645996094,0,0,0.7644
1.5787714600155596,0,0,2.4253262817382812,0,0,1.5288
1.580157701013377,0,0,1.9129671264648436,0,0,2.5989600000000004
1.5815868850040715,0,0,0.9552864624023437,0,0,0.91728
1.583042774000205,0,0,-0.3687070556640625,0,0,-0.99372
1.5844534960051533,0,0,-0.34715924072265625,0,0,0.07644000000000001
1.5858467369980644,0,0,1.5538368774414062,0,0,0.3822
1.5872329779958818,0,0,2.925714428710937,0,0,1.37592
1.588619070011191,0,0,2.2936451904296873,0,0,1.45236
1.590007496997714,0,0,0.22026655273437498,0,0,1.83456
1.5913919230224565,0,0,-0.5363011718749999,0,0,-0.91728
1.5927794230228756,0,0,-0.2561795776367187,0,0,0.68796
1.5941675899957772,0,0,2.6767174560546874,0,0,1.2230400000000001
1.5955535719986074,0,0,2.9664158569335934,0,0,0.68796
1.5969583860132843,0,0,1.2114660400390624,0,0,1.5288
1.5983455720124766,0,0,0.5339069702148437,0,0,1.75812
1.5997312020044774,0,0,-0.17956512451171874,0,0,-0.6115200000000001
1.6011289050220512,0,0,1.70467158203125,0,0,0.07644000000000001
1.6025171280198265,0,0,2.176329309082031,0,0,1.5288
1.6039029060048051,0,0,2.214636535644531,0,0,1.45236
1.605288721009856,0,0,1.3551181396484375,0,0,0.30576000000000003
1.6066750540048815,0,0,0.7302315063476562,0,0,2.14032
1.6080903880065307,0,0,-0.08379705810546874,0,0,0.3822
1.6094802769948728,0,0,1.5705962890624998,0,0,0.45864
1.610916702018585,0,0,2.6503812377929687,0,0,1.68168
1.6123197580163833,0,0,2.2194249389648437,0,0,1.60524
1.6137066470109858,0,0,1.4149731811523436,0,0,0.68796
1.61509479500819,0,0,-0.14604630126953125,0,0,-0.15288000000000002
1.616482536017429,0,0,0.011971008300781249,0,0,1.1465999999999998
1.617887314001564,0,0,2.2194249389648437,0,0,1.1465999999999998
1.6192739990074188,0,0,2.5258827514648434,0,0,1.60524
1.6206596480042208,0,0,1.7741034301757812,0,0,1.5288
1.6220466660161037,0,0,0.5410895751953124,0,0,1.2230400000000001
1.6234335000044666,0,0,-0.507570751953125,0,0,-1.60524
1.6248219819972292,0,0,1.7477672119140624,0,0,0.84084
1.626209149020724,0,0,2.6096798095703124,0,0,1.75812
1.6275954820157494,0,0,3.4907460205078125,0,0,1.45236
1.6289815560157876,0,0,1.3575123413085937,0,0,1.45236
1.6303677420073655,0,0,0.3280056274414062,0,0,2.2931999999999997
1.6317544270132203,0,0,-0.6536170532226562,0,0,-0.30576000000000003
1.6331462610105518,0,0,1.6328455322265625,0,0,0.22932
1.6345327790186275,0,0,2.7437551025390623,0,0,2.06388
1.6359192800009623,0,0,2.4875755249023435,0,0,1.5288
1.637305632000789,0,0,1.467645617675781,0,0,0.3822
1.6386920020158868,0,0,0.45489831542968745,0,0,1.07016
1.6400777990056667,0,0,-0.7445967163085937,0,0,-0.7644
1.6414655400149059,0,0,1.5011644409179687,0,0,0.0
1.6428523549984675,0,0,3.153163586425781,0,0,2.14032
1.644246114010457,0,0,2.499546533203125,0,0,1.98744
1.64564239201718,0,0,1.2330138549804688,0,0,0.6115200000000001
1.6470292810117826,0,0,-0.9888052856445312,0,0,-0.3822
1.6484166519949213,0,0,-0.47644613037109373,0,0,0.6115200000000001
1.649805726017803,0,0,2.7964275390625,0,0,0.0
1.6511932630091906,0,0,3.593696691894531,0,0,1.07016
1.6525796340138186,0,0,2.8012159423828122,0,0,2.2167600000000003
1.6539668560144491,0,0,0.6248866333007812,0,0,1.2230400000000001
1.6553671340225264,0,0,-1.0749965454101562,0,0,-0.91728
1.6567611710052006,0,0,1.3048399047851562,0,0,0.7644
1.6581492270051967,0,0,2.4444798950195312,0,0,0.91728
1.659534264006652,0,0,3.5003228271484375,0,0,0.53508
1.6609207279980183,0,0,2.1811177124023438,0,0,0.7644
1.6623092830122914,0,0,1.2880804931640624,0,0,2.2931999999999997
1.66369554301491,0,0,-0.7254431030273437,0,0,-0.99372
1.6650822650117334,0,0,0.6512228515624999,0,0,-9.784320000000001
1.666469635994872,0,0,1.9823989746093749,0,0,1.911
1.6678560069995,0,0,2.597708801269531,0,0,1.2230400000000001
1.66924222902162,0,0,1.9895815795898437,0,0,1.83456
1.6706287109991536,0,0,1.2018892333984375,0,0,1.83456
1.6720146920124535,0,0,-1.0606313354492187,0,0,0.0
1.67340085899923,0,0,0.5434837768554687,0,0,-0.68796
1.674787952011684,0,0,2.942473840332031,0,0,1.68168
1.67617441501352,0,0,2.602497204589844,0,0,1.45236
1.6775606010050979,0,0,2.221819140625,0,0,1.1465999999999998
1.6789468970091548,0,0,-0.01915361328125,0,0,1.68168
1.6803333230200224,0,0,-0.9121908325195311,0,0,0.45864
1.6817222310055513,0,0,0.7493851196289062,0,0,0.3822
1.6831086570164189,0,0,3.2441432495117186,0,0,1.98744
1.6844945650082082,0,0,2.882618798828125,0,0,1.5288
1.6858819540066179,0,0,1.4604630126953124,0,0,0.91728
1.6872684539994225,0,0,-0.1005564697265625,0,0,-1.07016
1.6886561390128918,0,0,-0.93852705078125,0,0,0.6115200000000001
1.690043325012084,0,0,1.5107412475585937,0,0,0.0
1.6914283070072997,0,0,2.7174188842773437,0,0,0.68796
1.6928148440201767,0,0,2.224213342285156,0,0,1.60524
1.6942007330071647,0,0,1.8148048583984373,0,0,2.36964
1.696333649015287,0,0,-1.3144167114257812,0,0,0.6115200000000001
1.6977553339966107,0,0,1.6735469604492186,0,0,-0.30576000000000003
1.699165575002553,0,0,3.4261025756835934,0,0,1.2994800000000002
1.7005627420148812,0,0,3.1603461914062496,0,0,2.4460800000000003
1.7019521490146872,0,0,1.7741034301757812,0,0,2.2167600000000003
1.7033393350138795,0,0,-0.316034619140625,0,0,0.0
1.7047263529966585,0,0,-0.30406361083984373,0,0,-0.15288000000000002
1.7061144830076955,0,0,1.3263877197265623,0,0,0.6115200000000001
1.7075008540123235,0,0,2.7748797241210936,0,0,0.53508
1.7088868170103524,0,0,2.6312276245117188,0,0,1.911
1.7102735020162072,0,0,1.7669208251953124,0,0,2.6754
1.7116600949957501,0,0,0.08858546142578125,0,0,-0.91728
1.7130466140224598,0,0,0.011971008300781249,0,0,0.0
1.714439928997308,0,0,1.7956512451171873,0,0,1.2994800000000002
1.715826318017207,0,0,2.8514941772460936,0,0,0.84084
1.7172124110220466,0,0,2.6982652709960937,0,0,1.75812
1.7185990410216618,0,0,1.9752163696289062,0,0,2.75184
1.7199853000056464,0,0,-0.9911994873046874,0,0,-0.53508
1.7213722630112898,0,0,-0.25139117431640623,0,0,-1.2994800000000002
1.7227592639974318,0,0,2.6479870361328124,0,0,1.75812
1.7241521709947847,0,0,3.373430139160156,0,0,0.7644
1.7255384120217059,0,0,2.6695348510742187,0,0,1.2230400000000001
1.7269241159956437,0,0,0.17238251953125,0,0,0.99372
1.7283139680221211,0,0,-1.2234370483398436,0,0,0.0
1.7297006350127049,0,0,0.9600748657226562,0,0,-0.6115200000000001
1.7310880240111146,0,0,2.24097275390625,0,0,0.07644000000000001
1.7324744689976797,0,0,2.906560815429687,0,0,1.83456
1.7338626359996852,0,0,2.1356278808593747,0,0,1.60524
1.7352491909987293,0,0,0.5123591552734374,0,0,-0.30576000000000003
1.7366360620071646,0,0,-0.55545478515625,0,0,1.45236
1.7380238030164037,0,0,1.254561669921875,0,0,0.3822
1.7394092479953542,0,0,2.2385785522460937,0,0,1.1465999999999998
1.7407950070046354,0,0,2.1930887207031247,0,0,1.98744
1.742182137008058,0,0,1.9704279663085937,0,0,1.75812
1.7435679339978378,0,0,0.5339069702148437,0,0,-0.84084
1.7449653600051533,0,0,0.3136404174804687,0,0,-0.30576000000000003
1.7463522860198282,0,0,1.2401964599609374,0,0,1.5288
1.7477385270176455,0,0,2.1212626708984375,0,0,0.30576000000000003
1.7491245820128825,0,0,2.2481553588867187,0,0,1.98744
1.750511304999236,0,0,1.7621324218749999,0,0,2.2931999999999997
1.7518969350203406,0,0,-0.6009446166992187,0,0,-0.22932
1.7532838610059116,0,0,-0.18914193115234373,0,0,-0.45864
1.7546712500043213,0,0,2.834734765625,0,0,1.5288
1.7560572320071515,0,0,3.0071172851562498,0,0,1.2994800000000002
1.7574431210232433,0,0,2.85388837890625,0,0,1.60524
1.7588297510228585,0,0,0.6679822631835937,0,0,2.2931999999999997
1.7602155100030359,0,0,-0.5339069702148437,0,0,0.3822
1.761601806996623,0,0,-0.48123453369140623,0,0,-1.07016
1.7629894370038528,0,0,1.8770541015625,0,0,0.91728
1.7643761220097076,0,0,2.6958710693359373,0,0,1.2230400000000001
1.765779584995471,0,0,2.0470424194335934,0,0,1.2230400000000001
1.7671668630209751,0,0,0.7326257080078125,0,0,0.7644
1.768552808003733,0,0,-0.45489831542968745,0,0,1.07016
1.7699400490091648,0,0,1.2282254516601563,0,0,0.6115200000000001
1.7713260300224647,0,0,2.0925322509765625,0,0,0.0
1.7727198080101516,0,0,2.24097275390625,0,0,2.14032
1.7741065120208077,0,0,1.9704279663085937,0,0,1.37592
1.7754923269967549,0,0,0.7110778930664062,0,0,-0.7644
1.7768787530076224,0,0,0.47165772705078124,0,0,0.91728
1.7782649389992002,0,0,1.7190367919921874,0,0,0.6115200000000001
1.77965073499945,0,0,2.3343466186523436,0,0,0.7644
1.781036791013321,0,0,1.7693150268554687,0,0,0.53508
1.782423088006908,0,0,1.0797849487304687,0,0,1.83456
1.7838094030157663,0,0,-0.5530605834960938,0,0,-1.68168
1.7851964209985454,0,0,0.5243301635742187,0,0,-0.3822
1.7865824770124163,0,0,2.128445275878906,0,0,2.4460800000000003
1.7879833659972064,0,0,2.4157494750976563,0,0,1.1465999999999998
1.7893702550209127,0,0,1.7501614135742187,0,0,-8.0262
1.79075625500991,0,0,-0.26815058593749996,0,0,0.91728
1.792163366015302,0,0,-0.5147533569335937,0,0,-0.30576000000000003
1.7935523299966007,0,0,0.354341845703125,0,0,-0.22932
1.7949402189988177,0,0,3.1459809814453124,0,0,1.83456
1.796327182004461,0,0,2.8802245971679685,0,0,1.83456
1.7977135149994865,0,0,1.5849614990234373,0,0,1.60524
1.799100238014944,0,0,0.15083470458984374,0,0,1.60524
1.800486312014982,0,0,-0.6775590698242188,0,0,0.3822
1.8018889790109824,0,0,1.9033903198242186,0,0,-0.45864
1.8032744789961725,0,0,2.8467057739257813,0,0,0.22932
1.8046589610166848,0,0,2.04943662109375,0,0,1.83456
1.8061537930043414,0,0,1.1228805786132812,0,0,1.60524
1.8075664780044463,0,0,-0.8906430175781249,0,0,-0.6115200000000001
1.8089572930184659,0,0,-0.08858546142578125,0,0,0.91728
1.8103461819991935,0,0,1.6065093139648436,0,0,1.45236
1.8117436449974775,0,0,2.5474305664062498,0,0,0.0
1.81313236799906,0,0,1.9105729248046874,0,0,1.2994800000000002
1.8145195340039209,0,0,1.687912170410156,0,0,2.4460800000000003
1.8159059610043187,0,0,-0.201112939453125,0,0,-1.60524
1.8172947020211723,0,0,0.8667010009765624,0,0,1.2994800000000002
1.8186936280108057,0,0,2.8993782104492185,0,0,2.4460800000000003
1.8200809980044141,0,0,2.403778466796875,0,0,1.07016
1.8214694430062082,0,0,1.2665326782226562,0,0,0.30576000000000003
1.8228586650220677,0,0,-0.7038952880859375,0,0,-0.45864
1.8242484430084005,0,0,-0.9576806640625,0,0,-0.22932
1.8256359430088196,0,0,2.7461493041992187,0,0,-0.6115200000000001
1.827023535995977,0,0,3.545812658691406,0,0,2.98116
1.828410387999611,0,0,2.8275521606445313,0,0,1.98744
1.829797814018093,0,0,0.8643067993164062,0,0,1.37592
1.831202592002228,0,0,-0.6344634399414062,0,0,-0.6115200000000001
1.8326300920161884,0,0,-0.143652099609375,0,0,0.15288000000000002
1.8340796650154516,0,0,2.6503812377929687,0,0,0.0
1.8354716100147925,0,0,3.689464758300781,0,0,0.7644
1.8368583510164171,0,0,2.427720483398437,0,0,2.52252
1.8382464990136214,0,0,1.3934253662109375,0,0,2.6754
1.839631795999594,0,0,-1.707065783691406,0,0,-1.1465999999999998
1.8410207770066336,0,0,-0.97683427734375,0,0,-1.07016
1.8424092780041974,0,0,1.7908628417968748,0,0,0.84084
1.8437964630138595,0,0,3.816357446289062,0,0,0.22932
1.8451828889956232,0,0,2.540247961425781,0,0,1.98744
1.846569796995027,0,0,-0.33518823242187495,0,0,2.6754
1.847957464022329,0,0,-1.3192051147460937,0,0,-1.2230400000000001
1.849345593014732,0,0,-0.6440402465820312,0,0,-0.22932
1.8507390379963908,0,0,3.0023288818359375,0,0,2.14032
1.8521264459996019,0,0,3.5098996337890624,0,0,1.75812
1.8535127420036588,0,0,1.4772224243164063,0,0,1.07016
1.8548990020062774,0,0,0.0047884033203125,0,0,2.5989600000000004
1.856285501999082,0,0,-1.1468225952148436,0,0,0.15288000000000002
1.8576722610159777,0,0,2.0925322509765625,0,0,-0.68796
1.859059539012378,0,0,3.303998291015625,0,0,2.06388
1.8604467990226112,0,0,3.7900212280273435,0,0,3.0576
1.8618341319961473,0,0,1.5801730957031248,0,0,1.5288
1.863220799015835,0,0,-0.8978256225585937,0,0,-20
1.8646083550120238,0,0,-0.9145850341796874,0,0,-0.91728
1.8659955960174557,0,0,1.917755529785156,0,0,-0.15288000000000002
1.8673818560200743,0,0,3.845087866210937,0,0,0.91728
1.868768356012879,0,0,2.6791116577148437,0,0,2.6754
1.8701558000175282,0,0,1.66636435546875,0,0,1.68168
1.871541115018772,0,0,-2.003946789550781,0,0,-1.60524
1.8729293380165473,0,0,-1.9608511596679685,0,0,-1.2230400000000001
1.874316727014957,0,0,0.5674257934570313,0,0,-0.6115200000000001
1.8757199490210041,0,0,4.019864587402344,0,0,0.0
1.8771081530139782,0,0,3.366247534179687,0,0,1.911
1.8784946899977513,0,0,-0.15083470458984374,0,0,1.911
1.8798812460154295,0,0,-1.7932570434570312,0,0,-1.2230400000000001
1.8812689869955648,0,0,-2.518700146484375,0,0,-1.60524
1.8826551730162464,0,0,1.5610194824218748,0,0,0.0
1.8840394510189071,0,0,3.4811692138671875,0,0,0.0
1.885441691003507,0,0,2.6815058593749996,0,0,1.45236
1.8868296540167648,0,0,0.00718260498046875,0,0,1.2994800000000002
1.8882168029958848,0,0,-1.5011644409179687,0,0,-1.45236
1.8896148769999854,0,0,-0.8451531860351562,0,0,0.3822
1.891002729011234,0,0,1.2306196533203124,0,0,-1.07016
1.8923895260086283,0,0,2.29843359375,0,0,1.911
1.8937800069979858,0,0,1.9895815795898437,0,0,2.2931999999999997
1.8951666000066325,0,0,2.118868469238281,0,0,0.0
1.8965524710074533,0,0,-0.9241618408203125,0,0,2.4460800000000003
1.897939952003071,0,0,-1.6735469604492186,0,0,-2.2931999999999997
1.8993275450193323,0,0,0.7134720947265625,0,0,-0.3822
1.9007143970229663,0,0,3.4620156005859375,0,0,2.82828
1.902102563995868,0,0,3.5984850952148437,0,0,-0.3822
1.9034893610223662,0,0,1.20667763671875,0,0,2.4460800000000003
1.9048755090043414,0,0,-1.39821376953125,0,0,8.0262
1.9062630280095618,0,0,-2.1595698974609374,0,0,20
1.9076502500101924,0,0,-0.36391865234375,0,0,-20
1.9090375649975613,0,0,2.152387292480469,0,0,0.0
1.9104237139981706,0,0,2.1787235107421874,0,0,3.7455600000000002
1.911810435994994,0,0,1.3192051147460937,0,0,0.0
1.9131968620058615,0,0,0.34715924072265625,0,0,4.0513200000000005
1.9145834180235397,0,0,-1.6927005737304686,0,0,-2.36964
1.9159710289968643,0,0,-0.8307879760742187,0,0,-0.6115200000000001
1.917358344013337,0,0,-0.0143652099609375,0,0,-1.83456
1.9187454560014885,0,0,4.515464331054687,0,0,2.52252
1.920142085000407,0,0,3.2441432495117186,0,0,2.4460800000000003
1.9215286230028141,0,0,1.1228805786132812,0,0,1.07016
1.9229154009954073,0,0,-0.5267243652343749,0,0,0.99372
1.9243022160080727,0,0,-0.6823474731445313,0,0,-1.98744
1.9256893639976624,0,0,-1.0821791503906248,0,0,-1.2230400000000001
1.927076827007113,0,0,0.7493851196289062,0,0,7.261800000000001
1.9284634760115296,0,0,2.8730419921875,0,0,0.99372
1.9298505680053495,0,0,2.233790148925781,0,0,1.45236
1.9312366060039494,0,0,1.0342951171875,0,0,1.98744
1.932622402004199,0,0,-0.699106884765625,0,0,0.99372
1.9340101249981672,0,0,-0.8044517578125,0,0,0.0
1.9353963659959845,0,0,0.033518823242187495,0,0,-0.6115200000000001
1.9367829209950287,0,0,1.4963760375976562,0,0,-0.30576000000000003
1.9381703470135108,0,0,1.8938135131835936,0,0,0.99372
1.9395559030235745,0,0,1.8626888916015625,0,0,0.30576000000000003
1.9409420330193825,0,0,1.4604630126953124,0,0,1.5288
1.9423295700107701,0,0,0.6751648681640625,0,0,0.0
1.9437224410066847,0,0,-0.3711012573242187,0,0,0.07644000000000001
1.9451103110041004,0,0,0.08140285644531249,0,0,-0.53508
1.9466197730216663,0,0,1.1037269653320312,0,0,0.0
1.9480102920206264,0,0,1.1516109985351561,0,0,0.45864
1.9494113100226969,0,0,0.33758243408203126,0,0,-0.30576000000000003
1.9507984590018168,0,0,0.2753331909179687,0,0,0.99372
1.9521847370197065,0,0,0.5626373901367188,0,0,0.84084
1.953571143996669,0,0,1.5227122558593749,0,0,0.91728
1.9549578110163566,0,0,1.6998831787109374,0,0,1.83456
1.9563441630161833,0,0,1.5658078857421873,0,0,0.99372
1.9577303670230322,0,0,0.8044517578125,0,0,0.6115200000000001
1.9591168490005657,0,0,0.7206546997070312,0,0,0.30576000000000003
1.9605025160126388,0,0,0.42377369384765623,0,0,-0.22932
1.9618901460198686,0,0,0.7948749511718749,0,0,-0.99372
1.9633222380070947,0,0,0.9193734375,0,0,-1.37592
1.964710868021939,0,0,0.8690952026367187,0,0,0.53508
1.9660977750027087,0,0,0.8283937744140625,0,0,0.0
1.9674840350053273,0,0,-0.040701428222656245,0,0,0.22932
1.968871905002743,0,0,-0.51714755859375,0,0,0.3822
1.970260108995717,0,0,-0.08379705810546874,0,0,0.07644000000000001
1.971646721009165,0,0,0.7757213378906249,0,0,-0.45864
1.973033573012799,0,0,1.4891934326171874,0,0,0.45864
1.9744202030124143,0,0,2.4564509033203126,0,0,1.2230400000000001
1.9758059620216954,0,0,1.7381904052734374,0,0,0.91728
1.9771944810054265,0,0,1.1061211669921875,0,0,0.99372
1.9785808510205243,0,0,-0.04548983154296875,0,0,0.53508
1.9799680370197166,0,0,-0.7589619262695312,0,0,-1.98744
1.981355074007297,0,0,1.1109095703125,0,0,-0.99372
1.9827416480111424,0,0,1.8507178833007811,0,0,0.07644000000000001
1.9841281860135496,0,0,2.04943662109375,0,0,0.45864
1.9855143520107958,0,0,0.24660277099609373,0,0,0.68796
1.9869008530222345,0,0,0.16998831787109375,0,0,-9.32568
1.9882878710050136,0,0,-0.3711012573242187,0,0,0.91728
1.9896750200132374,0,0,0.18435352783203124,0,0,-0.68796
1.9910614830150735,0,0,1.388636962890625,0,0,1.2230400000000001
1.9924474090221338,0,0,1.838746875,0,0,1.1465999999999998
1.993834595021326,0,0,1.4915876342773438,0,0,0.91728
1.9952208540053107,0,0,0.7326257080078125,0,0,0.6115200000000001
1.996607576002134,0,0,0.22505495605468748,0,0,0.0
1.9979943539947271,0,0,0.033518823242187495,0,0,-0.53508
1.9993799100047909,0,0,0.6823474731445313,0,0,-0.6115200000000001
2.0007666700112168,0,0,1.0678139404296874,0,0,0.7644
2.00215344800381,0,0,1.62805712890625,0,0,0.53508
2.0035397260216996,0,0,0.6464344482421874,0,0,1.1465999999999998
2.0049258560175076,0,0,-0.0718260498046875,0,0,0.0
2.006313152000075,0,0,0.031124621582031248,0,0,-0.6115200000000001
2.007713300001342,0,0,0.9744400756835937,0,0,0.0
2.009099540999159,0,0,1.618480322265625,0,0,0.53508
2.010486542014405,0,0,1.1180921752929687,0,0,1.2230400000000001
2.011882708000485,0,0,0.6440402465820312,0,0,0.22932
2.013269079005113,0,0,0.6703764648437499,0,0,0.07644000000000001
2.0146567090123426,0,0,1.2808978881835937,0,0,0.84084
2.016042542003561,0,0,1.2785036865234374,0,0,0.22932
2.017429005005397,0,0,0.7900865478515624,0,0,-0.07644000000000001
2.0188192090136,0,0,0.5339069702148437,0,0,0.07644000000000001
2.0202057099959347,0,0,0.4213794921875,0,0,-0.68796
2.0215925800148398,0,0,0.7757213378906249,0,0,-0.68796
2.0229868400201667,0,0,1.0319009155273438,0,0,0.0
2.0243743030005135,0,0,1.024718310546875,0,0,0.45864
2.0257861540012527,0,0,0.2346317626953125,0,0,0.0
2.027173340000445,0,0,-0.12449848632812499,0,0,0.0
2.028559544007294,0,0,0.39983167724609375,0,0,0.22932
2.0299679879972246,0,0,1.0558429321289062,0,0,0.45864
2.031356785009848,0,0,1.5322890624999999,0,0,0.3822
2.0327433769998606,0,0,1.4053963745117186,0,0,0.84084
2.0341303590103053,0,0,1.0630255371093749,0,0,0.53508
2.03551685900311,0,0,0.15562310791015624,0,0,0.0
2.0369031930167694,0,0,0.18435352783203124,0,0,-0.45864
2.038292081997497,0,0,1.2569558715820313,0,0,0.15288000000000002
2.0396789160149638,0,0,1.4820108276367188,0,0,0.22932
2.0410654160077684,0,0,1.5155296508789062,0,0,0.6115200000000001
2.0424514720216393,0,0,0.5602431884765625,0,0,0.53508
2.043837489996804,0,0,0.076614453125,0,0,0.0
2.0452618980198167,0,0,0.26336218261718747,0,0,-0.30576000000000003
2.0466555269958917,0,0,0.7326257080078125,0,0,0.22932
2.048046416020952,0,0,1.149216796875,0,0,0.0
2.049432991014328,0,0,1.0582371337890624,0,0,0.7644
2.050836454000091,0,0,0.93852705078125,0,0,0.84084
2.052224120008759,0,0,0.6775590698242188,0,0,0.53508
2.053610250004567,0,0,0.5793968017578125,0,0,0.45864
2.0549968060222454,0,0,1.1659762084960936,0,0,0.22932
2.05638336201082,0,0,1.2952630981445312,0,0,0.0
2.057785473007243,0,0,1.2665326782226562,0,0,0.15288000000000002
2.059173270012252,0,0,1.0199299072265624,0,0,0.53508
2.0605592140054796,0,0,0.6296750366210937,0,0,0.91728
2.0619466030038893,0,0,0.7613561279296874,0,0,-0.3822
2.0633328440017067,0,0,1.0175357055664063,0,0,0.0
2.064726826007245,0,0,1.189918225097656,0,0,9.631440000000001
2.0661146780184936,0,0,0.7230489013671875,0,0,0.15288000000000002
2.067499974014936,0,0,0.5722141967773438,0,0,-0.15288000000000002
2.0688866779964883,0,0,0.9624690673828125,0,0,0.99372
2.0702740859996993,0,0,0.6727706665039062,0,0,0.15288000000000002
2.0716595310077537,0,0,0.584185205078125,0,0,0.07644000000000001
2.0730453270080034,0,0,0.6009446166992187,0,0,0.0
2.0744320500234608,0,0,1.3287819213867187,0,0,0.3822
2.075818198005436,0,0,1.455674609375,0,0,0.91728
2.0772037169954274,0,0,1.6831237670898436,0,0,1.2230400000000001
2.0785901240014937,0,0,1.3263877197265623,0,0,1.2994800000000002
2.079975810018368,0,0,1.16837041015625,0,0,-8.71416
2.081362106022425,0,0,1.0295067138671874,0,0,0.0
2.082759014010662,0,0,1.3239935180664062,0,0,0.53508
2.084204087004764,0,0,1.9416975463867185,0,0,0.53508
2.0856329570233356,0,0,1.8531120849609375,0,0,0.91728
2.08702558701043,0,0,1.6519991455078125,0,0,1.2994800000000002
2.088412884011632,0,0,0.9840168823242187,0,0,0.84084
2.089799680019496,0,0,1.024718310546875,0,0,0.6115200000000001
2.091186458012089,0,0,0.967257470703125,0,0,0.6115200000000001
2.092572718014708,0,0,1.4245499877929686,0,0,0.91728
2.0939595329982694,0,0,1.446097802734375,0,0,0.68796
2.095408421009779,0,0,1.438915197753906,0,0,0.91728
2.0967949210025836,0,0,1.1611878051757811,0,0,0.91728
2.0981830510136206,0,0,1.0845733520507812,0,0,1.45236
2.0995692550204694,0,0,1.0941501586914062,0,0,0.68796
2.1009551630122587,0,0,1.1827356201171875,0,0,0.91728
2.102342441008659,0,0,1.4341267944335936,0,0,1.1465999999999998
2.1037294220004696,0,0,1.3431471313476562,0,0,0.84084
2.1051176820183173,0,0,1.6831237670898436,0,0,0.68796
2.1065038859960623,0,0,1.0486603271484374,0,0,0.45864
2.1078903680026997,0,0,1.1133037719726562,0,0,0.53508
2.1092763119959272,0,0,1.1755530151367186,0,0,0.53508
2.110662571998546,0,0,1.1468225952148436,0,0,1.2230400000000001
2.1120489239983726,0,0,1.35990654296875,0,0,0.84084
2.1134351280052215,0,0,1.2617442749023438,0,0,0.84084
2.1148293320147786,0,0,1.4987702392578124,0,0,0.7644
2.1162477760226466,0,0,1.3359645263671873,0,0,1.2994800000000002
2.1182866010058206,0,0,1.2401964599609374,0,0,0.84084
2.1197600630111992,0,0,1.1755530151367186,0,0,0.6115200000000001
2.1213057830173057,0,0,1.5298948608398437,0,0,0.53508
2.1234293850138783,0,0,1.3814543579101561,0,0,0.68796
2.1254839500179514,0,0,1.438915197753906,0,0,0.84084
2.1273238150170073,0,0,1.2785036865234374,0,0,1.2230400000000001
2.1287651850143448,0,0,1.1228805786132812,0,0,1.1465999999999998
2.1302377760002855,0,0,1.1252747802734375,0,0,0.84084
2.131733571004588,0,0,1.3215993164062498,0,0,0.07644000000000001
2.1331656640104484,0,0,1.2497732666015624,0,0,0.68796
2.134621959005017,0,0,1.5083470458984374,0,0,0.7644
2.136097384005552,0,0,1.5251064575195312,0,0,0.99372
2.137545569014037,0,0,1.2785036865234374,0,0,0.84084
2.1389268650091253,0,0,1.1156979736328125,0,0,1.07016
2.1403018290002365,0,0,1.2593500732421874,0,0,1.2994800000000002
2.1420014729956165,0,0,1.254561669921875,0,0,0.84084
2.143377936008619,0,0,1.5155296508789062,0,0,0.53508
2.1447560480155516,0,0,1.675941162109375,0,0,0.6115200000000001
2.1461315299966373,0,0,1.177947216796875,0,0,0.84084
2.147506549023092,0,0,1.158793603515625,0,0,0.45864
2.14888017901103,0,0,0.928950244140625,0,0,0.84084
2.1502561230154242,0,0,1.2952630981445312,0,0,0.3822
2.1516708450217266,0,0,1.4317325927734375,0,0,0.0
2.1530451239959802,0,0,1.5179238525390624,0,0,0.68796
2.1544273089966737,0,0,1.3646949462890625,0,0,0.68796
2.155810438998742,0,0,1.1156979736328125,0,0,0.84084
2.157184773008339,0,0,1.2928688964843749,0,0,0.91728
2.158561884018127,0,0,1.2665326782226562,0,0,1.1465999999999998
2.159936681011459,0,0,1.24498486328125,0,0,0.68796
2.1613097000226844,0,0,1.2473790649414063,0,0,0.84084
2.162685015005991,0,0,1.3623007446289062,0,0,0.91728
2.164058701018803,0,0,1.0726023437499999,0,0,0.53508
2.1654316450003535,0,0,1.407790576171875,0,0,1.07016
2.1668068490107544,0,0,1.5131354492187499,0,0,1.2230400000000001
2.1681807020213455,0,0,1.2521674682617188,0,0,0.53508
2.1695538500207476,0,0,1.2282254516601563,0,0,0.91728
2.1709302390227094,0,0,1.0869675537109373,0,0,0.99372
2.1723038320196792,0,0,1.3383587280273437,0,0,1.07016
2.1736827770073432,0,0,1.3096283081054687,0,0,0.7644
2.175058444001479,0,0,1.5418658691406248,0,0,0.99372
2.1764312779996544,0,0,1.3742717529296875,0,0,0.7644
2.177807722997386,0,0,1.3623007446289062,0,0,0.53508
2.1791907790175173,0,0,1.1707646118164061,0,0,0.91728
2.180573149002157,0,0,1.2761094848632812,0,0,1.60524
2.1819562610180583,0,0,1.2665326782226562,0,0,0.3822
2.183338150003692,0,0,1.426944189453125,0,0,0.30576000000000003
2.1847362240077928,0,0,1.4413093994140624,0,0,0.91728
2.1861259090073872,0,0,1.2569558715820313,0,0,0.84084
2.1875085580104496,0,0,1.2138602416992186,0,0,0.7644
2.188890799006913,0,0,1.120486376953125,0,0,0.84084
2.1902745210099965,0,0,1.1348515869140625,0,0,0.53508
2.1916550589958206,0,0,1.2617442749023438,0,0,0.0
2.1930372810165863,0,0,1.4796166259765624,0,0,0.22932
2.194420356012415,0,0,1.5227122558593749,0,0,0.68796
2.1958023740153294,0,0,1.3000515014648437,0,0,0.68796
2.197184301010566,0,0,1.2904746948242187,0,0,1.07016
2.198569893022068,0,0,1.1420341918945311,0,0,0.7644
2.1999520050012507,0,0,1.1875240234375,0,0,0.68796
2.201333783013979,0,0,1.2569558715820313,0,0,0.0
2.2027327270188835,0,0,1.3120225097656248,0,0,0.6115200000000001
2.2041143020032905,0,0,1.467645617675781,0,0,0.53508
2.205496801994741,0,0,1.465251416015625,0,0,0.91728
2.206879653997021,0,0,1.2282254516601563,0,0,0.91728
2.2082622470043134,0,0,1.2306196533203124,0,0,0.53508
2.2096443950140383,0,0,1.1659762084960936,0,0,0.6115200000000001
2.211045895004645,0,0,1.3215993164062498,0,0,0.84084
2.212444061995484,0,0,1.3479355346679687,0,0,1.07016
2.2138405989971943,0,0,1.2306196533203124,0,0,0.99372
2.2152160440164153,0,0,1.4820108276367188,0,0,0.84084
2.216591063013766,0,0,1.3000515014648437,0,0,0.99372
2.217967934004264,0,0,1.3718775512695311,0,0,0.68796
2.219341656018514,0,0,1.2138602416992186,0,0,0.7644
2.2207159160170704,0,0,1.218648645019531,0,0,1.1465999999999998
2.2220961390121374,0,0,1.3670891479492187,0,0,0.91728
2.2234714350197464,0,0,1.4125789794921875,0,0,0.6115200000000001
2.224844917014707,0,0,1.5586252807617187,0,0,0.91728
2.226226195023628,0,0,1.2138602416992186,0,0,0.53508
2.227609473018674,0,0,1.3072341064453123,0,0,0.6115200000000001
2.2290050290175714,0,0,1.120486376953125,0,0,0.84084
2.230389381002169,0,0,1.1659762084960936,0,0,0.30576000000000003
2.231772418017499,0,0,1.2497732666015624,0,0,0.15288000000000002
2.233155993017135,0,0,1.3000515014648437,0,0,0.53508
2.2345394190051593,0,0,1.4030021728515625,0,0,1.1465999999999998
2.2359225300024264,0,0,1.2378022583007813,0,0,0.68796
2.237305382004706,0,0,1.3670891479492187,0,0,0.99372
2.238689123012591,0,0,1.0941501586914062,0,0,0.99372
2.24007190100383,0,0,1.16837041015625,0,0,0.6115200000000001
2.241454920003889,0,0,1.2330138549804688,0,0,0.68796
2.242887235013768,0,0,1.2880804931640624,0,0,0.30576000000000003
2.244275364006171,0,0,1.448492004394531,0,0,0.68796
2.245659013016848,0,0,1.4413093994140624,0,0,0.91728
2.2470438280142844,0,0,1.4221557861328125,0,0,1.1465999999999998
2.2484267539985012,0,0,1.2378022583007813,0,0,0.99372
2.249825773003977,0,0,1.2378022583007813,0,0,0.68796
2.251209531998029,0,0,1.2856862915039062,0,0,0.6115200000000001
2.2525926070229616,0,0,1.5298948608398437,0,0,0.91728
2.2539772360178176,0,0,1.5945383056640625,0,0,0.6115200000000001
2.2553595330100507,0,0,1.5586252807617187,0,0,0.84084
2.2567423110012896,0,0,1.3000515014648437,0,0,0.7644
2.2581263479951303,0,0,1.1324573852539062,0,0,0.84084
2.2595087370136753,0,0,1.2306196533203124,0,0,0.68796
2.260891497018747,0,0,1.2282254516601563,0,0,1.07016
2.2622752570023295,0,0,1.2569558715820313,0,0,0.6115200000000001
2.26365770099801,0,0,1.3072341064453123,0,0,0.68796
2.265040479018353,0,0,1.438915197753906,0,0,0.7644
2.2664237020071596,0,0,1.24498486328125,0,0,0.7644
2.2678063500206918,0,0,1.0941501586914062,0,0,0.53508
2.2691887950059026,0,0,1.2330138549804688,0,0,0.7644
2.2705720360099804,0,0,1.1923124267578125,0,0,0.68796
2.27195966601721,0,0,1.2617442749023438,0,0,0.07644000000000001
2.2733505920041353,0,0,1.177947216796875,0,0,0.6115200000000001
2.274798277008813,0,0,1.4341267944335936,0,0,0.7644
2.2763530150114093,0,0,1.2880804931640624,0,0,1.07016
2.27779218100477,0,0,1.4149731811523436,0,0,0.68796
2.2794494740082882,0,0,1.2928688964843749,0,0,0.53508
2.2808405490068253,0,0,1.2665326782226562,0,0,1.1465999999999998
2.282228660013061,0,0,1.3742717529296875,0,0,1.07016
2.283615994005231,0,0,1.3311761230468748,0,0,0.6115200000000001
2.285002104996238,0,0,1.4772224243164063,0,0,0.84084
2.286389920016518,0,0,1.2737152832031249,0,0,0.84084
2.2877762720163446,0,0,1.3431471313476562,0,0,0.68796
2.2891630869999062,0,0,1.2808978881835937,0,0,0.6115200000000001
2.2905494949955028,0,0,1.0989385620117187,0,0,0.84084
2.2919354760088027,0,0,1.4006079711914061,0,0,0.68796
2.2933219020196702,0,0,1.3479355346679687,0,0,0.45864
2.2947089030058123,0,0,1.4724340209960938,0,0,0.68796
2.2960950700216927,0,0,1.3144167114257812,0,0,0.68796
2.297480514011113,0,0,1.2761094848632812,0,0,0.91728
2.2988653480133507,0,0,1.1085153686523437,0,0,0.99372
2.30024942199816,0,0,1.2497732666015624,0,0,0.84084
2.3016520150122233,0,0,1.369483349609375,0,0,0.0
2.303051199996844,0,0,1.3575123413085937,0,0,0.45864
2.30446568102343,0,0,1.5346832641601562,0,0,0.53508
2.3058548849949148,0,0,1.455674609375,0,0,0.91728
2.307241830014391,0,0,1.2880804931640624,0,0,1.2230400000000001
2.3086275340174325,0,0,1.209071838378906,0,0,1.1465999999999998
2.310015534021659,0,0,1.1061211669921875,0,0,0.6115200000000001
2.3114008679986,0,0,1.22583125,0,0,0.45864
2.312786609021714,0,0,1.4532804077148436,0,0,0.68796
2.3141742940060794,0,0,1.5083470458984374,0,0,0.91728
2.315565183002036,0,0,1.446097802734375,0,0,0.84084
2.3169630909978878,0,0,1.3958195678710936,0,0,1.07016
2.318349980021594,0,0,1.2234370483398436,0,0,0.7644
2.31973625801038,0,0,1.3215993164062498,0,0,0.84084
2.3211222950194497,0,0,1.2210428466796874,0,0,0.68796
2.3225080910196993,0,0,1.4437036010742186,0,0,0.68796
2.323903109994717,0,0,1.448492004394531,0,0,0.84084
2.3252891470037866,0,0,1.4341267944335936,0,0,0.7644
2.3266751659975853,0,0,1.3263877197265623,0,0,0.7644
2.3280666480131913,0,0,1.1827356201171875,0,0,0.53508
2.329456685023615,0,0,1.3551181396484375,0,0,0.84084
2.33084288900136,0,0,1.197100830078125,0,0,1.07016
2.3322287409973796,0,0,1.4149731811523436,0,0,0.6115200000000001
2.3348444840230513,0,0,1.5849614990234373,0,0,0.7644
2.336272706015734,0,0,1.2856862915039062,0,0,0.7644
2.3376603730139323,0,0,1.2378022583007813,0,0,0.3822
2.339052299008472,0,0,1.2593500732421874,0,0,0.91728
2.3404383360175416,0,0,1.2282254516601563,0,0,0.68796
2.3418466139992233,0,0,1.2641384765625,0,0,0.53508
2.343232874001842,0,0,1.3072341064453123,0,0,0.30576000000000003
2.3446186520159245,0,0,1.4628572143554686,0,0,0.84084
2.3460063929960597,0,0,1.3168109130859373,0,0,0.53508
2.347391504008556,0,0,1.4101847778320311,0,0,0.7644
2.3487794490065426,0,0,1.2641384765625,0,0,1.1465999999999998
2.3501674860017374,0,0,1.197100830078125,0,0,0.91728
2.3515530050208326,0,0,1.0893617553710937,0,0,0.07644000000000001
2.352938838012051,0,0,1.3024457031249999,0,0,0.68796
2.3543251900118776,0,0,1.35990654296875,0,0,0.91728
2.3557109310058877,0,0,1.4724340209960938,0,0,0.91728
2.35709652400692,0,0,1.2497732666015624,0,0,1.1465999999999998
2.3584836540103424,0,0,1.1611878051757811,0,0,1.07016
2.3598709870129824,0,0,1.13006318359375,0,0,0.84084
2.361275191011373,0,0,1.209071838378906,0,0,0.30576000000000003
2.362668821006082,0,0,1.3359645263671873,0,0,0.53508
2.3640546730021015,0,0,1.4628572143554686,0,0,1.07016
2.365440303023206,0,0,1.3814543579101561,0,0,0.84084
2.3668294330127537,0,0,1.2617442749023438,0,0,0.91728
2.3682154880079906,0,0,1.1252747802734375,0,0,0.7644
2.369600841018837,0,0,1.3024457031249999,0,0,0.53508
2.3709862300020177,0,0,1.2808978881835937,0,0,0.84084
2.372371452016523,0,0,1.2713210815429687,0,0,1.1465999999999998
2.3737572300015017,0,0,1.2880804931640624,0,0,0.6115200000000001
2.375159249000717,0,0,1.4987702392578124,0,0,1.07016
2.376545303995954,0,0,1.3335703247070312,0,0,0.68796
2.377931768016424,0,0,1.1540052001953125,0,0,0.6115200000000001
2.3793166380201,0,0,1.218648645019531,0,0,0.7644
2.3807023240078706,0,0,1.1611878051757811,0,0,1.1465999999999998
2.382088490994647,0,0,1.4030021728515625,0,0,0.6115200000000001
2.383473658002913,0,0,1.2330138549804688,0,0,0.68796
2.3848595099989325,0,0,1.5322890624999999,0,0,0.91728
2.386245436005993,0,0,1.2378022583007813,0,0,0.68796
2.3876302510034293,0,0,1.24498486328125,0,0,0.7644
2.389016269997228,0,0,1.2425906616210938,0,0,0.6115200000000001
2.390401787997689,0,0,1.1061211669921875,0,0,0.6115200000000001
2.3917909740121104,0,0,1.2952630981445312,0,0,0.15288000000000002
2.3931769370101392,0,0,1.2785036865234374,0,0,0.53508
2.394562658999348,0,0,1.4915876342773438,0,0,0.7644
2.395948011020664,0,0,1.3215993164062498,0,0,0.6115200000000001
2.3973335860064253,0,0,1.3144167114257812,0,0,0.99372
2.3987341970205307,0,0,1.3000515014648437,0,0,0.68796
2.4001178269973025,0,0,1.1635820068359375,0,0,0.53508
2.401501604996156,0,0,1.1468225952148436,0,0,0.07644000000000001
2.4029016790154856,0,0,1.2401964599609374,0,0,0.53508
2.404288068006281,0,0,1.4006079711914061,0,0,0.3822
2.4056857530085836,0,0,1.4030021728515625,0,0,0.6115200000000001
2.407072642003186,0,0,1.2832920898437499,0,0,0.91728
2.4084587910037953,0,0,1.209071838378906,0,0,0.68796
2.4098459760134574,0,0,1.149216796875,0,0,0.84084
2.4112317730032373,0,0,1.2018892333984375,0,0,0.6115200000000001
2.412627958023222,0,0,1.2880804931640624,0,0,0.68796
2.414014866022626,0,0,1.3958195678710936,0,0,0.7644
2.4154002360010054,0,0,1.5251064575195312,0,0,0.84084
2.416785533016082,0,0,1.2497732666015624,0,0,1.2230400000000001
2.4181716260209214,0,0,1.158793603515625,0,0,0.53508
2.4195663110003807,0,0,1.1276689819335937,0,0,0.6115200000000001
2.4209521820012014,0,0,1.2138602416992186,0,0,1.1465999999999998
2.4223396080196835,0,0,1.3120225097656248,0,0,1.07016
2.4237247010169085,0,0,1.2952630981445312,0,0,0.68796
2.4251099600223824,0,0,1.5298948608398437,0,0,0.84084
2.426496052998118,0,0,1.2282254516601563,0,0,0.53508
2.42788145999657,0,0,1.22583125,0,0,0.6115200000000001
2.4292663680098485,0,0,1.2521674682617188,0,0,0.84084
2.430652517010458,0,0,1.0414777221679687,0,0,1.37592
2.4320380540157203,0,0,1.2713210815429687,0,0,0.6115200000000001
2.433429905999219,0,0,1.24498486328125,0,0,0.68796
2.4348154990002513,0,0,1.5227122558593749,0,0,0.91728
2.4362018140091095,0,0,1.3335703247070312,0,0,0.84084
2.4375869250216056,0,0,1.254561669921875,0,0,1.07016
2.4389727399975527,0,0,1.1875240234375,0,0,0.7644
2.4403582400118466,0,0,1.1731588134765625,0,0,0.84084
2.441743592004059,0,0,1.2761094848632812,0,0,0.0
2.4431290000211447,0,0,1.2976572998046874,0,0,0.53508
2.4445151110121515,0,0,1.5251064575195312,0,0,0.45864
2.4459012230217922,0,0,1.22583125,0,0,0.99372
2.447286630020244,0,0,1.3048399047851562,0,0,0.84084
2.4486728900228627,0,0,1.218648645019531,0,0,0.84084
2.450066223012982,0,0,1.1923124267578125,0,0,0.84084
2.4514518530049827,0,0,1.1156979736328125,0,0,0.22932
2.4528378719987813,0,0,1.2928688964843749,0,0,0.84084
2.4542241680028383,0,0,1.3407529296874998,0,0,0.6115200000000001
2.455609409022145,0,0,1.4413093994140624,0,0,0.68796
2.4569949099968653,0,0,1.3718775512695311,0,0,0.99372
2.4583802800043486,0,0,1.1827356201171875,0,0,0.91728
2.4597655030083843,0,0,1.1659762084960936,0,0,0.84084
2.4611511880066246,0,0,1.2904746948242187,0,0,0.45864
2.462536392005859,0,0,1.3144167114257812,0,0,0.91728
2.4639220040116925,0,0,1.3120225097656248,0,0,0.68796
2.465307300008135,0,0,1.5059528442382812,0,0,0.68796
2.466692707996117,0,0,1.4030021728515625,0,0,0.91728
2.468077875004383,0,0,1.2880804931640624,0,0,0.7644
2.469462912005838,0,0,1.1731588134765625,0,0,0.6115200000000001
2.4708486160088796,0,0,1.1947066284179686,0,0,1.45236
2.4722342830209527,0,0,1.2665326782226562,0,0,1.1465999999999998
2.4736196900194045,0,0,1.3359645263671873,0,0,0.53508
2.4750051910232287,0,0,1.5203180541992187,0,0,0.7644
2.476390302006621,0,0,1.3311761230468748,0,0,0.99372
2.4777840800234117,0,0,1.2401964599609374,0,0,0.53508
2.4791709880228154,0,0,1.197100830078125,0,0,0.7644
2.480556616996182,0,0,1.180341418457031,0,0,0.6115200000000001
2.481944024999393,0,0,1.3359645263671873,0,0,0.6115200000000001
2.4833292289986275,0,0,1.2808978881835937,0,0,0.53508
2.4847146550018806,0,0,1.5035586425781249,0,0,0.68796
2.4861006179999094,0,0,1.2282254516601563,0,0,0.91728
2.487485582008958,0,0,1.22583125,0,0,0.7644
2.4888705820194446,0,0,1.3192051147460937,0,0,0.91728
2.4902564890217036,0,0,1.3407529296874998,0,0,-9.24924
2.491654619021574,0,0,1.2210428466796874,0,0,0.0
2.493046638002852,0,0,1.2808978881835937,0,0,0.3822
2.494433508021757,0,0,1.3838485595703125,0,0,0.7644
2.4958198420063127,0,0,1.3431471313476562,0,0,0.99372
2.4972052500233985,0,0,1.2593500732421874,0,0,0.99372
2.498589657014236,0,0,1.3359645263671873,0,0,1.1465999999999998
2.499973657017108,0,0,1.1731588134765625,0,0,0.84084
2.5013574729964603,0,0,1.2018892333984375,0,0,0.07644000000000001
2.5028004159976263,0,0,1.4245499877929686,0,0,0.68796
2.5041885090176947,0,0,1.4221557861328125,0,0,0.68796
2.5055753430060577,0,0,1.4317325927734375,0,0,0.53508
2.5069624170137104,0,0,1.3287819213867187,0,0,0.91728
2.5083490280085243,0,0,1.1923124267578125,0,0,0.91728
2.509735529019963,0,0,1.1851298217773436,0,0,0.7644
2.511122084019007,0,0,1.2306196533203124,0,0,0.7644
2.51250915901619,0,0,1.4245499877929686,0,0,0.99372
2.513893602997996,0,0,1.4437036010742186,0,0,0.91728
2.5152715480071492,0,0,1.6448165405273436,0,0,0.6115200000000001
2.516650641016895,0,0,1.3192051147460937,0,0,0.68796
2.5191935890179593,0,0,1.2928688964843749,0,0,0.84084
2.520582423021551,0,0,1.1085153686523437,0,0,1.2230400000000001
2.521970849018544,0,0,1.4149731811523436,0,0,0.15288000000000002
2.523355793004157,0,0,1.3192051147460937,0,0,0.30576000000000003
2.5247422750107944,0,0,1.5370774658203123,0,0,0.84084
2.526129349018447,0,0,1.3000515014648437,0,0,0.53508
2.5275154420232866,0,0,1.3766659545898436,0,0,1.2230400000000001
2.5289015540038235,0,0,1.1611878051757811,0,0,1.07016
2.530289479997009,0,0,1.1947066284179686,0,0,0.45864
2.531726757006254,0,0,1.3742717529296875,0,0,0.15288000000000002
2.5331267020083033,0,0,1.3072341064453123,0,0,0.3822
2.534513849997893,0,0,1.3215993164062498,0,0,0.6115200000000001
2.5359009800013155,0,0,1.2952630981445312,0,0,0.91728
2.5372972760233097,0,0,1.3575123413085937,0,0,0.84084
2.538686610001605,0,0,1.0989385620117187,0,0,0.84084
2.5400650539959315,0,0,1.1013327636718748,0,0,0.7644
2.5414433880068827,0,0,1.1827356201171875,0,0,0.30576000000000003
2.542833703017095,0,0,1.4030021728515625,0,0,0.6115200000000001
2.5442464990192093,0,0,1.4508862060546874,0,0,0.91728
2.545635222020792,0,0,1.2282254516601563,0,0,0.68796
2.5470233890227973,0,0,1.3000515014648437,0,0,0.91728
2.548410926014185,0,0,1.2641384765625,0,0,0.84084
2.5497986480186228,0,0,1.1731588134765625,0,0,0.68796
2.5511853890202474,0,0,1.3192051147460937,0,0,0.99372
2.5525727409985848,0,0,1.2713210815429687,0,0,0.99372
2.5539596670132596,0,0,1.388636962890625,0,0,0.68796
2.5553480010130443,0,0,1.3838485595703125,0,0,0.53508
2.5567343160219025,0,0,1.2473790649414063,0,0,0.6115200000000001
2.55812185301329,0,0,1.177947216796875,0,0,0.45864
2.559508057020139,0,0,1.3455413330078123,0,0,0.7644
2.560894908994669,0,0,1.1851298217773436,0,0,1.45236
2.562283186998684,0,0,1.3742717529296875,0,0,0.84084
2.563668854010757,0,0,1.407790576171875,0,0,0.68796
2.5650557250191923,0,0,1.618480322265625,0,0,0.68796
2.56644191002124,0,0,1.2785036865234374,0,0,0.53508
2.567827966006007,0,0,1.218648645019531,0,0,0.68796
2.5692166140070185,0,0,1.1348515869140625,0,0,0.91728
2.570598726015305,0,0,1.3000515014648437,0,0,1.1465999999999998
2.5719774110184517,0,0,1.3575123413085937,0,0,0.30576000000000003
2.5733556339982897,0,0,1.2761094848632812,0,0,0.45864
2.574900002015056,0,0,1.419761584472656,0,0,0.68796
2.5762857800000347,0,0,1.3000515014648437,0,0,0.45864
2.5776697440014686,0,0,1.2952630981445312,0,0,0.7644
2.579054336005356,0,0,1.2306196533203124,0,0,1.2994800000000002
2.580438281001989,0,0,1.1516109985351561,0,0,0.53508
2.5818529660173226,0,0,1.2761094848632812,0,0,0.3822
2.5832437810022384,0,0,1.2904746948242187,0,0,0.3822
2.5847074839985,0,0,1.4915876342773438,0,0,0.84084
2.5861439279979095,0,0,1.3072341064453123,0,0,0.7644
2.5875301320047583,0,0,1.2330138549804688,0,0,0.84084
2.5889138170168735,0,0,1.1923124267578125,0,0,0.99372
2.590322317002574,0,0,1.3335703247070312,0,0,0.53508
2.5917997240030672,0,0,1.3335703247070312,0,0,0.45864
2.5932382790197153,0,0,1.2521674682617188,0,0,0.6115200000000001
2.594631001004018,0,0,1.5370774658203123,0,0,0.68796
2.596033964015078,0,0,1.2976572998046874,0,0,0.91728
2.597419001016533,0,0,1.2425906616210938,0,0,1.07016
2.5988035759946797,0,0,1.1444283935546875,0,0,1.2230400000000001
2.600187502015615,0,0,1.0726023437499999,0,0,0.6115200000000001
2.6015708910126705,0,0,1.2617442749023438,0,0,0.0
2.602948614017805,0,0,1.3192051147460937,0,0,0.84084
2.6043230590003077,0,0,1.3072341064453123,0,0,0.6115200000000001
2.6056964290037286,0,0,1.3096283081054687,0,0,1.07016
2.607080743997358,0,0,1.3311761230468748,0,0,1.1465999999999998
2.6084631890116725,0,0,1.0965443603515623,0,0,0.7644
2.60984618900693,0,0,1.1109095703125,0,0,0.53508
2.61145414999919,0,0,1.120486376953125,0,0,0.07644000000000001
2.6128319459967315,0,0,1.3048399047851562,0,0,0.91728
2.6142088909982704,0,0,1.3646949462890625,0,0,0.84084
2.615582225000253,0,0,1.3479355346679687,0,0,1.2994800000000002
2.616955855017295,0,0,1.3646949462890625,0,0,0.91728
2.618330002995208,0,0,1.2832920898437499,0,0,0.68796
2.6197030960174743,0,0,1.2952630981445312,0,0,0.84084
2.621077301009791,0,0,1.2737152832031249,0,0,0.91728
2.6224550050101243,0,0,1.3623007446289062,0,0,1.1465999999999998
2.623877097008517,0,0,1.407790576171875,0,0,0.91728
2.6252524309966248,0,0,1.608903515625,0,0,0.7644
2.6266516160103492,0,0,1.3479355346679687,0,0,0.53508
2.6280341160017997,0,0,1.254561669921875,0,0,0.53508
2.6294164870050736,0,0,1.1540052001953125,0,0,0.99372
2.6307999130222015,0,0,1.2497732666015624,0,0,0.99372
2.632182099012425,0,0,1.3263877197265623,0,0,0.7644
2.633569024997996,0,0,1.4317325927734375,0,0,0.45864
2.634952284017345,0,0,1.5442600708007812,0,0,0.7644
2.636645688005956,0,0,1.429338391113281,0,0,0.84084
2.638031762005994,0,0,1.3814543579101561,0,0,0.45864
2.639414133009268,0,0,1.3431471313476562,0,0,0.7644
2.6407977630151436,0,0,1.2018892333984375,0,0,1.2230400000000001
2.642182744020829,0,0,1.3455413330078123,0,0,0.91728
2.643565114994999,0,0,1.3048399047851562,0,0,0.6115200000000001
2.644948152010329,0,0,1.5466542724609373,0,0,0.91728
2.6463264120102394,0,0,1.2880804931640624,0,0,0.84084
2.64769965299638,0,0,1.2569558715820313,0,0,0.6115200000000001
2.649073987005977,0,0,1.235408056640625,0,0,1.07016
2.6504583390196785,0,0,1.3048399047851562,0,0,0.45864
2.651841301994864,0,0,1.2401964599609374,0,0,0.45864
2.6532246730057523,0,0,1.3670891479492187,0,0,0.53508
2.6546187839994673,0,0,1.5873557006835937,0,0,0.6115200000000001
2.6560028030071408,0,0,1.3527239379882812,0,0,0.53508
2.657385618018452,0,0,1.3766659545898436,0,0,0.84084
2.6587688400177285,0,0,1.1707646118164061,0,0,0.84084
2.6602025070169475,0,0,1.180341418457031,0,0,-9.40212
2.6615886549989227,0,0,1.2832920898437499,0,0,0.07644000000000001
2.662967006996041,0,0,1.3048399047851562,0,0,0.30576000000000003
2.664340434013866,0,0,1.2928688964843749,0,0,0.7644
2.6657149710226804,0,0,1.35990654296875,0,0,0.7644
2.667099305021111,0,0,1.2689268798828124,0,0,1.2230400000000001
2.6684821570233908,0,0,1.1611878051757811,0,0,0.6115200000000001
2.66988591599511,0,0,1.2378022583007813,0,0,0.6115200000000001
2.6712682869983837,0,0,1.2832920898437499,0,0,0.99372
2.6726472500013188,0,0,1.3455413330078123,0,0,0.7644
2.674027991015464,0,0,1.467645617675781,0,0,0.84084
2.6754100280231796,0,0,1.4149731811523436,0,0,0.6115200000000001
2.676792269019643,0,0,1.3431471313476562,0,0,1.2230400000000001
2.678174658998614,0,0,1.35990654296875,0,0,0.84084
2.679556233022595,0,0,1.2689268798828124,0,0,0.45864
2.68093814101303,0,0,1.1755530151367186,0,0,1.1465999999999998
2.6823203450185247,0,0,1.3168109130859373,0,0,0.91728
2.6837020860111807,0,0,1.3766659545898436,0,0,0.53508
2.68508634500904,0,0,1.5298948608398437,0,0,0.6115200000000001
2.686468716012314,0,0,1.4341267944335936,0,0,0.84084
2.6878505860222504,0,0,1.2808978881835937,0,0,0.68796
2.689232439006446,0,0,1.3455413330078123,0,0,0.91728
2.6906147350091487,0,0,1.1923124267578125,0,0,0.53508
2.691996347013628,0,0,1.369483349609375,0,0,0.22932
2.6933779770042747,0,0,1.3000515014648437,0,0,0.7644
2.6947609210037626,0,0,1.5346832641601562,0,0,0.6115200000000001
2.6961844580073375,0,0,1.2641384765625,0,0,0.7644
2.697657013020944,0,0,1.1851298217773436,0,0,0.7644
2.6990876049967483,0,0,1.1085153686523437,0,0,1.07016
2.7004772899963427,0,0,1.1827356201171875,0,0,1.37592
2.7019135860027745,0,0,1.3072341064453123,0,0,0.3822
2.7033234930131584,0,0,1.5275006591796874,0,0,0.68796
2.704728548997082,0,0,1.5466542724609373,0,0,0.6115200000000001
2.7061531040235423,0,0,1.3168109130859373,0,0,1.07016
2.7075641970150173,0,0,1.2425906616210938,0,0,0.6115200000000001
2.7089564010093454,0,0,1.2042834350585936,0,0,0.99372
2.7103342710179277,0,0,1.2306196533203124,0,0,0.68796
2.7117072900000494,0,0,1.2401964599609374,0,0,0.0
2.713098734995583,0,0,1.3263877197265623,0,0,0.45864
2.714485180011252,0,0,1.5227122558593749,0,0,0.99372
2.715858884010231,0,0,1.2689268798828124,0,0,0.84084
2.7172437730187085,0,0,1.3144167114257812,0,0,0.91728
2.7186265689961147,0,0,1.2114660400390624,0,0,2.52252
2.7200086250086315,0,0,1.0893617553710937,0,0,0.22932
2.721390310995048,0,0,1.3479355346679687,0,0,0.6115200000000001
2.722773273999337,0,0,1.3670891479492187,0,0,1.07016
2.7241549960162956,0,0,1.3144167114257812,0,0,0.6115200000000001
2.7255369409976993,0,0,1.3383587280273437,0,0,0.7644
2.7269190899969544,0,0,1.39821376953125,0,0,0.99372
2.7283010710089,0,0,1.2617442749023438,0,0,0.84084
2.729682867997326,0,0,1.2569558715820313,0,0,0.6115200000000001
2.7310649050050415,0,0,1.0726023437499999,0,0,0.91728
2.732447090995265,0,0,1.35990654296875,0,0,0.91728
2.733829386997968,0,0,1.3527239379882812,0,0,0.7644
2.7352111650106963,0,0,1.426944189453125,0,0,0.99372
2.73659377702279,0,0,1.2665326782226562,0,0,0.91728
2.737976870004786,0,0,1.1444283935546875,0,0,0.68796
2.7393580740026664,0,0,1.1635820068359375,0,0,0.6115200000000001
2.740740370005369,0,0,1.1707646118164061,0,0,1.37592
2.7421235930232797,0,0,1.2665326782226562,0,0,0.68796
2.7435045190213714,0,0,1.3646949462890625,0,0,0.7644
2.744886482018046,0,0,1.608903515625,0,0,0.68796
2.7462692050030455,0,0,1.2569558715820313,0,0,0.68796
2.7476504270161968,0,0,1.2114660400390624,0,0,0.30576000000000003
2.7490326870174613,0,0,1.199495031738281,0,0,1.1465999999999998
2.7504149460000917,0,0,1.2713210815429687,0,0,1.1465999999999998
2.75179653899977,0,0,1.3072341064453123,0,0,0.30576000000000003
2.753178762010066,0,0,1.2330138549804688,0,0,0.53508
2.754560928995488,0,0,1.5514426757812498,0,0,0.84084
2.755942485004198,0,0,1.2880804931640624,0,0,0.53508
2.7573402620037086,0,0,1.3766659545898436,0,0,0.84084
2.7587381880148314,0,0,1.2378022583007813,0,0,1.07016
2.7601200960052665,0,0,1.2737152832031249,0,0,0.84084
2.761502114997711,0,0,1.388636962890625,0,0,0.15288000000000002
2.7628849490138236,0,0,1.4030021728515625,0,0,0.91728
2.7642668560147285,0,0,1.2593500732421874,0,0,0.68796
2.7656481340236496,0,0,1.2234370483398436,0,0,0.91728
2.767037153011188,0,0,1.2880804931640624,0,0,1.07016
2.768418505002046,0,0,1.24498486328125,0,0,1.1465999999999998
2.7698009310115594,0,0,1.2401964599609374,0,0,0.84084
2.7711925430048723,0,0,1.1923124267578125,0,0,0.30576000000000003
2.772575062001124,0,0,1.3215993164062498,0,0,0.84084
2.7739587100222707,0,0,1.3383587280273437,0,0,0.45864
2.775339581014123,0,0,1.2952630981445312,0,0,-9.09636
2.7767233030172065,0,0,1.3192051147460937,0,0,1.1465999999999998
2.778105339995818,0,0,1.1252747802734375,0,0,0.7644
2.779487378022168,0,0,1.2880804931640624,0,0,0.68796
2.780868971021846,0,0,1.1923124267578125,0,0,1.2230400000000001
2.782252026023343,0,0,1.3383587280273437,0,0,0.99372
2.783633582002949,0,0,1.3575123413085937,0,0,0.7644
2.7850149710138794,0,0,1.5921441040039062,0,0,0.6115200000000001
2.786397175019374,0,0,1.3000515014648437,0,0,0.99372
2.7877788050100207,0,0,1.254561669921875,0,0,0.68796
2.789160713000456,0,0,1.139639990234375,0,0,0.91728
2.7905431390099693,0,0,1.2282254516601563,0,0,0.91728
2.7919249730184674,0,0,1.350329736328125,0,0,0.84084
2.793307398998877,0,0,1.3814543579101561,0,0,0.3822
2.7946891960164066,0,0,1.5753846923828123,0,0,0.68796
2.796070974000031,0,0,1.3096283081054687,0,0,0.68796
2.797453178005526,0,0,1.2114660400390624,0,0,0.6115200000000001
2.7988352150132414,0,0,1.1348515869140625,0,0,1.1465999999999998
2.800217012001667,0,0,1.2138602416992186,0,0,0.45864
2.801606401015306,0,0,1.3575123413085937,0,0,-9.555
2.8029905120201875,0,0,1.2713210815429687,0,0,0.68796
2.804372605023673,0,0,1.4173673828125,0,0,0.53508
2.805754679022357,0,0,1.3120225097656248,0,0,0.6115200000000001
2.807138494012179,0,0,1.429338391113281,0,0,0.99372
2.8085202910006046,0,0,1.2832920898437499,0,0,0.91728
2.809903180022957,0,0,1.3575123413085937,0,0,0.68796
2.8112823470146395,0,0,1.2641384765625,0,0,0.0
2.8128439749998506,0,0,1.2808978881835937,0,0,0.6115200000000001
2.814223105000565,0,0,1.2952630981445312,0,0,0.84084
2.8155968460196164,0,0,1.438915197753906,0,0,0.68796
2.8169710870133713,0,0,1.2497732666015624,0,0,1.1465999999999998
2.8183457539998926,0,0,1.1947066284179686,0,0,0.84084
2.819719866005471,0,0,1.1468225952148436,0,0,0.45864
2.8210932729998603,0,0,1.0797849487304687,0,0,0.53508
2.822468680999009,0,0,1.3168109130859373,0,0,0.99372
2.823841570003424,0,0,1.2880804931640624,0,0,0.91728
2.8252146080194507,0,0,1.5610194824218748,0,0,0.6115200000000001
2.826596849015914,0,0,1.2665326782226562,0,0,0.6115200000000001
2.8279795160051435,0,0,1.1947066284179686,0,0,0.53508
2.8293803310079966,0,0,1.2282254516601563,0,0,0.6115200000000001
2.8307643310108688,0,0,1.2330138549804688,0,0,1.68168
2.8321471649978776,0,0,1.3646949462890625,0,0,1.37592
2.8335332020069472,0,0,1.39821376953125,0,0,0.7644
2.834958239021944,0,0,1.43652099609375,0,0,0.84084
2.8365798100130633,0,0,1.3168109130859373,0,0,0.45864
2.8379746800055727,0,0,1.3646949462890625,0,0,0.99372
2.8393623290176038,0,0,1.2114660400390624,0,0,0.3822
2.840749051014427,0,0,1.1563994018554686,0,0,1.07016
2.842136200022651,0,0,1.235408056640625,0,0,0.99372
2.8437085680197924,0,0,1.3263877197265623,0,0,0.84084
2.845115808013361,0,0,1.467645617675781,0,0,0.84084
2.846503845998086,0,0,1.35990654296875,0,0,1.1465999999999998
2.8478906789969187,0,0,1.3718775512695311,0,0,0.84084
2.849277476023417,0,0,1.1348515869140625,0,0,-9.01992
2.8506654200027697,0,0,1.1851298217773436,0,0,1.1465999999999998
2.852052197995363,0,0,1.4030021728515625,0,0,0.7644
2.8534389389969874,0,0,1.3646949462890625,0,0,0.68796
2.8548248650040478,0,0,1.599326708984375,0,0,0.99372
2.8562107180187013,0,0,1.3192051147460937,0,0,0.84084
2.857596996007487,0,0,1.3335703247070312,0,0,0.6115200000000001
2.8589831440185662,0,0,1.3623007446289062,0,0,0.53508
2.860368607012788,0,0,1.2234370483398436,0,0,1.07016
2.861754848010605,0,0,1.2761094848632812,0,0,0.15288000000000002
2.863143199996557,0,0,1.2665326782226562,0,0,0.6115200000000001
2.8645302000222728,0,0,1.4891934326171874,0,0,0.91728
2.865917386021465,0,0,1.2713210815429687,0,0,0.68796
2.8673041820002254,0,0,1.2761094848632812,0,0,0.84084
2.868690183007857,0,0,1.197100830078125,0,0,1.07016
2.8700771090225317,0,0,1.2593500732421874,0,0,0.53508
2.8714633680065162,0,0,1.369483349609375,0,0,0.07644000000000001
2.8728492020163685,0,0,1.3120225097656248,0,0,0.68796
2.874236239003949,0,0,1.5155296508789062,0,0,0.6115200000000001
2.875621590996161,0,0,1.3575123413085937,0,0,0.84084
2.8770071280014236,0,0,1.3072341064453123,0,0,0.91728
2.8783934249950107,0,0,1.180341418457031,0,0,0.84084
2.8797793140111025,0,0,1.1133037719726562,0,0,0.68796
2.881164833001094,0,0,1.2976572998046874,0,0,0.22932
2.8825506849971134,0,0,1.3215993164062498,0,0,0.7644
2.883940944011556,0,0,1.3215993164062498,0,0,0.7644
2.885326593008358,0,0,1.3359645263671873,0,0,0.7644
2.8867147600103635,0,0,1.3120225097656248,0,0,0.84084
2.8881169079977553,0,0,1.3431471313476562,0,0,0.45864
2.889510445005726,0,0,1.2234370483398436,0,0,0.68796
2.8908970010234043,0,0,1.1037269653320312,0,0,0.84084
2.8922828900103923,0,0,1.3455413330078123,0,0,1.1465999999999998
2.893668761011213,0,0,1.4341267944335936,0,0,0.84084
2.895054668013472,0,0,1.675941162109375,0,0,0.68796
2.8964401870034635,0,0,1.3527239379882812,0,0,0.68796
2.8978417050093412,0,0,1.2737152832031249,0,0,0.53508
2.899226224020822,0,0,1.2138602416992186,0,0,0.7644
2.900610039010644,0,0,1.218648645019531,0,0,1.2230400000000001
2.9020084840012714,0,0,1.2785036865234374,0,0,0.91728
2.903395891014952,0,0,1.2473790649414063,0,0,0.45864
2.9047824290173594,0,0,1.3814543579101561,0,0,0.6115200000000001
2.9061691880051512,0,0,1.3766659545898436,0,0,0.53508
2.9075543740182184,0,0,1.3096283081054687,0,0,0.7644
2.9089408550062217,0,0,1.3646949462890625,0,0,1.07016
2.910326522018295,0,0,1.199495031738281,0,0,0.91728
2.9117125600168947,0,0,1.2856862915039062,0,0,0.45864
2.913098301010905,0,0,1.2785036865234374,0,0,0.07644000000000001
2.914484189997893,0,0,1.4508862060546874,0,0,0.84084
2.9158698940009344,0,0,1.5011644409179687,0,0,0.91728
2.917255838023266,0,0,1.369483349609375,0,0,0.91728
2.9186417089949828,0,0,1.1228805786132812,0,0,0.99372
2.920027542015305,0,0,1.209071838378906,0,0,0.53508
2.921413061005296,0,0,1.2928688964843749,0,0,0.0
2.922806135000428,0,0,1.484405029296875,0,0,0.3822
2.9242124870070256,0,0,1.5658078857421873,0,0,0.91728
2.925709208007902,0,0,1.4341267944335936,0,0,0.7644
2.927097894018516,0,0,1.2904746948242187,0,0,0.99372
2.928484097996261,0,0,1.177947216796875,0,0,1.07016
2.9298938749998342,0,0,1.1540052001953125,0,0,0.53508
2.931280468008481,0,0,1.3000515014648437,0,0,0.30576000000000003
2.9326907640206628,0,0,1.3934253662109375,0,0,0.45864
2.9340787090186495,0,0,1.39821376953125,0,0,0.91728
2.935464894020697,0,0,1.3910311645507811,0,0,0.6115200000000001
2.9368505610036664,0,0,1.3072341064453123,0,0,1.07016
2.9382373389962595,0,0,1.1516109985351561,0,0,0.84084
2.9396223580115475,0,0,1.1827356201171875,0,0,0.45864
2.9410082469985355,0,0,1.3670891479492187,0,0,0.84084
2.942394581012195,0,0,1.3000515014648437,0,0,1.1465999999999998
2.9437801180174574,0,0,1.3072341064453123,0,0,1.1465999999999998
2.945165970013477,0,0,1.2856862915039062,0,0,0.68796
2.946559618023457,0,0,1.3048399047851562,0,0,0.53508
2.947945804015035,0,0,1.2617442749023438,0,0,0.91728
2.9493313780112658,0,0,1.1851298217773436,0,0,0.68796
2.9507296929950826,0,0,1.2282254516601563,0,0,1.37592
2.9521154900139663,0,0,1.388636962890625,0,0,1.07016
2.953501212003175,0,0,1.3120225097656248,0,0,0.91728
2.954887175001204,0,0,1.599326708984375,0,0,0.45864
2.9562731760088354,0,0,1.3551181396484375,0,0,0.53508
2.9576591390068643,0,0,1.2856862915039062,0,0,0.7644
2.9590443610213697,0,0,1.1923124267578125,0,0,0.91728
2.9604303060041275,0,0,1.1635820068359375,0,0,0.99372
2.9618279910064302,0,0,1.22583125,0,0,0.3822
2.963213714014273,0,0,1.35990654296875,0,0,0.68796
2.96459976900951,0,0,1.4772224243164063,0,0,0.68796
2.9659864919958636,0,0,1.2928688964843749,0,0,0.99372
2.9673712880176026,0,0,1.2497732666015624,0,0,0.99372
2.968757196009392,0,0,1.218648645019531,0,0,0.99372
2.9701431220164523,0,0,1.177947216796875,0,0,0.68796
2.9715277340146713,0,0,1.3335703247070312,0,0,0.0
2.9729133259970695,0,0,1.3096283081054687,0,0,0.3822
2.974309882003581,0,0,1.5705962890624998,0,0,0.6115200000000001
2.9756953080068342,0,0,1.458068811035156,0,0,0.91728
2.977088179002749,0,0,1.3168109130859373,0,0,0.99372
2.9784741600160487,0,0,1.216254443359375,0,0,1.07016
2.9798594760068227,0,0,1.3670891479492187,0,0,0.84084
2.9812449760211166,0,0,1.2378022583007813,0,0,0.0
2.9826309950149152,0,0,1.3958195678710936,0,0,0.7644
2.9840172350232024,0,0,1.3623007446289062,0,0,0.68796
2.9854033470037393,0,0,1.3718775512695311,0,0,0.6115200000000001
2.986789143003989,0,0,1.2569558715820313,0,0,0.7644
2.9881749030028004,0,0,1.16837041015625,0,0,0.99372
2.9895608850056306,0,0,1.1947066284179686,0,0,0.7644
2.990946755016921,0,0,1.20667763671875,0,0,0.7644
2.9923324410046916,0,0,1.3311761230468748,0,0,1.1465999999999998
2.993718384997919,0,0,1.350329736328125,0,0,0.7644
2.99510425599874,0,0,1.3192051147460937,0,0,0.6115200000000001
2.9964901079947595,0,0,1.3215993164062498,0,0,0.7644
2.997885386022972,0,0,1.3168109130859373,0,0,0.68796
2.9992694969987497,0,0,1.235408056640625,0,0,0.7644
3.000657109019812,0,0,1.0773907470703123,0,0,1.1465999999999998
3.0020554790098686,0,0,1.35990654296875,0,0,0.6115200000000001
3.00344418300665,0,0,1.3934253662109375,0,0,0.68796
3.004839442000957,0,0,1.5801730957031248,0,0,0.7644
3.006227961013792,0,0,1.16837041015625,0,0,0.6115200000000001
3.0076147759973537,0,0,1.2306196533203124,0,0,0.68796
3.0090016280009877,0,0,1.2497732666015624,0,0,0.68796
3.010388184018666,0,0,1.2473790649414063,0,0,1.07016
3.0117844060005154,0,0,1.2665326782226562,0,0,0.15288000000000002
3.0131731099972967,0,0,1.3766659545898436,0,0,0.6115200000000001
3.014560462004738,0,0,1.4628572143554686,0,0,0.6115200000000001
3.0159474620013498,0,0,1.350329736328125,0,0,0.84084
3.0173338150198106,0,0,1.2713210815429687,0,0,0.68796
3.0187387590121944,0,0,1.1707646118164061,0,0,0.91728
3.0201375739998184,0,0,1.1827356201171875,0,0,0.45864
3.0215250740002375,0,0,1.2665326782226562,0,0,0.0
3.022912130021723,0,0,1.4891934326171874,0,0,0.6115200000000001
3.024298741016537,0,0,1.5538368774414062,0,0,0.68796
3.0256847410055343,0,0,1.446097802734375,0,0,0.99372
3.027071649004938,0,0,1.3048399047851562,0,0,0.91728
3.028458742017392,0,0,1.1755530151367186,0,0,0.84084
3.029847279016394,0,0,1.0965443603515623,0,0,0.53508
3.031234983005561,0,0,1.235408056640625,0,0,0.30576000000000003
3.0326216499961447,0,0,1.3862427612304686,0,0,0.3822
3.0340091320103966,0,0,1.5298948608398437,0,0,0.6115200000000001
3.035395058017457,0,0,1.3383587280273437,0,0,0.68796
3.036781910021091,0,0,1.3215993164062498,0,0,0.99372
3.038166131998878,0,0,1.1252747802734375,0,0,0.84084
3.0395439480198547,0,0,1.2928688964843749,0,0,0.68796
3.040922689018771,0,0,1.139639990234375,0,0,1.1465999999999998
3.042320781009039,0,0,1.4125789794921875,0,0,0.84084
3.0437071890046354,0,0,1.3814543579101561,0,0,1.07016
3.0451041150081437,0,0,1.2785036865234374,0,0,0.7644
3.0465220590122044,0,0,1.216254443359375,0,0,1.2230400000000001
3.0479093739995733,0,0,1.1731588134765625,0,0,0.68796
3.0492953930224758,0,0,1.2378022583007813,0,0,0.45864
3.050681152002653,0,0,1.2785036865234374,0,0,1.1465999999999998
3.052066319010919,0,0,1.3335703247070312,0,0,0.84084
3.0534513750171755,0,0,1.3383587280273437,0,0,0.99372
3.0548375610087533,0,0,1.5011644409179687,0,0,0.68796
3.056223505001981,0,0,1.3024457031249999,0,0,0.6115200000000001
3.057609265000792,0,0,1.3335703247070312,0,0,0.53508
3.0589954320166726,0,0,1.216254443359375,0,0,0.68796
3.060381043003872,0,0,1.2401964599609374,0,0,0.91728
3.0617823580105323,0,0,1.3742717529296875,0,0,0.84084
3.0631880250002723,0,0,1.350329736328125,0,0,0.6115200000000001
3.0645823020022362,0,0,1.4030021728515625,0,0,0.91728
3.065969617018709,0,0,1.4628572143554686,0,0,0.84084
3.0673543400189374,0,0,1.2713210815429687,0,0,0.68796
3.068739876995096,0,0,1.1731588134765625,0,0,0.91728
3.0701260440109763,0,0,1.218648645019531,0,0,0.7644
3.071511340996949,0,0,1.2282254516601563,0,0,0.30576000000000003
3.0728968220064417,0,0,1.3024457031249999,0,0,0.45864
3.0742829520022497,0,0,1.6160861206054686,0,0,0.7644
3.0756685270171147,0,0,1.4245499877929686,0,0,0.53508
3.077054027002305,0,0,1.2976572998046874,0,0,0.99372
3.078440286015393,0,0,1.209071838378906,0,0,0.99372
3.0798264530021697,0,0,1.3239935180664062,0,0,0.53508
3.081211898010224,0,0,1.2952630981445312,0,0,0.68796
3.0825978430220857,0,0,1.2976572998046874,0,0,0.53508
3.0839870840136427,0,0,1.4939818359375,0,0,0.6115200000000001
3.086450180999236,0,0,1.2952630981445312,0,0,0.68796
3.0878415330080315,0,0,1.24498486328125,0,0,0.68796
3.089229311008239,0,0,1.199495031738281,0,0,0.84084
3.090616385015892,0,0,1.3215993164062498,0,0,1.2994800000000002
3.0920030520064756,0,0,1.3814543579101561,0,0,0.99372
3.093388904002495,0,0,1.3024457031249999,0,0,0.68796
3.094775812001899,0,0,1.3910311645507811,0,0,0.7644
3.096161404013401,0,0,1.3359645263671873,0,0,0.68796
3.097547201003181,0,0,1.2425906616210938,0,0,0.68796
3.098934794019442,0,0,1.1875240234375,0,0,0.68796
3.1003204790176824,0,0,1.180341418457031,0,0,0.68796
3.101706091023516,0,0,1.0821791503906248,0,0,0.84084
3.1030949980195146,0,0,1.3551181396484375,0,0,0.45864
3.1044804800185375,0,0,1.4939818359375,0,0,0.68796
3.105881572002545,0,0,1.2904746948242187,0,0,0.84084
3.107268646999728,0,0,1.3000515014648437,0,0,0.84084
3.1086725360073615,0,0,1.1611878051757811,0,0,1.1465999999999998
3.11006009101402,0,0,1.2617442749023438,0,0,0.6115200000000001
3.1114457030198537,0,0,1.2425906616210938,0,0,0.07644000000000001
3.112830833008047,0,0,1.369483349609375,0,0,0.45864
3.114217351016123,0,0,1.5514426757812498,0,0,0.84084
3.1156028149998747,0,0,1.5107412475585937,0,0,0.84084
3.1169887960131746,0,0,1.3096283081054687,0,0,0.91728
3.1183764260204043,0,0,1.0893617553710937,0,0,1.07016
3.1197622409963515,0,0,1.120486376953125,0,0,0.68796
3.1211482229991816,0,0,1.3096283081054687,0,0,0.07644000000000001
3.1225415189983323,0,0,1.2569558715820313,0,0,0.6115200000000001
3.123928094020812,0,0,1.4915876342773438,0,0,0.7644
3.125314094009809,0,0,1.4101847778320311,0,0,0.84084
3.1267000939988066,0,0,1.3407529296874998,0,0,1.07016
3.1280860569968354,0,0,1.2018892333984375,0,0,0.53508
3.1294722800084855,0,0,1.2521674682617188,0,0,0.84084
3.1308582430065144,0,0,1.0893617553710937,0,0,0.45864
3.1322485950076953,0,0,1.4628572143554686,0,0,0.91728
3.133634855010314,0,0,1.4939818359375,0,0,0.84084
3.1350210590171628,0,0,1.4796166259765624,0,0,0.53508
3.136412966006901,0,0,1.3623007446289062,0,0,1.07016
3.1378000219992828,0,0,1.3287819213867187,0,0,0.6115200000000001
3.139190096000675,0,0,1.2473790649414063,0,0,0.68796
3.140575652010739,0,0,1.2210428466796874,0,0,1.1465999999999998
3.141962985013379,0,0,1.3287819213867187,0,0,0.99372
3.1433503010193817,0,0,1.3096283081054687,0,0,0.6115200000000001
3.1447360970196314,0,0,1.5298948608398437,0,0,0.91728
3.1461235970200505,0,0,1.3096283081054687,0,0,0.53508
3.147508635011036,0,0,1.3670891479492187,0,0,0.84084
3.148894450016087,0,0,1.209071838378906,0,0,0.99372
3.150281394016929,0,0,1.189918225097656,0,0,0.45864
3.151666635007132,0,0,1.3551181396484375,0,0,0.68796
3.153065858001355,0,0,1.2641384765625,0,0,0.45864
3.154452136019245,0,0,1.5155296508789062,0,0,0.7644
3.155838025006233,0,0,1.3407529296874998,0,0,0.53508
3.157223951013293,0,0,1.37906015625,0,0,0.6115200000000001
3.158610562008107,0,0,1.235408056640625,0,0,1.07016
3.15999604400713,0,0,1.16837041015625,0,0,0.53508
3.1613819700141903,0,0,1.2761094848632812,0,0,-0.22932
3.1627707300067414,0,0,1.4221557861328125,0,0,0.3822
3.1641565629979596,0,0,1.5203180541992187,0,0,0.7644
3.1655419150192756,0,0,1.4700398193359374,0,0,0.99372
3.1669281750218943,0,0,1.254561669921875,0,0,1.07016
3.1683137680229265,0,0,1.1156979736328125,0,0,1.07016
3.1696991200151388,0,0,1.1659762084960936,0,0,0.3822
3.1710850090021268,0,0,1.197100830078125,0,0,0.0
3.1724709720001556,0,0,1.4891934326171874,0,0,0.68796
3.1738585279963445,0,0,1.4915876342773438,0,0,0.7644
3.175244935002411,0,0,1.35990654296875,0,0,0.7644
3.1766305650235154,0,0,1.1540052001953125,0,0,1.07016
3.1780169540143106,0,0,1.0773907470703123,0,0,0.91728
3.179402066016337,0,0,1.2282254516601563,0,0,0.53508
3.1807957510172855,0,0,1.2138602416992186,0,0,0.45864
3.182183585013263,0,0,1.3910311645507811,0,0,1.2230400000000001
3.183568918000674,0,0,1.3000515014648437,0,0,0.68796
3.1849545300065074,0,0,1.3527239379882812,0,0,0.45864
3.1863401040027384,0,0,1.2138602416992186,0,0,0.68796
3.1877252150152344,0,0,1.2904746948242187,0,0,0.3822
3.189111475017853,0,0,1.2330138549804688,0,0,0.68796
3.1904974930221215,0,0,1.149216796875,0,0,1.45236
3.191882864019135,0,0,1.3934253662109375,0,0,1.07016
3.193268197996076,0,0,1.3263877197265623,0,0,0.84084
3.19465393901919,0,0,1.4724340209960938,0,0,0.45864
3.1960456609958783,0,0,1.2497732666015624,0,0,0.84084
3.197431845997926,0,0,1.2904746948242187,0,0,0.6115200000000001
3.1988179390027653,0,0,1.1372457885742187,0,0,0.6115200000000001
3.2002035320037976,0,0,1.1372457885742187,0,0,-8.7906
3.201589847012656,0,0,1.2761094848632812,0,0,0.53508
3.202975921012694,0,0,1.3192051147460937,0,0,0.22932
3.2043615140137263,0,0,1.4963760375976562,0,0,0.7644
3.2057471809966955,0,0,1.3048399047851562,0,0,0.91728
3.207133274001535,0,0,1.2497732666015624,0,0,0.84084
3.208518441009801,0,0,1.1276689819335937,0,0,1.1465999999999998
3.2099051080003846,0,0,1.1228805786132812,0,0,0.6115200000000001
3.211289941013092,0,0,1.1707646118164061,0,0,0.07644000000000001
3.212684497004375,0,0,1.4508862060546874,0,0,0.3822
3.2140764229989145,0,0,1.5322890624999999,0,0,0.68796
3.215462201012997,0,0,1.350329736328125,0,0,0.68796
3.2168485530128237,0,0,1.2497732666015624,0,0,1.07016
3.2182332390220836,0,0,1.1635820068359375,0,0,0.7644
3.219611331995111,0,0,1.3168109130859373,0,0,0.68796
3.2209896279964596,0,0,1.2785036865234374,0,0,-8.943480000000001
3.2223783880181145,0,0,1.3287819213867187,0,0,0.68796
3.2237710549961776,0,0,1.2904746948242187,0,0,0.45864
3.225156758009689,0,0,1.4173673828125,0,0,0.6115200000000001
3.2265430180123076,0,0,1.2785036865234374,0,0,1.2230400000000001
3.2279285000113305,0,0,1.16837041015625,0,0,0.91728
3.2293141300033312,0,0,1.2210428466796874,0,0,0.6115200000000001
3.230700500018429,0,0,1.1875240234375,0,0,1.2230400000000001
3.232086389005417,0,0,1.369483349609375,0,0,0.91728
3.2334713530144654,0,0,1.35990654296875,0,0,0.84084
3.234856964001665,0,0,1.3311761230468748,0,0,0.68796
3.2362428159976844,0,0,1.1707646118164061,0,0,0.7644
3.2376281680190004,0,0,1.2569558715820313,0,0,0.68796
3.2390274640056305,0,0,1.2713210815429687,0,0,0.68796
3.2404349270218518,0,0,1.3120225097656248,0,0,1.1465999999999998
3.241835649998393,0,0,1.3431471313476562,0,0,1.1465999999999998
3.2432210390106775,0,0,1.2617442749023438,0,0,0.22932
3.244607076019747,0,0,1.4772224243164063,0,0,0.7644
3.2459936500235926,0,0,1.22583125,0,0,0.53508
3.2473782250017393,0,0,1.3239935180664062,0,0,0.53508
3.2487639840110205,0,0,1.2114660400390624,0,0,0.91728
3.250149929022882,0,0,1.1851298217773436,0,0,-8.943480000000001
3.25153563299682,0,0,1.3192051147460937,0,0,0.7644
3.2529214110109024,0,0,1.3527239379882812,0,0,0.6115200000000001
3.2543083369964734,0,0,1.4987702392578124,0,0,0.91728
3.2556938189954963,0,0,1.5203180541992187,0,0,0.91728
3.2570797630178276,0,0,1.216254443359375,0,0,0.99372
3.258465596998576,0,0,1.1540052001953125,0,0,0.99372
3.259850782022113,0,0,1.1420341918945311,0,0,0.6115200000000001
3.2612362270010635,0,0,1.3096283081054687,0,0,0.30576000000000003
3.262621911999304,0,0,1.254561669921875,0,0,0.22932
3.264006709010573,0,0,1.429338391113281,0,0,0.68796
3.2653921540186275,0,0,1.4437036010742186,0,0,0.84084
3.266777839016868,0,0,1.4030021728515625,0,0,1.07016
3.2681632839958183,0,0,1.1109095703125,0,0,0.68796
3.2695483030111063,0,0,1.1731588134765625,0,0,0.53508
3.270934099011356,0,0,1.22583125,0,0,0.53508
3.2723194700083695,0,0,1.3383587280273437,0,0,0.68796
3.2737044700188562,0,0,1.350329736328125,0,0,0.68796
3.2778428780147806,0,0,1.1731588134765625,0,0,0.7644
3.279298433015356,0,0,1.1133037719726562,0,0,0.68796
3.280681525997352,0,0,1.1348515869140625,0,0,0.3822
3.2820635450189,0,0,1.4125789794921875,0,0,0.84084
3.2834555080044083,0,0,1.2856862915039062,0,0,0.91728
3.284836342005292,0,0,1.3551181396484375,0,0,0.68796
3.2862372859963216,0,0,1.24498486328125,0,0,0.84084
3.287617861002218,0,0,1.1540052001953125,0,0,0.3822
3.2889969530224334,0,0,1.254561669921875,0,0,0.99372
3.290384306019405,0,0,1.2234370483398436,0,0,1.45236
3.291771158023039,0,0,1.3239935180664062,0,0,1.2230400000000001
3.2931568800122477,0,0,1.2473790649414063,0,0,0.53508
3.294543121010065,0,0,1.5490484741210937,0,0,0.53508
3.295929103012895,0,0,1.2569558715820313,0,0,0.6115200000000001
3.297314918017946,0,0,1.3120225097656248,0,0,0.30576000000000003
3.2987146399973426,0,0,1.2665326782226562,0,0,0.84084
3.3001113990030717,0,0,1.1851298217773436,0,0,0.91728
3.3014978069986682,0,0,1.3335703247070312,0,0,0.68796
3.3028850110131316,0,0,1.3311761230468748,0,0,0.53508
3.3042713820177596,0,0,1.4317325927734375,0,0,0.7644
3.3056571600027382,0,0,1.429338391113281,0,0,0.68796
3.3070432340027764,0,0,1.1707646118164061,0,0,0.7644
3.308429179014638,0,0,1.0797849487304687,0,0,1.1465999999999998
3.3098348079947755,0,0,1.2306196533203124,0,0,0.3822
3.3112216790032107,0,0,1.3838485595703125,0,0,0.45864
3.3126073830062523,0,0,1.2330138549804688,0,0,0.30576000000000003
3.3139936980151106,0,0,1.426944189453125,0,0,0.91728
3.3153786430193577,0,0,1.2856862915039062,0,0,0.84084
3.3167648280214053,0,0,1.3287819213867187,0,0,0.7644
3.318150920997141,0,0,1.1731588134765625,0,0,0.91728
3.3195354950148612,0,0,1.1324573852539062,0,0,0.3822
3.3209211619978305,0,0,1.2210428466796874,0,0,0.30576000000000003
3.322308681003051,0,0,1.3359645263671873,0,0,0.6115200000000001
3.323694199003512,0,0,1.5083470458984374,0,0,0.53508
3.325079866015585,0,0,1.39821376953125,0,0,1.1465999999999998
3.3264659590204246,0,0,1.3551181396484375,0,0,1.07016
3.3278510340023786,0,0,1.158793603515625,0,0,0.84084
3.329236312012654,0,0,1.1468225952148436,0,0,0.6115200000000001
3.3306316820089705,0,0,1.1156979736328125,0,0,0.53508
3.3320178300200496,0,0,1.3551181396484375,0,0,0.53508
3.3334033120190725,0,0,1.2473790649414063,0,0,0.68796
3.33481207099976,0,0,1.350329736328125,0,0,0.7644
3.3362563120026607,0,0,1.2497732666015624,0,0,0.91728
3.3376467560010497,0,0,1.1947066284179686,0,0,0.53508
3.3390387750114314,0,0,1.2952630981445312,0,0,0.53508
3.3404252199979965,0,0,1.2737152832031249,0,0,0.68796
3.341837979009142,0,0,1.4149731811523436,0,0,1.07016
3.3432254420185927,0,0,1.3838485595703125,0,0,0.91728
3.3446107570198365,0,0,1.656787548828125,0,0,0.53508
3.345997090014862,0,0,1.218648645019531,0,0,0.84084
3.3473825350229163,0,0,1.1563994018554686,0,0,0.6115200000000001
3.3487683499988634,0,0,1.2282254516601563,0,0,1.07016
3.3501550360233523,0,0,1.2497732666015624,0,0,1.37592
3.3515407030063216,0,0,1.1755530151367186,0,0,0.84084
3.352926314022625,0,0,1.3287819213867187,0,0,0.68796
3.3543123330164235,0,0,1.4604630126953124,0,0,0.53508
3.3556982960144524,0,0,1.2401964599609374,0,0,0.7644
3.3570830920070875,0,0,1.2808978881835937,0,0,0.53508
3.358496852015378,0,0,1.1420341918945311,0,0,0.91728
3.359884759003762,0,0,1.197100830078125,0,0,1.1465999999999998
3.3612712589965668,0,0,1.3144167114257812,0,0,0.30576000000000003
3.362657963007223,0,0,1.350329736328125,0,0,0.6115200000000001
3.36404426000081,0,0,1.5514426757812498,0,0,0.68796
3.3654299640038516,0,0,1.3646949462890625,0,0,0.91728
3.366841408016626,0,0,1.180341418457031,0,0,0.84084
3.3682297420164105,0,0,1.1516109985351561,0,0,0.53508
3.3696162790001836,0,0,1.2282254516601563,0,0,0.6115200000000001
3.371002390020294,0,0,1.3383587280273437,0,0,0.0
3.372388891002629,0,0,1.4796166259765624,0,0,0.3822
3.3737850390025415,0,0,1.4963760375976562,0,0,0.6115200000000001
3.375171927997144,0,0,1.3479355346679687,0,0,0.91728
3.376557928015245,0,0,1.2976572998046874,0,0,1.2230400000000001
3.377944854000816,0,0,1.120486376953125,0,0,0.91728
3.3793305400176905,0,0,1.1348515869140625,0,0,0.45864
3.3807166700134985,0,0,1.2210428466796874,0,0,0.22932
3.382103633019142,0,0,1.2785036865234374,0,0,0.68796
3.3834875220200047,0,0,1.3144167114257812,0,0,0.53508
3.384877263015369,0,0,1.407790576171875,0,0,0.7644
3.3862755779991858,0,0,1.3670891479492187,0,0,0.99372
3.3876666700234637,0,0,1.2138602416992186,0,0,0.84084
3.38905289300601,0,0,1.2401964599609374,0,0,0.84084
3.3904393929988146,0,0,1.2713210815429687,0,0,0.84084
3.3918255229946226,0,0,1.3766659545898436,0,0,1.1465999999999998
3.3932113379996736,0,0,1.2880804931640624,0,0,0.68796
3.3945979490235914,0,0,1.388636962890625,0,0,0.84084
3.3959834499983117,0,0,1.2689268798828124,0,0,1.1465999999999998
3.397377339017112,0,0,1.3096283081054687,0,0,0.6115200000000001
3.398772098007612,0,0,1.2713210815429687,0,0,0.45864
3.400159117009025,0,0,1.254561669921875,0,0,1.07016
3.40154580201488,0,0,1.3479355346679687,0,0,0.91728
3.40292724702158,0,0,1.2569558715820313,0,0,0.68796
3.404305784002645,0,0,1.4796166259765624,0,0,0.68796
3.405684580997331,0,0,1.2880804931640624,0,0,0.84084
3.407073766022222,0,0,1.3551181396484375,0,0,0.45864
3.408459396014223,0,0,1.189918225097656,0,0,0.7644
3.4098452299949713,0,0,1.2497732666015624,0,0,1.2230400000000001
3.4112317860126495,0,0,1.3359645263671873,0,0,0.53508
3.4126266750099603,0,0,1.2904746948242187,0,0,0.68796
3.414019582007313,0,0,1.5155296508789062,0,0,0.99372
3.4154064710019156,0,0,1.5251064575195312,0,0,0.68796
3.41680749002262,0,0,1.3407529296874998,0,0,0.99372
3.418199916020967,0,0,1.2306196533203124,0,0,0.84084
3.41957908301265,0,0,1.1707646118164061,0,0,0.7644
3.420958065020386,0,0,1.3120225097656248,0,0,0.0
3.4223443800001405,0,0,1.4724340209960938,0,0,0.53508
3.4237309170130175,0,0,1.6256629272460936,0,0,0.6115200000000001
3.4251163990120403,0,0,1.3527239379882812,0,0,0.6115200000000001
3.4265026400098577,0,0,1.1228805786132812,0,0,1.07016
3.427888325008098,0,0,1.158793603515625,0,0,0.99372
3.429273511021165,0,0,1.2330138549804688,0,0,0.3822
3.4306590290216263,0,0,1.2785036865234374,0,0,0.0
3.432044640998356,0,0,1.39821376953125,0,0,0.7644
3.4334304369986057,0,0,1.3646949462890625,0,0,0.6115200000000001
3.4348159189976286,0,0,1.3144167114257812,0,0,0.7644
3.436201511998661,0,0,1.2928688964843749,0,0,1.07016
3.437589567998657,0,0,1.1659762084960936,0,0,0.99372
3.4389756790187676,0,0,1.20667763671875,0,0,0.7644
3.440361587010557,0,0,1.1516109985351561,0,0,0.68796
3.4417473830108065,0,0,1.3862427612304686,0,0,1.07016
3.4431394940183964,0,0,1.3575123413085937,0,0,0.84084
3.4445252910081763,0,0,1.3814543579101561,0,0,0.7644
3.4459151799965184,0,0,1.3383587280273437,0,0,0.7644
3.4472991799993906,0,0,1.3000515014648437,0,0,0.68796
3.448684569011675,0,0,1.1037269653320312,0,0,0.84084
3.4500703100056853,0,0,1.0797849487304687,0,0,1.2994800000000002
3.451469107007142,0,0,1.3287819213867187,0,0,0.68796
3.4529120509978384,0,0,1.2617442749023438,0,0,0.6115200000000001
3.4543177360028494,0,0,1.608903515625,0,0,0.99372
3.455717625009129,0,0,1.3215993164062498,0,0,0.68796
3.457103681023,0,0,1.235408056640625,0,0,0.84084
3.458489662007196,0,0,1.1659762084960936,0,0,0.68796
3.4598747919953894,0,0,1.1563994018554686,0,0,1.2230400000000001
3.461273829016136,0,0,1.2473790649414063,0,0,0.30576000000000003
3.462660921999486,0,0,1.426944189453125,0,0,0.68796
3.4640465890115593,0,0,1.659181750488281,0,0,0.91728
3.4654409590002615,0,0,1.2737152832031249,0,0,0.6115200000000001
3.4668267930101138,0,0,1.3120225097656248,0,0,0.99372
3.468212330015376,0,0,1.35990654296875,0,0,0.68796
3.46959764501662,0,0,1.1851298217773436,0,0,0.99372
3.470983311999589,0,0,1.3096283081054687,0,0,0.0
3.4723687380028423,0,0,1.5083470458984374,0,0,0.30576000000000003
3.4737540160131175,0,0,1.5658078857421873,0,0,0.7644
3.4751478130056057,0,0,1.5275006591796874,0,0,0.99372
3.476534369023284,0,0,1.3263877197265623,0,0,0.99372
3.4779210910201073,0,0,1.149216796875,0,0,0.91728
3.479306313995039,0,0,1.3407529296874998,0,0,0.53508
3.480691888020374,0,0,1.2665326782226562,0,0,0.22932
3.4820779250003397,0,0,1.350329736328125,0,0,0.53508
3.483463203010615,0,0,1.4772224243164063,0,0,0.7644
3.4848485920228995,0,0,1.3287819213867187,0,0,0.99372
3.4862345370056573,0,0,1.5131354492187499,0,0,0.99372
3.487619371007895,0,0,1.0893617553710937,0,0,0.7644
3.4890053150011227,0,0,1.1707646118164061,0,0,0.6115200000000001
3.4903912600129843,0,0,1.1324573852539062,0,0,0.6115200000000001
3.4917766680009663,0,0,1.388636962890625,0,0,1.1465999999999998
3.493162390019279,0,0,1.3766659545898436,0,0,0.84084
3.4945480570022482,0,0,1.3024457031249999,0,0,0.68796
3.4959339089982677,0,0,1.3000515014648437,0,0,0.91728
3.497319835005328,0,0,1.2042834350585936,0,0,0.53508
3.498705706006149,0,0,1.1755530151367186,0,0,0.84084
3.5000912620162126,0,0,1.2306196533203124,0,0,0.99372
3.5014770770212635,0,0,1.3814543579101561,0,0,1.2230400000000001
3.502862521010684,0,0,1.4221557861328125,0,0,1.07016
3.5042483730067033,0,0,1.455674609375,0,0,0.53508
3.5056411510158796,0,0,1.3144167114257812,0,0,0.7644
3.507027948013274,0,0,1.197100830078125,0,0,0.53508
3.5084134670032654,0,0,1.0845733520507812,0,0,0.84084
3.509799985011341,0,0,1.199495031738281,0,0,1.5288
3.5111858190211933,0,0,1.369483349609375,0,0,0.6115200000000001
3.512571430008393,0,0,1.3120225097656248,0,0,0.07644000000000001
3.5139573010092136,0,0,1.5155296508789062,0,0,0.68796
3.5153423380106688,0,0,1.5179238525390624,0,0,0.7644
3.51672809800948,0,0,1.20667763671875,0,0,0.84084
3.5181139680207707,0,0,1.0726023437499999,0,0,0.91728
3.5194991349999327,0,0,1.2042834350585936,0,0,0.84084
3.5208850240160245,0,0,1.2808978881835937,0,0,0.07644000000000001
3.5222718020086177,0,0,1.3000515014648437,0,0,0.22932
3.5236605250102,0,0,1.5155296508789062,0,0,0.91728
3.525046007009223,0,0,1.2808978881835937,0,0,0.84084
3.5264317850233056,0,0,1.2234370483398436,0,0,0.84084
3.5278173400147352,0,0,1.2306196533203124,0,0,0.7644
3.5292026920069475,0,0,1.3646949462890625,0,0,0.6115200000000001
3.530588304012781,0,0,1.350329736328125,0,0,0.0
3.531974045006791,0,0,1.2689268798828124,0,0,0.68796
3.5333687490201555,0,0,1.3575123413085937,0,0,0.7644
3.534754916006932,0,0,1.3096283081054687,0,0,0.84084
3.536140434007393,0,0,1.2880804931640624,0,0,1.1465999999999998
3.5375260830041952,0,0,1.1252747802734375,0,0,0.91728
3.5389119159954134,0,0,1.1228805786132812,0,0,0.68796
3.540298028005054,0,0,1.16837041015625,0,0,0.3822
3.5416839540121146,0,0,1.4437036010742186,0,0,0.84084
3.543076435016701,0,0,1.4125789794921875,0,0,0.53508
3.544463121012086,0,0,1.235408056640625,0,0,0.84084
3.5458503249974456,0,0,1.3192051147460937,0,0,0.91728
3.5472361400024965,0,0,1.35990654296875,0,0,0.68796
3.5486340839997865,0,0,1.1851298217773436,0,0,0.7644
3.5500215479987673,0,0,1.2234370483398436,0,0,0.99372
3.551406696002232,0,0,1.3742717529296875,0,0,0.99372
3.552792511007283,0,0,1.3910311645507811,0,0,0.68796
3.554178345017135,0,0,1.5370774658203123,0,0,0.99372
3.55556319700554,0,0,1.3096283081054687,0,0,0.68796
3.5569489010085817,0,0,1.3144167114257812,0,0,0.68796
3.5583348450018093,0,0,1.0941501586914062,0,0,0.84084
