Time,AccelX1,AccelY1,AccelZ1,AccelX2,AccelY2,AccelZ2
5.056004738435149e-06,0,0,1.3215993164062498,0,0,0.68796
0.003669233003165573,0,0,1.3048399047851562,0,0,0.91728
0.007416520005790517,0,0,1.2521674682617188,0,0,1.2230400000000001
0.011056475021177903,0,0,1.3287819213867187,0,0,0.91728
0.014580821007257327,0,0,1.2713210815429687,0,0,1.07016
0.018103018024703488,0,0,1.4053963745117186,0,0,0.68796
0.021605549001833424,0,0,1.3192051147460937,0,0,0.84084
0.02512393202050589,0,0,1.2952630981445312,0,0,0.91728
0.02864138802397065,0,0,1.5059528442382812,0,0,0.84084
0.032160586008103564,0,0,1.2282254516601563,0,0,0.91728
0.03634401599992998,0,0,1.37906015625,0,0,0.99372
0.039936453016707674,0,0,1.3575123413085937,0,0,0.6115200000000001
0.04345931700663641,0,0,1.3144167114257812,0,0,0.6115200000000001
0.04697308799950406,0,0,1.5107412475585937,0,0,1.07016
0.0504700270248577,0,0,1.3670891479492187,0,0,0.53508
0.05398398300167173,0,0,1.3551181396484375,0,0,1.07016
0.05758742001489736,0,0,1.2856862915039062,0,0,0.68796
0.06109650700818747,0,0,1.0989385620117187,0,0,0.99372
0.06459401900065131,0,0,1.0749965454101562,0,0,0.6115200000000001
0.06809145800070837,0,0,1.4317325927734375,0,0,0.68796
0.07400282900198363,0,0,1.20667763671875,0,0,0.68796
0.0782618880039081,0,0,1.254561669921875,0,0,0.84084
0.0813424980151467,0,0,1.2593500732421874,0,0,0.99372
0.08415842600516044,0,0,1.2928688964843749,0,0,0.91728
0.08696241001598537,0,0,1.2401964599609374,0,0,0.6115200000000001
0.08976941302535124,0,0,1.2952630981445312,0,0,0.7644
0.09257006301777437,0,0,1.1659762084960936,0,0,0.84084
0.09537141802138649,0,0,1.2521674682617188,0,0,0.7644
0.09819193900329992,0,0,1.4604630126953124,0,0,1.07016
0.10099242301657796,0,0,1.3455413330078123,0,0,0.7644
0.1037913330073934,0,0,1.2306196533203124,0,0,0.99372
0.10659007600042969,0,0,1.2473790649414063,0,0,1.07016
0.10942894802428782,0,0,1.4245499877929686,0,0,0.6115200000000001
0.11223193202749826,0,0,1.4437036010742186,0,0,0.99372
0.11503615701803938,0,0,1.24498486328125,0,0,0.99372
0.11783565999940038,0,0,1.1037269653320312,0,0,1.2994800000000002
0.12063766201026738,0,0,1.3910311645507811,0,0,0.84084
0.12343857201631181,0,0,1.4532804077148436,0,0,0.7644
0.1262354820210021,0,0,1.189918225097656,0,0,0.7644
0.12903424401883967,0,0,1.3718775512695311,0,0,0.99372
0.13183480201405473,0,0,1.484405029296875,0,0,1.37592
0.13463469300768338,0,0,1.3910311645507811,0,0,0.7644
0.13743693701690063,0,0,1.2497732666015624,0,0,0.84084
0.14023734600050375,0,0,1.3096283081054687,0,0,0.6115200000000001
0.14303844200912863,0,0,1.448492004394531,0,0,0.91728
0.1458383890276309,0,0,1.4987702392578124,0,0,0.84084
0.14866068700212054,0,0,1.1420341918945311,0,0,0.91728
0.1514618190121837,0,0,1.2689268798828124,0,0,0.68796
0.15425956301623955,0,0,1.3742717529296875,0,0,0.91728
0.1570881570223719,0,0,1.4796166259765624,0,0,1.07016
0.15988816000754014,0,0,1.3718775512695311,0,0,0.68796
0.162686403025873,0,0,1.2761094848632812,0,0,0.45864
0.1654848320176825,0,0,1.3144167114257812,0,0,0.84084
0.16828720501507632,0,0,1.3383587280273437,0,0,0.68796
0.17108778102556244,0,0,1.3072341064453123,0,0,0.6115200000000001
0.17388798700994812,0,0,1.3024457031249999,0,0,0.91728
0.1767861740081571,0,0,1.2856862915039062,0,0,0.84084
0.1797566740133334,0,0,1.3287819213867187,0,0,0.68796
0.1828520070121158,0,0,1.2785036865234374,0,0,1.2230400000000001
0.185993690014584,0,0,1.4820108276367188,0,0,0.99372
0.1891441699990537,0,0,1.177947216796875,0,0,0.99372
0.19226239100680687,0,0,1.0797849487304687,0,0,0.91728
0.19537968499935232,0,0,1.3168109130859373,0,0,0.68796
0.198494277021382,0,0,1.2473790649414063,0,0,0.7644
0.2016111090197228,0,0,1.1540052001953125,0,0,0.68796
0.20474620000459254,0,0,1.2904746948242187,0,0,0.91728
0.20786221700836904,0,0,1.2401964599609374,0,0,1.2230400000000001
0.2109746230125893,0,0,1.3958195678710936,0,0,1.1465999999999998
0.21409089901135303,0,0,1.24498486328125,0,0,0.99372
0.21720778700546362,0,0,1.4173673828125,0,0,0.7644
0.22032302600564435,0,0,1.47482822265625,0,0,0.6115200000000001
0.22343932100920938,0,0,1.2617442749023438,0,0,1.07016
0.2265525420079939,0,0,1.2785036865234374,0,0,0.68796
0.22966598501079716,0,0,1.4724340209960938,0,0,1.2230400000000001
0.23278159502660856,0,0,1.2689268798828124,0,0,0.84084
0.23589764902135357,0,0,1.2880804931640624,0,0,0.68796
0.23905170301441103,0,0,1.4532804077148436,0,0,0.7644
0.24217451602453366,0,0,1.419761584472656,0,0,1.07016
0.24529071900178678,0,0,1.3646949462890625,0,0,0.91728
0.24840593902627006,0,0,1.1324573852539062,0,0,0.7644
0.25152014201739803,0,0,1.2593500732421874,0,0,0.7644
0.25506782002048567,0,0,1.3455413330078123,0,0,0.99372
0.25821378201362677,0,0,1.2952630981445312,0,0,0.91728
0.26133253902662545,0,0,1.4006079711914061,0,0,1.2230400000000001
0.2644496310094837,0,0,1.465251416015625,0,0,0.84084
0.26756488901446573,0,0,1.2497732666015624,0,0,0.91728
0.2706796460261103,0,0,1.1611878051757811,0,0,0.7644
0.27379427501000464,0,0,1.3000515014648437,0,0,0.7644
0.27694671700010076,0,0,1.3359645263671873,0,0,0.84084
0.28006542002549395,0,0,1.2713210815429687,0,0,1.45236
0.28318288101581857,0,0,1.4604630126953124,0,0,0.99372
0.2862977500190027,0,0,1.22583125,0,0,0.99372
0.2894121190183796,0,0,1.3072341064453123,0,0,0.68796
0.29253039602190256,0,0,1.3623007446289062,0,0,0.7644
0.2956477830011863,0,0,1.3646949462890625,0,0,0.91728
0.2987608000112232,0,0,1.1947066284179686,0,0,0.84084
0.3018744660075754,0,0,1.13006318359375,0,0,0.99372
0.3049880010075867,0,0,1.2952630981445312,0,0,1.2230400000000001
0.30810388902318664,0,0,1.22583125,0,0,0.84084
0.31121831401833333,0,0,1.3168109130859373,0,0,0.84084
0.31433186802314594,0,0,1.2521674682617188,0,0,1.1465999999999998
0.31747368100332096,0,0,1.2880804931640624,0,0,1.07016
0.32058943901211023,0,0,1.3742717529296875,0,0,0.68796
0.3237033450277522,0,0,1.1372457885742187,0,0,0.99372
0.32745579900802113,0,0,1.2617442749023438,0,0,0.99372
0.33065988900489174,0,0,1.3096283081054687,0,0,0.6115200000000001
0.33379046100890264,0,0,1.2425906616210938,0,0,0.84084
0.3369105530146044,0,0,1.4173673828125,0,0,0.91728
0.34002279202104546,0,0,1.3838485595703125,0,0,0.7644
0.34319743802188896,0,0,1.1516109985351561,0,0,0.84084
0.3463173260097392,0,0,1.2569558715820313,0,0,0.84084
0.3494359720207285,0,0,1.3215993164062498,0,0,0.91728
0.35258435900323093,0,0,1.1109095703125,0,0,0.53508
0.3557781350100413,0,0,1.2832920898437499,0,0,0.84084
0.3588793560047634,0,0,1.4963760375976562,0,0,-8.4084
0.36198396602412686,0,0,1.3287819213867187,0,0,1.2230400000000001
0.36508661301922984,0,0,1.235408056640625,0,0,0.99372
0.36819764800020494,0,0,1.2904746948242187,0,0,0.91728
0.37131386902183294,0,0,1.2761094848632812,0,0,-0.15288000000000002
0.3744241460226476,0,0,1.1156979736328125,0,0,1.07016
0.3776104210119229,0,0,1.254561669921875,0,0,0.91728
0.3807283269998152,0,0,1.4915876342773438,0,0,1.37592
0.38384699300513603,0,0,1.3096283081054687,0,0,0.7644
0.3869804170099087,0,0,1.139639990234375,0,0,0.84084
0.39013617401360534,0,0,1.2785036865234374,0,0,0.6115200000000001
0.3932578030216973,0,0,1.3646949462890625,0,0,0.91728
0.3963638940185774,0,0,1.3120225097656248,0,0,0.84084
0.3994783560046926,0,0,1.2761094848632812,0,0,0.91728
0.40259453901671804,0,0,1.4939818359375,0,0,0.91728
0.4057154640031513,0,0,1.3168109130859373,0,0,1.2230400000000001
0.4088434440200217,0,0,1.22583125,0,0,0.45864
0.4119549240276683,0,0,1.4341267944335936,0,0,0.7644
0.41507790400646627,0,0,1.448492004394531,0,0,0.7644
0.41819469901383854,0,0,1.254561669921875,0,0,0.7644
0.4213095680170227,0,0,1.1324573852539062,0,0,1.1465999999999998
0.42442447401117533,0,0,1.4030021728515625,0,0,1.07016
0.4275395840231795,0,0,1.2210428466796874,0,0,0.7644
0.43065202701836824,0,0,1.3718775512695311,0,0,0.68796
0.4337665260245558,0,0,1.2976572998046874,0,0,0.68796
0.4369311350164935,0,0,1.4915876342773438,0,0,0.3822
0.44004683700040914,0,0,1.3335703247070312,0,0,0.7644
0.4431632250198163,0,0,1.1707646118164061,0,0,0.91728
0.44627779701841064,0,0,1.2713210815429687,0,0,1.1465999999999998
0.44941709202248603,0,0,1.0989385620117187,0,0,0.84084
0.4525482020108029,0,0,1.218648645019531,0,0,0.7644
0.45567455200944096,0,0,1.3192051147460937,0,0,0.84084
0.4587970880093053,0,0,1.3311761230468748,0,0,0.91728
0.46189704901189543,0,0,1.3551181396484375,0,0,0.7644
0.46501506702043116,0,0,1.438915197753906,0,0,0.7644
0.468126806023065,0,0,1.3479355346679687,0,0,0.7644
0.47122695299913175,0,0,1.1037269653320312,0,0,0.68796
0.4743377109989524,0,0,1.2880804931640624,0,0,0.84084
0.47751702400273643,0,0,1.5251064575195312,0,0,1.2230400000000001
0.4806345590041019,0,0,1.3862427612304686,0,0,0.99372
0.4837510020006448,0,0,1.2737152832031249,0,0,1.2230400000000001
0.4868629080010578,0,0,1.2737152832031249,0,0,0.7644
0.48998298100195825,0,0,1.2856862915039062,0,0,0.6115200000000001
0.4930986460240092,0,0,1.2713210815429687,0,0,0.91728
0.49624553401372395,0,0,1.2928688964843749,0,0,0.99372
0.49936158800846897,0,0,1.4700398193359374,0,0,1.07016
0.502473494008882,0,0,1.3455413330078123,0,0,1.07016
0.5146252700069454,0,0,1.2856862915039062,0,0,-9.172799999999999
0.5178531930141617,0,0,1.2904746948242187,0,0,1.07016
0.5209797470015474,0,0,1.2665326782226562,0,0,0.84084
0.5240872270078398,0,0,1.3455413330078123,0,0,0.7644
0.5272171150136273,0,0,1.2761094848632812,0,0,0.84084
0.5303137060254812,0,0,1.369483349609375,0,0,1.07016
0.5334148720139638,0,0,1.2306196533203124,0,0,0.99372
0.5365309450135101,0,0,1.35990654296875,0,0,0.91728
0.5396397210133728,0,0,1.3000515014648437,0,0,0.53508
0.5434421370155178,0,0,1.2904746948242187,0,0,0.84084
0.5472045170026831,0,0,1.2210428466796874,0,0,0.84084
0.5503292190260254,0,0,1.2641384765625,0,0,1.2994800000000002
0.5534519030188676,0,0,1.3862427612304686,0,0,0.99372
0.556559846008895,0,0,1.22583125,0,0,0.99372
0.5597005110175814,0,0,1.2593500732421874,0,0,0.68796
0.5628176020109095,0,0,1.5155296508789062,0,0,0.99372
0.5659319710102864,0,0,1.448492004394531,0,0,1.1465999999999998
0.569047118013259,0,0,1.2665326782226562,0,0,0.7644
0.572155357018346,0,0,1.2401964599609374,0,0,0.91728
0.5754872420220636,0,0,1.3958195678710936,0,0,1.1465999999999998
0.5786460550152697,0,0,1.2306196533203124,0,0,0.68796
0.5816734070249368,0,0,1.2761094848632812,0,0,0.84084
0.5844658720016014,0,0,1.3120225097656248,0,0,0.84084
0.5873725960263982,0,0,1.1109095703125,0,0,0.7644
0.5905183160211891,0,0,1.1516109985351561,0,0,0.99372
0.5934110030066222,0,0,1.2713210815429687,0,0,1.1465999999999998
0.5962188200210221,0,0,1.4867992309570313,0,0,0.6115200000000001
0.5990469890239183,0,0,1.43652099609375,0,0,1.07016
0.6018482510116883,0,0,1.2832920898437499,0,0,0.84084
0.604637142008869,0,0,1.1923124267578125,0,0,1.07016
0.6074317000166047,0,0,1.4101847778320311,0,0,1.1465999999999998
0.6102302960061934,0,0,1.4604630126953124,0,0,0.7644
0.6130282800004352,0,0,1.3096283081054687,0,0,0.68796
0.6158342080016155,0,0,1.3000515014648437,0,0,0.84084
0.6186620620137546,0,0,1.2497732666015624,0,0,1.37592
0.6214549910218921,0,0,1.388636962890625,0,0,0.84084
0.6242594750074204,0,0,1.2497732666015624,0,0,0.7644
0.6270599220006261,0,0,1.35990654296875,0,0,0.53508
0.6298575910041109,0,0,1.3263877197265623,0,0,0.99372
0.6326557790162042,0,0,1.189918225097656,0,0,0.68796
0.6356103720027022,0,0,1.3096283081054687,0,0,0.99372
0.6384091890067793,0,0,1.3120225097656248,0,0,0.99372
0.6412091920210514,0,0,1.1013327636718748,0,0,0.7644
0.6440026940254029,0,0,1.2976572998046874,0,0,0.84084
0.6467807530134451,0,0,1.3479355346679687,0,0,0.91728
0.6495982360211201,0,0,1.4628572143554686,0,0,0.68796
0.6524238499987405,0,0,1.3359645263671873,0,0,1.07016
0.6553071850212291,0,0,1.2378022583007813,0,0,0.7644
0.6582921660155989,0,0,1.2856862915039062,0,0,0.99372
0.6610830760037061,0,0,1.465251416015625,0,0,0.84084
0.6638692270207684,0,0,1.5131354492187499,0,0,0.3822
0.6666503970045596,0,0,1.2904746948242187,0,0,1.07016
0.6695202870178036,0,0,1.2641384765625,0,0,1.2994800000000002
0.6723388820246328,0,0,1.388636962890625,0,0,1.1465999999999998
0.6753188820148353,0,0,1.3192051147460937,0,0,1.1465999999999998
0.6781454220181331,0,0,1.1252747802734375,0,0,0.84084
0.6809889240248594,0,0,1.3670891479492187,0,0,0.3822
0.6837824080139399,0,0,1.3479355346679687,0,0,0.84084
0.6865628550003748,0,0,1.2880804931640624,0,0,0.91728
0.6893611540144775,0,0,1.2737152832031249,0,0,0.7644
0.692159360012738,0,0,1.2856862915039062,0,0,0.84084
0.6949551400030032,0,0,1.2928688964843749,0,0,1.07016
0.6977509580028709,0,0,1.1516109985351561,0,0,0.84084
0.7005483490065672,0,0,1.3359645263671873,0,0,0.99372
0.7033455930068158,0,0,1.3000515014648437,0,0,0.91728
0.7061406510183588,0,0,1.3048399047851562,0,0,0.7644
0.7090391710225958,0,0,1.1923124267578125,0,0,0.84084
0.7118394320132211,0,0,1.3048399047851562,0,0,0.53508
0.7146354910219088,0,0,1.4700398193359374,0,0,0.6115200000000001
0.7174334010051098,0,0,1.3383587280273437,0,0,0.99372
0.7202309590065852,0,0,1.2425906616210938,0,0,0.45864
0.723029757005861,0,0,1.2234370483398436,0,0,1.1465999999999998
0.7258286670257803,0,0,1.438915197753906,0,0,1.07016
0.7286261510162149,0,0,1.4030021728515625,0,0,0.91728
0.7314235800004099,0,0,1.3575123413085937,0,0,0.7644
0.7342191010247916,0,0,1.35990654296875,0,0,1.07016
0.7370149930065963,0,0,1.455674609375,0,0,0.91728
0.7398281250207219,0,0,1.3335703247070312,0,0,1.2994800000000002
0.7426247200055514,0,0,1.2018892333984375,0,0,0.84084
0.7454214070166927,0,0,1.0821791503906248,0,0,0.6115200000000001
0.7482166320260148,0,0,1.4317325927734375,0,0,0.84084
0.7510353940015193,0,0,1.2521674682617188,0,0,1.07016
0.7538323780172504,0,0,1.3048399047851562,0,0,0.84084
0.7566279919992667,0,0,1.2521674682617188,0,0,0.07644000000000001
0.7594248460081872,0,0,1.2904746948242187,0,0,1.07016
0.7622185710060876,0,0,1.0726023437499999,0,0,0.91728
0.7650138880126178,0,0,1.1348515869140625,0,0,0.68796
0.7678124280064367,0,0,1.2928688964843749,0,0,0.84084
0.7706080050265882,0,0,1.4867992309570313,0,0,0.84084
0.7734007850231137,0,0,1.3072341064453123,0,0,0.99372
0.7769320380175486,0,0,1.254561669921875,0,0,1.37592
0.7798763900063932,0,0,1.5251064575195312,0,0,1.1465999999999998
0.7827583550242707,0,0,1.2832920898437499,0,0,1.1465999999999998
0.7858758350193966,0,0,1.2210428466796874,0,0,0.84084
0.7890009260154329,0,0,1.1731588134765625,0,0,0.99372
0.7921204430167563,0,0,1.3335703247070312,0,0,0.99372
0.7952702010225039,0,0,1.1276689819335937,0,0,0.84084
0.7984006059996318,0,0,1.2904746948242187,0,0,1.2230400000000001
0.8015247720177285,0,0,1.2761094848632812,0,0,1.07016
0.8046443070052192,0,0,1.2473790649414063,0,0,0.84084
0.8077550650050398,0,0,1.3623007446289062,0,0,0.91728
0.8108514900086448,0,0,1.3623007446289062,0,0,1.07016
0.8139704700151924,0,0,1.2497732666015624,0,0,0.84084
0.8170748760167044,0,0,1.2904746948242187,0,0,1.07016
0.822652659000596,0,0,1.2737152832031249,0,0,0.68796
0.8257686030119658,0,0,1.4939818359375,0,0,1.07016
0.828891786019085,0,0,1.20667763671875,0,0,0.6115200000000001
0.8320881910040043,0,0,1.2904746948242187,0,0,1.1465999999999998
0.8352996700268704,0,0,1.3000515014648437,0,0,0.84084
0.8384191500081215,0,0,1.3287819213867187,0,0,0.84084
0.8415357790072449,0,0,1.3551181396484375,0,0,1.1465999999999998
0.844640370021807,0,0,1.4604630126953124,0,0,1.2230400000000001
0.8477498130232561,0,0,1.2593500732421874,0,0,1.07016
0.8508631820150185,0,0,1.216254443359375,0,0,0.6115200000000001
0.8539732550270855,0,0,1.3072341064453123,0,0,0.7644
0.8573260660050437,0,0,1.3168109130859373,0,0,0.7644
0.8604855820012745,0,0,1.3527239379882812,0,0,1.07016
0.8635898220236413,0,0,1.3000515014648437,0,0,0.53508
0.8666894500202034,0,0,1.1252747802734375,0,0,0.99372
0.8697912080097012,0,0,1.0749965454101562,0,0,0.7644
0.8728948550124187,0,0,1.24498486328125,0,0,0.45864
0.8760783710167743,0,0,1.39821376953125,0,0,2.2931999999999997
0.8796494570269715,0,0,2.138022082519531,0,0,2.36964
0.8827206970017869,0,0,2.1930887207031247,0,0,1.75812
0.8855040700000245,0,0,2.5426421630859375,0,0,1.45236
0.8882889800006524,0,0,2.0566192260742184,0,0,0.99372
0.8910761500010267,0,0,1.7477672119140624,0,0,1.45236
0.8938742080063093,0,0,1.3072341064453123,0,0,1.60524
0.8966723400226329,0,0,1.7238251953125,0,0,1.2230400000000001
0.8994728980178479,0,0,2.104503259277344,0,0,1.5288
0.9022701970243361,0,0,2.051830822753906,0,0,1.45236
0.9050538850133307,0,0,1.6927005737304686,0,0,1.2230400000000001
0.9078479060262907,0,0,1.9033903198242186,0,0,1.2230400000000001
0.9106428900267929,0,0,1.7477672119140624,0,0,1.2994800000000002
0.9134385040088091,0,0,1.656787548828125,0,0,1.68168
0.9162347660167143,0,0,1.7884686401367187,0,0,1.5288
0.9190319350163918,0,0,1.867477294921875,0,0,1.2230400000000001
0.9218274000158999,0,0,1.7884686401367187,0,0,1.2994800000000002
0.924622607009951,0,0,2.0661960327148434,0,0,1.75812
0.9274194239987992,0,0,1.467645617675781,0,0,1.37592
0.9302129270217847,0,0,1.2425906616210938,0,0,1.2994800000000002
0.9330088550050277,0,0,2.1404162841796874,0,0,1.45236
0.9358047650021035,0,0,1.43652099609375,0,0,1.60524
0.938598823006032,0,0,1.7980454467773437,0,0,2.14032
0.94139482601895,0,0,1.905784521484375,0,0,1.60524
0.9441902360122185,0,0,2.482787121582031,0,0,1.5288
0.946986035007285,0,0,1.8818425048828125,0,0,1.2230400000000001
0.9498102960060351,0,0,1.9728221679687499,0,0,1.2994800000000002
0.9526091880106833,0,0,1.7094599853515624,0,0,0.84084
0.9555931140203029,0,0,1.3120225097656248,0,0,0.53508
0.9584053569997195,0,0,2.288856787109375,0,0,2.36964
0.9612023230001796,0,0,2.0638018310546875,0,0,1.68168
0.9640000290237367,0,0,1.9632453613281249,0,0,0.91728
0.9667957909987308,0,0,1.7549498168945312,0,0,1.37592
0.9695916080090683,0,0,2.0470424194335934,0,0,1.37592
0.9723860920057632,0,0,1.1851298217773436,0,0,0.45864
0.9752973710128572,0,0,2.1404162841796874,0,0,1.911
0.9781054110208061,0,0,2.4205378784179685,0,0,1.45236
0.9809799490030855,0,0,1.388636962890625,0,0,2.2167600000000003
0.9839568010065705,0,0,1.9393033447265624,0,0,1.37592
0.9870713370037265,0,0,1.7812860351562498,0,0,1.5288
0.9901882620179094,0,0,1.149216796875,0,0,2.14032
0.9933027049992234,0,0,2.1930887207031247,0,0,1.45236
0.9964189440070186,0,0,1.7214309936523438,0,0,1.2230400000000001
0.9995747940265574,0,0,1.924938134765625,0,0,1.83456
1.0054960359993856,0,0,1.5969325073242187,0,0,2.5989600000000004
1.008758181007579,0,0,1.9416975463867185,0,0,2.06388
1.0120041600021068,0,0,1.6232687255859375,0,0,0.53508
1.0152220640156884,0,0,2.1930887207031247,0,0,1.1465999999999998
1.0184755610243883,0,0,1.7717092285156248,0,0,0.53508
1.0217057070112787,0,0,1.8100164550781248,0,0,1.68168
1.024935945024481,0,0,1.8291700683593748,0,0,1.98744
1.0281321460206527,0,0,2.224213342285156,0,0,0.3822
1.0314173090155236,0,0,1.8195932617187498,0,0,0.6115200000000001
1.0345873440091964,0,0,2.288856787109375,0,0,3.7455600000000002
1.0377255650237203,0,0,1.848323681640625,0,0,0.45864
1.0408556000038516,0,0,0.7326257080078125,0,0,8.943480000000001
1.0439879140176345,0,0,1.7764976318359373,0,0,3.0576
1.0471164310001768,0,0,3.603273498535156,0,0,1.1465999999999998
1.050247744016815,0,0,0.34715924072265625,0,0,0.68796
1.053404631005833,0,0,1.484405029296875,0,0,1.68168
1.0565689990180545,0,0,3.0597897216796874,0,0,2.4460800000000003
1.0597162379999645,0,0,0.833182177734375,0,0,-0.84084
1.0628668290155474,0,0,2.04943662109375,0,0,3.51624
1.0660243460151833,0,0,3.4069489624023435,0,0,0.3822
1.0691677330178209,0,0,-0.21308394775390624,0,0,-0.45864
1.072448915016139,0,0,2.9831752685546875,0,0,1.5288
1.0799556000274606,0,0,1.1731588134765625,0,0,1.60524
1.0834525570098776,0,0,1.8531120849609375,0,0,1.83456
1.0855618460045662,0,0,-0.42377369384765623,0,0,-9.784320000000001
1.0870910310186446,0,0,0.009576806640625,0,0,0.53508
1.0885625130031258,0,0,2.6527754394531247,0,0,1.75812
1.089996032009367,0,0,3.0358477050781247,0,0,1.68168
1.091460014024051,0,0,1.5610194824218748,0,0,0.15288000000000002
1.0928981070173904,0,0,0.430956298828125,0,0,-0.68796
1.0943558490253054,0,0,-0.47884033203125,0,0,0.45864
1.0958540710271336,0,0,1.1037269653320312,0,0,1.2994800000000002
1.0973342930083163,0,0,2.990357873535156,0,0,1.83456
1.0987753870140295,0,0,2.3127988037109373,0,0,1.2994800000000002
1.1002785529999528,0,0,0.5865794067382812,0,0,1.5288
1.1017610910057556,0,0,-0.7541735229492187,0,0,-0.30576000000000003
1.1032439609989524,0,0,1.6831237670898436,0,0,0.0
1.1046831470157485,0,0,2.5665841796874997,0,0,1.60524
1.106083667022176,0,0,3.27526787109375,0,0,1.68168
1.1074718720046803,0,0,1.9225439331054686,0,0,1.2230400000000001
1.1088511700218078,0,0,0.689530078125,0,0,0.45864
1.1102303380030207,0,0,-0.9217676391601562,0,0,0.0
1.111614488007035,0,0,0.7996633544921875,0,0,9.47856
1.1129931930045132,0,0,1.5538368774414062,0,0,0.7644
1.1143717500090133,0,0,2.1691467041015624,0,0,1.68168
1.1157535660022404,0,0,1.7190367919921874,0,0,0.6115200000000001
1.1171322160225827,0,0,-0.1292868896484375,0,0,0.68796
1.1185123290051706,0,0,-0.09337386474609374,0,0,1.1465999999999998
1.1198993300204165,0,0,1.695094775390625,0,0,1.98744
1.1212781089998316,0,0,2.7557261108398436,0,0,2.14032
1.1226567780249752,0,0,2.114080065917969,0,0,1.37592
1.12403768702643,0,0,1.6136919189453125,0,0,0.30576000000000003
1.1254162990080658,0,0,0.143652099609375,0,0,-1.07016
1.1267967450257856,0,0,0.4525041137695312,0,0,0.22932
1.1281780800200067,0,0,2.288856787109375,0,0,1.37592
1.1295636740105692,0,0,2.2457611572265623,0,0,1.5288
1.130942435003817,0,0,1.22583125,0,0,0.6115200000000001
1.1323226030217484,0,0,-0.15322890625,0,0,0.15288000000000002
1.1337021230137907,0,0,-0.8906430175781249,0,0,-1.60524
1.1350853280164301,0,0,1.8555062866210936,0,0,-0.30576000000000003
1.136465367017081,0,0,2.664746447753906,0,0,2.2931999999999997
1.1378440910193603,0,0,3.0334535034179684,0,0,2.90472
1.139224907004973,0,0,1.6208745239257811,0,0,1.98744
1.1406046310148668,0,0,0.74699091796875,0,0,1.1465999999999998
1.1419830580125563,0,0,-0.2346317626953125,0,0,-0.7644
1.143363245006185,0,0,1.5586252807617187,0,0,-0.45864
1.1447426170052495,0,0,2.492363928222656,0,0,1.60524
1.146121377008967,0,0,2.8754361938476563,0,0,1.75812
1.1475013790186495,0,0,2.0829554443359375,0,0,1.2230400000000001
1.1488801400118973,0,0,1.0917559570312498,0,0,1.07016
1.1502581230015494,0,0,-1.218648645019531,0,0,9.40212
1.1516468830232043,0,0,0.22026655273437498,0,0,0.0
1.1530340150056873,0,0,1.0438719238281249,0,0,0.6115200000000001
1.1544203310040757,0,0,1.93451494140625,0,0,1.1465999999999998
1.155807036004262,0,0,1.9632453613281249,0,0,1.98744
1.157196352025494,0,0,0.9050082275390624,0,0,0.91728
1.1585832420096267,0,0,0.33518823242187495,0,0,1.2994800000000002
1.1599691880110186,0,0,1.637633935546875,0,0,1.1465999999999998
1.1613555600051768,0,0,2.128445275878906,0,0,1.1465999999999998
1.1627414320246316,0,0,1.9919757812499999,0,0,1.1465999999999998
1.1641285070218146,0,0,1.419761584472656,0,0,1.2230400000000001
1.16551537901978,0,0,0.4908113403320312,0,0,8.867040000000001
1.1669016210071277,0,0,0.17477672119140625,0,0,0.30576000000000003
1.1682882150053047,0,0,1.6160861206054686,0,0,1.45236
1.1696762170176953,0,0,1.867477294921875,0,0,1.37592
1.17106301500462,0,0,0.8068459594726562,0,0,0.6115200000000001
1.1724475720257033,0,0,0.5961562133789062,0,0,1.75812
1.1738313140231185,0,0,-0.00718260498046875,0,0,-0.53508
1.1752315000048839,0,0,1.5035586425781249,0,0,0.45864
1.1766196130192839,0,0,2.085349645996094,0,0,1.75812
1.1780063180194702,0,0,2.7557261108398436,0,0,2.06388
1.1793932450236753,0,0,1.9201497314453124,0,0,0.99372
1.1807794870110229,0,0,1.43652099609375,0,0,1.60524
1.1821655820240267,0,0,0.14125789794921875,0,0,0.3822
1.1835518790176138,0,0,1.8171990600585937,0,0,0.0
1.1849379730119836,0,0,2.118868469238281,0,0,1.5288
1.1863241600221954,0,0,1.4915876342773438,0,0,0.68796
1.187710643018363,0,0,1.1635820068359375,0,0,1.07016
1.1890972920227796,0,0,0.18914193115234373,0,0,-0.53508
1.1904834420129191,0,0,0.1580173095703125,0,0,0.53508
1.1918691290193237,0,0,1.905784521484375,0,0,0.68796
1.1932593890232965,0,0,1.7166425903320313,0,0,1.2230400000000001
1.1946457430021837,0,0,1.0941501586914062,0,0,0.53508
1.1960313740128186,0,0,0.6081272216796875,0,0,1.07016
1.1974176710064057,0,0,0.35673604736328124,0,0,0.07644000000000001
1.1988037840055767,0,0,0.9097966308593749,0,0,2.2167600000000003
1.2001892480184324,0,0,2.9544448486328125,0,0,2.4460800000000003
1.2015756760083605,0,0,2.664746447753906,0,0,1.75812
1.202961529023014,0,0,1.7812860351562498,0,0,0.0
1.2043478270061314,0,0,0.5482721801757812,0,0,0.84084
1.2057341239997186,0,0,0.4261678955078125,0,0,-0.7644
1.2071211260044947,0,0,2.446874096679687,0,0,0.7644
1.2085063310223632,0,0,2.1835119140624997,0,0,2.14032
1.2098926290054806,0,0,2.147598889160156,0,0,1.2994800000000002
1.2112796300207265,0,0,0.26336218261718747,0,0,-9.784320000000001
1.212665539002046,0,0,-0.0143652099609375,0,0,0.3822
1.2140526520088315,0,0,0.258573779296875,0,0,0.0
1.215439931023866,0,0,2.2649147705078123,0,0,0.84084
1.2168253580166493,0,0,2.6958710693359373,0,0,2.6754
1.2182110820140224,0,0,1.9225439331054686,0,0,1.5288
1.2195971390174236,0,0,1.3144167114257812,0,0,0.84084
1.220983455015812,0,0,-0.1292868896484375,0,0,0.45864
1.222370605013566,0,0,-0.05027823486328125,0,0,1.2230400000000001
1.2237576990155503,0,0,1.7357962036132812,0,0,0.91728
1.2251436260121409,0,0,2.6671406494140624,0,0,1.75812
1.22652983100852,0,0,1.9105729248046874,0,0,0.84084
1.2279159810277633,0,0,1.1420341918945311,0,0,1.2230400000000001
1.229301519022556,0,0,-0.02154781494140625,0,0,-0.68796
1.2306884840072598,0,0,-0.031124621582031248,0,0,0.7644
1.2320751890074462,0,0,2.212242333984375,0,0,0.99372
1.2334608010132797,0,0,2.6144682128906247,0,0,1.2230400000000001
1.2348477660270873,0,0,1.8004396484374998,0,0,0.45864
1.2362344150024,0,0,0.6631938598632812,0,0,0.53508
1.2376207320194226,0,0,0.21308394775390624,0,0,-0.3822
1.2390412329987157,0,0,2.176329309082031,0,0,0.7644
1.240432252001483,0,0,2.1691467041015624,0,0,2.06388
1.241818921000231,0,0,2.480392919921875,0,0,1.60524
1.2432064220192842,0,0,0.622492431640625,0,0,0.0
1.2445918490120675,0,0,0.143652099609375,0,0,0.07644000000000001
1.2459773880254943,0,0,0.5530605834960938,0,0,-0.68796
1.247365000017453,0,0,2.418143676757812,0,0,1.1465999999999998
1.248750557017047,0,0,3.191470812988281,0,0,2.6754
1.2501365400094073,0,0,1.687912170410156,0,0,2.14032
1.2515245230169967,0,0,0.4860229370117187,0,0,0.91728
1.2529107650043443,0,0,-0.28969840087890625,0,0,-0.84084
1.2542996740085073,0,0,-0.24899697265624998,0,0,-0.30576000000000003
1.2556931569997687,0,0,2.0254946044921875,0,0,0.3822
1.2570837880193722,0,0,3.842693664550781,0,0,2.75184
1.2584713450050913,0,0,2.5450363647460934,0,0,2.2167600000000003
1.259854569012532,0,0,1.3623007446289062,0,0,1.37592
1.261234552017413,0,0,-1.1827356201171875,0,0,-0.99372
1.2626191270246636,0,0,-0.7996633544921875,0,0,-0.91728
1.2640098690171726,0,0,2.6623522460937497,0,0,0.53508
1.2653970750106964,0,0,3.890577697753906,0,0,1.75812
1.2667841500078794,0,0,3.0430303100585934,0,0,1.911
1.2681653370091226,0,0,0.39743747558593745,0,0,1.2994800000000002
1.2695442830154207,0,0,-1.1516109985351561,0,0,-0.84084
1.2709240990225226,0,0,0.9840168823242187,0,0,-0.22932
1.272311452019494,0,0,2.1021090576171875,0,0,1.1465999999999998
1.2736965460062493,0,0,3.210624426269531,0,0,1.5288
1.275138805998722,0,0,1.7669208251953124,0,0,1.07016
1.2765277520229574,0,0,0.8259995727539062,0,0,1.1465999999999998
1.2779149020207115,0,0,-0.0526724365234375,0,0,0.0
1.2793036440270953,0,0,1.3527239379882812,0,0,0.45864
1.2806900900031906,0,0,2.185906115722656,0,0,2.06388
1.2820775540021714,0,0,2.020706201171875,0,0,1.37592
1.2834650930017233,0,0,1.2569558715820313,0,0,0.30576000000000003
1.2848507240123581,0,0,0.6512228515624999,0,0,0.22932
1.2862520580238197,0,0,-0.07900865478515624,0,0,9.555
1.2876392629987095,0,0,1.4700398193359374,0,0,1.2230400000000001
1.2890252090001013,0,0,3.31357509765625,0,0,2.14032
1.2904110070085153,0,0,2.2002713256835937,0,0,1.68168
1.2917977680044714,0,0,1.4101847778320311,0,0,0.99372
1.2931838430231437,0,0,-1.2904746948242187,0,0,-1.5288
1.2945713080116548,0,0,-1.189918225097656,0,0,-0.68796
1.2959755870106164,0,0,2.3511060302734372,0,0,0.84084
1.297361995006213,0,0,3.73495458984375,0,0,2.14032
1.29874747802387,0,0,3.1794998046874996,0,0,1.98744
1.3001342580246273,0,0,1.120486376953125,0,0,2.90472
1.301520815002732,0,0,-1.0103531005859374,0,0,-0.30576000000000003
1.3029079090047162,0,0,0.09576806640624999,0,0,-0.68796
1.3042948729998898,0,0,1.7094599853515624,0,0,1.60524
1.3056810410053004,0,0,3.5889082885742187,0,0,1.2230400000000001
1.307068080001045,0,0,2.703053674316406,0,0,1.45236
1.3084933580248617,0,0,1.6304513305664061,0,0,1.2230400000000001
1.309882045025006,0,0,-0.6392518432617187,0,0,-0.30576000000000003
1.3112728800042532,0,0,0.5219359619140624,0,0,9.40212
1.312658677023137,0,0,1.4532804077148436,0,0,1.60524
1.3140450860082638,0,0,1.9800047729492187,0,0,1.07016
1.3154321430192795,0,0,1.946485949707031,0,0,1.1465999999999998
1.3168182000226807,0,0,1.0749965454101562,0,0,0.53508
1.318204331008019,0,0,0.011971008300781249,0,0,0.3822
1.3195907400222495,0,0,1.1061211669921875,0,0,0.6115200000000001
1.320977038005367,0,0,2.731784094238281,0,0,2.2931999999999997
1.3223633170127869,0,0,1.9847931762695312,0,0,1.60524
1.3237512260093354,0,0,1.7908628417968748,0,0,1.2994800000000002
1.3251376900007017,0,0,-0.0718260498046875,0,0,-0.15288000000000002
1.3265249700052664,0,0,-0.2753331909179687,0,0,-0.3822
1.3279123410175089,0,0,2.205059729003906,0,0,1.5288
1.3292989170004148,0,0,2.9927520751953125,0,0,1.60524
1.3307477510243189,0,0,2.109291662597656,0,0,1.45236
1.3321952140249778,0,0,0.9193734375,0,0,1.2994800000000002
1.3335875120246783,0,0,-0.32082302246093747,0,0,-0.84084
1.3349787170009222,0,0,0.7589619262695312,0,0,-0.30576000000000003
1.3363721440255176,0,0,1.7693150268554687,0,0,1.5288
1.3377612010226585,0,0,2.568978381347656,0,0,1.2230400000000001
1.339149110019207,0,0,2.2266075439453124,0,0,1.37592
1.3405353520065546,0,0,1.5634136840820312,0,0,1.2994800000000002
1.3419227980193682,0,0,-0.3280056274414062,0,0,-0.3822
1.343309133022558,0,0,0.3280056274414062,0,0,-0.68796
1.3446876900270581,0,0,1.3263877197265623,0,0,1.07016
1.3460663400182966,0,0,2.4851813232421875,0,0,1.1465999999999998
1.3474537860020064,0,0,2.3726538452148436,0,0,1.45236
1.3488412130100187,0,0,0.5410895751953124,0,0,1.5288
1.3502274920174386,0,0,-0.27293898925781246,0,0,9.47856
1.3516157530248165,0,0,0.4070142822265625,0,0,0.22932
1.3530022170161828,0,0,2.0302830078125,0,0,1.2230400000000001
1.354442903015297,0,0,1.7956512451171873,0,0,0.91728
1.3558358490117826,0,0,1.1923124267578125,0,0,0.84084
1.3572235730243847,0,0,0.4525041137695312,0,0,0.15288000000000002
1.3586103150155395,0,0,0.20829554443359374,0,0,0.6115200000000001
1.3599915759987198,0,0,2.530671154785156,0,0,2.2167600000000003
1.3613705030002166,0,0,2.6958710693359373,0,0,1.83456
1.362749394000275,0,0,1.5322890624999999,0,0,1.2230400000000001
1.3641402650100645,0,0,0.6344634399414062,0,0,0.99372
1.3655278960068244,0,0,0.086191259765625,0,0,-0.7644
1.366916527011199,0,0,1.6065093139648436,0,0,0.45864
1.3683022700133733,0,0,2.588131994628906,0,0,2.06388
1.3696882520162035,0,0,2.940079638671875,0,0,1.2994800000000002
1.3710741060203873,0,0,1.4724340209960938,0,0,1.2230400000000001
1.3724591440113727,0,0,0.5003881469726562,0,0,1.2994800000000002
1.3738434050173964,0,0,-0.5793968017578125,0,0,-0.68796
1.375246314011747,0,0,0.9169792358398436,0,0,-0.6115200000000001
1.3766364450275432,0,0,2.0350714111328125,0,0,1.75812
1.378023576020496,0,0,2.3726538452148436,0,0,1.2230400000000001
1.3794117440120317,0,0,1.8339584716796873,0,0,1.60524
1.380797893012641,0,0,0.354341845703125,0,0,0.99372
1.3821849870146252,0,0,-0.24181436767578124,0,0,0.07644000000000001
1.3835734150197823,0,0,0.7134720947265625,0,0,-0.3822
1.3849613610072993,0,0,2.9472622436523435,0,0,1.75812
1.3863576030125841,0,0,2.346317626953125,0,0,1.2230400000000001
1.3877681040030438,0,0,1.6112977172851561,0,0,1.1465999999999998
1.3891579199989792,0,0,0.27293898925781246,0,0,-9.47856
1.390546588023426,0,0,-0.03591302490234375,0,0,0.53508
1.391935164021561,0,0,1.7118541870117185,0,0,1.37592
1.3933223130006809,0,0,2.1883003173828124,0,0,0.6115200000000001
1.3947095740004443,0,0,1.5514426757812498,0,0,0.99372
1.3960908720036969,0,0,1.4173673828125,0,0,1.68168
1.3974692620104179,0,0,0.8858546142578124,0,0,0.30576000000000003
1.3988478750106879,0,0,1.697488977050781,0,0,1.5288
1.4002368210058194,0,0,2.0159177978515626,0,0,1.5288
1.401623803016264,0,0,1.9704279663085937,0,0,0.53508
1.403011194022838,0,0,0.852335791015625,0,0,0.0
1.4043984540039673,0,0,0.7613561279296874,0,0,1.2994800000000002
1.405785178008955,0,0,0.6200982299804687,0,0,0.07644000000000001
1.4071732170123141,0,0,1.917755529785156,0,0,0.3822
1.4085595330107026,0,0,2.2768857788085937,0,0,1.911
1.4099463860038668,0,0,1.6328455322265625,0,0,1.911
1.4113312950066756,0,0,0.6368576416015624,0,0,0.45864
1.41270955602522,0,0,-0.13168109130859373,0,0,0.3822
1.4140883540094364,0,0,-0.1197100830078125,0,0,0.22932
1.4154745590058155,0,0,1.908178723144531,0,0,0.07644000000000001
1.416862245008815,0,0,3.852270471191406,0,0,2.2167600000000003
1.4182491360115819,0,0,3.038241906738281,0,0,1.98744
1.419636711012572,0,0,1.6448165405273436,0,0,0.6115200000000001
1.4210238790255971,0,0,-0.9074024291992187,0,0,-0.84084
1.42241254702094,0,0,-1.0199299072265624,0,0,0.30576000000000003
1.4238037890172563,0,0,2.2577321655273437,0,0,0.07644000000000001
1.4251906610152218,0,0,3.1747114013671873,0,0,-8.25552
1.4265780150017235,0,0,2.5139117431640625,0,0,1.37592
1.4279655530117452,0,0,1.0366893188476562,0,0,1.5288
1.4293520360079128,0,0,0.047884033203124995,0,0,-0.30576000000000003
1.4307392600167077,0,0,1.0486603271484374,0,0,0.84084
1.43212668702472,0,0,2.020706201171875,0,0,1.45236
1.4335133180138655,0,0,2.7174188842773437,0,0,1.1465999999999998
1.4349003010138404,0,0,1.3239935180664062,0,0,0.99372
1.4362878950196318,0,0,0.8595183959960937,0,0,0.68796
1.4376746930065565,0,0,0.35194764404296874,0,0,-0.6115200000000001
1.439062935009133,0,0,2.042254016113281,0,0,1.2994800000000002
1.4404499730153475,0,0,2.877830395507812,0,0,2.4460800000000003
1.441836845013313,0,0,1.7453730102539062,0,0,1.37592
1.443224883027142,0,0,0.565031591796875,0,0,0.0
1.4446116070030257,0,0,-0.5099649536132812,0,0,0.0
1.4459988120070193,0,0,-0.11731588134765625,0,0,-1.1465999999999998
1.4473879990109708,0,0,1.9416975463867185,0,0,0.53508
1.448774056014372,0,0,3.5577836669921874,0,0,2.2931999999999997
1.4501611870073248,0,0,2.422932080078125,0,0,2.14032
1.451548207027372,0,0,1.005564697265625,0,0,0.7644
1.452934801025549,0,0,-1.2785036865234374,0,0,0.0
1.4543242840154562,0,0,-0.8451531860351562,0,0,0.07644000000000001
1.4557163040153682,0,0,3.0693665283203124,0,0,0.3822
1.4570963420264889,0,0,4.101267443847656,0,0,2.2167600000000003
1.4584757140255533,0,0,3.21780703125,0,0,2.36964
1.4598580670135561,0,0,0.5674257934570313,0,0,1.2230400000000001
1.4612375130236614,0,0,-0.7398083129882812,0,0,-0.3822
1.462618570018094,0,0,-1.3383587280273437,0,0,0.0
1.464103348000208,0,0,2.4061726684570313,0,0,0.91728
1.4654835170076694,0,0,3.1555577880859373,0,0,0.99372
1.4668626850179862,0,0,1.7741034301757812,0,0,1.07016
1.4682515570020769,0,0,0.8834604125976562,0,0,1.2230400000000001
1.4696375950006768,0,0,-0.411802685546875,0,0,-1.07016
1.4710255040263291,0,0,0.7110778930664062,0,0,0.0
1.4724041720037349,0,0,1.7860744384765623,0,0,1.60524
1.473782729008235,0,0,2.3487118286132813,0,0,1.37592
1.4752171740110498,0,0,1.8004396484374998,0,0,0.84084
1.4765976950002369,0,0,1.2713210815429687,0,0,1.45236
1.4779761960089672,0,0,-0.21308394775390624,0,0,0.0
1.4793632159999106,0,0,0.9983820922851562,0,0,-0.15288000000000002
1.4807513470004778,0,0,2.8131869506835936,0,0,1.75812
1.4821449600276537,0,0,2.442085693359375,0,0,1.60524
1.4835440349997953,0,0,1.8291700683593748,0,0,0.3822
1.4849310360150412,0,0,0.05985504150390625,0,0,0.91728
1.4863181490218267,0,0,-0.38307226562499996,0,0,0.22932
1.4877068909991067,0,0,1.9656395629882812,0,0,0.91728
1.4890942630008794,0,0,2.858676782226562,0,0,1.98744
1.4904814490000717,0,0,2.518700146484375,0,0,1.45236
1.4918641360127367,0,0,0.7230489013671875,0,0,0.84084
1.4932428040192463,0,0,-0.507570751953125,0,0,-1.07016
1.4946234540257137,0,0,-1.2713210815429687,0,0,-0.22932
1.4960127700178418,0,0,2.0638018310546875,0,0,1.60524
1.497400253021624,0,0,3.181894006347656,0,0,1.2994800000000002
1.4987870690238196,0,0,2.422932080078125,0,0,1.68168
1.5001742190215737,0,0,1.6136919189453125,0,0,3.13404
1.5015665170212742,0,0,-0.0526724365234375,0,0,-1.5288
1.5029542590200435,0,0,0.03591302490234375,0,0,-0.91728
1.5043417230190244,0,0,2.729389892578125,0,0,1.2230400000000001
1.50572853902122,0,0,3.9647979492187497,0,0,1.37592
1.5071128000272438,0,0,2.473210314941406,0,0,1.5288
1.508490709005855,0,0,1.20667763671875,0,0,1.68168
1.5098690810264088,0,0,-2.2960393920898436,0,0,-1.2230400000000001
1.511255212011747,0,0,-0.8212111694335937,0,0,-1.1465999999999998
1.5126600840012543,0,0,2.214636535644531,0,0,0.91728
1.5140464180149138,0,0,2.7820623291015623,0,0,1.37592
1.515433272026712,0,0,2.664746447753906,0,0,1.83456
1.5168186990194954,0,0,0.9169792358398436,0,0,2.4460800000000003
1.518204867024906,0,0,-0.7493851196289062,0,0,0.45864
1.5195916090160608,0,0,0.12449848632812499,0,0,0.53508
1.5209776289993897,0,0,2.729389892578125,0,0,1.75812
1.5223634639987722,0,0,2.8371289672851563,0,0,1.68168
1.5237495390174445,0,0,1.8435352783203125,0,0,0.91728
1.5251355780055746,0,0,1.024718310546875,0,0,0.15288000000000002
1.5265215610270388,0,0,-0.36391865234375,0,0,0.0
1.527908322022995,0,0,1.6448165405273436,0,0,0.0
1.5292941380175762,0,0,2.29843359375,0,0,0.7644
1.5306796580262017,0,0,1.5322890624999999,0,0,1.37592
1.5320658440177795,0,0,0.8499415893554687,0,0,1.75812
1.5334519750031177,0,0,0.1197100830078125,0,0,-1.2994800000000002
1.534840199019527,0,0,0.42377369384765623,0,0,0.84084
1.5362265340227168,0,0,2.099714855957031,0,0,1.68168
1.53761225802009,0,0,2.748543505859375,0,0,2.14032
1.5390082960075233,0,0,1.9776105712890624,0,0,1.75812
1.5403949640167411,0,0,1.66636435546875,0,0,2.82828
1.541781002015341,0,0,-0.9552864624023437,0,0,-1.5288
1.5431688000098802,0,0,0.2705447875976562,0,0,-0.53508
1.5445610790047795,0,0,2.123656872558594,0,0,1.5288
1.5459469330089632,0,0,2.817975354003906,0,0,1.37592
1.547333675000118,0,0,2.099714855957031,0,0,0.91728
1.548718917008955,0,0,-0.239420166015625,0,0,1.45236
1.5501053810003214,0,0,-1.4820108276367188,0,0,0.0
1.5514927900221664,0,0,-0.3184288208007812,0,0,-0.3822
1.5528793290141039,0,0,2.454056701660156,0,0,1.2230400000000001
1.5542655890167225,0,0,3.1076737548828124,0,0,1.911
1.555651406000834,0,0,2.5857377929687497,0,0,2.06388
1.5570373520022258,0,0,1.5394716674804687,0,0,1.45236
1.5584234830166679,0,0,0.055066638183593745,0,0,0.84084
1.5598095029999968,0,0,0.7709329345703124,0,0,0.0
1.5611950780148618,0,0,1.4437036010742186,0,0,-9.784320000000001
1.5625813390070107,0,0,1.7932570434570312,0,0,0.15288000000000002
1.5639675070124213,0,0,2.166752502441406,0,0,0.84084
1.5653531010029837,0,0,1.4101847778320311,0,0,-0.15288000000000002
1.5667391020106152,0,0,0.6703764648437499,0,0,1.37592
1.5681252150097862,0,0,1.1324573852539062,0,0,1.911
1.569511327019427,0,0,1.0941501586914062,0,0,1.07016
1.5709038100030739,0,0,0.6057330200195312,0,0,0.22932
1.572289053001441,0,0,0.9552864624023437,0,0,1.2230400000000001
1.5736733869998716,0,0,0.8379705810546875,0,0,-0.7644
1.5751159250212368,0,0,2.195482922363281,0,0,1.2994800000000002
1.5765047410095576,0,0,2.961627453613281,0,0,2.2931999999999997
1.577891446009744,0,0,2.032677209472656,0,0,1.98744
1.5792775780137163,0,0,1.1563994018554686,0,0,0.91728
1.580661375017371,0,0,-0.3016694091796875,0,0,0.99372
1.5821026540070307,0,0,-0.7517793212890624,0,0,-0.84084
1.5836072280071676,0,0,2.6216508178710938,0,0,9.24924
1.5850019510253333,0,0,2.980781066894531,0,0,1.2230400000000001
1.5863888970052358,0,0,2.281674182128906,0,0,2.4460800000000003
1.5877921950013842,0,0,0.45489831542968745,0,0,0.84084
1.5891790669993497,0,0,-0.3902548706054687,0,0,-0.6115200000000001
1.5905677350237966,0,0,1.1540052001953125,0,0,0.6115200000000001
1.591970717010554,0,0,2.269703173828125,0,0,0.84084
1.593356441007927,0,0,2.81558115234375,0,0,1.68168
1.5947433680121321,0,0,1.3455413330078123,0,0,1.60524
1.5961234440037515,0,0,0.9624690673828125,0,0,1.83456
1.5975169080193155,0,0,0.3854664672851562,0,0,-0.68796
1.5989181500044651,0,0,1.2689268798828124,0,0,0.0
1.600308411027072,0,0,2.3870190551757813,0,0,1.68168
1.601696672005346,0,0,2.1978771240234374,0,0,0.53508
1.6030851730029099,0,0,1.2976572998046874,0,0,0.91728
1.604472026025178,0,0,0.9050082275390624,0,0,1.60524
1.6058592130139004,0,0,-0.28012159423828126,0,0,0.0
1.6072481960000005,0,0,0.8499415893554687,0,0,0.07644000000000001
1.608660067024175,0,0,2.770091320800781,0,0,1.60524
1.6100577540055383,0,0,2.114080065917969,0,0,1.37592
1.6114442920079455,0,0,1.24498486328125,0,0,0.6115200000000001
1.6128219420206733,0,0,0.22744915771484372,0,0,-8.71416
1.6142014060169458,0,0,-0.016759411621093748,0,0,0.84084
1.6155914260016289,0,0,2.346317626953125,0,0,0.6115200000000001
1.6169781690114178,0,0,2.693476867675781,0,0,1.98744
1.6183647260186262,0,0,2.2002713256835937,0,0,1.83456
1.6197519680135883,0,0,0.8475473876953125,0,0,1.07016
1.6211385060159955,0,0,-0.3495534423828125,0,0,-0.84084
1.622525619022781,0,0,-0.8810662109374999,0,0,0.22932
1.6239131390175316,0,0,2.6144682128906247,0,0,0.7644
1.6252991590008605,0,0,3.6463691284179687,0,0,1.60524
1.6266850300016813,0,0,1.4508862060546874,0,0,1.37592
1.6280716239998583,0,0,0.6153098266601562,0,0,2.06388
1.6294724220060743,0,0,-0.7062894897460937,0,0,-1.2994800000000002
1.6308606830134522,0,0,1.0893617553710937,0,0,0.45864
1.6322542210109532,0,0,2.403778466796875,0,0,1.1465999999999998
1.6336808890046086,0,0,2.9376854370117185,0,0,0.99372
1.6350706860248465,0,0,1.7549498168945312,0,0,1.2994800000000002
1.6364575030165724,0,0,1.0678139404296874,0,0,1.68168
1.6378446890157647,0,0,-1.1372457885742187,0,0,-0.68796
1.6392349310044665,0,0,0.7110778930664062,0,0,0.15288000000000002
1.640621488011675,0,0,3.4907460205078125,0,0,2.2931999999999997
1.6420086750003975,0,0,2.6288334228515624,0,0,1.1465999999999998
1.6433933800144587,0,0,1.0773907470703123,0,0,0.53508
1.6447709560161456,0,0,-0.5889736083984375,0,0,0.45864
1.6461505129991565,0,0,-0.6153098266601562,0,0,0.30576000000000003
1.6475552180199884,0,0,2.6767174560546874,0,0,0.30576000000000003
1.6489425340259913,0,0,3.42849677734375,0,0,2.2167600000000003
1.650329813011922,0,0,2.7078420776367187,0,0,2.52252
1.651716574007878,0,0,0.7541735229492187,0,0,0.99372
1.6531037050008308,0,0,-0.7829039428710937,0,0,-0.91728
1.6544916880084202,0,0,-1.0797849487304687,0,0,0.68796
1.6558874480251689,0,0,2.5641899780273434,0,0,0.30576000000000003
1.6572786910110153,0,0,3.4931402221679684,0,0,1.911
1.6586673960264307,0,0,1.917755529785156,0,0,1.75812
1.660048990015639,0,0,1.3766659545898436,0,0,1.68168
1.6614287130068988,0,0,-0.48123453369140623,0,0,-0.84084
1.6628085109987296,0,0,0.26815058593749996,0,0,0.0
1.6641982160217594,0,0,2.085349645996094,0,0,1.60524
1.665585959010059,0,0,3.0310593017578125,0,0,1.07016
1.666973275016062,0,0,1.8626888916015625,0,0,1.2230400000000001
1.6683672390063293,0,0,1.2521674682617188,0,0,1.75812
1.6698055920132902,0,0,-1.47482822265625,0,0,-0.3822
1.6711964450078085,0,0,-0.0047884033203125,0,0,-0.53508
1.6725828350172378,0,0,2.9185318237304685,0,0,1.45236
1.6739683920168318,0,0,2.85388837890625,0,0,1.37592
1.6753895600268152,0,0,2.1787235107421874,0,0,1.5288
1.6767713020090014,0,0,0.6153098266601562,0,0,1.45236
1.67815491501824,0,0,-0.9026140258789062,0,0,0.22932
1.6795469720091205,0,0,1.7310078002929687,0,0,-0.45864
1.6809264730254654,0,0,2.9089550170898435,0,0,2.4460800000000003
1.6823053080006503,0,0,2.4516625,0,0,1.60524
1.6836940130160656,0,0,1.8411410766601561,0,0,1.1465999999999998
1.6850802550034132,0,0,0.5913678100585937,0,0,0.0
1.686466442013625,0,0,0.33518823242187495,0,0,0.6115200000000001
1.6878821280261036,0,0,1.4317325927734375,0,0,0.99372
1.6892707960214466,0,0,2.73896669921875,0,0,0.91728
1.6906575940083712,0,0,2.212242333984375,0,0,1.75812
1.6920447620213963,0,0,1.8746598999023436,0,0,2.36964
1.6934313560195733,0,0,0.12689268798828124,0,0,-0.91728
1.6948190610273741,0,0,0.023942016601562498,0,0,-0.99372
1.696205952001037,0,0,1.85790048828125,0,0,0.91728
1.6975928050233051,0,0,3.4763808105468748,0,0,0.99372
1.6989795660192613,0,0,2.5713725830078125,0,0,2.06388
1.7003660490154289,0,0,1.7669208251953124,0,0,2.4460800000000003
1.7017528650176246,0,0,-1.9823989746093749,0,0,8.25552
1.7031409590272233,0,0,-1.1516109985351561,0,0,-1.45236
1.704527849011356,0,0,2.731784094238281,0,0,2.06388
1.7059145170205738,0,0,3.2225954345703123,0,0,0.84084
1.707301685004495,0,0,2.616862414550781,0,0,1.98744
1.7086873530060984,0,0,0.4836287353515625,0,0,1.83456
1.7100736330030486,0,0,-0.8930372192382812,0,0,-0.3822
1.7114611710130703,0,0,1.2713210815429687,0,0,-0.6115200000000001
1.7128479130042251,0,0,2.664746447753906,0,0,1.68168
1.7142348780180328,0,0,3.289633081054687,0,0,1.75812
1.7156214350252412,0,0,2.2457611572265623,0,0,1.98744
1.717007529019611,0,0,1.0007762939453124,0,0,0.53508
1.7183943999989424,0,0,-0.7996633544921875,0,0,0.15288000000000002
1.7197887910006102,0,0,1.149216796875,0,0,-0.53508
1.7211750880233012,0,0,2.1619640991210938,0,0,1.60524
1.7225608310254756,0,0,2.291250988769531,0,0,1.911
1.723949369014008,0,0,1.9225439331054686,0,0,1.83456
1.7253386299998965,0,0,0.4955997436523437,0,0,-0.99372
1.726739001023816,0,0,-0.4572925170898437,0,0,-0.3822
1.728127984009916,0,0,1.3311761230468748,0,0,0.99372
1.729514819016913,0,0,2.693476867675781,0,0,0.84084
1.7309014500060584,0,0,2.04943662109375,0,0,1.83456
1.7322879140265286,0,0,1.8363526733398436,0,0,2.14032
1.7336745830252767,0,0,-0.699106884765625,0,0,-0.84084
1.7350632140005473,0,0,-0.11731588134765625,0,0,0.22932
1.7364542520081159,0,0,2.6479870361328124,0,0,1.83456
1.7378407350042835,0,0,2.9951462768554684,0,0,1.2230400000000001
1.739227385027334,0,0,2.437297290039062,0,0,1.5288
1.7406128300062846,0,0,0.7302315063476562,0,0,1.68168
1.7419987580215093,0,0,-0.6296750366210937,0,0,8.56128
1.7433864070044365,0,0,-0.469263525390625,0,0,-1.07016
1.7447730750136543,0,0,2.2098481323242187,0,0,2.2167600000000003
1.7461691140197217,0,0,2.43250888671875,0,0,0.45864
1.7475556890130974,0,0,1.9225439331054686,0,0,1.98744
1.7489421170030255,0,0,0.6105214233398437,0,0,0.68796
1.7503278960066382,0,0,-0.5793968017578125,0,0,0.53508
1.751714879006613,0,0,1.458068811035156,0,0,9.172799999999999
1.75310171401361,0,0,2.480392919921875,0,0,1.2994800000000002
1.7544878080079798,0,0,2.6479870361328124,0,0,2.52252
1.7558743650151882,0,0,2.2481553588867187,0,0,1.911
1.7572607730107848,0,0,0.8595183959960937,0,0,-0.15288000000000002
1.7586467010260094,0,0,-0.74699091796875,0,0,-0.22932
1.7600338690099306,0,0,0.6679822631835937,0,0,0.07644000000000001
1.7614203150151297,0,0,2.5522189697265625,0,0,0.15288000000000002
1.7628127050120384,0,0,2.3870190551757813,0,0,1.60524
1.7641997990140226,0,0,2.0302830078125,0,0,2.6754
1.765586115012411,0,0,-0.316034619140625,0,0,-0.53508
1.766973283025436,0,0,-0.4165910888671875,0,0,1.07016
1.7683605070051271,0,0,1.199495031738281,0,0,1.98744
1.7697470640123356,0,0,2.446874096679687,0,0,0.30576000000000003
1.771134806011105,0,0,2.1811177124023438,0,0,0.7644
1.7725181600253563,0,0,1.35990654296875,0,0,2.5989600000000004
1.7739022910245694,0,0,0.06464344482421874,0,0,0.0
1.7752977550262585,0,0,0.11013327636718749,0,0,0.22932
1.776686053024605,0,0,2.2864625854492187,0,0,1.75812
1.778119405003963,0,0,2.2864625854492187,0,0,1.68168
1.7795117220084649,0,0,1.1180921752929687,0,0,0.91728
1.7809125930070877,0,0,0.24181436767578124,0,0,-1.5288
1.7829204020090401,0,0,0.15562310791015624,0,0,0.22932
1.7843369770271238,0,0,2.3415292236328122,0,0,2.2931999999999997
1.785862236021785,0,0,2.480392919921875,0,0,1.45236
1.7872564040008,0,0,1.2856862915039062,0,0,1.2994800000000002
1.7886444790055975,0,0,0.02633621826171875,0,0,2.06388
1.7900324250222184,0,0,-0.7326257080078125,0,0,-0.6115200000000001
1.7914207970025018,0,0,2.461239306640625,0,0,-0.6115200000000001
1.7928008910093922,0,0,3.1938650146484373,0,0,2.4460800000000003
1.794180448021507,0,0,2.923320227050781,0,0,1.1465999999999998
1.7956171340192668,0,0,1.7310078002929687,0,0,1.1465999999999998
1.797006691020215,0,0,0.46208092041015625,0,0,1.2230400000000001
1.7983937110111583,0,0,-0.3399766357421875,0,0,-0.45864
1.7997823790065013,0,0,1.714248388671875,0,0,0.0
1.8011686950048897,0,0,2.6791116577148437,0,0,0.99372
1.8025559750094544,0,0,1.5801730957031248,0,0,1.45236
1.8042955640121363,0,0,1.5251064575195312,0,0,2.06388
1.8057040280255023,0,0,-0.29448680419921874,0,0,-0.91728
1.807113159011351,0,0,-0.009576806640625,0,0,0.45864
1.8085088090156205,0,0,2.090138049316406,0,0,1.83456
1.8098964210075792,0,0,2.1356278808593747,0,0,0.7644
1.8112846450239886,0,0,1.4437036010742186,0,0,0.30576000000000003
1.8126711460063234,0,0,0.5985504150390625,0,0,1.98744
1.814058259013109,0,0,-0.02633621826171875,0,0,0.0
1.8154575750231743,0,0,2.9975404785156248,0,0,0.30576000000000003
1.8168366510071792,0,0,3.2441432495117186,0,0,3.21048
1.818215745006455,0,0,2.5761609863281247,0,0,1.5288
1.8196122460067272,0,0,0.6560112548828124,0,0,1.5288
1.8210007290181238,0,0,-0.7302315063476562,0,0,-0.53508
1.8223902300233021,0,0,-0.07900865478515624,0,0,-0.22932
1.823779269005172,0,0,2.760514514160156,0,0,8.63772
1.825166900001932,0,0,3.921702319335937,0,0,1.45236
1.8265541230211966,0,0,1.946485949707031,0,0,1.98744
1.8279413290147204,0,0,1.2761094848632812,0,0,2.36964
1.829327978019137,0,0,-1.7980454467773437,0,0,-1.37592
1.8307164420257322,0,0,-1.0989385620117187,0,0,0.0
1.832097981008701,0,0,1.5777788940429687,0,0,0.3822
1.833533963013906,0,0,3.9504327392578125,0,0,0.53508
1.835014112002682,0,0,2.7557261108398436,0,0,1.83456
1.8364050580130424,0,0,0.08379705810546874,0,0,3.0576
1.837792652018834,0,0,-1.3646949462890625,0,0,-1.45236
1.8391938010172453,0,0,-1.3096283081054687,0,0,-0.7644
1.8405734880070668,0,0,3.277662072753906,0,0,1.5288
1.8419526370125823,0,0,3.593696691894531,0,0,0.84084
1.8444709950126708,0,0,0.086191259765625,0,0,2.75184
1.845851552003296,0,0,-1.0654197387695312,0,0,-1.37592
1.8472392760158982,0,0,-1.0606313354492187,0,0,-0.84084
1.8486275920004118,0,0,3.162740393066406,0,0,1.83456
1.8500145380094182,0,0,3.2800562744140622,0,0,1.1465999999999998
1.851402316999156,0,0,1.1635820068359375,0,0,0.7644
1.8528062630211934,0,0,-0.21068974609375,0,0,2.2167600000000003
1.854195450025145,0,0,-1.2282254516601563,0,0,-0.99372
1.855590988008771,0,0,2.29843359375,0,0,-0.3822
1.8569802490237635,0,0,3.890577697753906,0,0,2.36964
1.8583675650006626,0,0,3.0454245117187497,0,0,1.98744
1.8597498810268007,0,0,1.7956512451171873,0,0,1.1465999999999998
1.8611298460164107,0,0,-0.32082302246093747,0,0,-0.45864
1.862510088016279,0,0,-1.678335363769531,0,0,-0.84084
1.8638920710072853,0,0,1.0941501586914062,0,0,-0.68796
1.8652907570067327,0,0,4.103661645507812,0,0,1.45236
1.866670999006601,0,0,2.798821740722656,0,0,1.75812
1.8680597420025151,0,0,1.8004396484374998,0,0,2.2167600000000003
1.8694470760237891,0,0,-1.7860744384765623,0,0,-0.99372
1.8708352260000538,0,0,-2.2744915771484373,0,0,-1.5288
1.872217135009123,0,0,-0.062249243164062495,0,0,0.22932
1.8735966360254679,0,0,3.852270471191406,0,0,0.22932
1.874975416023517,0,0,2.7724855224609373,0,0,1.98744
1.8763780100271106,0,0,0.1149216796875,0,0,2.5989600000000004
1.8777660660271067,0,0,-1.1037269653320312,0,0,-1.98744
1.879152123001404,0,0,-2.138022082519531,0,0,-0.68796
1.880531681003049,0,0,2.0542250244140625,0,0,0.84084
1.8820641250058543,0,0,3.289633081054687,0,0,-0.22932
1.8834518110088538,0,0,1.6519991455078125,0,0,1.83456
1.8848397940164432,0,0,0.1149216796875,0,0,1.60524
1.8862271840043832,0,0,-1.235408056640625,0,0,7.03248
1.8876154270255938,0,0,-0.8451531860351562,0,0,1.07016
1.889003465010319,0,0,1.6065093139648436,0,0,0.07644000000000001
1.890390707005281,0,0,3.0909143432617188,0,0,0.53508
1.8917734310089145,0,0,1.7477672119140624,0,0,2.6754
1.8931521180202253,0,0,1.5897499023437498,0,0,0.15288000000000002
1.8945308600086719,0,0,-1.0079588989257813,0,0,1.1465999999999998
1.8959192500042263,0,0,-1.8291700683593748,0,0,-0.91728
1.8973197510058526,0,0,2.6144682128906247,0,0,-1.2230400000000001
1.8987073640164454,0,0,3.69664736328125,0,0,1.911
1.9000944020226598,0,0,4.00310517578125,0,0,-0.84084
1.901481478009373,0,0,1.2928688964843749,0,0,2.6754
1.9028688130201772,0,0,-1.0342951171875,0,0,-1.5288
1.904256981011713,0,0,-2.4875755249023435,0,0,6.573840000000001
1.9056453710072674,0,0,-0.9840168823242187,0,0,-0.3822
1.907034169009421,0,0,1.9512743530273435,0,0,-0.68796
1.9084203370148316,0,0,2.8898014038085935,0,0,2.36964
1.9097993200120982,0,0,1.5275006591796874,0,0,-0.84084
1.9111868210020475,0,0,0.1292868896484375,0,0,3.4398000000000004
1.9125826000235975,0,0,-1.6041151123046875,0,0,-2.4460800000000003
1.9139696570055094,0,0,-0.8643067993164062,0,0,-1.1465999999999998
1.9153572510113008,0,0,1.350329736328125,0,0,-0.91728
1.916742901026737,0,0,4.192247106933594,0,0,1.60524
1.9181289210100658,0,0,3.299209887695312,0,0,1.98744
1.9195149600272998,0,0,1.5490484741210937,0,0,0.7644
1.9209002390271053,0,0,-0.35673604736328124,0,0,1.75812
1.9222865920164622,0,0,-1.9009961181640624,0,0,7.03248
1.9238102580129635,0,0,-0.6775590698242188,0,0,-0.45864
1.9252033150114585,0,0,0.8212111694335937,0,0,-2.36964
1.9265898540033959,0,0,2.6408044311523438,0,0,1.1465999999999998
1.927976392005803,0,0,2.3439234252929686,0,0,0.84084
1.9293629310268443,0,0,0.19393033447265623,0,0,2.4460800000000003
1.9307488769991323,0,0,-0.9864110839843749,0,0,0.45864
1.9321356740256306,0,0,-1.1659762084960936,0,0,0.30576000000000003
1.9335224910173565,0,0,0.6967126831054687,0,0,-1.07016
1.934908659022767,0,0,1.9800047729492187,0,0,0.0
1.936294605024159,0,0,2.231395947265625,0,0,1.2230400000000001
1.937680569011718,0,0,1.6448165405273436,0,0,0.68796
1.939066922001075,0,0,1.2617442749023438,0,0,1.75812
1.940497219999088,0,0,-0.11252747802734374,0,0,0.0
1.941892036003992,0,0,-0.296881005859375,0,0,-0.6115200000000001
1.9432794260210358,0,0,0.20350714111328125,0,0,-0.99372
1.9446650200115982,0,0,0.8355763793945312,0,0,0.45864
1.9460510960198008,0,0,1.2641384765625,0,0,9.47856
1.9474375970021356,0,0,0.8595183959960937,0,0,-0.30576000000000003
1.9488237280165777,0,0,0.5889736083984375,0,0,0.84084
1.9502098040247802,0,0,0.17477672119140625,0,0,0.07644000000000001
1.9515958609990776,0,0,0.9265560424804687,0,0,1.45236
1.9529811770189553,0,0,1.4604630126953124,0,0,0.7644
1.9543696230102796,0,0,1.3359645263671873,0,0,1.07016
1.9557550870231353,0,0,1.2904746948242187,0,0,0.6115200000000001
1.9571616990142502,0,0,1.0103531005859374,0,0,0.53508
1.9585490900208242,0,0,0.19393033447265623,0,0,-20
1.959936221013777,0,0,0.7350199096679687,0,0,-0.038220000000000004
1.961323389026802,0,0,0.9217676391601562,0,0,-1.2994800000000002
1.9627106120169628,0,0,0.8930372192382812,0,0,0.7644
1.9640966140141245,0,0,0.9911994873046874,0,0,0.3822
1.9654827080084942,0,0,-0.06943184814453125,0,0,0.30576000000000003
1.9668700430192985,0,0,-0.2609679809570312,0,0,0.7644
1.9682576550112572,0,0,0.5099649536132812,0,0,0.30576000000000003
1.9696434900106397,0,0,0.8595183959960937,0,0,0.07644000000000001
1.9710300280130468,0,0,1.2425906616210938,0,0,0.91728
1.9724151410046034,0,0,1.6831237670898436,0,0,0.84084
1.9737991800066084,0,0,1.2641384765625,0,0,0.68796
1.9752012550015934,0,0,1.0797849487304687,0,0,0.22932
1.9765884040098172,0,0,0.852335791015625,0,0,0.7644
1.9779748130240478,0,0,0.1292868896484375,0,0,-1.1465999999999998
1.9793625000165775,0,0,0.622492431640625,0,0,-0.45864
1.98074833501596,0,0,0.7805097412109374,0,0,0.0
1.9821347070101183,0,0,1.2042834350585936,0,0,-0.22932
1.9835718930116855,0,0,0.6177040283203125,0,0,1.2994800000000002
1.9849654490244575,0,0,0.9624690673828125,0,0,9.555
1.9863516730256379,0,0,0.33039982910156246,0,0,0.53508
1.9877436560054775,0,0,0.06703764648437499,0,0,0.0
1.9891291200183332,0,0,0.9528922607421875,0,0,0.3822
1.9905152330175042,0,0,1.465251416015625,0,0,0.91728
1.9919014570186846,0,0,1.3048399047851562,0,0,0.0
1.9932875689992215,0,0,0.9648632690429687,0,0,0.6115200000000001
1.994673478009645,0,0,0.7493851196289062,0,0,0.0
1.9960595720040146,0,0,0.5793968017578125,0,0,0.0
1.9974454990006052,0,0,0.143652099609375,0,0,-0.99372
1.9988316300150473,0,0,0.852335791015625,0,0,0.07644000000000001
2.000218039000174,0,0,1.1659762084960936,0,0,0.0
2.001604559016414,0,0,0.8906430175781249,0,0,0.7644
2.003006727027241,0,0,0.201112939453125,0,0,0.30576000000000003
2.004394358024001,0,0,0.26815058593749996,0,0,0.0
2.005780711013358,0,0,1.0366893188476562,0,0,0.68796
2.0071673240163364,0,0,1.3838485595703125,0,0,0.3822
2.0085528630006593,0,0,1.0773907470703123,0,0,0.99372
2.009939290001057,0,0,1.0702081420898437,0,0,0.53508
2.0113264950050507,0,0,0.9816226806640624,0,0,0.68796
2.012712071009446,0,0,1.1444283935546875,0,0,0.0
2.01409916501143,0,0,1.1731588134765625,0,0,0.22932
2.015489833022002,0,0,0.4165910888671875,0,0,-0.22932
2.0168779080267996,0,0,0.5291185668945312,0,0,-0.22932
2.0182645020249765,0,0,0.7445967163085937,0,0,-0.15288000000000002
2.019651041016914,0,0,1.0462661254882812,0,0,-0.15288000000000002
2.021037172002252,0,0,1.3000515014648437,0,0,0.68796
2.022423469024943,0,0,0.49799394531249996,0,0,0.45864
2.023809489008272,0,0,-0.00718260498046875,0,0,0.0
2.025199972005794,0,0,0.11013327636718749,0,0,0.0
2.0265859180071857,0,0,0.7613561279296874,0,0,0.07644000000000001
2.027983308013063,0,0,1.4532804077148436,0,0,0.30576000000000003
2.029369106021477,0,0,1.4437036010742186,0,0,0.84084
2.0307552000158466,0,0,1.1707646118164061,0,0,1.07016
2.032141257019248,0,0,0.086191259765625,0,0,0.15288000000000002
2.033526740007801,0,0,0.14604630126953125,0,0,0.0
2.034912223025458,0,0,0.4070142822265625,0,0,9.40212
2.036299206025433,0,0,1.6304513305664061,0,0,0.30576000000000003
2.0376849670137744,0,0,1.7549498168945312,0,0,0.53508
2.0390715610119514,0,0,1.5131354492187499,0,0,0.3822
2.0404673400043976,0,0,0.2537853759765625,0,0,0.30576000000000003
2.041853508009808,0,0,0.02154781494140625,0,0,-0.3822
2.043240176019026,0,0,0.5147533569335937,0,0,0.0
2.0446264920174144,0,0,1.0654197387695312,0,0,0.0
2.0460123080119956,0,0,1.2234370483398436,0,0,0.22932
2.047398921014974,0,0,1.0534487304687499,0,0,0.53508
2.0487841819995083,0,0,0.82360537109375,0,0,0.84084
2.0501700720051304,0,0,0.2753331909179687,0,0,0.15288000000000002
2.0515562030195724,0,0,0.411802685546875,0,0,0.22932
2.052942297013942,0,0,0.9241618408203125,0,0,0.15288000000000002
2.0543281320133246,0,0,1.0630255371093749,0,0,0.6115200000000001
2.0557188740058336,0,0,0.9624690673828125,0,0,0.0
2.057105726998998,0,0,0.7972691528320313,0,0,0.68796
2.0584912840276957,0,0,0.603338818359375,0,0,0.3822
2.0598787490162067,0,0,0.622492431640625,0,0,-0.22932
2.0612665280059446,0,0,0.8906430175781249,0,0,0.22932
2.0626531029993203,0,0,0.9457096557617187,0,0,0.0
2.0640334940108005,0,0,0.9050082275390624,0,0,0.22932
2.065412088006269,0,0,0.7517793212890624,0,0,0.0
2.066789886011975,0,0,0.948103857421875,0,0,0.99372
2.0681769980001263,0,0,0.7972691528320313,0,0,0.3822
2.069563018012559,0,0,0.5674257934570313,0,0,0.3822
2.070948242006125,0,0,0.46686932373046874,0,0,0.15288000000000002
2.0723645580001175,0,0,1.0893617553710937,0,0,0.3822
2.0739826310018543,0,0,1.3934253662109375,0,0,0.68796
2.0764926920237485,0,0,1.2761094848632812,0,0,1.2994800000000002
2.0778903420141432,0,0,0.9816226806640624,0,0,0.7644
2.079273158014985,0,0,0.8714894042968749,0,0,0.6115200000000001
2.08065377100138,0,0,1.2138602416992186,0,0,0.53508
2.0820329760026652,0,0,1.448492004394531,0,0,0.53508
2.0834597360226326,0,0,1.7477672119140624,0,0,1.1465999999999998
2.0849190700100735,0,0,1.915361328125,0,0,0.84084
2.0863127010234166,0,0,1.0941501586914062,0,0,1.07016
2.087703554017935,0,0,0.9361328491210937,0,0,0.53508
2.08909053701791,0,0,1.0749965454101562,0,0,0.3822
2.090477390011074,0,0,1.1875240234375,0,0,0.45864
2.0918640210002195,0,0,1.2689268798828124,0,0,0.6115200000000001
2.09325043001445,0,0,1.429338391113281,0,0,1.07016
2.094637728005182,0,0,1.235408056640625,0,0,0.84084
2.096024007012602,0,0,1.6017209106445311,0,0,0.84084
2.0974107120127883,0,0,1.1827356201171875,0,0,0.6115200000000001
2.098796973004937,0,0,1.1324573852539062,0,0,0.7644
2.100207178009441,0,0,1.1252747802734375,0,0,0.84084
2.101594494015444,0,0,1.1252747802734375,0,0,0.30576000000000003
2.102980996016413,0,0,1.0773907470703123,0,0,0.22932
2.104368571017403,0,0,1.3359645263671873,0,0,0.45864
2.1058067200065125,0,0,1.3838485595703125,0,0,0.7644
2.1072550540266093,0,0,1.2713210815429687,0,0,0.91728
2.1086766480002552,0,0,1.3575123413085937,0,0,0.91728
2.1101077040075324,0,0,1.0031704956054688,0,0,0.45864
2.1115533160045743,0,0,0.8954314208984374,0,0,0.6115200000000001
2.112989502027631,0,0,1.0127473022460938,0,0,1.1465999999999998
2.1144241690053605,0,0,1.6160861206054686,0,0,1.1465999999999998
2.1159455950255506,0,0,1.6208745239257811,0,0,0.91728
2.1174482430214994,0,0,1.5394716674804687,0,0,0.68796
2.1189126700046472,0,0,1.1875240234375,0,0,1.1465999999999998
2.120411355019314,0,0,1.0462661254882812,0,0,0.6115200000000001
2.1218551520141773,0,0,1.0821791503906248,0,0,0.6115200000000001
2.123307208006736,0,0,1.20667763671875,0,0,0.6115200000000001
2.124804134014994,0,0,1.438915197753906,0,0,0.45864
2.126242431026185,0,0,1.39821376953125,0,0,0.68796
2.1276271550159436,0,0,1.5969325073242187,0,0,0.84084
2.1290070450049825,0,0,1.1228805786132812,0,0,0.7644
2.1303851950215176,0,0,1.0199299072265624,0,0,0.53508
2.1317652520083357,0,0,0.9744400756835937,0,0,0.45864
2.133143179002218,0,0,1.1372457885742187,0,0,0.45864
2.134523329004878,0,0,1.4796166259765624,0,0,1.07016
2.1359059600217734,0,0,1.7429788085937499,0,0,1.07016
2.137284462020034,0,0,1.448492004394531,0,0,0.91728
2.1386630370107014,0,0,1.4891934326171874,0,0,1.2230400000000001
2.1400419650017284,0,0,1.1707646118164061,0,0,0.99372
2.1414197070116643,0,0,1.2713210815429687,0,0,0.84084
2.142797968001105,0,0,1.2761094848632812,0,0,0.68796
2.144176932022674,0,0,1.1516109985351561,0,0,0.91728
2.1455551010149065,0,0,1.3479355346679687,0,0,1.1465999999999998
2.1469337320013437,0,0,1.3024457031249999,0,0,0.6115200000000001
2.148312530014664,0,0,1.35990654296875,0,0,0.91728
2.1496904200175777,0,0,1.3958195678710936,0,0,0.7644
2.151069922023453,0,0,1.197100830078125,0,0,0.7644
2.1524478120263666,0,0,1.2330138549804688,0,0,0.7644
2.153825740009779,0,0,1.1755530151367186,0,0,0.84084
2.155220315005863,0,0,1.1851298217773436,0,0,0.6115200000000001
2.156598465022398,0,0,1.2497732666015624,0,0,0.91728
2.1579768920200877,0,0,1.2976572998046874,0,0,0.45864
2.159371319023194,0,0,1.5251064575195312,0,0,0.53508
2.1607510250178166,0,0,1.4508862060546874,0,0,0.68796
2.1621463780174963,0,0,1.2425906616210938,0,0,0.91728
2.163536638021469,0,0,0.9241618408203125,0,0,0.99372
2.164914603024954,0,0,1.1468225952148436,0,0,0.84084
2.1662929560116027,0,0,1.158793603515625,0,0,0.68796
2.167673828022089,0,0,1.4053963745117186,0,0,0.45864
2.1690528300241567,0,0,1.5682020874023437,0,0,0.91728
2.1704314240196254,0,0,1.7118541870117185,0,0,1.07016
2.171819481009152,0,0,1.5059528442382812,0,0,0.84084
2.1732067970151547,0,0,1.2114660400390624,0,0,1.2230400000000001
2.1745941130211577,0,0,1.3455413330078123,0,0,0.53508
2.175977356004296,0,0,1.216254443359375,0,0,0.84084
2.177356005006004,0,0,1.2880804931640624,0,0,0.7644
2.178734285000246,0,0,1.37906015625,0,0,0.53508
2.1801219530170783,0,0,1.43652099609375,0,0,0.68796
2.181508028006647,0,0,1.5777788940429687,0,0,0.84084
2.182894418016076,0,0,1.3359645263671873,0,0,0.91728
2.184280364017468,0,0,1.1659762084960936,0,0,0.68796
2.185677717003273,0,0,1.1013327636718748,0,0,0.68796
2.187066737009445,0,0,1.0342951171875,0,0,0.53508
2.1884527200018056,0,0,1.2665326782226562,0,0,0.84084
2.189838888007216,0,0,1.2521674682617188,0,0,0.68796
2.191225482005393,0,0,1.4820108276367188,0,0,0.6115200000000001
2.1926100390264764,0,0,1.4628572143554686,0,0,1.07016
2.193996337009594,0,0,1.2761094848632812,0,0,1.1465999999999998
2.1953828390105627,0,0,1.1755530151367186,0,0,0.53508
2.1967679700173903,0,0,1.139639990234375,0,0,0.7644
2.1981538600230124,0,0,1.2761094848632812,0,0,0.7644
2.1995396760175936,0,0,1.2880804931640624,0,0,0.3822
2.200924937002128,0,0,1.3766659545898436,0,0,0.7644
2.202310994005529,0,0,1.5083470458984374,0,0,0.7644
2.2036967360181734,0,0,1.4628572143554686,0,0,1.07016
2.205090552015463,0,0,1.2952630981445312,0,0,0.84084
2.206477054016432,0,0,1.199495031738281,0,0,0.68796
2.2078722590231337,0,0,1.199495031738281,0,0,0.53508
2.2092579080199357,0,0,1.1276689819335937,0,0,0.6115200000000001
2.21064322500024,0,0,1.4532804077148436,0,0,0.30576000000000003
2.2120290599996224,0,0,1.4173673828125,0,0,-8.867040000000001
2.2134159130218904,0,0,1.5083470458984374,0,0,0.99372
2.214801655005431,0,0,1.2808978881835937,0,0,1.07016
2.2161881750216708,0,0,1.2138602416992186,0,0,0.99372
2.217584584024735,0,0,1.1444283935546875,0,0,0.7644
2.218970789021114,0,0,1.0654197387695312,0,0,0.53508
2.2203573640144896,0,0,1.189918225097656,0,0,0.91728
2.221743199013872,0,0,1.3168109130859373,0,0,0.6115200000000001
2.2231405340135098,0,0,1.438915197753906,0,0,0.99372
2.2245294240128715,0,0,1.446097802734375,0,0,0.7644
2.225914944021497,0,0,1.2378022583007813,0,0,1.1465999999999998
2.227302186016459,0,0,1.1707646118164061,0,0,1.07016
2.2286875390273053,0,0,1.3479355346679687,0,0,0.30576000000000003
2.2300736520264763,0,0,1.2282254516601563,0,0,0.30576000000000003
2.23146037600236,0,0,1.24498486328125,0,0,0.68796
2.2328458960109856,0,0,1.6328455322265625,0,0,0.45864
2.2342315270216204,0,0,1.4724340209960938,0,0,0.84084
2.235617602011189,0,0,1.6424223388671875,0,0,0.7644
2.2370037700165994,0,0,1.2832920898437499,0,0,0.84084
2.23838975300896,0,0,1.1324573852539062,0,0,0.7644
2.2397754580015317,0,0,1.1180921752929687,0,0,0.84084
2.2411610710259993,0,0,1.1563994018554686,0,0,0.68796
2.242546832014341,0,0,1.4987702392578124,0,0,0.22932
2.243932481011143,0,0,1.4437036010742186,0,0,0.99372
2.245321223017527,0,0,1.5682020874023437,0,0,0.68796
2.246707280020928,0,0,1.3575123413085937,0,0,0.53508
2.2480936710198876,0,0,1.1109095703125,0,0,0.84084
2.2494897460273933,0,0,1.0917559570312498,0,0,0.53508
2.2508755440067034,0,0,1.1875240234375,0,0,0.7644
2.2522596190101467,0,0,1.2330138549804688,0,0,0.68796
2.253643139003543,0,0,1.5083470458984374,0,0,0.30576000000000003
2.2552516940049827,0,0,1.3766659545898436,0,0,0.99372
2.256632029020693,0,0,1.6136919189453125,0,0,0.7644
2.258028178010136,0,0,1.1731588134765625,0,0,0.99372
2.2594088280166034,0,0,1.2306196533203124,0,0,0.6115200000000001
2.260787663020892,0,0,1.139639990234375,0,0,0.7644
2.2621815530001186,0,0,1.0941501586914062,0,0,0.53508
2.263563480024459,0,0,1.2617442749023438,0,0,0.99372
2.2649426300195046,0,0,1.4604630126953124,0,0,0.68796
2.2663207610021345,0,0,1.448492004394531,0,0,0.53508
2.2677004290162586,0,0,1.5921441040039062,0,0,0.7644
2.2690784860169515,0,0,1.35990654296875,0,0,0.99372
2.270456747006392,0,0,1.3048399047851562,0,0,0.68796
2.2718365820182953,0,0,1.1228805786132812,0,0,0.84084
2.2732151390227955,0,0,1.0941501586914062,0,0,0.22932
2.274593400012236,0,0,1.5107412475585937,0,0,0.45864
2.2759925680002198,0,0,1.5083470458984374,0,0,0.53508
2.277379051025491,0,0,1.5634136840820312,0,0,0.7644
2.278764923015842,0,0,1.4508862060546874,0,0,0.7644
2.2801508130214643,0,0,1.1276689819335937,0,0,-8.71416
2.281538425013423,0,0,1.0582371337890624,0,0,0.68796
2.282924612023635,0,0,1.24498486328125,0,0,0.84084
2.2843107799999416,0,0,1.2856862915039062,0,0,0.53508
2.285696133010788,0,0,1.438915197753906,0,0,0.22932
2.2870829310268164,0,0,1.3120225097656248,0,0,0.91728
2.288474118016893,0,0,1.5729904907226562,0,0,0.99372
2.289859823009465,0,0,1.2569558715820313,0,0,0.84084
2.2912467690184712,0,0,1.16837041015625,0,0,0.84084
2.2926393070083577,0,0,1.0199299072265624,0,0,0.53508
2.2940257160225883,0,0,1.120486376953125,0,0,0.7644
2.295411977014737,0,0,1.3670891479492187,0,0,0.7644
2.296797923016129,0,0,1.4915876342773438,0,0,0.84084
2.2981836649996694,0,0,1.4413093994140624,0,0,0.68796
2.2995747400273103,0,0,1.6472107421875,0,0,1.1465999999999998
2.3009607230196707,0,0,1.2521674682617188,0,0,0.99372
2.302346947020851,0,0,1.2018892333984375,0,0,0.6115200000000001
2.303732800006401,0,0,1.1516109985351561,0,0,0.7644
2.3051187280216254,0,0,1.1659762084960936,0,0,0.22932
2.306504581007175,0,0,1.3168109130859373,0,0,0.84084
2.3078908040188253,0,0,1.5011644409179687,0,0,0.53508
2.3092766760091763,0,0,1.429338391113281,0,0,0.91728
2.3106624930223916,0,0,1.4341267944335936,0,0,0.68796
2.312048735009739,0,0,1.22583125,0,0,0.99372
2.313434531999519,0,0,1.1755530151367186,0,0,0.91728
2.314820071012946,0,0,1.1875240234375,0,0,0.84084
2.3162056090077385,0,0,1.1252747802734375,0,0,0.53508
2.317591926024761,0,0,1.3024457031249999,0,0,0.30576000000000003
2.318977964023361,0,0,1.3215993164062498,0,0,0.68796
2.320363780017942,0,0,1.467645617675781,0,0,0.68796
2.3217496710130945,0,0,1.4437036010742186,0,0,0.91728
2.323140857013641,0,0,1.1611878051757811,0,0,1.07016
2.324524822004605,0,0,1.1228805786132812,0,0,0.68796
2.3259106379991863,0,0,1.0893617553710937,0,0,0.7644
2.3272973429993726,0,0,1.2378022583007813,0,0,0.99372
2.328683196014026,0,0,1.2473790649414063,0,0,0.6115200000000001
2.3300690870091785,0,0,1.3431471313476562,0,0,0.6115200000000001
2.3314561620063614,0,0,1.4173673828125,0,0,0.68796
2.332841349008959,0,0,1.3431471313476562,0,0,0.91728
2.3342942380113527,0,0,1.3215993164062498,0,0,0.91728
2.335753832012415,0,0,1.1923124267578125,0,0,0.68796
2.3371592220210005,0,0,1.177947216796875,0,0,0.53508
2.338546519022202,0,0,1.3311761230468748,0,0,0.91728
2.339933262002887,0,0,1.4317325927734375,0,0,0.7644
2.3413196700275876,0,0,1.3359645263671873,0,0,1.07016
2.3427059310197365,0,0,1.656787548828125,0,0,0.53508
2.344092247018125,0,0,1.1707646118164061,0,0,0.91728
2.345478433999233,0,0,1.1923124267578125,0,0,0.68796
2.346863843005849,0,0,1.0678139404296874,0,0,0.84084
2.348250844021095,0,0,1.1013327636718748,0,0,0.45864
2.3496369940112345,0,0,1.3120225097656248,0,0,0.6115200000000001
2.35102381001343,0,0,1.3910311645507811,0,0,0.99372
2.352407997008413,0,0,1.3910311645507811,0,0,1.2230400000000001
2.3542311600176618,0,0,1.20667763671875,0,0,0.84084
2.355664419999812,0,0,1.218648645019531,0,0,0.91728
2.357045477023348,0,0,1.1516109985351561,0,0,0.7644
2.358427682018373,0,0,1.1611878051757811,0,0,0.53508
2.3598099060181994,0,0,1.3072341064453123,0,0,0.84084
2.3611885550199077,0,0,1.3910311645507811,0,0,0.45864
2.3625668160093483,0,0,1.2282254516601563,0,0,0.6115200000000001
2.363964410003973,0,0,1.4867992309570313,0,0,0.99372
2.365342541015707,0,0,1.1420341918945311,0,0,0.84084
2.3667208200204186,0,0,1.1707646118164061,0,0,0.84084
2.368111026007682,0,0,1.1061211669921875,0,0,0.6115200000000001
2.369489101023646,0,0,1.2665326782226562,0,0,0.45864
2.3708672690263484,0,0,1.3215993164062498,0,0,0.7644
2.372246401006123,0,0,1.467645617675781,0,0,0.7644
2.3736242170271,0,0,1.4221557861328125,0,0,1.07016
2.375016403006157,0,0,1.388636962890625,0,0,0.45864
2.376405146002071,0,0,1.3120225097656248,0,0,0.91728
2.3777914990205318,0,0,1.1324573852539062,0,0,0.53508
2.3791791300172918,0,0,1.1635820068359375,0,0,0.84084
2.380577483010711,0,0,1.1252747802734375,0,0,0.68796
2.3819642810267396,0,0,1.3862427612304686,0,0,0.3822
2.383351245021913,0,0,1.5131354492187499,0,0,0.68796
2.384736858017277,0,0,1.5370774658203123,0,0,0.99372
2.3861230440088548,0,0,1.2737152832031249,0,0,0.84084
2.387510063999798,0,0,1.1923124267578125,0,0,0.91728
2.3888958810130134,0,0,1.0773907470703123,0,0,0.45864
2.3902818270144053,0,0,1.2138602416992186,0,0,0.91728
2.3916684389987495,0,0,1.2138602416992186,0,0,0.6115200000000001
2.3930742550001014,0,0,1.467645617675781,0,0,0.30576000000000003
2.394461775023956,0,0,1.4173673828125,0,0,0.84084
2.3958480170113035,0,0,1.4867992309570313,0,0,1.07016
2.3972341480257455,0,0,1.189918225097656,0,0,0.68796
2.39862094601267,0,0,1.1420341918945311,0,0,0.84084
2.4000075030198786,0,0,1.180341418457031,0,0,0.68796
2.4013932080124505,0,0,1.180341418457031,0,0,0.3822
2.402779524010839,0,0,1.3096283081054687,0,0,1.07016
2.40416582202306,0,0,1.5227122558593749,0,0,0.84084
2.405552175012417,0,0,1.4508862060546874,0,0,0.84084
2.406938677013386,0,0,1.369483349609375,0,0,0.7644
2.4083250860276166,0,0,1.3383587280273437,0,0,1.1465999999999998
2.4097114200121723,0,0,1.1013327636718748,0,0,0.84084
2.411111237015575,0,0,1.13006318359375,0,0,0.68796
2.412497608020203,0,0,1.0773907470703123,0,0,-9.24924
2.413885536021553,0,0,1.3407529296874998,0,0,0.22932
2.4152730560163036,0,0,1.4413093994140624,0,0,0.91728
2.4166579830052797,0,0,1.4700398193359374,0,0,0.84084
2.418044225021731,0,0,1.2018892333984375,0,0,0.6115200000000001
2.419431449001422,0,0,1.1755530151367186,0,0,0.68796
2.4208168020122685,0,0,1.1228805786132812,0,0,0.53508
2.422203341004206,0,0,1.139639990234375,0,0,0.68796
2.423590268008411,0,0,1.1755530151367186,0,0,0.6115200000000001
2.4249835470109247,0,0,1.3862427612304686,0,0,0.3822
2.4263699750008527,0,0,1.5107412475585937,0,0,0.7644
2.4277563090145122,0,0,1.4437036010742186,0,0,0.91728
2.429142255015904,0,0,1.3287819213867187,0,0,0.7644
2.430528201017296,0,0,1.2425906616210938,0,0,0.68796
2.431914943008451,0,0,1.2569558715820313,0,0,0.68796
2.433300852018874,0,0,1.2042834350585936,0,0,1.2994800000000002
2.434686798020266,0,0,1.3287819213867187,0,0,1.07016
2.436072985001374,0,0,1.458068811035156,0,0,0.53508
2.4374587270140182,0,0,1.4820108276367188,0,0,0.7644
2.438844654010609,0,0,1.4987702392578124,0,0,0.68796
2.440230063017225,0,0,1.1372457885742187,0,0,0.84084
2.4416160830005538,0,0,1.0965443603515623,0,0,0.84084
2.4430118620221037,0,0,1.0821791503906248,0,0,0.7644
2.444398475025082,0,0,1.0893617553710937,0,0,0.22932
2.4457849210011773,0,0,1.4245499877929686,0,0,0.68796
2.447171829000581,0,0,1.5753846923828123,0,0,0.68796
2.448557368014008,0,0,1.39821376953125,0,0,0.7644
2.449943240004359,0,0,1.429338391113281,0,0,0.7644
2.4513372600195,0,0,1.2114660400390624,0,0,0.68796
2.4527231870160904,0,0,1.20667763671875,0,0,0.68796
2.454109855025308,0,0,1.1540052001953125,0,0,0.99372
2.4555148190120235,0,0,1.1827356201171875,0,0,0.6115200000000001
2.4569114690239076,0,0,1.429338391113281,0,0,0.45864
2.458292766008526,0,0,1.47482822265625,0,0,0.6115200000000001
2.459674175013788,0,0,1.4820108276367188,0,0,0.53508
2.46107073200983,0,0,1.2569558715820313,0,0,0.68796
2.4624513080052566,0,0,1.120486376953125,0,0,1.07016
2.4638317720091436,0,0,1.180341418457031,0,0,0.7644
2.465210737020243,0,0,1.3263877197265623,0,0,0.7644
2.466589109011693,0,0,1.1827356201171875,0,0,0.68796
2.467979147011647,0,0,1.5203180541992187,0,0,0.3822
2.469358019006904,0,0,1.448492004394531,0,0,0.84084
2.470736317016417,0,0,1.5370774658203123,0,0,0.7644
2.4721159850014374,0,0,1.2832920898437499,0,0,20
2.473494820005726,0,0,1.3575123413085937,0,0,0.84084
2.4748731730214786,0,0,1.1923124267578125,0,0,0.7644
2.4762532300082967,0,0,1.0869675537109373,0,0,0.53508
2.4776314540067688,0,0,1.4245499877929686,0,0,0.68796
2.479014807002386,0,0,1.5682020874023437,0,0,0.3822
2.480402661021799,0,0,1.4221557861328125,0,0,0.53508
2.4817896440217737,0,0,1.4221557861328125,0,0,0.91728
2.4831773300247733,0,0,1.0893617553710937,0,0,0.84084
2.48456398001872,0,0,1.3623007446289062,0,0,0.7644
2.4859513890114613,0,0,1.20667763671875,0,0,0.7644
2.487338909006212,0,0,1.2114660400390624,0,0,0.3822
2.4887250950268935,0,0,1.388636962890625,0,0,-9.172799999999999
2.490113134001149,0,0,1.426944189453125,0,0,0.91728
2.4915012280107476,0,0,1.455674609375,0,0,0.91728
2.4928879140061326,0,0,1.4508862060546874,0,0,0.7644
2.494274786004098,0,0,1.1755530151367186,0,0,0.91728
2.495661769004073,0,0,1.1540052001953125,0,0,0.7644
2.4970488820108585,0,0,1.1372457885742187,0,0,0.6115200000000001
2.4984357530192938,0,0,1.2952630981445312,0,0,0.45864
2.4998226989991963,0,0,1.37906015625,0,0,0.22932
2.5012096450082026,0,0,1.4317325927734375,0,0,0.84084
2.5025957390025724,0,0,1.5729904907226562,0,0,0.68796
2.5039829810266383,0,0,1.2856862915039062,0,0,0.7644
2.505370168015361,0,0,1.0797849487304687,0,0,1.07016
2.506756779999705,0,0,1.1109095703125,0,0,0.91728
2.5081495410122443,0,0,1.216254443359375,0,0,0.6115200000000001
2.50953641301021,0,0,1.1563994018554686,0,0,0.99372
2.510935710015474,0,0,1.5035586425781249,0,0,0.68796
2.5123304160078987,0,0,1.4604630126953124,0,0,0.7644
2.513717213005293,0,0,1.4437036010742186,0,0,0.91728
2.5151200480177067,0,0,1.20667763671875,0,0,1.1465999999999998
2.5165074380056467,0,0,1.3407529296874998,0,0,0.91728
2.5178942730126437,0,0,1.1875240234375,0,0,0.7644
2.519281774002593,0,0,1.139639990234375,0,0,0.53508
2.5206677759997547,0,0,1.3862427612304686,0,0,1.2230400000000001
2.5220542220049538,0,0,1.350329736328125,0,0,0.84084
2.5234420010237955,0,0,1.3096283081054687,0,0,0.99372
2.524827984016156,0,0,1.4508862060546874,0,0,0.7644
2.5262145410233643,0,0,1.158793603515625,0,0,0.68796
2.5276016900024842,0,0,1.1109095703125,0,0,0.7644
2.528987933008466,0,0,1.139639990234375,0,0,0.91728
2.530374323017895,0,0,1.1755530151367186,0,0,0.68796
2.5318512490193825,0,0,1.4245499877929686,0,0,0.53508
2.533278083021287,0,0,1.5179238525390624,0,0,0.91728
2.5346667890262324,0,0,1.4724340209960938,0,0,0.91728
2.536054457013961,0,0,1.3383587280273437,0,0,0.7644
2.5374415880069137,0,0,1.1276689819335937,0,0,0.7644
2.5388286450179294,0,0,1.149216796875,0,0,0.6115200000000001
2.540219942020485,0,0,1.2665326782226562,0,0,0.84084
2.541606536018662,0,0,1.3766659545898436,0,0,0.53508
2.5430084450053982,0,0,1.4987702392578124,0,0,0.22932
2.544396798009984,0,0,1.5131354492187499,0,0,0.84084
2.5457835960260127,0,0,1.5155296508789062,0,0,0.84084
2.5471745600225404,0,0,1.3407529296874998,0,0,0.99372
2.5486625980120152,0,0,1.209071838378906,0,0,0.68796
2.550113413017243,0,0,1.2138602416992186,0,0,0.84084
2.551510748016881,0,0,1.2234370483398436,0,0,0.6115200000000001
2.552915692998795,0,0,1.2785036865234374,0,0,1.1465999999999998
2.5543053980218247,0,0,1.39821376953125,0,0,0.7644
2.5557064739987254,0,0,1.4221557861328125,0,0,0.91728
2.557096401025774,0,0,1.467645617675781,0,0,0.84084
2.558483625005465,0,0,1.177947216796875,0,0,0.99372
2.5598709220066667,0,0,1.0462661254882812,0,0,0.68796
2.5612578130094334,0,0,1.199495031738281,0,0,0.6115200000000001
2.562644629011629,0,0,1.2689268798828124,0,0,0.53508
2.564031945017632,0,0,1.4030021728515625,0,0,0.53508
2.5654186500178184,0,0,1.465251416015625,0,0,0.7644
2.5668111700215377,0,0,1.4101847778320311,0,0,0.7644
2.568197690008674,0,0,1.2401964599609374,0,0,0.6115200000000001
2.5695935800031293,0,0,1.149216796875,0,0,0.91728
2.5709804150101263,0,0,1.2018892333984375,0,0,0.68796
2.5723607320105657,0,0,1.0773907470703123,0,0,0.7644
2.5737390290014446,0,0,1.467645617675781,0,0,0.53508
2.5751349570055027,0,0,1.4053963745117186,0,0,0.53508
2.5765215319988783,0,0,1.3048399047851562,0,0,0.7644
2.5779080339998472,0,0,1.458068811035156,0,0,0.91728
2.57929535000585,0,0,1.2785036865234374,0,0,0.91728
2.580681129009463,0,0,1.13006318359375,0,0,0.99372
2.5820673530106433,0,0,1.1659762084960936,0,0,0.30576000000000003
2.5834547800186556,0,0,1.2210428466796874,0,0,0.53508
2.5849007250217255,0,0,1.419761584472656,0,0,1.1465999999999998
2.5863503180153202,0,0,1.6328455322265625,0,0,-9.24924
2.5877830230165273,0,0,1.3838485595703125,0,0,0.7644
2.589169523998862,0,0,1.407790576171875,0,0,0.68796
2.590556285023922,0,0,1.177947216796875,0,0,1.2230400000000001
2.5919438610144425,0,0,1.2234370483398436,0,0,0.7644
2.5933303070196416,0,0,1.20667763671875,0,0,0.7644
2.5947167340200394,0,0,1.2952630981445312,0,0,0.3822
2.5961108460032847,0,0,1.2689268798828124,0,0,0.7644
2.5974968660157174,0,0,1.3431471313476562,0,0,0.7644
2.5988835530006327,0,0,1.407790576171875,0,0,1.2230400000000001
2.6002892760152463,0,0,1.3910311645507811,0,0,0.84084
2.6016750740236603,0,0,1.1707646118164061,0,0,1.07016
2.603063316026237,0,0,1.139639990234375,0,0,0.45864
2.604449762002332,0,0,1.0773907470703123,0,0,0.68796
2.6058359120215755,0,0,1.254561669921875,0,0,0.6115200000000001
2.6072230800054967,0,0,1.5107412475585937,0,0,0.53508
2.608608581009321,0,0,1.3335703247070312,0,0,0.3822
2.609994546015514,0,0,1.5035586425781249,0,0,1.07016
2.611381214024732,0,0,1.455674609375,0,0,0.84084
2.6127785480057355,0,0,1.1731588134765625,0,0,0.84084
2.6142395670176484,0,0,1.1827356201171875,0,0,0.6115200000000001
2.615629087027628,0,0,1.2234370483398436,0,0,0.68796
2.6170157000015024,0,0,1.3551181396484375,0,0,0.91728
2.6184024050016887,0,0,1.455674609375,0,0,0.91728
2.619789332005894,0,0,1.39821376953125,0,0,1.07016
2.6211760750156827,0,0,1.5227122558593749,0,0,0.6115200000000001
2.622567650018027,0,0,1.2018892333984375,0,0,0.99372
2.6239866140240338,0,0,1.1372457885742187,0,0,0.53508
2.6253739860258065,0,0,1.209071838378906,0,0,0.7644
2.6267603390151635,0,0,1.2737152832031249,0,0,0.84084
2.6281661740213167,0,0,1.5035586425781249,0,0,0.7644
2.629552452999633,0,0,1.4820108276367188,0,0,0.91728
2.630938343005255,0,0,1.3766659545898436,0,0,0.53508
2.6323251410212833,0,0,1.5203180541992187,0,0,0.45864
2.633713531016838,0,0,1.2306196533203124,0,0,0.84084
2.635118477017386,0,0,1.1180921752929687,0,0,0.6115200000000001
2.636505552014569,0,0,1.1444283935546875,0,0,0.84084
2.637891998019768,0,0,1.22583125,0,0,0.45864
2.6392787780205254,0,0,1.3958195678710936,0,0,-9.24924
2.640667094005039,0,0,1.3623007446289062,0,0,0.68796
2.6420533360214904,0,0,1.5227122558593749,0,0,0.91728
2.643455152021488,0,0,1.199495031738281,0,0,0.91728
2.6448424130212516,0,0,1.1947066284179686,0,0,0.91728
2.646229118021438,0,0,1.0726023437499999,0,0,0.91728
2.6476156010176055,0,0,1.218648645019531,0,0,0.45864
2.649002065008972,0,0,1.1013327636718748,0,0,0.91728
2.650388122012373,0,0,1.4125789794921875,0,0,0.68796
2.6517745120218024,0,0,1.2761094848632812,0,0,0.91728
2.6531607920187525,0,0,1.458068811035156,0,0,0.68796
2.6545470340061,0,0,1.0869675537109373,0,0,-9.01992
2.6562939010036644,0,0,1.216254443359375,0,0,1.07016
2.6576774210261647,0,0,1.120486376953125,0,0,0.6115200000000001
2.659083571023075,0,0,1.1731588134765625,0,0,0.6115200000000001
2.660479183017742,0,0,1.465251416015625,0,0,0.3822
2.6618608700227924,0,0,1.458068811035156,0,0,0.68796
2.6632419640081935,0,0,1.2832920898437499,0,0,0.6115200000000001
2.664620576018933,0,0,1.1875240234375,0,0,0.7644
2.665998837008374,0,0,1.1540052001953125,0,0,0.7644
2.6673788570042234,0,0,1.2018892333984375,0,0,0.53508
2.6687721550115384,0,0,1.1875240234375,0,0,0.53508
2.670187600015197,0,0,1.2713210815429687,0,0,0.7644
2.671572676015785,0,0,1.5514426757812498,0,0,0.15288000000000002
2.6729539000079967,0,0,1.438915197753906,0,0,0.7644
2.6743329200253356,0,0,1.4245499877929686,0,0,0.91728
2.67571499501355,0,0,1.1731588134765625,0,0,1.07016
2.677093052014243,0,0,1.24498486328125,0,0,0.7644
2.678471350023756,0,0,1.209071838378906,0,0,0.7644
2.6798609630204737,0,0,1.197100830078125,0,0,0.45864
2.6812581680133007,0,0,1.1133037719726562,0,0,0.91728
2.682644854008686,0,0,1.5059528442382812,0,0,0.84084
2.684032171004219,0,0,1.3646949462890625,0,0,0.6115200000000001
2.6854190790036228,0,0,1.429338391113281,0,0,0.53508
2.686822857998777,0,0,1.180341418457031,0,0,0.84084
2.6882179340173025,0,0,1.3383587280273437,0,0,0.6115200000000001
2.6896045460016467,0,0,1.2018892333984375,0,0,0.7644
2.691006400011247,0,0,1.3383587280273437,0,0,0.45864
2.6923943080182653,0,0,1.4532804077148436,0,0,0.6115200000000001
2.6937810690142214,0,0,1.5466542724609373,0,0,0.6115200000000001
2.6951687740220223,0,0,1.4987702392578124,0,0,0.91728
2.6965545720013324,0,0,1.2904746948242187,0,0,0.53508
2.6979412030195817,0,0,1.1156979736328125,0,0,0.68796
2.699328445014544,0,0,1.158793603515625,0,0,0.6115200000000001
2.700715131999459,0,0,1.0821791503906248,0,0,0.7644
2.7021020040265284,0,0,1.369483349609375,0,0,0.68796
2.703489524021279,0,0,1.5131354492187499,0,0,0.6115200000000001
2.7048765800136607,0,0,1.4820108276367188,0,0,0.84084
2.7062633970053867,0,0,1.4796166259765624,0,0,1.1465999999999998
2.7076502320123836,0,0,1.2234370483398436,0,0,0.99372
2.7090365850017406,0,0,1.139639990234375,0,0,0.91728
2.710423937998712,0,0,1.1444283935546875,0,0,0.45864
2.7118109770235606,0,0,1.2210428466796874,0,0,0.53508
2.7131980710255448,0,0,1.3742717529296875,0,0,-8.943480000000001
2.7145870350068435,0,0,1.465251416015625,0,0,0.68796
2.71597398101585,0,0,1.3766659545898436,0,0,0.84084
2.7173609640158247,0,0,1.4245499877929686,0,0,1.07016
2.7187474470119923,0,0,1.2210428466796874,0,0,0.84084
2.7201341520121787,0,0,1.3120225097656248,0,0,0.6115200000000001
2.7215207460103557,0,0,1.1444283935546875,0,0,0.6115200000000001
2.722907210001722,0,0,1.1635820068359375,0,0,0.53508
2.724293989012949,0,0,1.3048399047851562,0,0,0.45864
2.7256811760016717,0,0,1.4820108276367188,0,0,0.99372
2.7270683440146968,0,0,1.3575123413085937,0,0,0.7644
2.728454383002827,0,0,1.4245499877929686,0,0,0.68796
2.729841403022874,0,0,1.2282254516601563,0,0,0.91728
2.731236126011936,0,0,1.1013327636718748,0,0,0.53508
2.7326226830191445,0,0,1.1516109985351561,0,0,0.7644
2.7340095180261414,0,0,1.177947216796875,0,0,0.68796
2.7353969270188827,0,0,1.4772224243164063,0,0,0.3822
2.736783373024082,0,0,1.467645617675781,0,0,0.84084
2.7381698740064166,0,0,1.3359645263671873,0,0,0.68796
2.739556968008401,0,0,1.235408056640625,0,0,0.91728
2.740943431999767,0,0,1.2497732666015624,0,0,1.07016
2.742330508015584,0,0,1.1468225952148436,0,0,0.6115200000000001
2.7437172690115403,0,0,1.1563994018554686,0,0,0.68796
2.745119807019364,0,0,1.3072341064453123,0,0,0.53508
2.7465069940080866,0,0,1.5514426757812498,0,0,0.53508
2.7478938280255534,0,0,1.4700398193359374,0,0,0.6115200000000001
2.749280459014699,0,0,1.4245499877929686,0,0,0.91728
2.7506672390154563,0,0,1.1755530151367186,0,0,0.91728
2.7520540180266835,0,0,1.16837041015625,0,0,0.84084
2.7534409450017847,0,0,1.1348515869140625,0,0,0.7644
2.75482781699975,0,0,1.1947066284179686,0,0,0.6115200000000001
2.7562148550059646,0,0,1.3287819213867187,0,0,0.91728
2.7576013010111637,0,0,1.448492004394531,0,0,0.84084
2.7589877100253943,0,0,1.3000515014648437,0,0,0.84084
2.7603932300116867,0,0,1.3215993164062498,0,0,0.91728
2.7617801570158917,0,0,1.20667763671875,0,0,0.84084
2.7631671400158666,0,0,1.3431471313476562,0,0,0.68796
2.7645534010080155,0,0,1.1540052001953125,0,0,0.7644
2.765939791017445,0,0,1.1180921752929687,0,0,0.3822
2.767335255019134,0,0,1.3742717529296875,0,0,1.1465999999999998
2.7687218870269135,0,0,1.4053963745117186,0,0,0.6115200000000001
2.770113962003961,0,0,1.3000515014648437,0,0,0.68796
2.7715029820101336,0,0,1.3144167114257812,0,0,0.7644
2.7728882980009075,0,0,1.158793603515625,0,0,-8.7906
2.7742759110115003,0,0,1.177947216796875,0,0,0.84084
2.775676116027171,0,0,1.1420341918945311,0,0,0.53508
2.7770630990271457,0,0,1.2234370483398436,0,0,0.68796
2.7784493410144933,0,0,1.5394716674804687,0,0,0.45864
2.7798359529988375,0,0,1.467645617675781,0,0,0.84084
2.781222677003825,0,0,1.24498486328125,0,0,0.91728
2.7826091780152638,0,0,1.24498486328125,0,0,0.84084
2.783995958016021,0,0,1.2114660400390624,0,0,0.99372
2.785382552014198,0,0,1.1516109985351561,0,0,0.53508
2.786769164027646,0,0,1.1707646118164061,0,0,0.6115200000000001
2.788155647023814,0,0,1.2330138549804688,0,0,0.6115200000000001
2.789542260026792,0,0,1.4508862060546874,0,0,0.91728
2.790929094015155,0,0,1.5155296508789062,0,0,0.6115200000000001
2.7923157260229345,0,0,1.5155296508789062,0,0,0.99372
2.79370206000749,0,0,1.1851298217773436,0,0,0.91728
2.7950902840238996,0,0,1.1372457885742187,0,0,0.68796
2.796477137017064,0,0,1.1156979736328125,0,0,0.45864
2.7978637680062093,0,0,1.2904746948242187,0,0,-9.32568
2.7992509550240356,0,0,1.2904746948242187,0,0,0.6115200000000001
2.8006375490222126,0,0,1.5107412475585937,0,0,0.84084
2.8020240500045475,0,0,1.2569558715820313,0,0,0.91728
2.8034189220052212,0,0,1.2473790649414063,0,0,0.68796
2.804805015999591,0,0,1.13006318359375,0,0,1.1465999999999998
2.806191480020061,0,0,1.2330138549804688,0,0,0.91728
2.807584593014326,0,0,1.1516109985351561,0,0,0.53508
2.808971187012503,0,0,1.0726023437499999,0,0,0.53508
2.810357485024724,0,0,1.4149731811523436,0,0,0.6115200000000001
2.8117442450020462,0,0,1.448492004394531,0,0,0.7644
2.813130506023299,0,0,1.3383587280273437,0,0,0.45864
2.814516878017457,0,0,1.235408056640625,0,0,0.6115200000000001
2.815903472015634,0,0,1.2138602416992186,0,0,0.68796
2.817290140024852,0,0,1.0438719238281249,0,0,0.53508
2.818684938014485,0,0,1.1276689819335937,0,0,0.7644
2.820072180009447,0,0,1.3383587280273437,0,0,0.6115200000000001
2.8214587370166555,0,0,1.5394716674804687,0,0,0.45864
2.8228451460017823,0,0,1.3479355346679687,0,0,0.68796
2.824225276999641,0,0,1.2689268798828124,0,0,0.7644
2.825603241013596,0,0,1.20667763671875,0,0,0.84084
2.8269808910263237,0,0,1.139639990234375,0,0,0.99372
2.828368300019065,0,0,1.2330138549804688,0,0,0.7644
2.8297541530046146,0,0,1.3431471313476562,0,0,0.3822
2.8311411180184223,0,0,1.2617442749023438,0,0,0.84084
2.832526508020237,0,0,1.4604630126953124,0,0,0.53508
2.8339124910125975,0,0,1.3096283081054687,0,0,0.91728
2.835362399026053,0,0,1.4173673828125,0,0,0.84084
2.836814011010574,0,0,1.2880804931640624,0,0,0.91728
2.838202753016958,0,0,1.3670891479492187,0,0,0.84084
2.8395948280231096,0,0,1.139639990234375,0,0,0.6115200000000001
2.8409812370082363,0,0,1.0845733520507812,0,0,0.53508
2.842367978999391,0,0,1.3311761230468748,0,0,0.3822
2.843754629022442,0,0,1.4317325927734375,0,0,0.68796
2.8451415930176154,0,0,1.3311761230468748,0,0,0.6115200000000001
2.846527761023026,0,0,1.24498486328125,0,0,0.53508
2.8479147810139693,0,0,1.1180921752929687,0,0,1.07016
2.849301098001888,0,0,1.3192051147460937,0,0,0.91728
2.850687451020349,0,0,1.2665326782226562,0,0,0.91728
2.852075249014888,0,0,1.2641384765625,0,0,0.3822
2.853460991027532,0,0,1.458068811035156,0,0,0.68796
2.8548472700058483,0,0,1.3862427612304686,0,0,0.6115200000000001
2.856249419011874,0,0,1.4820108276367188,0,0,0.84084
2.8576456240261905,0,0,1.2593500732421874,0,0,0.84084
2.8590313300082926,0,0,1.2952630981445312,0,0,0.45864
2.8604109610023443,0,0,1.1109095703125,0,0,0.6115200000000001
2.861830647016177,0,0,1.1133037719726562,0,0,0.3822
2.863218852027785,0,0,1.4125789794921875,0,0,1.07016
2.8645982420130167,0,0,1.4700398193359374,0,0,0.45864
2.865976651024539,0,0,1.3072341064453123,0,0,0.91728
2.8673612080165185,0,0,1.35990654296875,0,0,0.91728
2.868741469021188,0,0,1.0941501586914062,0,0,0.7644
2.870119582017651,0,0,1.199495031738281,0,0,0.6115200000000001
2.8714989170257468,0,0,1.2401964599609374,0,0,0.6115200000000001
2.8728773260081653,0,0,1.3335703247070312,0,0,0.68796
2.8742552350158803,0,0,1.369483349609375,0,0,0.7644
2.8756361250125337,0,0,1.4173673828125,0,0,0.91728
2.8770141640270595,0,0,1.2521674682617188,0,0,1.07016
2.8783921650028788,0,0,1.3814543579101561,0,0,0.68796
2.8797724440228194,0,0,1.2497732666015624,0,0,0.91728
2.881150372006232,0,0,1.3120225097656248,0,0,0.84084
2.8825284100021236,0,0,1.197100830078125,0,0,0.30576000000000003
2.8839083930070046,0,0,1.2234370483398436,0,0,0.45864
2.8852865430235397,0,0,1.448492004394531,0,0,0.68796
2.886664637015201,0,0,1.5394716674804687,0,0,0.84084
2.8880595460068434,0,0,1.2713210815429687,0,0,0.84084
2.8894461590098217,0,0,1.2737152832031249,0,0,0.68796
2.8908325300144497,0,0,1.1755530151367186,0,0,1.07016
2.892221847025212,0,0,1.0773907470703123,0,0,0.7644
2.893609718012158,0,0,1.1947066284179686,0,0,0.99372
2.8950151270255446,0,0,1.1563994018554686,0,0,0.84084
2.8964032950170804,0,0,1.467645617675781,0,0,0.3822
2.897789371025283,0,0,1.4820108276367188,0,0,0.6115200000000001
2.899285019026138,0,0,1.4867992309570313,0,0,1.07016
2.9006743720092345,0,0,1.2761094848632812,0,0,0.91728
2.9020611330051906,0,0,1.254561669921875,0,0,0.6115200000000001
2.9034490050107706,0,0,1.1635820068359375,0,0,0.53508
2.9048348020005506,0,0,1.1180921752929687,0,0,0.45864
2.9062371920153964,0,0,1.2976572998046874,0,0,1.07016
2.907624620012939,0,0,1.4724340209960938,0,0,0.68796
2.9090118250169326,0,0,1.3742717529296875,0,0,0.7644
2.910398289008299,0,0,1.369483349609375,0,0,0.99372
2.9117849390022457,0,0,1.1540052001953125,0,0,0.6115200000000001
2.9131708659988362,0,0,1.1707646118164061,0,0,0.68796
2.914557145006256,0,0,1.3048399047851562,0,0,0.68796
2.9159437020134646,0,0,1.3239935180664062,0,0,0.30576000000000003
2.917329667019658,0,0,1.4149731811523436,0,0,0.7644
2.9187157610140275,0,0,1.446097802734375,0,0,0.6115200000000001
2.920109651022358,0,0,1.3479355346679687,0,0,1.07016
2.9214959860255476,0,0,1.3263877197265623,0,0,0.68796
2.9228821910219267,0,0,1.216254443359375,0,0,0.84084
2.924268730013864,0,0,1.13006318359375,0,0,0.84084
2.925654694001423,0,0,1.1228805786132812,0,0,0.68796
2.927053399005672,0,0,1.1252747802734375,0,0,0.30576000000000003
2.9284402890189085,0,0,1.3814543579101561,0,0,0.45864
2.92982605000725,0,0,1.4413093994140624,0,0,0.53508
2.9312130140024237,0,0,1.419761584472656,0,0,0.68796
2.932598201005021,0,0,1.3120225097656248,0,0,0.84084
2.933984554023482,0,0,1.1085153686523437,0,0,0.84084
2.935371371015208,0,0,1.1947066284179686,0,0,0.7644
2.9367563530104235,0,0,1.16837041015625,0,0,0.45864
2.938142503000563,0,0,1.3718775512695311,0,0,0.84084
2.939538430015091,0,0,1.4867992309570313,0,0,0.68796
2.9409241730172653,0,0,1.4030021728515625,0,0,-8.943480000000001
2.9423116740072146,0,0,1.4053963745117186,0,0,0.7644
2.9436984350031707,0,0,1.0989385620117187,0,0,0.68796
2.9450860659999307,0,0,1.3048399047851562,0,0,0.68796
2.946471975010354,0,0,1.0749965454101562,0,0,0.84084
2.947858402010752,0,0,1.2665326782226562,0,0,0.68796
2.949244366027415,0,0,1.4030021728515625,0,0,1.07016
2.9506378680234775,0,0,1.448492004394531,0,0,0.68796
2.952024332014844,0,0,1.419761584472656,0,0,0.99372
2.953410222020466,0,0,1.369483349609375,0,0,0.68796
2.9547962420037948,0,0,1.13006318359375,0,0,0.53508
2.956184447015403,0,0,1.1420341918945311,0,0,0.68796
2.9575712640071288,0,0,1.139639990234375,0,0,0.53508
2.9589572280237917,0,0,1.2785036865234374,0,0,0.53508
2.9603435630269814,0,0,1.3862427612304686,0,0,0.6115200000000001
2.9617296750075184,0,0,1.446097802734375,0,0,0.84084
2.963117362000048,0,0,1.5610194824218748,0,0,0.68796
2.9645021600008477,0,0,1.4006079711914061,0,0,0.7644
2.9658882910152897,0,0,1.2641384765625,0,0,0.99372
2.9672754400235135,0,0,1.1827356201171875,0,0,0.7644
2.968660960003035,0,0,1.2617442749023438,0,0,0.45864
2.9700478320010006,0,0,1.2330138549804688,0,0,0.45864
2.9714341860089917,0,0,1.4724340209960938,0,0,0.6115200000000001
2.9728193350019865,0,0,1.5035586425781249,0,0,0.91728
2.9742055400274694,0,0,1.5275006591796874,0,0,0.68796
2.975591763999546,0,0,1.3120225097656248,0,0,0.68796
2.976977951009758,0,0,1.209071838378906,0,0,0.68796
2.9783729890186805,0,0,1.0606313354492187,0,0,0.45864
2.979761620023055,0,0,1.1827356201171875,0,0,0.53508
2.981147492013406,0,0,1.3742717529296875,0,0,1.07016
2.9825334190099966,0,0,1.4724340209960938,0,0,0.7644
2.9839195500244386,0,0,1.407790576171875,0,0,1.07016
2.985305589012569,0,0,1.4604630126953124,0,0,1.07016
2.9866918309999164,0,0,1.1013327636718748,0,0,0.91728
2.9881640170060564,0,0,1.1755530151367186,0,0,0.6115200000000001
2.9895688140240964,0,0,1.1037269653320312,0,0,0.53508
2.990955556015251,0,0,1.1085153686523437,0,0,0.30576000000000003
2.9923419280094095,0,0,1.3742717529296875,0,0,0.84084
2.9937361890042666,0,0,1.484405029296875,0,0,0.68796
2.9951240790251177,0,0,1.4437036010742186,0,0,1.07016
2.9965096910018474,0,0,1.350329736328125,0,0,0.6115200000000001
2.9978963780158665,0,0,1.209071838378906,0,0,0.91728
2.9993130460206885,0,0,1.189918225097656,0,0,0.45864
3.000697788025718,0,0,1.1707646118164061,0,0,0.7644
3.002180973009672,0,0,1.3263877197265623,0,0,0.53508
3.0035802710044663,0,0,1.4796166259765624,0,0,0.68796
3.004967161017703,0,0,1.4317325927734375,0,0,0.7644
3.006353218021104,0,0,1.5346832641601562,0,0,0.45864
3.0077397010172717,0,0,1.3455413330078123,0,0,0.91728
3.0091359250072856,0,0,1.1635820068359375,0,0,0.68796
3.010522630007472,0,0,1.1133037719726562,0,0,0.6115200000000001
3.0119090390217025,0,0,1.3479355346679687,0,0,0.7644
3.0132953180000186,0,0,1.4245499877929686,0,0,0.84084
3.014681412023492,0,0,1.3814543579101561,0,0,0.84084
3.016067914024461,0,0,1.3742717529296875,0,0,0.84084
3.017454026004998,0,0,1.47482822265625,0,0,0.91728
3.018840675998945,0,0,1.1707646118164061,0,0,0.91728
3.0202279180230107,0,0,1.1563994018554686,0,0,0.68796
3.0216136790113524,0,0,1.2018892333984375,0,0,0.84084
3.0230326060263906,0,0,1.1947066284179686,0,0,0.6115200000000001
3.0244212180259638,0,0,1.4053963745117186,0,0,0.99372
3.025807108002482,0,0,1.4437036010742186,0,0,0.84084
3.0271936840144917,0,0,1.2521674682617188,0,0,1.1465999999999998
3.02857864802354,0,0,1.4317325927734375,0,0,0.7644
3.0299642420141026,0,0,1.1420341918945311,0,0,0.91728
3.031350948003819,0,0,1.2569558715820313,0,0,0.53508
3.03273706001346,0,0,1.1276689819335937,0,0,0.91728
3.034122765006032,0,0,1.2689268798828124,0,0,0.6115200000000001
3.035509396024281,0,0,1.4125789794921875,0,0,0.84084
3.036913842021022,0,0,1.429338391113281,0,0,0.53508
3.038306010013912,0,0,1.419761584472656,0,0,0.99372
3.039691900019534,0,0,1.3838485595703125,0,0,0.91728
3.041077476023929,0,0,1.2737152832031249,0,0,0.99372
3.0424637000251096,0,0,1.177947216796875,0,0,0.7644
3.0438495710259303,0,0,1.1013327636718748,0,0,0.6115200000000001
3.0452352020074613,0,0,1.3575123413085937,0,0,0.99372
3.046621371002402,0,0,1.4341267944335936,0,0,0.3822
3.0480070570192765,0,0,1.3239935180664062,0,0,0.7644
3.0493922070018016,0,0,1.4508862060546874,0,0,0.99372
3.0507782270142343,0,0,1.3527239379882812,0,0,0.84084
3.052163673011819,0,0,1.254561669921875,0,0,1.2230400000000001
3.0535492110066116,0,0,1.120486376953125,0,0,0.53508
3.0549351570080034,0,0,1.2234370483398436,0,0,0.45864
3.056411602010485,0,0,1.2952630981445312,0,0,0.99372
3.0578060110274237,0,0,1.4939818359375,0,0,0.68796
3.059189271007199,0,0,1.2904746948242187,0,0,0.99372
3.0605673840036616,0,0,1.388636962890625,0,0,0.68796
3.0619609220011625,0,0,1.3551181396484375,0,0,0.91728
3.06334181301645,0,0,1.1851298217773436,0,0,0.84084
3.064720833004685,0,0,1.1851298217773436,0,0,0.91728
3.0660994080244564,0,0,1.2306196533203124,0,0,0.53508
3.0674795580271166,0,0,1.3527239379882812,0,0,1.07016
3.068857336998917,0,0,1.608903515625,0,0,0.7644
3.0702359130082186,0,0,1.419761584472656,0,0,0.91728
3.0716160260199104,0,0,1.484405029296875,0,0,0.6115200000000001
3.072994120011572,0,0,1.1563994018554686,0,0,1.2994800000000002
3.074402695026947,0,0,1.2401964599609374,0,0,0.7644
3.075945935008349,0,0,1.0989385620117187,0,0,0.7644
3.0773767690116074,0,0,1.24498486328125,0,0,0.6115200000000001
3.079818017024081,0,0,1.5825672973632812,0,0,0.84084
3.0812013890245,0,0,1.484405029296875,0,0,0.7644
3.082600038003875,0,0,1.3192051147460937,0,0,0.91728
3.083989336009836,0,0,1.216254443359375,0,0,0.91728
3.0853876520122867,0,0,1.2138602416992186,0,0,0.91728
3.0876539390010294,0,0,1.1947066284179686,0,0,0.6115200000000001
3.0890403110242914,0,0,1.438915197753906,0,0,0.6115200000000001
3.0904274610220455,0,0,1.429338391113281,0,0,0.68796
3.0918155920226127,0,0,1.3048399047851562,0,0,0.6115200000000001
3.0931984820053913,0,0,1.2737152832031249,0,0,1.07016
3.0945782430062536,0,0,1.3359645263671873,0,0,0.84084
3.095991503010737,0,0,1.0917559570312498,0,0,0.84084
3.097400393016869,0,0,1.20667763671875,0,0,0.68796
3.0987875430146232,0,0,1.2665326782226562,0,0,0.53508
3.1001691370038316,0,0,1.5490484741210937,0,0,0.53508
3.101548046019161,0,0,1.4939818359375,0,0,0.84084
3.102929992019199,0,0,1.3575123413085937,0,0,0.91728
3.104319382022368,0,0,1.1109095703125,0,0,0.7644
3.1057063460175414,0,0,1.0965443603515623,0,0,0.68796
3.1070938480261248,0,0,1.2665326782226562,0,0,0.68796
3.1084893490187824,0,0,1.2785036865234374,0,0,0.7644
3.1098768140072934,0,0,1.3766659545898436,0,0,0.91728
3.111265593004646,0,0,1.4245499877929686,0,0,0.6115200000000001
3.1126503350096755,0,0,1.24498486328125,0,0,0.84084
3.1140370220236946,0,0,1.350329736328125,0,0,0.91728
3.1154213750269264,0,0,1.1444283935546875,0,0,0.68796
3.116799580020597,0,0,1.197100830078125,0,0,0.84084
3.1181786000088323,0,0,1.2593500732421874,0,0,0.7644
3.119566287001362,0,0,1.3311761230468748,0,0,0.6115200000000001
3.1209513990033884,0,0,1.4221557861328125,0,0,0.91728
3.1223373820248526,0,0,1.446097802734375,0,0,0.84084
3.123723291006172,0,0,1.3024457031249999,0,0,0.68796
3.1251084040268324,0,0,1.2306196533203124,0,0,0.84084
3.126493609015597,0,0,1.0797849487304687,0,0,0.91728
3.1278926100058015,0,0,1.0989385620117187,0,0,0.6115200000000001
3.1292780750081874,0,0,1.2737152832031249,0,0,0.68796
3.130663280026056,0,0,1.2713210815429687,0,0,0.53508
3.1320487440098077,0,0,1.465251416015625,0,0,0.6115200000000001
3.13343457900919,0,0,1.4604630126953124,0,0,0.7644
3.1348199880158063,0,0,1.3096283081054687,0,0,0.99372
3.136205619026441,0,0,1.2521674682617188,0,0,0.84084
3.1375912130170036,0,0,1.2234370483398436,0,0,0.91728
3.1389763629995286,0,0,1.2976572998046874,0,0,0.53508
3.1403618450276554,0,0,1.1516109985351561,0,0,0.68796
3.1417471060121898,0,0,1.3766659545898436,0,0,0.6115200000000001
3.143132848024834,0,0,1.467645617675781,0,0,0.30576000000000003
3.144517757027643,0,0,1.2976572998046874,0,0,0.7644
3.145903018012177,0,0,1.5059528442382812,0,0,0.99372
3.147288890002528,0,0,1.0606313354492187,0,0,0.84084
3.1486740020045545,0,0,1.2282254516601563,0,0,0.68796
3.150058856001124,0,0,1.1563994018554686,0,0,0.6115200000000001
3.1514452650153544,0,0,1.2593500732421874,0,0,0.3822
3.1528305810061283,0,0,1.24498486328125,0,0,1.2994800000000002
3.154216193011962,0,0,1.3766659545898436,0,0,0.7644
3.155611157999374,0,0,1.35990654296875,0,0,0.7644
3.1569968440162484,0,0,1.3335703247070312,0,0,0.91728
3.158382049005013,0,0,1.189918225097656,0,0,0.7644
3.159768014011206,0,0,1.3192051147460937,0,0,0.84084
3.1611533490067814,0,0,1.1180921752929687,0,0,0.84084
3.162538332020631,0,0,1.0989385620117187,0,0,0.84084
3.1639237590134144,0,0,1.465251416015625,0,0,0.68796
3.1653089830069803,0,0,1.455674609375,0,0,0.91728
3.1666941510047764,0,0,1.350329736328125,0,0,0.84084
3.1680797080043703,0,0,1.2904746948242187,0,0,0.68796
3.169464857026469,0,0,1.0845733520507812,0,0,0.7644
3.17085656200652,0,0,1.3718775512695311,0,0,0.53508
3.172240657004295,0,0,1.235408056640625,0,0,0.7644
3.1736241390171926,0,0,1.2234370483398436,0,0,0.15288000000000002
3.1750969360000454,0,0,1.455674609375,0,0,0.3822
3.1764904750161804,0,0,1.2425906616210938,0,0,0.99372
3.177877457026625,0,0,1.4891934326171874,0,0,0.7644
3.1792643110093195,0,0,1.2569558715820313,0,0,0.7644
3.1806496460048947,0,0,1.3287819213867187,0,0,0.99372
3.182035147008719,0,0,1.1851298217773436,0,0,0.68796
3.1834223340265453,0,0,1.180341418457031,0,0,0.53508
3.1848072790016886,0,0,1.3024457031249999,0,0,0.84084
3.1861926880083047,0,0,1.5394716674804687,0,0,0.3822
3.187584912026068,0,0,1.429338391113281,0,0,0.68796
3.188970469025662,0,0,1.4341267944335936,0,0,0.91728
3.1903565259999596,0,0,1.1755530151367186,0,0,0.7644
3.1917432130139787,0,0,1.0845733520507812,0,0,0.7644
3.193128825019812,0,0,1.0989385620117187,0,0,0.7644
3.1945144750061445,0,0,1.2856862915039062,0,0,0.53508
3.195906217006268,0,0,1.3862427612304686,0,0,1.07016
3.197291959018912,0,0,1.37906015625,0,0,0.84084
3.198677516018506,0,0,1.24498486328125,0,0,0.91728
3.2000631660048384,0,0,1.4030021728515625,0,0,0.68796
3.2014488150016405,0,0,1.20667763671875,0,0,0.91728
3.202834502008045,0,0,1.1348515869140625,0,0,0.84084
3.20422013301868,0,0,1.1659762084960936,0,0,0.68796
3.205605783005012,0,0,1.369483349609375,0,0,0.3822
3.2070063020219095,0,0,1.4987702392578124,0,0,0.6115200000000001
3.208636634022696,0,0,1.5729904907226562,0,0,0.68796
3.210024043015437,0,0,1.5107412475585937,0,0,0.99372
3.211412914999528,0,0,1.0965443603515623,0,0,0.99372
3.2127967130218167,0,0,1.2018892333984375,0,0,0.68796
3.2142060470068827,0,0,1.158793603515625,0,0,0.6115200000000001
3.2155986040015705,0,0,1.209071838378906,0,0,0.6115200000000001
3.216984198021237,0,0,1.426944189453125,0,0,1.37592
3.2184727910207585,0,0,1.4891934326171874,0,0,0.84084
3.21986462501809,0,0,1.4173673828125,0,0,0.91728
3.2212504600174725,0,0,1.47482822265625,0,0,0.53508
3.222636202001013,0,0,1.177947216796875,0,0,0.6115200000000001
3.2240227780130226,0,0,1.2210428466796874,0,0,0.84084
3.2254085760214366,0,0,1.0869675537109373,0,0,0.45864
3.2267937990254723,0,0,1.24498486328125,0,0,0.53508
3.2281791900168173,0,0,1.3862427612304686,0,0,0.84084
3.2295644320256542,0,0,1.37906015625,0,0,0.53508
3.230949822027469,0,0,1.5155296508789062,0,0,0.7644
3.2323352500097826,0,0,1.388636962890625,0,0,0.68796
3.2337207330274396,0,0,1.0821791503906248,0,0,0.7644
3.2351303820032626,0,0,1.2378022583007813,0,0,0.68796
3.2365161060006358,0,0,1.0295067138671874,0,0,0.68796
3.2379021439992357,0,0,1.3359645263671873,0,0,0.84084
3.2392884970176965,0,0,1.458068811035156,0,0,0.68796
3.2406730910006445,0,0,1.4987702392578124,0,0,0.53508
3.2420584080100525,0,0,1.467645617675781,0,0,0.91728
3.2434450200235005,0,0,1.3551181396484375,0,0,0.7644
3.2448294480273034,0,0,1.3072341064453123,0,0,0.99372
3.246215301012853,0,0,1.1420341918945311,0,0,0.7644
3.2476007840014063,0,0,1.1133037719726562,0,0,0.6115200000000001
3.248985933023505,0,0,1.3862427612304686,0,0,0.6115200000000001
3.2503715270140674,0,0,1.4604630126953124,0,0,0.22932
3.2517567700124346,0,0,1.455674609375,0,0,0.99372
3.2531423270120285,0,0,1.5107412475585937,0,0,1.07016
3.254527791024884,0,0,1.235408056640625,0,0,0.99372
3.255931515013799,0,0,1.2976572998046874,0,0,0.84084
3.2573211080161855,0,0,1.1372457885742187,0,0,0.7644
3.2587202950089704,0,0,1.13006318359375,0,0,0.3822
3.2601020190049894,0,0,1.3455413330078123,0,0,0.7644
3.2614812420215458,0,0,1.5251064575195312,0,0,0.84084
3.2628599849995226,0,0,1.4700398193359374,0,0,0.99372
3.2642493190069217,0,0,1.5227122558593749,0,0,0.84084
3.265636802010704,0,0,1.2641384765625,0,0,0.68796
3.2670244890032336,0,0,1.1851298217773436,0,0,0.53508
3.2684033420227934,0,0,1.1851298217773436,0,0,0.53508
3.2697816590080038,0,0,1.2785036865234374,0,0,0.45864
3.27116541902069,0,0,1.3623007446289062,0,0,0.84084
3.272557847027201,0,0,1.5107412475585937,0,0,0.53508
3.273941385006765,0,0,1.3718775512695311,0,0,0.84084
3.2753368870180566,0,0,1.5227122558593749,0,0,0.84084
3.276724146999186,0,0,1.1707646118164061,0,0,0.91728
3.27811013002065,0,0,1.2114660400390624,0,0,0.6115200000000001
3.2794969090027735,0,0,1.199495031738281,0,0,0.6115200000000001
3.28088220700738,0,0,1.3335703247070312,0,0,0.53508
3.282267690025037,0,0,1.37906015625,0,0,0.68796
3.283653468999546,0,0,1.5298948608398437,0,0,0.6115200000000001
3.2850393039989285,0,0,1.4700398193359374,0,0,0.99372
3.2864246390236076,0,0,1.3646949462890625,0,0,0.91728
3.2878104370029178,0,0,1.209071838378906,0,0,0.91728
3.289196105004521,0,0,1.1444283935546875,0,0,0.53508
3.2905815510021057,0,0,1.216254443359375,0,0,0.45864
3.2919669969996903,0,0,1.3527239379882812,0,0,0.99372
3.293353035027394,0,0,1.4437036010742186,0,0,0.68796
3.294738574011717,0,0,1.3192051147460937,0,0,0.84084
3.2961243340105284,0,0,1.458068811035156,0,0,0.91728
3.2975099840259645,0,0,1.3168109130859373,0,0,0.91728
3.2988952820014674,0,0,1.2785036865234374,0,0,0.68796
3.30028106100508,0,0,1.2018892333984375,0,0,0.45864
3.301666859013494,0,0,1.1109095703125,0,0,0.6115200000000001
3.3030612860166,0,0,1.4437036010742186,0,0,1.07016
3.3044471760222223,0,0,1.4508862060546874,0,0,0.84084
3.3058331409993116,0,0,1.407790576171875,0,0,0.99372
3.307218975009164,0,0,1.3551181396484375,0,0,0.53508
3.3086034580192063,0,0,1.1133037719726562,0,0,0.84084
3.30998883000575,0,0,1.2138602416992186,0,0,0.6115200000000001
3.311375183024211,0,0,1.2018892333984375,0,0,0.53508
3.312759926018771,0,0,1.2976572998046874,0,0,0.53508
3.3141450010007247,0,0,1.3910311645507811,0,0,0.45864
3.3155519100255333,0,0,1.4317325927734375,0,0,0.45864
3.316937207011506,0,0,1.47482822265625,0,0,0.91728
3.3183228940179106,0,0,1.3048399047851562,0,0,0.99372
3.319708821014501,0,0,1.1324573852539062,0,0,0.91728
3.321094434009865,0,0,1.1276689819335937,0,0,0.84084
3.3224800280004274,0,0,1.1947066284179686,0,0,0.53508
3.3238661590148695,0,0,1.2832920898437499,0,0,0.7644
3.3252514750056434,0,0,1.3910311645507811,0,0,0.30576000000000003
3.326638921018457,0,0,1.458068811035156,0,0,0.7644
3.3280245150090195,0,0,1.4221557861328125,0,0,0.84084
3.329410108999582,0,0,1.3646949462890625,0,0,0.84084
3.3308033520006575,0,0,1.2713210815429687,0,0,0.84084
3.3321896490233485,0,0,1.235408056640625,0,0,0.84084
3.333574780001072,0,0,1.2497732666015624,0,0,0.68796
3.3349603560054675,0,0,1.3335703247070312,0,0,0.84084
3.3363847639993764,0,0,1.5275006591796874,0,0,0.6115200000000001
3.3378202650055755,0,0,1.3814543579101561,0,0,0.84084
3.3392144330136944,0,0,1.4173673828125,0,0,0.91728
3.3406022490235046,0,0,1.149216796875,0,0,0.84084
3.3419885660114232,0,0,1.1947066284179686,0,0,0.7644
3.3433758450264577,0,0,1.197100830078125,0,0,0.7644
3.3447614940232597,0,0,1.3096283081054687,0,0,0.6115200000000001
3.346165496011963,0,0,1.455674609375,0,0,0.7644
3.347550164005952,0,0,1.6065093139648436,0,0,0.6115200000000001
3.34892886900343,0,0,1.4030021728515625,0,0,0.91728
3.350307408021763,0,0,1.4724340209960938,0,0,0.6115200000000001
3.3516945940209553,0,0,1.177947216796875,0,0,0.84084
3.353080929024145,0,0,1.149216796875,0,0,0.7644
3.3544682820211165,0,0,1.1731588134765625,0,0,0.84084
3.355921450012829,0,0,1.3000515014648437,0,0,0.6115200000000001
3.3573120060027577,0,0,1.465251416015625,0,0,0.53508
3.3586990630137734,0,0,1.3383587280273437,0,0,0.7644
3.3600798980041873,0,0,1.4317325927734375,0,0,0.84084
3.3614585110044573,0,0,1.2880804931640624,0,0,0.7644
3.362836642016191,0,0,1.189918225097656,0,0,0.84084
3.3642179210146423,0,0,1.1540052001953125,0,0,0.53508
3.3655970340187196,0,0,1.120486376953125,0,0,0.6115200000000001
3.366975702025229,0,0,1.3359645263671873,0,0,0.84084
3.3683629630249925,0,0,1.2378022583007813,0,0,0.6115200000000001
3.3697482610004954,0,0,1.3144167114257812,0,0,-9.09636
3.3711372810066678,0,0,1.455674609375,0,0,0.7644
3.372519041004125,0,0,1.2569558715820313,0,0,1.2230400000000001
3.373902191000525,0,0,1.22583125,0,0,0.68796
3.375300377025269,0,0,1.0821791503906248,0,0,0.53508
3.37668654602021,0,0,1.2880804931640624,0,0,0.53508
3.37807228800375,0,0,1.43652099609375,0,0,1.45236
3.379459271003725,0,0,1.6711527587890624,0,0,0.99372
3.3808443830057513,0,0,1.4006079711914061,0,0,0.84084
3.3822302740009036,0,0,1.448492004394531,0,0,0.6115200000000001
3.383616516017355,0,0,1.177947216796875,0,0,0.68796
3.385012536018621,0,0,1.2378022583007813,0,0,0.7644
3.3864006110234186,0,0,1.1468225952148436,0,0,0.6115200000000001
3.3877875200123526,0,0,1.3215993164062498,0,0,0.68796
3.3891886880155653,0,0,1.438915197753906,0,0,0.84084
3.390582115011057,0,0,1.2737152832031249,0,0,0.53508
3.391969283024082,0,0,1.39821376953125,0,0,0.45864
3.3933550620276947,0,0,1.4820108276367188,0,0,0.6115200000000001
3.394741527008591,0,0,1.2114660400390624,0,0,0.53508
3.396121880010469,0,0,1.1635820068359375,0,0,0.45864
3.397500030027004,0,0,1.0749965454101562,0,0,0.7644
3.3988777350168675,0,0,1.3215993164062498,0,0,0.45864
3.4002657740202267,0,0,1.429338391113281,0,0,0.53508
3.4016522570163943,0,0,1.3670891479492187,0,0,0.7644
3.403038665011991,0,0,1.5753846923828123,0,0,0.84084
3.4044249080179725,0,0,1.5155296508789062,0,0,0.7644
3.4058111870253924,0,0,1.3215993164062498,0,0,0.7644
3.4071982810273767,0,0,1.3527239379882812,0,0,0.53508
3.4085912270238623,0,0,1.180341418457031,0,0,0.53508
3.4099803950230125,0,0,1.3000515014648437,0,0,0.6115200000000001
3.4113656550180167,0,0,1.37906015625,0,0,0.6115200000000001
3.412741731008282,0,0,1.3048399047851562,0,0,0.99372
3.4141198620200157,0,0,1.4915876342773438,0,0,0.84084
3.4155056230083574,0,0,1.1516109985351561,0,0,0.84084
3.416891328000929,0,0,1.2042834350585936,0,0,0.68796
3.418277033022605,0,0,1.1659762084960936,0,0,0.68796
3.4196626270131674,0,0,1.2234370483398436,0,0,0.6115200000000001
3.421047666022787,0,0,1.3479355346679687,0,0,1.1465999999999998
3.4224332779995166,0,0,1.4915876342773438,0,0,0.7644
3.423818854003912,0,0,1.20667763671875,0,0,0.68796
3.4252040960127488,0,0,1.5298948608398437,0,0,0.6115200000000001
3.4265894679992925,0,0,1.2856862915039062,0,0,0.6115200000000001
3.427975136000896,0,0,1.1659762084960936,0,0,0.68796
3.429360230016755,0,0,1.0917559570312498,0,0,0.7644
3.4307457320101094,0,0,1.2521674682617188,0,0,0.53508
3.432131437002681,0,0,1.4101847778320311,0,0,0.84084
3.4335287710127886,0,0,1.388636962890625,0,0,0.7644
3.434914662007941,0,0,1.5203180541992187,0,0,0.84084
3.436300237022806,0,0,1.4604630126953124,0,0,0.99372
3.4376909240090754,0,0,1.2665326782226562,0,0,0.91728
3.439077259012265,0,0,1.2497732666015624,0,0,0.7644
3.440462816011859,0,0,1.1827356201171875,0,0,0.68796
3.441847891022917,0,0,1.3407529296874998,0,0,0.68796
3.443234263017075,0,0,1.429338391113281,0,0,0.6115200000000001
3.444627875025617,0,0,1.2425906616210938,0,0,0.84084
3.446013081003912,0,0,1.4604630126953124,0,0,1.37592
3.4474177110241726,0,0,1.2952630981445312,0,0,0.6115200000000001
3.4488027680199593,0,0,1.3551181396484375,0,0,0.91728
3.4501882700133137,0,0,1.1563994018554686,0,0,0.91728
3.451573919010116,0,0,1.177947216796875,0,0,0.91728
3.4529595320054796,0,0,1.3646949462890625,0,0,1.1465999999999998
3.454344793019118,0,0,1.6735469604492186,0,0,0.68796
3.4557301830209326,0,0,1.2785036865234374,0,0,0.84084
3.457123277010396,0,0,1.4963760375976562,0,0,1.07016
3.4585095190268476,0,0,1.197100830078125,0,0,1.07016
3.459896298008971,0,0,1.2665326782226562,0,0,0.68796
3.4612842440255918,0,0,1.0869675537109373,0,0,0.7644
3.462670449021971,0,0,1.2713210815429687,0,0,0.7644
3.4640502290276345,0,0,1.2976572998046874,0,0,0.53508
3.4654283600102644,0,0,1.37906015625,0,0,0.6115200000000001
3.466806065000128,0,0,1.39821376953125,0,0,0.84084
3.46819360399968,0,0,1.5155296508789062,0,0,0.68796
3.4695791420235764,0,0,1.218648645019531,0,0,0.84084
3.470964977022959,0,0,1.1444283935546875,0,0,0.30576000000000003
3.4723446640127804,0,0,1.16837041015625,0,0,0.6115200000000001
3.473723184026312,0,0,1.199495031738281,0,0,0.30576000000000003
3.47521620200132,0,0,1.2904746948242187,0,0,0.30576000000000003
3.4766035930078942,0,0,1.3718775512695311,0,0,0.6115200000000001
3.4780002790212166,0,0,1.467645617675781,0,0,0.99372
3.4793867250264157,0,0,1.426944189453125,0,0,0.99372
3.4807718010270037,0,0,1.2617442749023438,0,0,0.68796
3.4821576540125534,0,0,1.189918225097656,0,0,0.84084
3.4835433960251976,0,0,1.3263877197265623,0,0,0.7644
3.48492880500271,0,0,1.39821376953125,0,0,0.7644
3.486314362002304,0,0,1.4317325927734375,0,0,0.7644
3.4877084370236844,0,0,1.2713210815429687,0,0,0.99372
3.4890938280150294,0,0,1.3958195678710936,0,0,0.99372
3.490479033003794,0,0,1.1516109985351561,0,0,0.84084
3.4918644790013786,0,0,1.1540052001953125,0,0,0.7644
3.493249536026269,0,0,1.216254443359375,0,0,0.7644
3.494635056005791,0,0,1.1755530151367186,0,0,0.53508
3.4960209830023814,0,0,1.3623007446289062,0,0,1.07016
3.4974062250112183,0,0,1.2593500732421874,0,0,0.84084
3.4987912270007655,0,0,1.3287819213867187,0,0,1.2994800000000002
3.5001767100184225,0,0,1.5514426757812498,0,0,0.84084
3.501561933022458,0,0,1.1348515869140625,0,0,0.68796
3.5029472870228346,0,0,1.1444283935546875,0,0,0.68796
3.50433256602264,0,0,1.158793603515625,0,0,0.6115200000000001
3.5057279750180896,0,0,1.2856862915039062,0,0,0.53508
3.507114772015484,0,0,1.2521674682617188,0,0,0.30576000000000003
3.508500144002028,0,0,1.419761584472656,0,0,0.53508
3.5098849790228996,0,0,1.419761584472656,0,0,0.91728
3.5112710920220707,0,0,1.678335363769531,0,0,0.91728
3.5126606300182175,0,0,1.2665326782226562,0,0,0.99372
3.5140460200200323,0,0,1.350329736328125,0,0,0.68796
3.5154315030085854,0,0,1.197100830078125,0,0,0.68796
3.516816394025227,0,0,1.2880804931640624,0,0,0.53508
3.5182015060272533,0,0,1.2880804931640624,0,0,0.68796
3.519587173999753,0,0,1.350329736328125,0,0,0.84084
3.5209790270018857,0,0,1.35990654296875,0,0,0.7644
3.5223701400100254,0,0,1.3120225097656248,0,0,0.84084
3.523755734000588,0,0,1.2521674682617188,0,0,0.91728
3.5251411060162354,0,0,1.1133037719726562,0,0,0.68796
3.526525830005994,0,0,1.209071838378906,0,0,0.53508
3.5279107380192727,0,0,1.2737152832031249,0,0,0.91728
3.5292960360238794,0,0,1.4939818359375,0,0,0.6115200000000001
3.530681315023685,0,0,1.3072341064453123,0,0,0.91728
3.5322849070071243,0,0,1.5658078857421873,0,0,0.68796
3.533731722010998,0,0,1.2785036865234374,0,0,0.91728
3.535127890005242,0,0,1.3239935180664062,0,0,0.6115200000000001
3.5365174840262625,0,0,1.1659762084960936,0,0,0.6115200000000001
3.5379053560027387,0,0,1.2234370483398436,0,0,0.45864
3.5392944129998796,0,0,1.3814543579101561,0,0,0.84084
3.540681303013116,0,0,1.429338391113281,0,0,0.7644
3.5420699900132604,0,0,1.2761094848632812,0,0,0.99372
3.5434577140258625,0,0,1.1827356201171875,0,0,0.68796
3.544845141004771,0,0,1.1372457885742187,0,0,0.7644
3.546232365013566,0,0,1.3072341064453123,0,0,0.91728
3.5476202180143446,0,0,1.218648645019531,0,0,0.7644
3.5490070530213416,0,0,1.254561669921875,0,0,0.6115200000000001
3.5503938690235373,0,0,1.5203180541992187,0,0,0.22932
3.5517845740250777,0,0,1.3551181396484375,0,0,0.7644
3.553171427018242,0,0,1.3479355346679687,0,0,0.84084
3.5545579840254504,0,0,1.1611878051757811,0,0,0.53508
3.555946912005311,0,0,1.120486376953125,0,0,-8.71416
