Time,AccelX1,AccelY1,AccelZ1,AccelX2,AccelY2,AccelZ2
5.907000740990043e-06,0,0,1.1923124267578125,0,0,0.30576000000000003
0.0036639850004576147,0,0,1.4221557861328125,0,0,0.7644
0.007225433975690976,0,0,1.369483349609375,0,0,0.84084
0.01085110497660935,0,0,1.3000515014648437,0,0,0.68796
0.01436692598508671,0,0,1.4030021728515625,0,0,0.68796
0.017877764999866486,0,0,1.4820108276367188,0,0,0.84084
0.0213786409876775,0,0,1.0893617553710937,0,0,0.7644
0.02492888699634932,0,0,1.3024457031249999,0,0,0.53508
0.02843528098310344,0,0,1.5849614990234373,0,0,0.6115200000000001
0.03195476799737662,0,0,1.2904746948242187,0,0,0.53508
0.03583861998049542,0,0,1.2689268798828124,0,0,0.3822
0.03936279300251044,0,0,1.3646949462890625,0,0,0.91728
0.042873223981587216,0,0,1.2761094848632812,0,0,0.84084
0.046378266997635365,0,0,1.438915197753906,0,0,0.84084
0.04986864299280569,0,0,1.254561669921875,0,0,0.68796
0.05337522298214026,0,0,1.16837041015625,0,0,0.6115200000000001
0.056904950994066894,0,0,1.35990654296875,0,0,0.6115200000000001
0.06041951198130846,0,0,1.5298948608398437,0,0,0.45864
0.06391733299824409,0,0,1.2521674682617188,0,0,0.53508
0.06739465397549793,0,0,1.254561669921875,0,0,0.45864
0.07177227598731406,0,0,1.47482822265625,0,0,0.84084
0.07542237298912369,0,0,1.199495031738281,0,0,0.53508
0.07893589697778225,0,0,1.3718775512695311,0,0,0.53508
0.082444420986576,0,0,1.6136919189453125,0,0,0.7644
0.08597975998418406,0,0,1.2808978881835937,0,0,0.45864
0.08948719099862501,0,0,1.2401964599609374,0,0,0.84084
0.0929931049759034,0,0,1.3215993164062498,0,0,0.68796
0.09650120299193077,0,0,1.254561669921875,0,0,0.84084
0.09999583798344247,0,0,1.3479355346679687,0,0,0.91728
0.10363361999043263,0,0,1.3670891479492187,0,0,0.7644
0.1065693559939973,0,0,1.254561669921875,0,0,0.53508
0.10936000198125839,0,0,1.35990654296875,0,0,0.6115200000000001
0.11215090600308031,0,0,1.4006079711914061,0,0,0.6115200000000001
0.11494203298934735,0,0,1.3455413330078123,0,0,0.99372
0.11773362298845313,0,0,1.1180921752929687,0,0,0.6115200000000001
0.12052676899475046,0,0,1.0941501586914062,0,0,0.91728
0.12331415500375442,0,0,1.5251064575195312,0,0,0.68796
0.12610289300209843,0,0,1.2904746948242187,0,0,0.7644
0.12905968498671427,0,0,1.1827356201171875,0,0,1.07016
0.13185364499804564,0,0,1.3670891479492187,0,0,1.07016
0.1346412529819645,0,0,1.37906015625,0,0,0.84084
0.13743730599526316,0,0,1.3646949462890625,0,0,0.91728
0.1402327480027452,0,0,1.3575123413085937,0,0,0.68796
0.1430056160024833,0,0,1.2737152832031249,0,0,0.53508
0.14579896497889422,0,0,1.3575123413085937,0,0,0.84084
0.14861677697626874,0,0,1.2330138549804688,0,0,1.07016
0.15140634900308214,0,0,1.180341418457031,0,0,0.7644
0.1541964009811636,0,0,1.35990654296875,0,0,0.22932
0.1569765099848155,0,0,1.3096283081054687,0,0,0.84084
0.15980596997542307,0,0,1.235408056640625,0,0,0.53508
0.1625961899990216,0,0,1.1037269653320312,0,0,0.7644
0.16549762999056838,0,0,1.3120225097656248,0,0,0.7644
0.1685617709881626,0,0,1.2641384765625,0,0,0.45864
0.17134862099192105,0,0,1.3192051147460937,0,0,0.91728
0.17414076600107364,0,0,1.189918225097656,0,0,0.30576000000000003
0.17697252199286595,0,0,1.3814543579101561,0,0,0.53508
0.17980899999383837,0,0,1.254561669921875,0,0,0.6115200000000001
0.18259896099334583,0,0,1.0821791503906248,0,0,0.53508
0.18538797699147835,0,0,1.3000515014648437,0,0,0.6115200000000001
0.18821099199703895,0,0,1.4437036010742186,0,0,0.7644
0.19100091597647406,0,0,1.4341267944335936,0,0,0.7644
0.19377835799241439,0,0,1.24498486328125,0,0,0.68796
0.19657476199790835,0,0,1.2665326782226562,0,0,0.84084
0.19937527799629606,0,0,1.3024457031249999,0,0,0.91728
0.20225121898693033,0,0,1.3287819213867187,0,0,0.68796
0.20522360198083334,0,0,1.2473790649414063,0,0,0.7644
0.20833416900131851,0,0,1.0726023437499999,0,0,0.6115200000000001
0.21143729198956862,0,0,1.2665326782226562,0,0,0.3822
0.2145448219962418,0,0,1.13006318359375,0,0,0.91728
0.21765466599026695,0,0,1.2521674682617188,0,0,0.53508
0.22082497298833914,0,0,1.4604630126953124,0,0,0.68796
0.2239564839983359,0,0,1.2617442749023438,0,0,0.7644
0.22707851399900392,0,0,1.2856862915039062,0,0,0.7644
0.230170062975958,0,0,1.3335703247070312,0,0,0.68796
0.23327803699066862,0,0,1.0845733520507812,0,0,0.45864
0.23638486297568306,0,0,1.3359645263671873,0,0,0.6115200000000001
0.2394904859829694,0,0,1.3000515014648437,0,0,1.07016
0.24260629300260916,0,0,1.4891934326171874,0,0,0.84084
0.24569760099984705,0,0,1.4867992309570313,0,0,0.7644
0.2488252229813952,0,0,1.2138602416992186,0,0,0.68796
0.2519347349880263,0,0,1.4508862060546874,0,0,0.84084
0.2550381170003675,0,0,1.4317325927734375,0,0,0.6115200000000001
0.2581744979834184,0,0,1.3766659545898436,0,0,0.91728
0.26128171299933456,0,0,1.2832920898437499,0,0,1.45236
0.2643883169803303,0,0,1.4125789794921875,0,0,0.84084
0.2674950689834077,0,0,1.3359645263671873,0,0,0.91728
0.27060335798887536,0,0,1.2665326782226562,0,0,0.7644
0.27370886999415234,0,0,1.3575123413085937,0,0,0.84084
0.2768156959791668,0,0,1.4221557861328125,0,0,0.84084
0.2799213739926927,0,0,1.3120225097656248,0,0,0.99372
0.2830261819763109,0,0,1.369483349609375,0,0,0.84084
0.2861314530018717,0,0,1.2832920898437499,0,0,1.07016
0.289363906980725,0,0,1.2713210815429687,0,0,0.68796
0.2926555269805249,0,0,1.3000515014648437,0,0,0.53508
0.2960182189999614,0,0,1.4221557861328125,0,0,0.7644
0.2991297679836862,0,0,1.5131354492187499,0,0,0.7644
0.30227507499512285,0,0,1.3670891479492187,0,0,0.7644
0.3053704199846834,0,0,1.3000515014648437,0,0,0.53508
0.30847398698097095,0,0,1.2497732666015624,0,0,0.6115200000000001
0.31158031299128197,0,0,1.2976572998046874,0,0,0.45864
0.3146858800027985,0,0,1.3479355346679687,0,0,0.3822
0.31782646497595124,0,0,1.3623007446289062,0,0,0.84084
0.32092210598057136,0,0,1.4053963745117186,0,0,0.0
0.3240256359858904,0,0,1.3168109130859373,0,0,0.84084
0.3271325919777155,0,0,1.2569558715820313,0,0,0.68796
0.3302409180032555,0,0,1.24498486328125,0,0,0.53508
0.3333470959914848,0,0,1.189918225097656,0,0,0.6115200000000001
0.3364557189925108,0,0,1.1444283935546875,0,0,0.7644
0.33956217498052865,0,0,1.3048399047851562,0,0,0.68796
0.3426716119865887,0,0,1.3024457031249999,0,0,0.84084
0.34577804899890907,0,0,1.0917559570312498,0,0,0.99372
0.3488838759949431,0,0,1.2928688964843749,0,0,0.45864
0.3519939800025895,0,0,1.3287819213867187,0,0,0.91728
0.35509730599005707,0,0,1.1827356201171875,0,0,0.68796
0.3587171059916727,0,0,1.2665326782226562,0,0,1.1465999999999998
0.3618197659961879,0,0,1.4101847778320311,0,0,0.91728
0.36492598097538576,0,0,1.3718775512695311,0,0,0.84084
0.3680260669789277,0,0,1.22583125,0,0,0.7644
0.3711090779979713,0,0,1.3718775512695311,0,0,0.6115200000000001
0.37421918197651394,0,0,1.2617442749023438,0,0,0.68796
0.3773256749846041,0,0,1.0749965454101562,0,0,0.91728
0.380433649988845,0,0,1.2617442749023438,0,0,1.07016
0.3835611979884561,0,0,1.4173673828125,0,0,0.84084
0.38664781997795217,0,0,1.3168109130859373,0,0,1.07016
0.3897730169992428,0,0,1.13006318359375,0,0,0.6115200000000001
0.39287962098023854,0,0,1.5107412475585937,0,0,1.07016
0.3959872989798896,0,0,1.2593500732421874,0,0,0.45864
0.3990912729932461,0,0,1.3120225097656248,0,0,0.7644
0.40222141399863176,0,0,1.235408056640625,0,0,0.91728
0.40533211099682376,0,0,1.446097802734375,0,0,0.7644
0.408440528990468,0,0,1.4987702392578124,0,0,0.84084
0.411566077003954,0,0,1.218648645019531,0,0,0.6115200000000001
0.4147019029769581,0,0,1.2497732666015624,0,0,0.91728
0.4180815400031861,0,0,1.5227122558593749,0,0,0.68796
0.42120942199835554,0,0,1.2282254516601563,0,0,0.68796
0.4243223039957229,0,0,1.3766659545898436,0,0,0.91728
0.4274298340023961,0,0,1.4820108276367188,0,0,0.7644
0.43051995598943904,0,0,1.3048399047851562,0,0,0.6115200000000001
0.4336279309936799,0,0,1.3192051147460937,0,0,0.84084
0.43676044198218733,0,0,1.5610194824218748,0,0,0.68796
0.43986939699971117,0,0,1.6232687255859375,0,0,0.3822
0.4429723350040149,0,0,1.2425906616210938,0,0,0.53508
0.4460632909904234,0,0,1.1635820068359375,0,0,-0.22932
0.44922546797897667,0,0,1.2569558715820313,0,0,0.53508
0.4523366459761746,0,0,1.35990654296875,0,0,0.7644
0.4554567689774558,0,0,1.3479355346679687,0,0,0.53508
0.4585646129853558,0,0,1.5179238525390624,0,0,0.7644
0.46170099498704076,0,0,1.4700398193359374,0,0,0.99372
0.4648071539995726,0,0,1.3527239379882812,0,0,0.7644
0.4684498429996893,0,0,1.2737152832031249,0,0,0.53508
0.47157052098191343,0,0,1.3263877197265623,0,0,0.6115200000000001
0.4746757179964334,0,0,1.2976572998046874,0,0,0.7644
0.47776708099991083,0,0,1.2330138549804688,0,0,0.84084
0.48087516697705723,0,0,1.5634136840820312,0,0,0.68796
0.4839840479835402,0,0,1.4604630126953124,0,0,0.68796
0.4870867079880554,0,0,1.2210428466796874,0,0,0.53508
0.4901937929971609,0,0,1.3215993164062498,0,0,0.68796
0.49328913798672147,0,0,1.235408056640625,0,0,0.53508
0.49640124198049307,0,0,1.3311761230468748,0,0,0.7644
0.4995331050013192,0,0,1.3766659545898436,0,0,0.99372
0.5026749309909064,0,0,1.3551181396484375,0,0,0.91728
0.5152371599979233,0,0,1.2569558715820313,0,0,0.6115200000000001
0.518473003001418,0,0,1.3168109130859373,0,0,0.84084
0.5215933659928851,0,0,1.3527239379882812,0,0,1.1465999999999998
0.5246993219770957,0,0,1.4341267944335936,0,0,0.91728
0.5279299239919055,0,0,1.1013327636718748,0,0,0.7644
0.5310308059852105,0,0,1.3479355346679687,0,0,0.84084
0.5341334650001954,0,0,1.2832920898437499,0,0,0.7644
0.5378937819914427,0,0,1.5251064575195312,0,0,0.84084
0.5411119399941526,0,0,1.24498486328125,0,0,0.6115200000000001
0.5442183409759309,0,0,1.1635820068359375,0,0,0.6115200000000001
0.5473172409983817,0,0,1.3670891479492187,0,0,0.68796
0.5504198639828246,0,0,1.2330138549804688,0,0,0.7644
0.5535228009975981,0,0,1.3646949462890625,0,0,0.6115200000000001
0.556641145987669,0,0,1.2665326782226562,0,0,0.7644
0.5597796939837281,0,0,1.2737152832031249,0,0,0.7644
0.5628968709788751,0,0,1.2617442749023438,0,0,0.45864
0.5660461229854263,0,0,1.3623007446289062,0,0,0.45864
0.5691637079871725,0,0,1.2976572998046874,0,0,0.7644
0.5722815899935085,0,0,1.2856862915039062,0,0,1.07016
0.5753957859997172,0,0,1.3407529296874998,0,0,0.7644
0.5786759059992619,0,0,1.5131354492187499,0,0,0.84084
0.5822498929919675,0,0,1.2569558715820313,0,0,0.91728
0.5853731999814045,0,0,1.2928688964843749,0,0,0.53508
0.5884917299845256,0,0,1.3670891479492187,0,0,0.84084
0.5917042579967529,0,0,1.429338391113281,0,0,0.7644
0.5948258619755507,0,0,1.2641384765625,0,0,0.45864
0.5979382809891831,0,0,1.3144167114257812,0,0,0.6115200000000001
0.6010901439876761,0,0,1.465251416015625,0,0,0.45864
0.6043121900002006,0,0,1.0917559570312498,0,0,0.91728
0.6072637779871002,0,0,1.2521674682617188,0,0,0.0
0.6100633119931445,0,0,1.3120225097656248,0,0,0.84084
0.6128664209973067,0,0,1.3646949462890625,0,0,0.45864
0.6156646589806769,0,0,1.16837041015625,0,0,0.53508
0.6184777669841424,0,0,1.2425906616210938,0,0,0.53508
0.6213103379996028,0,0,1.429338391113281,0,0,0.45864
0.6241221679956652,0,0,1.3646949462890625,0,0,0.91728
0.6269270909833722,0,0,1.2425906616210938,0,0,0.91728
0.6297230139898602,0,0,1.2425906616210938,0,0,0.91728
0.6326025289890822,0,0,1.4030021728515625,0,0,0.99372
0.6354118219751399,0,0,1.43652099609375,0,0,0.7644
0.6382243940024637,0,0,1.2497732666015624,0,0,0.7644
0.6410211499896832,0,0,1.2761094848632812,0,0,1.2230400000000001
0.6438221469870768,0,0,1.4987702392578124,0,0,0.99372
0.6466141080018133,0,0,1.3623007446289062,0,0,0.91728
0.6494113270018715,0,0,1.2569558715820313,0,0,0.91728
0.6522069359780289,0,0,1.3335703247070312,0,0,0.84084
0.6550020629947539,0,0,1.4987702392578124,0,0,0.91728
0.6578253739862703,0,0,1.5035586425781249,0,0,0.7644
0.6606255199876614,0,0,1.1468225952148436,0,0,0.91728
0.6634196649829391,0,0,1.180341418457031,0,0,0.53508
0.6678182879986707,0,0,1.3814543579101561,0,0,0.7644
0.6706352109904401,0,0,1.3192051147460937,0,0,0.6115200000000001
0.673438059980981,0,0,1.2904746948242187,0,0,0.91728
0.6762390939984471,0,0,1.3407529296874998,0,0,0.84084
0.67903731399565,0,0,1.4413093994140624,0,0,0.91728
0.6818357549782377,0,0,1.35990654296875,0,0,0.91728
0.684633455995936,0,0,1.3670891479492187,0,0,0.7644
0.6874308979895432,0,0,1.2521674682617188,0,0,0.99372
0.6902294319879729,0,0,1.2282254516601563,0,0,0.7644
0.6930263929825742,0,0,1.2425906616210938,0,0,0.91728
0.6958265569992363,0,0,1.3048399047851562,0,0,0.68796
0.6986236459924839,0,0,1.2785036865234374,0,0,1.07016
0.7014227919862606,0,0,1.3311761230468748,0,0,0.6115200000000001
0.7043274539755657,0,0,1.139639990234375,0,0,0.68796
0.7073013189947233,0,0,1.254561669921875,0,0,0.84084
0.7104178860026877,0,0,1.2593500732421874,0,0,0.84084
0.7135750079760328,0,0,1.3048399047851562,0,0,0.7644
0.7167073149757925,0,0,1.3407529296874998,0,0,0.91728
0.7198253819951788,0,0,1.3934253662109375,0,0,0.84084
0.7229392269800883,0,0,1.3072341064453123,0,0,0.99372
0.7260562749870587,0,0,1.2521674682617188,0,0,0.53508
0.7291840269754175,0,0,1.4173673828125,0,0,0.84084
0.7323055939923506,0,0,1.4628572143554686,0,0,0.99372
0.7354183830029797,0,0,1.3383587280273437,0,0,0.84084
0.7385346529772505,0,0,1.2569558715820313,0,0,0.99372
0.7416508309834171,0,0,1.5083470458984374,0,0,0.7644
0.7447668059903663,0,0,1.3335703247070312,0,0,1.07016
0.7479716669768095,0,0,1.1013327636718748,0,0,0.53508
0.7510841789771803,0,0,1.407790576171875,0,0,0.6115200000000001
0.7542198559967801,0,0,1.407790576171875,0,0,0.7644
0.757317608979065,0,0,1.3335703247070312,0,0,0.7644
0.760423693980556,0,0,1.2928688964843749,0,0,0.45864
0.7635524829966016,0,0,1.35990654296875,0,0,0.68796
0.7666596059862059,0,0,1.2401964599609374,0,0,0.6115200000000001
0.7697665059822612,0,0,1.3120225097656248,0,0,0.6115200000000001
0.7728619989939034,0,0,1.2641384765625,0,0,0.68796
0.7759642879827879,0,0,1.3311761230468748,0,0,0.7644
0.7790683179919142,0,0,1.3623007446289062,0,0,0.53508
0.7821732919837814,0,0,1.2952630981445312,0,0,0.3822
0.7852777849766426,0,0,1.2306196533203124,0,0,0.91728
0.789398227003403,0,0,1.158793603515625,0,0,0.45864
0.792577607993735,0,0,1.3718775512695311,0,0,0.84084
0.7956830079783686,0,0,1.5035586425781249,0,0,1.1465999999999998
0.7987877419800498,0,0,1.3407529296874998,0,0,1.07016
0.8018944379873574,0,0,1.2497732666015624,0,0,0.7644
0.8050408379931469,0,0,1.4987702392578124,0,0,0.6115200000000001
0.8081475340004545,0,0,1.350329736328125,0,0,0.6115200000000001
0.81124806398293,0,0,1.149216796875,0,0,0.53508
0.814353575988207,0,0,1.2928688964843749,0,0,0.91728
0.8175484749954194,0,0,1.4101847778320311,0,0,0.84084
0.8206666899786796,0,0,1.3120225097656248,0,0,0.84084
0.8238175709848292,0,0,1.2378022583007813,0,0,0.6115200000000001
0.8270292659872212,0,0,1.426944189453125,0,0,0.7644
0.830140036996454,0,0,1.3766659545898436,0,0,0.91728
0.8332426779961679,0,0,1.3623007446289062,0,0,0.68796
0.8363474299840163,0,0,1.3742717529296875,0,0,0.84084
0.8394512559752911,0,0,1.3024457031249999,0,0,0.7644
0.8425536379800178,0,0,1.35990654296875,0,0,0.7644
0.8456650939770043,0,0,1.0749965454101562,0,0,0.53508
0.8487681789847557,0,0,1.3215993164062498,0,0,0.7644
0.8518711349752266,0,0,1.4413093994140624,0,0,1.911
0.8549744619813282,0,0,1.3742717529296875,0,0,0.68796
0.8580785099766217,0,0,1.2832920898437499,0,0,0.68796
0.861183817993151,0,0,1.2880804931640624,0,0,0.84084
0.8642879219842143,0,0,1.3239935180664062,0,0,0.7644
0.8674282659776509,0,0,1.189918225097656,0,0,0.6115200000000001
0.8705365369969513,0,0,1.2689268798828124,0,0,0.68796
0.8736429929849692,0,0,1.2832920898437499,0,0,1.2994800000000002
0.876752985001076,0,0,1.2761094848632812,0,0,2.2167600000000003
0.8798617929860484,0,0,1.915361328125,0,0,1.75812
0.882963841984747,0,0,2.549824768066406,0,0,1.98744
0.8860688720014878,0,0,2.8419173706054686,0,0,1.2994800000000002
0.8891740309773013,0,0,1.39821376953125,0,0,0.6115200000000001
0.892279764986597,0,0,1.6160861206054686,0,0,1.1465999999999998
0.8953801280003972,0,0,1.4915876342773438,0,0,1.5288
0.898485231999075,0,0,1.5586252807617187,0,0,1.2230400000000001
0.9015911140013486,0,0,2.0781670410156248,0,0,1.45236
0.9047363099816721,0,0,2.068590234375,0,0,0.91728
0.9078421359881759,0,0,1.7357962036132812,0,0,1.2230400000000001
0.9109439809981268,0,0,1.649604943847656,0,0,0.84084
0.9140451589773875,0,0,1.695094775390625,0,0,1.83456
0.9181346199766267,0,0,2.0063409912109376,0,0,1.5288
0.9213306299934629,0,0,1.656787548828125,0,0,0.91728
0.9244543259846978,0,0,1.89620771484375,0,0,1.83456
0.927573986002244,0,0,2.233790148925781,0,0,0.99372
0.9306906639831141,0,0,1.216254443359375,0,0,0.91728
0.9338069160003215,0,0,1.8459294799804686,0,0,1.45236
0.9369235199992545,0,0,1.2976572998046874,0,0,1.75812
0.9400418269797228,0,0,1.687912170410156,0,0,2.2931999999999997
0.9431555609917268,0,0,2.1356278808593747,0,0,0.99372
0.9462720159790479,0,0,2.1260510742187497,0,0,0.91728
0.949396379000973,0,0,2.0087351928710935,0,0,1.2994800000000002
0.9525134459836408,0,0,1.3455413330078123,0,0,0.53508
0.9556309019972105,0,0,1.1228805786132812,0,0,0.84084
0.9587487649987452,0,0,2.39420166015625,0,0,2.2167600000000003
0.9618666099850088,0,0,1.9871873779296874,0,0,1.5288
0.9649786029767711,0,0,1.5179238525390624,0,0,1.45236
0.971155348001048,0,0,1.7238251953125,0,0,0.99372
0.97430872899713,0,0,0.8643067993164062,0,0,1.45236
0.9774250549962744,0,0,2.5570073730468748,0,0,2.2931999999999997
0.9805506779812276,0,0,1.4987702392578124,0,0,1.37592
0.9836951509932987,0,0,2.29843359375,0,0,0.99372
0.9868088109942619,0,0,1.4628572143554686,0,0,0.6115200000000001
0.9899218589998782,0,0,1.2497732666015624,0,0,1.1465999999999998
0.9930365739855915,0,0,2.492363928222656,0,0,1.45236
0.9961476780008525,0,0,1.8052280517578123,0,0,0.7644
0.9992564859858248,0,0,2.8203695556640622,0,0,0.30576000000000003
1.0024850699992385,0,0,1.8028338500976562,0,0,1.37592
1.0057228569930885,0,0,1.649604943847656,0,0,2.14032
1.0088233319984283,0,0,1.936909143066406,0,0,1.68168
1.0118512699846178,0,0,1.6998831787109374,0,0,1.07016
1.0147626919788308,0,0,1.3838485595703125,0,0,2.6754
1.017709815991111,0,0,1.24498486328125,0,0,2.06388
1.0206634599890094,0,0,1.2976572998046874,0,0,0.99372
1.0236482689797413,0,0,1.6519991455078125,0,0,0.91728
1.0269904439919628,0,0,2.8658593872070313,0,0,2.4460800000000003
1.0298883289797232,0,0,1.7932570434570312,0,0,1.75812
1.032769916986581,0,0,1.3144167114257812,0,0,2.4460800000000003
1.03559798799688,0,0,1.8914193115234375,0,0,3.66912
1.0384109109872952,0,0,2.2840683837890623,0,0,1.2994800000000002
1.041260407975642,0,0,0.4070142822265625,0,0,-1.2230400000000001
1.0440839599759784,0,0,1.4772224243164063,0,0,0.7644
1.046915586979594,0,0,3.77326181640625,0,0,3.0576
1.0497485089872498,0,0,0.8667010009765624,0,0,-0.99372
1.0526076910027768,0,0,0.603338818359375,0,0,-0.45864
1.0554440209816676,0,0,2.906560815429687,0,0,3.0576
1.0582754619827028,0,0,2.901772412109375,0,0,0.84084
1.0611233660019934,0,0,-0.22266075439453123,0,0,0.0
1.063955770980101,0,0,3.6655227416992187,0,0,2.52252
1.0668253779876977,0,0,2.8419173706054686,0,0,0.91728
1.0697042629763018,0,0,-0.3184288208007812,0,0,-0.68796
1.0726279809896369,0,0,2.6144682128906247,0,0,1.1465999999999998
1.0755903089884669,0,0,1.0941501586914062,0,0,0.84084
1.0785224529972766,0,0,-0.8451531860351562,0,0,0.07644000000000001
1.0814221339824144,0,0,2.104503259277344,0,0,2.2931999999999997
1.0848616029834375,0,0,0.6344634399414062,0,0,9.32568
1.08833827599301,0,0,1.6136919189453125,0,0,1.37592
1.0912728459807113,0,0,2.7724855224609373,0,0,0.91728
1.094177637976827,0,0,-0.82360537109375,0,0,-0.22932
1.0970838369976263,0,0,1.9584569580078124,0,0,2.52252
1.1000414799782448,0,0,2.0829554443359375,0,0,0.68796
1.1029454020026606,0,0,-0.6081272216796875,0,0,0.91728
1.105873694003094,0,0,2.920926025390625,0,0,1.911
1.1084492309892084,0,0,2.2266075439453124,0,0,1.2230400000000001
1.1099215439753607,0,0,-0.4070142822265625,0,0,-0.91728
1.111332708998816,0,0,-0.59376201171875,0,0,-0.22932
1.1127164109784644,0,0,1.7669208251953124,0,0,1.07016
1.1140936139854603,0,0,2.5737667846679684,0,0,0.91728
1.1154692609852646,0,0,2.003946789550781,0,0,1.2994800000000002
1.1168502229847945,0,0,0.29927520751953124,0,0,1.1465999999999998
1.1182240179914515,0,0,-0.25139117431640623,0,0,-0.3822
1.1196018689952325,0,0,1.6112977172851561,0,0,0.6115200000000001
1.1209759609773755,0,0,2.5450363647460934,0,0,1.911
1.1223516079771798,0,0,3.19865341796875,0,0,1.98744
1.12372845900245,0,0,2.061407629394531,0,0,0.99372
1.1251022539800033,0,0,0.86191259765625,0,0,0.7644
1.1264757709868718,0,0,-0.02154781494140625,0,0,-0.3822
1.1278772889927495,0,0,1.5418658691406248,0,0,0.45864
1.1292537129775155,0,0,2.0302830078125,0,0,1.45236
1.1306274719827343,0,0,1.867477294921875,0,0,1.45236
1.1320125999918673,0,0,1.3287819213867187,0,0,0.0
1.1333973029977642,0,0,0.33039982910156246,0,0,-0.6115200000000001
1.1347821349918377,0,0,-0.11252747802734374,0,0,0.0
1.1361616709909867,0,0,1.3048399047851562,0,0,0.45864
1.137535391986603,0,0,2.2768857788085937,0,0,2.2931999999999997
1.1389131500036456,0,0,2.1212626708984375,0,0,2.6754
1.1402967049798463,0,0,1.8124106567382812,0,0,1.5288
1.1416808329813648,0,0,0.0718260498046875,0,0,0.0
1.1430647950037383,0,0,0.10773907470703124,0,0,0.15288000000000002
1.1444434610020835,0,0,1.7286135986328124,0,0,0.68796
1.145817755983444,0,0,3.2249896362304686,0,0,1.37592
1.147191235999344,0,0,2.7054478759765623,0,0,1.83456
1.1485750689753331,0,0,0.7948749511718749,0,0,1.45236
1.149958752997918,0,0,-0.5746083984375,0,0,-0.7644
1.1513430109771434,0,0,-0.8379705810546875,0,0,-0.7644
1.152727786975447,0,0,1.2737152832031249,0,0,0.22932
1.1541118419845589,0,0,2.1906945190429687,0,0,0.3822
1.155494821985485,0,0,1.9416975463867185,0,0,1.45236
1.1568780059751589,0,0,1.197100830078125,0,0,1.5288
1.158261523989495,0,0,0.2059013427734375,0,0,-0.30576000000000003
1.1596461339795496,0,0,1.2832920898437499,0,0,0.84084
1.1610280399909243,0,0,1.66636435546875,0,0,1.75812
1.162411612982396,0,0,2.0374656127929685,0,0,1.07016
1.163794648979092,0,0,1.889025109863281,0,0,0.7644
1.1651749989832751,0,0,1.419761584472656,0,0,-0.68796
1.1673808379855473,0,0,0.4165910888671875,0,0,0.6115200000000001
1.1687859300000127,0,0,1.675941162109375,0,0,1.45236
1.1701701319834683,0,0,1.7645266235351562,0,0,1.07016
1.1715548899956048,0,0,0.9074024291992187,0,0,0.3822
1.1729355369752739,0,0,0.44053310546874996,0,0,0.84084
1.174318517994834,0,0,0.055066638183593745,0,0,0.22932
1.1763258969876915,0,0,1.8052280517578123,0,0,1.07016
1.1777447649801616,0,0,2.731784094238281,0,0,1.45236
1.17913550499361,0,0,2.35589443359375,0,0,1.68168
1.1805336329853162,0,0,0.9792284790039062,0,0,1.5288
1.1819228359963745,0,0,0.06464344482421874,0,0,-0.3822
1.1833180940011516,0,0,0.11252747802734374,0,0,0.53508
1.1847068700008094,0,0,2.1404162841796874,0,0,1.2994800000000002
1.1860953869763762,0,0,2.530671154785156,0,0,0.91728
1.1874828119762242,0,0,1.3215993164062498,0,0,-9.09636
1.1888712549989577,0,0,0.8499415893554687,0,0,1.1465999999999998
1.19025901297573,0,0,0.2753331909179687,0,0,-0.6115200000000001
1.1916474569879938,0,0,1.3910311645507811,0,0,0.45864
1.193034103984246,0,0,1.6543933471679686,0,0,1.2230400000000001
1.194420990999788,0,0,1.4245499877929686,0,0,0.45864
1.1958090639964212,0,0,1.0654197387695312,0,0,0.68796
1.1971957109926734,0,0,0.8786720092773437,0,0,0.68796
1.1985825059819035,0,0,0.3950432739257812,0,0,1.45236
1.1999703939945903,0,0,1.9991583862304687,0,0,1.68168
1.2013572079886217,0,0,2.482787121582031,0,0,2.36964
1.2027440399979241,0,0,1.8914193115234375,0,0,1.1465999999999998
1.2041311679931823,0,0,1.0031704956054688,0,0,0.30576000000000003
1.2055177409783937,0,0,0.4572925170898437,0,0,-0.7644
1.2069054809981026,0,0,0.7230489013671875,0,0,0.6115200000000001
1.2082928129821084,0,0,2.5474305664062498,0,0,1.60524
1.2096793859964237,0,0,2.2960393920898436,0,0,1.68168
1.2110653659910895,0,0,1.6615759521484375,0,0,1.1465999999999998
1.2124591429892462,0,0,-0.201112939453125,0,0,0.22932
1.213847603998147,0,0,-0.4860229370117187,0,0,-1.45236
1.2152358439925592,0,0,-0.09337386474609374,0,0,0.7644
1.2166232129966374,0,0,2.2864625854492187,0,0,1.1465999999999998
1.2180095450021327,0,0,2.93050283203125,0,0,2.06388
1.2193954889953602,0,0,1.3862427612304686,0,0,0.7644
1.2207824689976405,0,0,0.8810662109374999,0,0,1.5288
1.222176633978961,0,0,-0.0383072265625,0,0,-0.99372
1.223590872978093,0,0,1.5562310791015623,0,0,0.30576000000000003
1.2249822419835255,0,0,2.0446482177734375,0,0,1.2994800000000002
1.2263693339773454,0,0,2.3822306518554686,0,0,1.37592
1.2277566099946853,0,0,1.2713210815429687,0,0,0.30576000000000003
1.2291429979959503,0,0,0.49320554199218747,0,0,0.30576000000000003
1.2305291079974268,0,0,-0.39983167724609375,0,0,0.0
1.2319190139824059,0,0,1.4508862060546874,0,0,0.3822
1.2333062349935062,0,0,2.1595698974609374,0,0,1.98744
1.2346919190022163,0,0,2.3151930053710936,0,0,1.2230400000000001
1.2360782889882103,0,0,1.4317325927734375,0,0,0.22932
1.2374646209937055,0,0,-0.11731588134765625,0,0,-9.47856
1.238852730981307,0,0,0.39264907226562495,0,0,1.07016
1.240240877988981,0,0,2.3726538452148436,0,0,1.1465999999999998
1.241630301985424,0,0,2.5067291381835934,0,0,1.60524
1.2430169679864775,0,0,1.8171990600585937,0,0,0.84084
1.244404262979515,0,0,0.11013327636718749,0,0,0.0
1.2457899099972565,0,0,-0.3447650390625,0,0,-1.2230400000000001
1.2471777419850696,0,0,0.2059013427734375,0,0,0.30576000000000003
1.2485648329893593,0,0,2.844311572265625,0,0,2.14032
1.2499514619994443,0,0,3.0238766967773434,0,0,1.911
1.2513382379838731,0,0,0.8882488159179687,0,0,1.2994800000000002
1.2527275149768684,0,0,-0.20350714111328125,0,0,0.22932
1.2541147180018015,0,0,-1.0702081420898437,0,0,-1.5288
1.2555032719974406,0,0,1.7357962036132812,0,0,0.07644000000000001
1.2568914189760108,0,0,2.693476867675781,0,0,1.68168
1.2582778249925468,0,0,3.6080619018554687,0,0,1.911
1.2596648979815654,0,0,1.5442600708007812,0,0,1.68168
1.261049897002522,0,0,0.3687070556640625,0,0,1.37592
1.2624357099994086,0,0,-0.8595183959960937,0,0,-1.1465999999999998
1.263824579975335,0,0,1.235408056640625,0,0,0.07644000000000001
1.265210429992294,0,0,2.4947581298828125,0,0,1.68168
1.2666048549872357,0,0,2.9041666137695312,0,0,1.5288
1.2679924459953327,0,0,1.9823989746093749,0,0,1.1465999999999998
1.2693785009905696,0,0,-1.0342951171875,0,0,-0.15288000000000002
1.270765406981809,0,0,-0.9959878906249999,0,0,-0.15288000000000002
1.272152831981657,0,0,0.679953271484375,0,0,0.0
1.2735388489963952,0,0,2.920926025390625,0,0,1.37592
1.2749248479958624,0,0,2.3391350219726563,0,0,1.45236
1.2763115690031555,0,0,1.0079588989257813,0,0,1.2994800000000002
1.2776980490016285,0,0,-0.44053310546874996,0,0,-0.30576000000000003
1.279085417976603,0,0,-0.076614453125,0,0,0.91728
1.2804872870037798,0,0,2.1978771240234374,0,0,1.45236
1.2818736199988052,0,0,2.9831752685546875,0,0,1.2230400000000001
1.2832600999972783,0,0,2.446874096679687,0,0,1.37592
1.28464680199977,0,0,1.16837041015625,0,0,0.99372
1.2860323569911998,0,0,-0.34715924072265625,0,0,-1.37592
1.2874198560020886,0,0,1.4149731811523436,0,0,1.45236
1.291632424981799,0,0,1.5418658691406248,0,0,1.37592
1.2930502200033516,0,0,0.22744915771484372,0,0,0.22932
1.2944323489791714,0,0,-1.2832920898437499,0,0,-1.68168
1.2958196069812402,0,0,0.7661445312499999,0,0,-0.68796
1.2972019570006523,0,0,2.1068974609374997,0,0,1.60524
1.2985826039803214,0,0,3.303998291015625,0,0,1.83456
1.2999655849998817,0,0,2.530671154785156,0,0,2.52252
1.3013466209813487,0,0,-0.6536170532226562,0,0,2.14032
1.3027271009923425,0,0,-1.6639701538085936,0,0,0.15288000000000002
1.304109062999487,0,0,-0.1580173095703125,0,0,-0.45864
1.3054898029949982,0,0,3.5673604736328124,0,0,1.07016
1.3068692459783051,0,0,3.5889082885742187,0,0,0.99372
1.308250762987882,0,0,2.185906115722656,0,0,1.911
1.309630132978782,0,0,-0.0526724365234375,0,0,0.15288000000000002
1.31101031700382,0,0,-1.0199299072265624,0,0,0.0
1.312399407994235,0,0,0.7972691528320313,0,0,0.53508
1.3137872219958808,0,0,2.070984436035156,0,0,0.15288000000000002
1.315174331975868,0,0,2.123656872558594,0,0,1.2230400000000001
1.31656146000023,0,0,1.5538368774414062,0,0,1.07016
1.31794801398064,0,0,0.055066638183593745,0,0,0.0
1.3193349950015545,0,0,1.0917559570312498,0,0,0.30576000000000003
1.3207217339950148,0,0,1.8028338500976562,0,0,1.68168
1.3221089179860428,0,0,2.597708801269531,0,0,1.2230400000000001
1.3234958429820836,0,0,2.123656872558594,0,0,1.07016
1.3248893049894832,0,0,1.2330138549804688,0,0,0.99372
1.3262759519857354,0,0,-0.16998831787109375,0,0,-0.7644
1.327665264980169,0,0,1.3096283081054687,0,0,-0.30576000000000003
1.329051578999497,0,0,2.250549560546875,0,0,1.83456
1.3304382999776863,0,0,2.39420166015625,0,0,1.5288
1.3318264099943917,0,0,1.8100164550781248,0,0,1.2994800000000002
1.333212334982818,0,0,0.8954314208984374,0,0,0.45864
1.3345989630033728,0,0,-0.8690952026367187,0,0,-0.91728
1.3359910169965588,0,0,0.4860229370117187,0,0,-0.84084
1.3373772009799723,0,0,2.521094348144531,0,0,1.45236
1.3387641079898458,0,0,2.597708801269531,0,0,2.4460800000000003
1.3401503469794989,0,0,2.5234885498046875,0,0,2.4460800000000003
1.3415352159936447,0,0,0.24899697265624998,0,0,1.2230400000000001
1.3429201599792577,0,0,-0.699106884765625,0,0,0.07644000000000001
1.3443886569875758,0,0,1.3024457031249999,0,0,-0.22932
1.3457777489966247,0,0,2.480392919921875,0,0,0.99372
1.3471742469992023,0,0,3.0142998901367184,0,0,1.68168
1.3485641169827431,0,0,2.403778466796875,0,0,2.14032
1.349951301002875,0,0,0.6512228515624999,0,0,-0.3822
1.3513387989951298,0,0,0.11013327636718749,0,0,0.0
1.3527244649885688,0,0,0.6679822631835937,0,0,0.15288000000000002
1.3541214639844839,0,0,1.3287819213867187,0,0,0.0
1.3555093699833378,0,0,1.9823989746093749,0,0,0.6115200000000001
1.3569564599893056,0,0,1.47482822265625,0,0,1.45236
1.3583444779796991,0,0,0.0143652099609375,0,0,-0.6115200000000001
1.3597324019938242,0,0,1.0534487304687499,0,0,1.07016
1.3611183640023228,0,0,2.2170307373046874,0,0,2.14032
1.362505010998575,0,0,2.0350714111328125,0,0,1.5288
1.363892583991401,0,0,1.5035586425781249,0,0,0.84084
1.365278897981625,0,0,0.373495458984375,0,0,0.30576000000000003
1.3666651559760794,0,0,0.24660277099609373,0,0,-0.30576000000000003
1.3680654139898252,0,0,1.4963760375976562,0,0,0.22932
1.3694525239989161,0,0,2.731784094238281,0,0,1.5288
1.370838984992588,0,0,2.4301146850585935,0,0,1.5288
1.3722258920024615,0,0,0.48123453369140623,0,0,0.7644
1.373612408991903,0,0,-0.2920926025390625,0,0,-0.30576000000000003
1.374999981984729,0,0,-0.48123453369140623,0,0,0.07644000000000001
1.3763873879797757,0,0,2.032677209472656,0,0,0.84084
1.3777734789764509,0,0,2.5163059448242184,0,0,1.45236
1.3791601629927754,0,0,1.707065783691406,0,0,1.37592
1.3805466619960498,0,0,1.16837041015625,0,0,1.911
1.3819324939977378,0,0,0.4740519287109375,0,0,-0.30576000000000003
1.3833193449827377,0,0,0.833182177734375,0,0,0.53508
1.3847060480038635,0,0,2.090138049316406,0,0,0.99372
1.3860918979917187,0,0,2.5905261962890624,0,0,0.91728
1.38747876798152,0,0,1.668758557128906,0,0,0.91728
1.3888651549932547,0,0,1.0390835205078124,0,0,0.91728
1.3902512469794601,0,0,-0.02154781494140625,0,0,-0.7644
1.3916398379951715,0,0,0.8667010009765624,0,0,0.22932
1.393025540979579,0,0,1.618480322265625,0,0,0.99372
1.3944119649822824,0,0,1.7669208251953124,0,0,0.53508
1.3957998160040006,0,0,1.656787548828125,0,0,0.91728
1.397185684996657,0,0,0.814028564453125,0,0,2.06388
1.398572202975629,0,0,0.8595183959960937,0,0,0.45864
1.39995925698895,0,0,1.1827356201171875,0,0,1.2994800000000002
1.4013545149937272,0,0,1.7741034301757812,0,0,1.1465999999999998
1.402809178980533,0,0,1.4317325927734375,0,0,0.91728
1.4041985109797679,0,0,0.9624690673828125,0,0,0.15288000000000002
1.4056491020019166,0,0,0.7422025146484375,0,0,-0.15288000000000002
1.4071418029780034,0,0,1.7453730102539062,0,0,1.07016
1.4085378389863763,0,0,2.3032219970703123,0,0,1.98744
1.4099228749983013,0,0,2.3487118286132813,0,0,1.2994800000000002
1.4113352989952546,0,0,0.9816226806640624,0,0,1.07016
1.4129071289789863,0,0,-0.009576806640625,0,0,0.45864
1.4143027379759587,0,0,-0.1484405029296875,0,0,-1.2230400000000001
1.4156964409921784,0,0,1.429338391113281,0,0,0.07644000000000001
1.4171394759905525,0,0,3.7110125732421873,0,0,2.2931999999999997
1.4185720300010871,0,0,3.162740393066406,0,0,1.98744
1.419966953981202,0,0,2.020706201171875,0,0,1.5288
1.4213612119783647,0,0,-1.0295067138671874,0,0,-0.3822
1.4227643960039131,0,0,-1.4628572143554686,0,0,-0.45864
1.4241557469940744,0,0,2.1978771240234374,0,0,0.0
1.4255420969857369,0,0,3.268085266113281,0,0,1.07016
1.4270033539796714,0,0,3.0550013183593747,0,0,1.2994800000000002
1.4283930749807041,0,0,1.254561669921875,0,0,0.68796
1.4297731849947013,0,0,-0.05985504150390625,0,0,-0.22932
1.4311549429839943,0,0,0.6488286499023437,0,0,0.53508
1.432569070981117,0,0,1.4125789794921875,0,0,1.2994800000000002
1.4339566629787441,0,0,2.0877438476562498,0,0,0.22932
1.4353444209846202,0,0,1.7573440185546874,0,0,1.5288
1.4367261979787145,0,0,1.2904746948242187,0,0,1.45236
1.438105621986324,0,0,0.4572925170898437,0,0,0.0
1.4394841399916913,0,0,2.0254946044921875,0,0,1.45236
1.4408736389887054,0,0,2.767697119140625,0,0,2.4460800000000003
1.4422636369999964,0,0,1.85790048828125,0,0,1.2994800000000002
1.443648229003884,0,0,0.6272808349609375,0,0,0.91728
1.4450287089857738,0,0,-0.2561795776367187,0,0,-0.15288000000000002
1.4464093009883072,0,0,-0.2609679809570312,0,0,-1.5288
1.4477980219817255,0,0,1.8148048583984373,0,0,0.53508
1.44918605798739,0,0,3.5577836669921874,0,0,2.14032
1.4505732599936891,0,0,2.760514514160156,0,0,1.911
1.4519575369777158,0,0,1.2473790649414063,0,0,1.2994800000000002
1.4533364059752785,0,0,-1.7812860351562498,0,0,0.0
1.4547163679962978,0,0,-1.6543933471679686,0,0,-0.7644
1.4561044219881296,0,0,3.105279553222656,0,0,0.3822
1.457492605986772,0,0,4.3813890380859375,0,0,2.36964
1.4588805309904274,0,0,3.778050219726562,0,0,2.4460800000000003
1.4602733999781776,0,0,1.0390835205078124,0,0,1.68168
1.4616666579968296,0,0,-0.8092401611328125,0,0,-1.07016
1.4630561009980738,0,0,0.201112939453125,0,0,0.0
1.4644441189884674,0,0,2.243366955566406,0,0,0.0
1.4658313949767035,0,0,3.229778039550781,0,0,0.99372
1.4672249869909137,0,0,2.3726538452148436,0,0,1.60524
1.4686130589980166,0,0,1.3311761230468748,0,0,0.91728
1.4700005209888332,0,0,-0.3902548706054687,0,0,-0.68796
1.4713895939930808,0,0,0.16998831787109375,0,0,0.0
1.47277679698891,0,0,1.6304513305664061,0,0,1.1465999999999998
1.4741639249841683,0,0,2.9640216552734375,0,0,1.2230400000000001
1.4755556829913985,0,0,2.2002713256835937,0,0,20
1.4769348120025825,0,0,1.6735469604492186,0,0,1.83456
1.478313495987095,0,0,-0.6703764648437499,0,0,-0.68796
1.4796966799767688,0,0,0.46686932373046874,0,0,0.07644000000000001
1.4810755490034353,0,0,2.6623522460937497,0,0,1.83456
1.482454640994547,0,0,2.999934680175781,0,0,1.07016
1.4838358619890641,0,0,2.4253262817382812,0,0,0.84084
1.485214582993649,0,0,0.2346317626953125,0,0,1.68168
1.486593248002464,0,0,-0.6775590698242188,0,0,-0.15288000000000002
1.487975172989536,0,0,0.258573779296875,0,0,0.07644000000000001
1.4893540059856605,0,0,2.6479870361328124,0,0,1.83456
1.4907326709944755,0,0,3.1268273681640624,0,0,1.45236
1.4921133369789459,0,0,1.2497732666015624,0,0,0.84084
1.493492483976297,0,0,-0.22026655273437498,0,0,0.0
1.4948722789995372,0,0,-1.448492004394531,0,0,-0.7644
1.496260703977896,0,0,1.7357962036132812,0,0,0.30576000000000003
1.497647757991217,0,0,2.6910826660156246,0,0,1.37592
1.4990345900005195,0,0,2.592920397949219,0,0,1.83456
1.500422755983891,0,0,1.915361328125,0,0,2.14032
1.5018097549909726,0,0,0.36631285400390623,0,0,-0.99372
1.5031967719842214,0,0,-0.5434837768554687,0,0,-0.53508
1.5045851600007154,0,0,1.9632453613281249,0,0,0.22932
1.50597247297992,0,0,3.308786694335937,0,0,0.91728
1.507358860981185,0,0,2.896984008789062,0,0,1.60524
1.5087456929904874,0,0,1.5322890624999999,0,0,1.83456
1.510132209979929,0,0,-1.879448303222656,0,0,-1.07016
1.5115346529928502,0,0,-0.8547299926757812,0,0,-0.68796
1.5129228369914927,0,0,0.6703764648437499,0,0,0.68796
1.5143097619875334,0,0,2.7054478759765623,0,0,0.68796
1.5156964649795555,0,0,2.760514514160156,0,0,1.911
1.5170807229878847,0,0,1.180341418457031,0,0,2.6754
1.5185788869857788,0,0,-0.4644751220703125,0,0,0.0
1.5199722189863678,0,0,-0.3399766357421875,0,0,0.3822
1.5213588289916515,0,0,2.262520568847656,0,0,1.2230400000000001
1.5227458279987331,0,0,2.829946362304687,0,0,1.83456
1.524133251979947,0,0,1.7525556152343749,0,0,0.91728
1.5255201959807891,0,0,0.699106884765625,0,0,-0.30576000000000003
1.5269073419913184,0,0,-0.411802685546875,0,0,-0.15288000000000002
1.5282950819819234,0,0,1.5825672973632812,0,0,-0.15288000000000002
1.5296820439980365,0,0,2.195482922363281,0,0,0.84084
1.5310687279852573,0,0,1.889025109863281,0,0,1.83456
1.5324554120015819,0,0,1.3383587280273437,0,0,1.37592
1.5338415220030583,0,0,0.2346317626953125,0,0,-0.3822
1.5352482049784157,0,0,0.1580173095703125,0,0,0.45864
1.5366354639991187,0,0,1.8914193115234375,0,0,0.99372
1.5380219809885602,0,0,3.0980969482421874,0,0,1.1465999999999998
1.5394085349980742,0,0,2.5474305664062498,0,0,1.98744
1.5407953299873043,0,0,1.908178723144531,0,0,2.4460800000000003
1.5421814220026135,0,0,-1.0582371337890624,0,0,-1.5288
1.543584845989244,0,0,-0.6081272216796875,0,0,-0.7644
1.5449731230037287,0,0,2.7844565307617186,0,0,0.84084
1.5463597509951796,0,0,3.0310593017578125,0,0,1.2994800000000002
1.5477476950036362,0,0,2.3151930053710936,0,0,1.5288
1.5491334709804505,0,0,0.28012159423828126,0,0,2.2167600000000003
1.5505198029859457,0,0,-1.0558429321289062,0,0,-0.45864
1.5519083019753452,0,0,-0.5698199951171875,0,0,-0.53508
1.553295633988455,0,0,2.085349645996094,0,0,20
1.554682336980477,0,0,3.0909143432617188,0,0,0.0
1.5560710389981978,0,0,2.729389892578125,0,0,1.83456
1.5574571859906428,0,0,1.3000515014648437,0,0,2.14032
1.5588432959921192,0,0,-0.086191259765625,0,0,0.30576000000000003
1.5602301839971915,0,0,0.7422025146484375,0,0,-0.3822
1.561617404979188,0,0,1.5179238525390624,0,0,0.0
1.5630034039786551,0,0,2.3391350219726563,0,0,0.7644
1.5643900139839388,0,0,2.231395947265625,0,0,0.68796
1.565776586998254,0,0,1.2114660400390624,0,0,0.0
1.567171510978369,0,0,0.2561795776367187,0,0,1.2994800000000002
1.5685584729944821,0,0,1.216254443359375,0,0,1.1465999999999998
1.5699451759865042,0,0,1.7190367919921874,0,0,0.6115200000000001
1.5713314149761572,0,0,1.1563994018554686,0,0,0.91728
1.5728559120034333,0,0,1.0773907470703123,0,0,1.68168
1.574273298989283,0,0,0.488417138671875,0,0,-0.15288000000000002
1.575666075979825,0,0,1.3144167114257812,0,0,0.7644
1.5770500189973973,0,0,2.6503812377929687,0,0,1.75812
1.5784372029884253,0,0,2.645592834472656,0,0,1.5288
1.5798249979852699,0,0,1.8435352783203125,0,0,0.99372
1.58121044098516,0,0,-0.15083470458984374,0,0,-8.4084
1.5825993479811586,0,0,-1.0989385620117187,0,0,0.0
1.5839877349790186,0,0,2.1021090576171875,0,0,-0.45864
1.5853742710023653,0,0,2.7748797241210936,0,0,1.60524
1.5867614739981946,0,0,2.4588451049804685,0,0,1.68168
1.5881482870026957,0,0,0.7829039428710937,0,0,0.30576000000000003
1.5895348599879071,0,0,0.0430956298828125,0,0,-0.15288000000000002
1.5909220069879666,0,0,0.9313444458007812,0,0,0.3822
1.5923085619870108,0,0,2.1883003173828124,0,0,0.7644
1.59371220797766,0,0,2.5905261962890624,0,0,1.2994800000000002
1.5950995769817382,0,0,1.6424223388671875,0,0,1.83456
1.5964865580026526,0,0,1.1468225952148436,0,0,0.99372
1.597872741986066,0,0,0.24181436767578124,0,0,-0.91728
1.5992604069761,0,0,1.0342951171875,0,0,0.6115200000000001
1.6006488509883638,0,0,2.4133552734375,0,0,0.6115200000000001
1.6020349229802378,0,0,2.5905261962890624,0,0,1.1465999999999998
1.60342181098531,0,0,1.426944189453125,0,0,1.2230400000000001
1.6048093650024384,0,0,0.8643067993164062,0,0,1.68168
1.6061958089994732,0,0,-0.4740519287109375,0,0,-1.2230400000000001
1.6075854739756323,0,0,0.8571241943359375,0,0,0.3822
1.6089717879949603,0,0,2.4109610717773435,0,0,1.45236
1.6103581200004555,0,0,2.645592834472656,0,0,0.91728
1.6117544709995855,0,0,1.7525556152343749,0,0,0.84084
1.6131407289940398,0,0,0.39983167724609375,0,0,1.07016
1.6145272459834814,0,0,-0.22744915771484372,0,0,-0.3822
1.6159158369991928,0,0,2.3965958618164063,0,0,0.45864
1.617314428993268,0,0,2.6671406494140624,0,0,2.14032
1.6187028529820964,0,0,2.4851813232421875,0,0,1.60524
1.620090184995206,0,0,0.8810662109374999,0,0,1.1465999999999998
1.6214765359763987,0,0,-0.22744915771484372,0,0,-1.07016
1.6228731829905882,0,0,0.689530078125,0,0,0.68796
1.6242656629765406,0,0,2.4396914916992185,0,0,0.0
1.6256548289966304,0,0,3.0430303100585934,0,0,1.83456
1.627041993982857,0,0,1.6519991455078125,0,0,1.5288
1.6284246409777552,0,0,0.8212111694335937,0,0,1.911
1.6298036399821285,0,0,-0.47884033203125,0,0,-1.45236
1.6311849349876866,0,0,0.7134720947265625,0,0,0.84084
1.632576377975056,0,0,2.27927998046875,0,0,0.91728
1.633963970001787,0,0,3.1579519897460937,0,0,0.91728
1.6353516539966222,0,0,2.0542250244140625,0,0,1.60524
1.6367321339785121,0,0,1.3000515014648437,0,0,1.45236
1.6381114659889136,0,0,-1.1156979736328125,0,0,-0.99372
1.6394916139834095,0,0,0.4477157104492187,0,0,0.45864
1.64087988997926,0,0,2.8514941772460936,0,0,1.1465999999999998
1.6422663889825344,0,0,2.8730419921875,0,0,1.1465999999999998
1.6436535730026662,0,0,1.5131354492187499,0,0,0.6115200000000001
1.6450400530011393,0,0,-0.32561142578124996,0,0,1.2230400000000001
1.6464331629977096,0,0,-0.7134720947265625,0,0,-0.84084
1.6478295879787765,0,0,2.4947581298828125,0,0,0.22932
1.6492155680025462,0,0,3.0621839233398433,0,0,1.98744
1.6506023999827448,0,0,2.940079638671875,0,0,1.75812
1.6520036769798025,0,0,1.189918225097656,0,0,1.37592
1.6533901380025782,0,0,-0.46208092041015625,0,0,-0.22932
1.654784896003548,0,0,-1.3551181396484375,0,0,0.0
1.6561725059873424,0,0,2.3965958618164063,0,0,-0.45864
1.6575621719821356,0,0,3.373430139160156,0,0,1.45236
1.6589482259878423,0,0,2.252943762207031,0,0,2.14032
1.6603352619858924,0,0,1.7956512451171873,0,0,1.60524
1.6617216309823561,0,0,0.1197100830078125,0,0,-1.2994800000000002
1.66310842600069,0,0,-0.63206923828125,0,0,0.30576000000000003
1.6644960179983173,0,0,1.5825672973632812,0,0,-0.22932
1.665882720000809,0,0,3.3782185424804685,0,0,0.53508
1.6673520879994612,0,0,2.4971523315429685,0,0,1.98744
1.6687875119969249,0,0,1.7884686401367187,0,0,1.60524
1.670177899999544,0,0,-1.3168109130859373,0,0,-0.45864
1.67159571297816,0,0,-0.5626373901367188,0,0,-0.6115200000000001
1.6729851559794042,0,0,2.2936451904296873,0,0,1.1465999999999998
1.674372413981473,0,0,3.0550013183593747,0,0,1.5288
1.6757603759760968,0,0,2.3678654418945313,0,0,1.37592
1.6771487639925908,0,0,0.93852705078125,0,0,2.4460800000000003
1.6785368919954635,0,0,-0.30885201416015623,0,0,9.47856
1.6799244470021222,0,0,1.3479355346679687,0,0,-0.6115200000000001
1.6813105199835263,0,0,2.492363928222656,0,0,1.75812
1.6826971659902483,0,0,2.9927520751953125,0,0,1.45236
1.6840833689784631,0,0,1.93451494140625,0,0,1.2994800000000002
1.6854674599890132,0,0,0.7134720947265625,0,0,0.0
1.6869236619968433,0,0,-0.0383072265625,0,0,0.91728
1.6883173089881893,0,0,1.209071838378906,0,0,0.0
1.6897042889904696,0,0,2.2553379638671873,0,0,0.99372
1.691090454987716,0,0,2.152387292480469,0,0,1.98744
1.6924908609944396,0,0,2.147598889160156,0,0,1.98744
1.6938772849971429,0,0,-1.216254443359375,0,0,-1.1465999999999998
1.6952653029875364,0,0,-0.7948749511718749,0,0,-0.30576000000000003
1.696652764978353,0,0,1.4101847778320311,0,0,0.84084
1.6980391889810562,0,0,3.5625720703124997,0,0,0.7644
1.6994437059911434,0,0,2.7269956909179687,0,0,1.911
1.7008335199789144,0,0,0.23223756103515625,0,0,2.4460800000000003
1.70221979697817,0,0,-1.4030021728515625,0,0,-0.6115200000000001
1.7036090919864364,0,0,-1.4173673828125,0,0,-0.99372
1.7049974050023593,0,0,2.118868469238281,0,0,1.45236
1.7063837930036243,0,0,3.284844677734375,0,0,0.15288000000000002
1.707771198998671,0,0,2.7365724975585937,0,0,1.1465999999999998
1.7091569569893181,0,0,0.8212111694335937,0,0,1.911
1.710553548997268,0,0,-0.6105214233398437,0,0,-0.30576000000000003
1.711941917979857,0,0,0.7781155395507812,0,0,-0.99372
1.7133284169831313,0,0,1.7980454467773437,0,0,1.2994800000000002
1.7147149889788125,0,0,2.844311572265625,0,0,1.45236
1.716101580997929,0,0,2.4756045166015626,0,0,1.07016
1.7174874319753144,0,0,1.0941501586914062,0,0,0.99372
1.7188736159878317,0,0,-0.8044517578125,0,0,0.0
1.7202603920013644,0,0,0.7996633544921875,0,0,-0.91728
1.7216464839875698,0,0,1.89620771484375,0,0,1.68168
1.723032907990273,0,0,2.4013842651367185,0,0,2.36964
1.7244195549865253,0,0,2.1691467041015624,0,0,1.75812
1.7258110730035696,0,0,-0.33518823242187495,0,0,0.0
1.7272098299872596,0,0,-0.7302315063476562,0,0,0.0
1.7285980329907034,0,0,0.6943184814453125,0,0,0.6115200000000001
1.72998519797693,0,0,2.6312276245117188,0,0,0.0
1.7313720859820023,0,0,2.4013842651367185,0,0,1.911
1.7327585659804754,0,0,1.149216796875,0,0,1.83456
1.7341448059887625,0,0,-0.2657563842773437,0,0,-0.7644
1.7355335269821808,0,0,-0.17477672119140625,0,0,0.22932
1.736920433002524,0,0,1.5969325073242187,0,0,1.68168
1.7383066729817074,0,0,2.5378537597656248,0,0,0.6115200000000001
1.7396946529916022,0,0,2.2673089721679687,0,0,1.75812
1.7410804299870506,0,0,1.0438719238281249,0,0,1.911
1.7424792059755418,0,0,-0.18914193115234373,0,0,-0.30576000000000003
1.7438699089980219,0,0,0.9864110839843749,0,0,-1.37592
1.7452559449884575,0,0,1.886630908203125,0,0,2.2167600000000003
1.7466423139849212,0,0,2.6791116577148437,0,0,0.6115200000000001
1.74802957198699,0,0,2.128445275878906,0,0,1.83456
1.7494148669939023,0,0,0.718260498046875,0,0,0.84084
1.7508013100014068,0,0,-0.7517793212890624,0,0,0.0
1.7521882159926463,0,0,0.7541735229492187,0,0,-0.84084
1.7535748629888985,0,0,2.3487118286132813,0,0,1.45236
1.7549612330039963,0,0,3.210624426269531,0,0,2.2167600000000003
1.7563484720012639,0,0,2.808398547363281,0,0,1.37592
1.757734471000731,0,0,-0.19153613281249998,0,0,0.22932
1.759121321985731,0,0,-1.177947216796875,0,0,0.0
1.7605077649932355,0,0,-0.05985504150390625,0,0,-0.99372
1.76189531898126,0,0,2.5378537597656248,0,0,-9.707880000000001
1.7632825959881302,0,0,2.5857377929687497,0,0,1.83456
1.7646691499976441,0,0,2.5426421630859375,0,0,1.83456
1.7660558159986977,0,0,0.2753331909179687,0,0,-0.6115200000000001
1.7674427589809056,0,0,-0.3064578125,0,0,0.53508
1.76884936899296,0,0,1.419761584472656,0,0,1.2230400000000001
1.7702361639821902,0,0,2.252943762207031,0,0,0.53508
1.771645125001669,0,0,2.0374656127929685,0,0,0.91728
1.7730314939981326,0,0,1.3455413330078123,0,0,1.911
1.7744177150016185,0,0,0.3902548706054687,0,0,-0.99372
1.7758052879944444,0,0,1.7836802368164062,0,0,0.07644000000000001
1.777191231987672,0,0,2.2553379638671873,0,0,1.75812
1.7785774339863565,0,0,2.7557261108398436,0,0,0.91728
1.7799741179915145,0,0,1.3455413330078123,0,0,0.45864
1.7813600609952118,0,0,0.05746083984375,0,0,-8.943480000000001
1.7827467639872339,0,0,-0.5913678100585937,0,0,0.0
1.7841335219854955,0,0,1.7262193969726563,0,0,-0.45864
1.7855199280020315,0,0,2.8036101440429686,0,0,2.36964
1.7869137789821252,0,0,2.01112939453125,0,0,2.4460800000000003
1.7882998889836017,0,0,1.5059528442382812,0,0,1.37592
1.7896860539913177,0,0,-0.42377369384765623,0,0,0.30576000000000003
1.7910733859753236,0,0,-0.55545478515625,0,0,0.22932
1.792460217984626,0,0,1.4867992309570313,0,0,0.15288000000000002
1.7938470319786575,0,0,3.2225954345703123,0,0,0.99372
1.795233141980134,0,0,2.5426421630859375,0,0,2.4460800000000003
1.7966192329768091,0,0,2.243366955566406,0,0,2.06388
1.7980055839871056,0,0,-0.15083470458984374,0,0,-0.45864
1.7993928240030073,0,0,-0.7661445312499999,0,0,0.3822
1.8007810999988578,0,0,2.001552587890625,0,0,0.30576000000000003
1.8021669139852747,0,0,2.31758720703125,0,0,-0.30576000000000003
1.803554449987132,0,0,1.8100164550781248,0,0,0.99372
1.8049407079815865,0,0,0.9792284790039062,0,0,2.2167600000000003
1.8063267989782616,0,0,0.040701428222656245,0,0,8.7906
1.8077133350016084,0,0,1.4939818359375,0,0,0.53508
1.8090992039942648,0,0,1.9321207397460936,0,0,1.68168
1.8104849069786724,0,0,2.114080065917969,0,0,0.45864
1.811871443002019,0,0,1.7262193969726563,0,0,0.3822
1.8132566449930891,0,0,0.7876923461914062,0,0,1.2230400000000001
1.8146453849913087,0,0,0.3399766357421875,0,0,1.37592
1.816533506003907,0,0,2.7365724975585937,0,0,0.91728
1.817930819990579,0,0,3.1220389648437497,0,0,1.45236
1.8193182440008968,0,0,1.8052280517578123,0,0,1.60524
1.8207111499796156,0,0,-0.2657563842773437,0,0,1.2994800000000002
1.8221003899816424,0,0,-1.218648645019531,0,0,-2.2167600000000003
1.8234972959908191,0,0,-0.5243301635742187,0,0,-9.40212
1.8248868319788016,0,0,3.191470812988281,0,0,2.14032
1.8262684419751167,0,0,3.246537451171875,0,0,0.91728
1.8276754769904073,0,0,1.419761584472656,0,0,1.2230400000000001
1.8290637909958605,0,0,-0.12689268798828124,0,0,1.68168
1.8304589379986282,0,0,-1.2785036865234374,0,0,-0.99372
1.8318464919866528,0,0,1.675941162109375,0,0,0.0
1.833225786976982,0,0,3.385401147460937,0,0,2.06388
1.834604526986368,0,0,3.019088293457031,0,0,2.2167600000000003
1.8359895070025232,0,0,1.9991583862304687,0,0,1.37592
1.8373759139794856,0,0,0.15322890625,0,0,2.14032
1.8387622089940123,0,0,-1.599326708984375,0,0,-1.2994800000000002
1.8401497079757974,0,0,0.9169792358398436,0,0,-1.1465999999999998
1.8415366509871092,0,0,3.0454245117187497,0,0,1.07016
1.8429232979833614,0,0,2.9376854370117185,0,0,1.911
1.844309426000109,0,0,1.8914193115234375,0,0,1.07016
1.845696128992131,0,0,-1.2282254516601563,0,0,0.0
1.8470830720034428,0,0,-1.608903515625,0,0,-0.6115200000000001
1.8484942189825233,0,0,0.7398083129882812,0,0,9.631440000000001
1.8498804399860092,0,0,3.4739866088867184,0,0,0.3822
1.8512666419846937,0,0,2.703053674316406,0,0,2.4460800000000003
1.8526530859817285,0,0,0.4644751220703125,0,0,2.14032
1.8540395469754003,0,0,-0.814028564453125,0,0,-0.91728
1.855426712980261,0,0,-1.189918225097656,0,0,0.3822
1.8568140819843393,0,0,2.7653029174804686,0,0,0.3822
1.8582006179785822,0,0,4.062960217285156,0,0,0.45864
1.8595881349756382,0,0,2.3367408203125,0,0,1.45236
1.8609739120001905,0,0,0.1771709228515625,0,0,2.36964
1.8623602250008844,0,0,-1.5370774658203123,0,0,-1.83456
1.8637479459866881,0,0,0.5363011718749999,0,0,-1.2994800000000002
1.8651339819771238,0,0,2.6240450195312497,0,0,1.68168
1.866520462994231,0,0,3.9408559326171875,0,0,0.7644
1.8679071469814517,0,0,2.013523596191406,0,0,1.75812
1.8692923490016256,0,0,0.3327940307617187,0,0,1.68168
1.870678125997074,0,0,-2.27927998046875,0,0,-0.7644
1.8720651429903228,0,0,-0.44532150878906246,0,0,-2.4460800000000003
1.873452178988373,0,0,1.7884686401367187,0,0,1.37592
1.874846158985747,0,0,3.4955344238281247,0,0,1.98744
1.8762324729759712,0,0,2.8275521606445313,0,0,0.99372
1.8776188239862677,0,0,-1.0127473022460938,0,0,2.36964
1.8790057479927782,0,0,-2.398990063476562,0,0,0.0
1.8803930429858156,0,0,-1.0869675537109373,0,0,-2.2167600000000003
1.8817796899820678,0,0,2.767697119140625,0,0,0.53508
1.8831655599933583,0,0,2.7916391357421872,0,0,0.07644000000000001
1.8845518919988535,0,0,1.2018892333984375,0,0,-0.22932
1.885945501999231,0,0,-0.9002198242187499,0,0,2.36964
1.8873327039764263,0,0,-2.023100402832031,0,0,7.10892
1.8887205359933432,0,0,0.6105214233398437,0,0,-1.5288
1.8901073680026457,0,0,1.3263877197265623,0,0,2.14032
1.8914934039930813,0,0,1.946485949707031,0,0,-0.3822
1.8928805140021723,0,0,2.269703173828125,0,0,2.6754
1.8942669389944058,0,0,0.4477157104492187,0,0,1.911
1.8956532899755985,0,0,-1.1348515869140625,0,0,-1.60524
1.8970411399786826,0,0,-0.373495458984375,0,0,1.2994800000000002
1.8984285089827608,0,0,2.437297290039062,0,0,-1.45236
1.8998158600006718,0,0,3.9456443359374997,0,0,2.4460800000000003
1.9012021919770632,0,0,2.473210314941406,0,0,0.15288000000000002
1.9025873949867673,0,0,-0.2705447875976562,0,0,0.3822
1.9039750229858328,0,0,-2.214636535644531,0,0,-0.22932
1.9053621329949237,0,0,-2.398990063476562,0,0,-4.2042
1.9067490389861632,0,0,1.6543933471679686,0,0,0.91728
1.9081352420034818,0,0,2.3247698120117186,0,0,9.01992
1.9095210559898987,0,0,2.068590234375,0,0,2.98116
1.9109070359845646,0,0,0.4477157104492187,0,0,1.2230400000000001
1.9122930899902713,0,0,0.40462008056640625,0,0,1.37592
1.9136792369827162,0,0,-1.6017209106445311,0,0,9.32568
1.915065606997814,0,0,-0.0143652099609375,0,0,-3.21048
1.9164526239910629,0,0,0.612915625,0,0,1.911
1.9179421769804321,0,0,4.2305543334960936,0,0,-0.53508
1.919377155980328,0,0,3.191470812988281,0,0,4.73928
1.9207721179991495,0,0,-0.1005564697265625,0,0,9.01992
1.922160283982521,0,0,-0.6512228515624999,0,0,0.45864
1.9235478939954191,0,0,-2.1404162841796874,0,0,6.1152
1.92493316999753,0,0,0.02633621826171875,0,0,-1.75812
1.9263178909895942,0,0,1.2401964599609374,0,0,-1.5288
1.9277202599914744,0,0,3.5386300537109374,0,0,2.06388
1.9291095179796685,0,0,1.8411410766601561,0,0,1.37592
1.9304970729863271,0,0,-0.5746083984375,0,0,2.52252
1.9318874229793437,0,0,-1.675941162109375,0,0,0.0
1.9332745889842045,0,0,-0.9911994873046874,0,0,-0.22932
1.9346635879774112,0,0,1.0031704956054688,0,0,-0.99372
1.9360920669860207,0,0,2.2002713256835937,0,0,0.0
1.9374797699856572,0,0,2.4588451049804685,0,0,0.30576000000000003
1.938866712996969,0,0,2.176329309082031,0,0,1.5288
1.9402538790018298,0,0,1.20667763671875,0,0,1.45236
1.9416405439842492,0,0,-1.0558429321289062,0,0,0.45864
1.9431534109753557,0,0,-0.8786720092773437,0,0,-1.37592
1.9445743359974585,0,0,0.97683427734375,0,0,-0.6115200000000001
1.9459626859752461,0,0,1.687912170410156,0,0,-0.22932
1.9473714999912772,0,0,1.3814543579101561,0,0,0.3822
1.9487620729778428,0,0,0.4381389038085937,0,0,0.3822
1.950149052980123,0,0,0.5961562133789062,0,0,0.45864
1.9515374960028566,0,0,0.8954314208984374,0,0,0.53508
1.9529242909920868,0,0,1.369483349609375,0,0,1.1465999999999998
1.9543110489903484,0,0,1.455674609375,0,0,1.07016
1.9556984179944266,0,0,0.8690952026367187,0,0,0.22932
1.9570846209826414,0,0,0.8978256225585937,0,0,0.99372
1.9584712859941646,0,0,0.5195417602539062,0,0,-0.3822
1.9598595999996178,0,0,0.8643067993164062,0,0,-0.6115200000000001
1.9612467289844062,0,0,1.3623007446289062,0,0,0.15288000000000002
1.962680892989738,0,0,0.7876923461914062,0,0,-0.22932
1.9640695769921876,0,0,0.9720458740234375,0,0,0.22932
1.9654567239922471,0,0,0.19393033447265623,0,0,1.37592
1.9668441120011266,0,0,-0.5147533569335937,0,0,9.47856
1.9682324070017785,0,0,-0.16998831787109375,0,0,-0.15288000000000002
1.9696200539765414,0,0,0.4070142822265625,0,0,0.15288000000000002
1.9710075529874302,0,0,0.9313444458007812,0,0,-0.45864
1.9723954959772527,0,0,2.5163059448242184,0,0,1.37592
1.9737843649927527,0,0,1.9895815795898437,0,0,1.07016
1.9751712720026262,0,0,1.3096283081054687,0,0,1.60524
1.9765600849932525,0,0,0.17477672119140625,0,0,0.6115200000000001
1.977952416986227,0,0,-0.5123591552734374,0,0,-1.60524
1.979340952995699,0,0,-0.689530078125,0,0,-0.91728
1.9807300069951452,0,0,1.8124106567382812,0,0,-0.99372
1.9821172099909745,0,0,2.085349645996094,0,0,1.60524
1.983503950003069,0,0,0.06464344482421874,0,0,0.07644000000000001
1.9848927999846637,0,0,0.21787235107421873,0,0,0.68796
1.9862797620007768,0,0,-0.2442085693359375,0,0,0.0
1.9876687419891823,0,0,-0.062249243164062495,0,0,-0.91728
1.989057019003667,0,0,0.842758984375,0,0,1.07016
1.9904446470027324,0,0,2.269703173828125,0,0,0.30576000000000003
1.9918370719824452,0,0,1.6400281372070311,0,0,1.2994800000000002
1.9932263489754405,0,0,0.7852981445312499,0,0,0.68796
1.9946134959755,0,0,0.22026655273437498,0,0,0.07644000000000001
1.9960014569805935,0,0,0.1484405029296875,0,0,-0.53508
1.9973873449780513,0,0,0.603338818359375,0,0,-0.53508
1.998774917999981,0,0,1.0199299072265624,0,0,0.0
2.0001771569950506,0,0,1.5490484741210937,0,0,0.91728
2.0015635079762433,0,0,1.0773907470703123,0,0,0.84084
2.002966468979139,0,0,0.1149216796875,0,0,0.45864
2.00435357898823,0,0,-0.296881005859375,0,0,0.0
2.005748022987973,0,0,0.3950432739257812,0,0,-0.22932
2.007136503001675,0,0,1.2713210815429687,0,0,0.30576000000000003
2.0085307419940364,0,0,1.5442600708007812,0,0,0.7644
2.0099246479803696,0,0,0.9888052856445312,0,0,0.99372
2.0113116099964827,0,0,0.5147533569335937,0,0,0.84084
2.0126984419766814,0,0,0.9241618408203125,0,0,0.30576000000000003
2.01408488600282,0,0,1.1276689819335937,0,0,0.53508
2.0154716440010816,0,0,1.0654197387695312,0,0,0.07644000000000001
2.0168743089889176,0,0,0.7517793212890624,0,0,0.07644000000000001
2.0182628449983895,0,0,0.7134720947265625,0,0,-0.22932
2.019661380996695,0,0,0.6655880615234374,0,0,0.07644000000000001
2.0210463239927776,0,0,0.7781155395507812,0,0,-20
2.0224410079827067,0,0,0.8571241943359375,0,0,0.22932
2.0238298579934053,0,0,0.4381389038085937,0,0,0.15288000000000002
2.0252201529801823,0,0,0.076614453125,0,0,-0.45864
2.0266190230031498,0,0,0.6153098266601562,0,0,0.0
2.0280056509946007,0,0,0.7805097412109374,0,0,0.3822
2.0293845199921634,0,0,1.455674609375,0,0,0.91728
2.030763629998546,0,0,1.2521674682617188,0,0,1.07016
2.0321521849837154,0,0,0.9337386474609375,0,0,0.84084
2.03353868398699,0,0,0.16998831787109375,0,0,0.30576000000000003
2.034925274987472,0,0,0.33039982910156246,0,0,-0.53508
2.0363129589823075,0,0,1.5634136840820312,0,0,0.0
2.037699476000853,0,0,1.8363526733398436,0,0,0.15288000000000002
2.039085456985049,0,0,1.5777788940429687,0,0,0.6115200000000001
2.0405136029876303,0,0,0.5698199951171875,0,0,0.30576000000000003
2.0419016020023264,0,0,-0.00239420166015625,0,0,0.0
2.0432889520016033,0,0,-0.15562310791015624,0,0,-0.53508
2.0446809330023825,0,0,0.6512228515624999,0,0,-0.68796
2.046067912975559,0,0,1.3575123413085937,0,0,0.30576000000000003
2.047454170999117,0,0,1.6328455322265625,0,0,0.84084
2.048842132993741,0,0,1.0702081420898437,0,0,1.1465999999999998
2.050245353981154,0,0,0.7445967163085937,0,0,0.45864
2.0516327229852322,0,0,0.0909796630859375,0,0,0.30576000000000003
2.053018962003989,0,0,0.30885201416015623,0,0,0.07644000000000001
2.0544055909849703,0,0,1.2306196533203124,0,0,0.3822
2.0557923860033043,0,0,1.5394716674804687,0,0,0.22932
2.0571777369768824,0,0,1.4867992309570313,0,0,0.68796
2.058564253995428,0,0,1.0295067138671874,0,0,0.30576000000000003
2.059950882976409,0,0,0.6344634399414062,0,0,0.15288000000000002
2.061346121976385,0,0,0.5746083984375,0,0,0.0
2.0627330649876967,0,0,0.7015010864257812,0,0,0.22932
2.064119378977921,0,0,0.469263525390625,0,0,9.555
2.0655055999814067,0,0,0.7134720947265625,0,0,0.15288000000000002
2.0668913580011576,0,0,1.0031704956054688,0,0,0.6115200000000001
2.068277282989584,0,0,1.120486376953125,0,0,0.45864
2.0696632999752183,0,0,0.833182177734375,0,0,0.7644
2.0710496879764833,0,0,0.4477157104492187,0,0,0.15288000000000002
2.0724358529841993,0,0,0.9002198242187499,0,0,0.53508
2.073821833997499,0,0,1.120486376953125,0,0,0.6115200000000001
2.0752079989761114,0,0,1.4891934326171874,0,0,0.84084
2.076594349986408,0,0,1.455674609375,0,0,1.2230400000000001
2.0779799039883073,0,0,1.3431471313476562,0,0,1.2994800000000002
2.0793664029915817,0,0,1.0845733520507812,0,0,1.07016
2.080752419977216,0,0,1.3311761230468748,0,0,0.6115200000000001
2.0821386789903045,0,0,1.4437036010742186,0,0,0.99372
2.083526084985351,0,0,1.6903063720703124,0,0,0.84084
2.08491199099808,0,0,1.5011644409179687,0,0,0.91728
2.0862978419754654,0,0,1.0342951171875,0,0,0.3822
2.0876861369761173,0,0,1.0486603271484374,0,0,0.7644
2.089071246999083,0,0,1.2401964599609374,0,0,0.30576000000000003
2.090457208978478,0,0,1.599326708984375,0,0,0.3822
2.0918442069960292,0,0,1.6519991455078125,0,0,0.68796
2.0932369099755306,0,0,1.4173673828125,0,0,0.84084
2.0946233719878364,0,0,1.1516109985351561,0,0,0.91728
2.0960099259973504,0,0,1.1276689819335937,0,0,0.7644
2.0973955179797485,0,0,1.1875240234375,0,0,0.53508
2.098781256994698,0,0,1.5203180541992187,0,0,0.6115200000000001
2.1001672559941653,0,0,1.5298948608398437,0,0,0.53508
2.101553624990629,0,0,1.4125789794921875,0,0,0.6115200000000001
2.102939438977046,0,0,1.3718775512695311,0,0,0.84084
2.104325363994576,0,0,1.1444283935546875,0,0,0.6115200000000001
2.1057115479779895,0,0,1.1180921752929687,0,0,0.91728
2.1070972500019707,0,0,1.1109095703125,0,0,0.53508
2.1084826930018608,0,0,1.2401964599609374,0,0,0.53508
2.109868450992508,0,0,1.3096283081054687,0,0,0.22932
2.111274690978462,0,0,1.218648645019531,0,0,0.68796
2.112764150981093,0,0,1.4125789794921875,0,0,0.91728
2.1142043900035787,0,0,1.3766659545898436,0,0,0.7644
2.1156908870034385,0,0,1.3455413330078123,0,0,0.99372
2.117140403977828,0,0,1.3239935180664062,0,0,1.07016
2.118599476001691,0,0,1.1851298217773436,0,0,0.53508
2.120158028003061,0,0,1.0965443603515623,0,0,0.99372
2.1216328959853854,0,0,1.3814543579101561,0,0,0.53508
2.1230836529866792,0,0,1.4604630126953124,0,0,0.6115200000000001
2.1245654649974313,0,0,1.3862427612304686,0,0,0.7644
2.1260303699818905,0,0,1.2497732666015624,0,0,0.7644
2.127483645977918,0,0,1.0462661254882812,0,0,0.68796
2.1293069160019513,0,0,1.0007762939453124,0,0,2.06388
2.1307718949974515,0,0,1.199495031738281,0,0,0.68796
2.13216031997581,0,0,1.4508862060546874,0,0,0.7644
2.1335422080010176,0,0,1.4628572143554686,0,0,0.7644
2.1349169659952167,0,0,1.5849614990234373,0,0,0.6115200000000001
2.1362942429841496,0,0,1.254561669921875,0,0,0.68796
2.1376688159944024,0,0,1.1468225952148436,0,0,0.91728
2.1390551479998976,0,0,1.13006318359375,0,0,0.7644
2.1404335359984543,0,0,1.3000515014648437,0,0,0.68796
2.1418083499884233,0,0,1.4724340209960938,0,0,0.7644
2.143181700987043,0,0,1.3623007446289062,0,0,0.68796
2.144558273983421,0,0,1.3862427612304686,0,0,0.99372
2.145932309998898,0,0,1.5011644409179687,0,0,0.84084
2.1473053459776565,0,0,1.2018892333984375,0,0,0.84084
2.148681899998337,0,0,1.1635820068359375,0,0,0.68796
2.150055121979676,0,0,1.0031704956054688,0,0,0.53508
2.1514283979777247,0,0,1.218648645019531,0,0,0.68796
2.1528064709855244,0,0,1.426944189453125,0,0,0.6115200000000001
2.1541802479769103,0,0,1.3263877197265623,0,0,0.91728
2.1555553209909704,0,0,1.448492004394531,0,0,0.6115200000000001
2.156928338983562,0,0,1.448492004394531,0,0,0.84084
2.158301096991636,0,0,1.1420341918945311,0,0,0.99372
2.159676243987633,0,0,1.22583125,0,0,0.68796
2.1610494279884733,0,0,1.3359645263671873,0,0,1.07016
2.162422241992317,0,0,1.2042834350585936,0,0,0.91728
2.163847852003528,0,0,1.2713210815429687,0,0,0.45864
2.1652322209847625,0,0,1.2114660400390624,0,0,0.3822
2.166646108002169,0,0,1.3646949462890625,0,0,0.6115200000000001
2.1688770019973163,0,0,1.4891934326171874,0,0,1.2230400000000001
2.1703651110001374,0,0,1.1563994018554686,0,0,0.68796
2.1717502949759364,0,0,1.0342951171875,0,0,0.91728
2.1731336639786605,0,0,1.0749965454101562,0,0,0.30576000000000003
2.1745159959828015,0,0,1.3048399047851562,0,0,0.53508
2.1770093309751246,0,0,1.3718775512695311,0,0,0.7644
2.1784056259784847,0,0,1.407790576171875,0,0,0.53508
2.1797944769787136,0,0,1.254561669921875,0,0,1.07016
2.181218863988761,0,0,1.2641384765625,0,0,0.6115200000000001
2.1826052149990574,0,0,1.1013327636718748,0,0,0.91728
2.183998824999435,0,0,1.0989385620117187,0,0,0.6115200000000001
2.1853860459814314,0,0,1.467645617675781,0,0,0.7644
2.1867722669849172,0,0,1.407790576171875,0,0,20
2.188159357989207,0,0,1.5921441040039062,0,0,0.68796
2.1895458019862417,0,0,1.4125789794921875,0,0,0.91728
2.1909317259851377,0,0,1.3144167114257812,0,0,1.1465999999999998
2.1923183359904215,0,0,1.177947216796875,0,0,0.84084
2.193705149984453,0,0,1.1228805786132812,0,0,0.6115200000000001
2.1950914079789072,0,0,1.2928688964843749,0,0,0.22932
2.1964795919775497,0,0,1.3910311645507811,0,0,0.15288000000000002
2.1978652389952913,0,0,1.3862427612304686,0,0,0.7644
2.199251126992749,0,0,1.5610194824218748,0,0,0.99372
2.2006419219833333,0,0,1.3742717529296875,0,0,0.84084
2.2020279949938413,0,0,1.2138602416992186,0,0,0.91728
2.2034146229852922,0,0,1.0295067138671874,0,0,0.7644
2.20480051098275,0,0,1.1420341918945311,0,0,0.30576000000000003
2.2061862129776273,0,0,1.2856862915039062,0,0,0.68796
2.207592118997127,0,0,1.4245499877929686,0,0,0.53508
2.208978988986928,0,0,1.3479355346679687,0,0,0.91728
2.210365616978379,0,0,1.5131354492187499,0,0,0.7644
2.2117526159854606,0,0,1.2832920898437499,0,0,0.7644
2.213137929997174,0,0,1.2617442749023438,0,0,0.84084
2.214523687987821,0,0,1.1348515869140625,0,0,0.68796
2.2159104829770513,0,0,1.1563994018554686,0,0,0.68796
2.2172959629970137,0,0,1.20667763671875,0,0,1.2230400000000001
2.2186816099856514,0,0,1.5083470458984374,0,0,0.53508
2.220067960995948,0,0,1.39821376953125,0,0,0.84084
2.221453737001866,0,0,1.5801730957031248,0,0,0.84084
2.2228468469984364,0,0,1.388636962890625,0,0,1.07016
2.224236087000463,0,0,1.3024457031249999,0,0,0.84084
2.2256293629761785,0,0,1.1324573852539062,0,0,1.07016
2.227017231984064,0,0,1.0821791503906248,0,0,0.53508
2.228417600999819,0,0,1.2473790649414063,0,0,0.84084
2.229803803988034,0,0,1.3934253662109375,0,0,0.6115200000000001
2.2311896919854917,0,0,1.5370774658203123,0,0,0.7644
2.232576356997015,0,0,1.4508862060546874,0,0,0.6115200000000001
2.2339626149914693,0,0,1.149216796875,0,0,0.7644
2.235348576999968,0,0,1.1444283935546875,0,0,0.53508
2.236734742997214,0,0,1.1635820068359375,0,0,0.68796
2.238120648980839,0,0,1.1755530151367186,0,0,0.22932
2.2395417770021595,0,0,1.2761094848632812,0,0,0.91728
2.240931238979101,0,0,1.3407529296874998,0,0,0.7644
2.242317292984808,0,0,1.35990654296875,0,0,0.6115200000000001
2.243703291984275,0,0,1.3407529296874998,0,0,0.91728
2.2450890309992246,0,0,1.2808978881835937,0,0,0.84084
2.246553398988908,0,0,1.2928688964843749,0,0,0.91728
2.2479486759984866,0,0,1.2521674682617188,0,0,0.53508
2.2493356009945273,0,0,1.1109095703125,0,0,0.53508
2.250721784977941,0,0,1.2593500732421874,0,0,0.22932
2.252107801992679,0,0,1.407790576171875,0,0,0.99372
2.2534940599871334,0,0,1.659181750488281,0,0,0.91728
2.2548799849755596,0,0,1.6424223388671875,0,0,1.1465999999999998
2.256266872980632,0,0,1.216254443359375,0,0,1.07016
2.2576531679951586,0,0,1.0989385620117187,0,0,0.7644
2.2590390739787836,0,0,1.0726023437499999,0,0,0.7644
2.2604249989963137,0,0,1.2521674682617188,0,0,0.68796
2.261811015981948,0,0,1.5131354492187499,0,0,0.53508
2.2631966259796172,0,0,1.39821376953125,0,0,0.84084
2.2645823099883273,0,0,1.66636435546875,0,0,0.91728
2.265968271996826,0,0,1.1923124267578125,0,0,0.84084
2.2673541599942837,0,0,1.1875240234375,0,0,0.91728
2.268740176979918,0,0,1.209071838378906,0,0,0.68796
2.270126564981183,0,0,1.2114660400390624,0,0,0.0
2.271544544986682,0,0,1.39821376953125,0,0,0.91728
2.272932283987757,0,0,1.3814543579101561,0,0,0.53508
2.2743180980032776,0,0,1.2234370483398436,0,0,0.84084
2.275705392996315,0,0,1.5011644409179687,0,0,0.7644
2.2770915949949995,0,0,1.1923124267578125,0,0,0.7644
2.2784774089814164,0,0,1.2617442749023438,0,0,0.84084
2.2798639449756593,0,0,1.0869675537109373,0,0,0.68796
2.281249850988388,0,0,1.1037269653320312,0,0,0.6115200000000001
2.2826352199772373,0,0,1.3359645263671873,0,0,0.84084
2.2840221819933504,0,0,1.4125789794921875,0,0,0.91728
2.285407107003266,0,0,1.35990654296875,0,0,0.3822
2.2867926429898944,0,0,1.6711527587890624,0,0,0.91728
2.288179011986358,0,0,1.35990654296875,0,0,1.07016
2.2896395470015705,0,0,1.2330138549804688,0,0,0.6115200000000001
2.291215524979634,0,0,1.1037269653320312,0,0,0.53508
2.2936966929992195,0,0,1.3575123413085937,0,0,0.84084
2.2950988029770087,0,0,1.5131354492187499,0,0,0.3822
2.296492819994455,0,0,1.4987702392578124,0,0,0.53508
2.2978800409764517,0,0,1.467645617675781,0,0,0.6115200000000001
2.2992846879933495,0,0,1.2928688964843749,0,0,0.91728
2.300675260979915,0,0,1.2904746948242187,0,0,0.84084
2.302062147995457,0,0,1.1707646118164061,0,0,0.99372
2.3034489059937187,0,0,1.158793603515625,0,0,0.7644
2.3048358309897594,0,0,1.3048399047851562,0,0,0.3822
2.306222422979772,0,0,1.4030021728515625,0,0,0.6115200000000001
2.3076120509940665,0,0,1.4221557861328125,0,0,0.91728
2.308999253989896,0,0,1.218648645019531,0,0,0.91728
2.310385529999621,0,0,1.2737152832031249,0,0,0.84084
2.3117715289990883,0,0,1.1324573852539062,0,0,0.68796
2.3131584719812963,0,0,1.1468225952148436,0,0,0.84084
2.3145453599863686,0,0,1.1659762084960936,0,0,0.68796
2.315932099998463,0,0,1.3862427612304686,0,0,0.53508
2.317326079995837,0,0,1.3311761230468748,0,0,0.6115200000000001
2.318713040993316,0,0,1.4532804077148436,0,0,0.91728
2.320099502976518,0,0,1.2785036865234374,0,0,1.1465999999999998
2.3214861869928427,0,0,1.1324573852539062,0,0,0.84084
2.3228777969779912,0,0,1.0869675537109373,0,0,0.6115200000000001
2.3242638149822596,0,0,1.189918225097656,0,0,0.53508
2.3256493129883893,0,0,1.3287819213867187,0,0,0.91728
2.3270608669845387,0,0,1.5466542724609373,0,0,0.6115200000000001
2.3284821620036382,0,0,1.2497732666015624,0,0,0.68796
2.329869178996887,0,0,1.6208745239257811,0,0,0.91728
2.331256585981464,0,0,1.2904746948242187,0,0,0.84084
2.3326437329815235,0,0,1.2425906616210938,0,0,0.53508
2.334029916994041,0,0,1.2952630981445312,0,0,0.7644
2.335416544985492,0,0,1.254561669921875,0,0,0.6115200000000001
2.336803191981744,0,0,1.2282254516601563,0,0,0.91728
2.33818959799828,0,0,1.4532804077148436,0,0,-9.32568
2.3395790599752218,0,0,1.3072341064453123,0,0,0.84084
2.340965818002587,0,0,1.388636962890625,0,0,0.68796
2.3423519839998335,0,0,1.209071838378906,0,0,0.7644
2.3437391679908615,0,0,1.3383587280273437,0,0,0.6115200000000001
2.3451245549949817,0,0,1.2378022583007813,0,0,0.7644
2.346510461997241,0,0,1.2138602416992186,0,0,0.7644
2.3478977939812467,0,0,1.3431471313476562,0,0,0.99372
2.3492865889857057,0,0,1.407790576171875,0,0,0.68796
2.3506723280006554,0,0,1.24498486328125,0,0,0.68796
2.3520605679950677,0,0,1.4030021728515625,0,0,0.84084
2.3534463629766833,0,0,1.3096283081054687,0,0,0.84084
2.3548322139831726,0,0,1.3718775512695311,0,0,0.84084
2.3562201939930674,0,0,1.189918225097656,0,0,0.84084
2.357619136979338,0,0,1.1324573852539062,0,0,0.53508
2.35900626599323,0,0,1.3958195678710936,0,0,0.53508
2.3603987459791824,0,0,1.3646949462890625,0,0,0.68796
2.3617857259814627,0,0,1.3263877197265623,0,0,0.68796
2.363171762001002,0,0,1.2856862915039062,0,0,0.84084
2.364558112982195,0,0,1.2330138549804688,0,0,0.6115200000000001
2.365944518998731,0,0,1.0510545288085937,0,0,0.68796
2.3673304809781257,0,0,1.0295067138671874,0,0,0.99372
2.368716183002107,0,0,1.1731588134765625,0,0,0.53508
2.370102403976489,0,0,1.467645617675781,0,0,0.30576000000000003
2.3714882739877794,0,0,1.5298948608398437,0,0,0.91728
2.372874734981451,0,0,1.5203180541992187,0,0,0.91728
2.3742607529857196,0,0,1.2689268798828124,0,0,1.2230400000000001
2.3756472329841927,0,0,1.369483349609375,0,0,1.1465999999999998
2.377032786986092,0,0,1.0534487304687499,0,0,0.6115200000000001
2.3784188049903605,0,0,1.1468225952148436,0,0,0.7644
2.3798048780008685,0,0,1.3431471313476562,0,0,0.99372
2.381190505984705,0,0,1.4628572143554686,0,0,0.53508
2.3825764489884023,0,0,1.4772224243164063,0,0,1.07016
2.3839631709852256,0,0,1.4963760375976562,0,0,1.2230400000000001
2.385348002979299,0,0,1.2569558715820313,0,0,0.84084
2.386733667983208,0,0,1.3192051147460937,0,0,0.99372
2.388119666982675,0,0,1.1707646118164061,0,0,0.53508
2.3895052209845744,0,0,1.2880804931640624,0,0,0.6115200000000001
2.3908914609928615,0,0,1.39821376953125,0,0,0.91728
2.3922772189835086,0,0,1.4437036010742186,0,0,0.7644
2.3936624589841813,0,0,1.5011644409179687,0,0,1.1465999999999998
2.3950485689856578,0,0,1.426944189453125,0,0,0.53508
2.3964345669955947,0,0,1.2018892333984375,0,0,0.84084
2.3978242699813563,0,0,1.1827356201171875,0,0,0.7644
2.3992101209878456,0,0,1.0989385620117187,0,0,0.99372
2.400597248983104,0,0,1.1875240234375,0,0,0.7644
2.401983340998413,0,0,1.3910311645507811,0,0,0.99372
2.403369006002322,0,0,1.4006079711914061,0,0,-9.32568
2.4047646159888245,0,0,1.4987702392578124,0,0,0.68796
2.4061509479943197,0,0,1.2856862915039062,0,0,0.53508
2.407536964979954,0,0,1.1228805786132812,0,0,0.53508
2.4089233900012914,0,0,1.1085153686523437,0,0,0.45864
2.410308777994942,0,0,1.1923124267578125,0,0,0.91728
2.4116957579972222,0,0,1.2856862915039062,0,0,0.6115200000000001
2.4130808679910842,0,0,1.5059528442382812,0,0,0.30576000000000003
2.4144664039777126,0,0,1.4820108276367188,0,0,0.6115200000000001
2.4158598099893425,0,0,1.4867992309570313,0,0,0.99372
2.41724545697798,0,0,1.3910311645507811,0,0,0.6115200000000001
2.418631529988488,0,0,1.24498486328125,0,0,0.84084
2.4200766579888295,0,0,1.1372457885742187,0,0,0.84084
2.4215415259823203,0,0,1.1540052001953125,0,0,0.45864
2.4231646139814984,0,0,1.3359645263671873,0,0,0.7644
2.424564871995244,0,0,1.5562310791015623,0,0,0.68796
2.4260288139921613,0,0,1.4053963745117186,0,0,0.99372
2.427410887001315,0,0,1.4245499877929686,0,0,0.6115200000000001
2.42879231198458,0,0,1.1923124267578125,0,0,0.84084
2.4301711629959755,0,0,1.2210428466796874,0,0,0.6115200000000001
2.431551143003162,0,0,1.1324573852539062,0,0,0.99372
2.4329316049988847,0,0,1.199495031738281,0,0,0.30576000000000003
2.4343099929974414,0,0,1.3144167114257812,0,0,0.84084
2.435707453987561,0,0,1.2808978881835937,0,0,0.68796
2.437084990000585,0,0,1.37906015625,0,0,0.6115200000000001
2.4384635079768486,0,0,1.4604630126953124,0,0,0.68796
2.4398442289966624,0,0,1.2713210815429687,0,0,0.99372
2.4412230610032566,0,0,1.2593500732421874,0,0,0.53508
2.442601800983539,0,0,1.1659762084960936,0,0,0.6115200000000001
2.4439821889973246,0,0,1.1635820068359375,0,0,0.53508
2.4453747060033493,0,0,1.2952630981445312,0,0,0.7644
2.446754131000489,0,0,1.4006079711914061,0,0,0.6115200000000001
2.4481452409818303,0,0,1.369483349609375,0,0,0.91728
2.4495252950000577,0,0,1.4125789794921875,0,0,0.7644
2.450904293975327,0,0,1.2234370483398436,0,0,1.07016
2.452291384979617,0,0,1.1180921752929687,0,0,0.6115200000000001
2.453677235986106,0,0,1.1635820068359375,0,0,1.1465999999999998
2.4550634019833524,0,0,1.2378022583007813,0,0,0.68796
2.45644928899128,0,0,1.4700398193359374,0,0,0.3822
2.457834398985142,0,0,1.3407529296874998,0,0,0.7644
2.4592208609974477,0,0,1.43652099609375,0,0,0.91728
2.4606066010019276,0,0,1.3814543579101561,0,0,0.68796
2.461992302996805,0,0,1.2473790649414063,0,0,0.91728
2.4633779319992755,0,0,1.3168109130859373,0,0,-9.01992
2.4647660049959086,0,0,1.1037269653320312,0,0,0.53508
2.4661515219777357,0,0,1.2042834350585936,0,0,0.84084
2.4676096119801514,0,0,1.388636962890625,0,0,0.22932
2.468997481977567,0,0,1.3311761230468748,0,0,0.84084
2.4703839249850716,0,0,1.5586252807617187,0,0,0.99372
2.471771608979907,0,0,1.197100830078125,0,0,0.91728
2.4731683669961058,0,0,1.2401964599609374,0,0,0.68796
2.474572179984534,0,0,1.180341418457031,0,0,0.91728
2.4759609749889933,0,0,1.24498486328125,0,0,0.30576000000000003
2.47734567799489,0,0,1.3359645263671873,0,0,0.68796
2.4787305659847334,0,0,1.467645617675781,0,0,0.99372
2.48011661999044,0,0,1.2880804931640624,0,0,0.99372
2.481501823000144,0,0,1.4939818359375,0,0,1.07016
2.4828878580010496,0,0,1.139639990234375,0,0,0.7644
2.484274282993283,0,0,1.1611878051757811,0,0,0.22932
2.485659392987145,0,0,1.1252747802734375,0,0,0.68796
2.4870450029848143,0,0,1.1947066284179686,0,0,0.53508
2.4884317799878772,0,0,1.3239935180664062,0,0,0.7644
2.4898175749985967,0,0,1.4437036010742186,0,0,0.53508
2.4912029069964774,0,0,1.2473790649414063,0,0,0.91728
2.492596034979215,0,0,1.6472107421875,0,0,0.68796
2.493981867999537,0,0,1.24498486328125,0,0,0.91728
2.495367328985594,0,0,1.0893617553710937,0,0,0.84084
2.496753699000692,0,0,1.1563994018554686,0,0,0.68796
2.4981470859784167,0,0,1.1851298217773436,0,0,0.7644
2.499537084979238,0,0,1.2952630981445312,0,0,0.7644
2.5009255839977413,0,0,1.4604630126953124,0,0,0.6115200000000001
2.502311693999218,0,0,1.5059528442382812,0,0,0.7644
2.5036984699836466,0,0,1.3215993164062498,0,0,0.7644
2.5050836360023823,0,0,1.2473790649414063,0,0,0.91728
2.5064697460038587,0,0,1.199495031738281,0,0,0.91728
2.5078580409754068,0,0,1.2114660400390624,0,0,0.84084
2.5092436139821075,0,0,1.20667763671875,0,0,0.3822
2.510629650001647,0,0,1.3958195678710936,0,0,0.15288000000000002
2.512018925976008,0,0,1.3120225097656248,0,0,0.53508
2.513404757977696,0,0,1.3287819213867187,0,0,0.68796
2.5147911649837624,0,0,1.2880804931640624,0,0,0.99372
2.5161771449784283,0,0,1.1540052001953125,0,0,1.1465999999999998
2.5175628289871383,0,0,1.197100830078125,0,0,0.7644
2.5189502720022574,0,0,1.199495031738281,0,0,0.84084
2.5203356969868764,0,0,1.2042834350585936,0,0,0.6115200000000001
2.521721343975514,0,0,1.4508862060546874,0,0,0.15288000000000002
2.5231069909932557,0,0,1.3646949462890625,0,0,0.84084
2.5244926379818935,0,0,1.5275006591796874,0,0,0.53508
2.5258783029858023,0,0,1.189918225097656,0,0,1.07016
2.5272642280033324,0,0,1.1659762084960936,0,0,0.7644
2.5286504679825157,0,0,1.1420341918945311,0,0,0.6115200000000001
2.5300358189851977,0,0,1.1611878051757811,0,0,0.53508
2.531422002997715,0,0,1.2785036865234374,0,0,0.7644
2.5328217420028523,0,0,1.5035586425781249,0,0,0.53508
2.534208906989079,0,0,1.4413093994140624,0,0,0.84084
2.5356028319802135,0,0,1.3239935180664062,0,0,0.7644
2.5369889609864913,0,0,1.1372457885742187,0,0,0.7644
2.538375089003239,0,0,1.1372457885742187,0,0,0.6115200000000001
2.539761402993463,0,0,1.0893617553710937,0,0,0.91728
2.541146271978505,0,0,1.199495031738281,0,0,0.45864
2.5425317339831963,0,0,1.4125789794921875,0,0,0.84084
2.543917954986682,0,0,1.5227122558593749,0,0,0.53508
2.5453038239793386,0,0,1.37906015625,0,0,1.1465999999999998
2.5468523579766043,0,0,1.2880804931640624,0,0,0.6115200000000001
2.5482436339952983,0,0,1.2210428466796874,0,0,0.53508
2.549629910994554,0,0,1.2234370483398436,0,0,0.3822
2.55101613199804,0,0,1.1827356201171875,0,0,0.99372
2.5524025189806707,0,0,1.158793603515625,0,0,0.68796
2.5537887219979893,0,0,1.3814543579101561,0,0,0.84084
2.555174516979605,0,0,1.3958195678710936,0,0,0.68796
2.556560922996141,0,0,1.5107412475585937,0,0,0.91728
2.5579464779875707,0,0,1.2617442749023438,0,0,0.68796
2.55933184697642,0,0,1.1516109985351561,0,0,1.1465999999999998
2.5607176609919406,0,0,1.1755530151367186,0,0,0.7644
2.5621031589980703,0,0,1.1444283935546875,0,0,0.68796
2.5634884919854812,0,0,1.2282254516601563,0,0,0.53508
2.5648742499761283,0,0,1.426944189453125,0,0,0.15288000000000002
2.56625965598505,0,0,1.4437036010742186,0,0,0.7644
2.567650283977855,0,0,1.4796166259765624,0,0,0.84084
2.569034043001011,0,0,1.3192051147460937,0,0,0.84084
2.5704203929926734,0,0,1.0845733520507812,0,0,0.91728
2.5718059109931346,0,0,1.189918225097656,0,0,0.84084
2.573190908995457,0,0,1.1635820068359375,0,0,0.45864
2.574576907994924,0,0,1.2593500732421874,0,0,0.7644
2.5759634069981985,0,0,1.3814543579101561,0,0,0.53508
2.5773482949880417,0,0,1.47482822265625,0,0,0.91728
2.5787369229947217,0,0,1.4149731811523436,0,0,0.7644
2.5801369959954172,0,0,1.2425906616210938,0,0,0.6115200000000001
2.581522901979042,0,0,1.254561669921875,0,0,0.68796
2.5829190679942258,0,0,1.2210428466796874,0,0,0.7644
2.584304769989103,0,0,1.1013327636718748,0,0,0.6115200000000001
2.5856902319937944,0,0,1.2761094848632812,0,0,0.84084
2.587075805000495,0,0,1.5107412475585937,0,0,0.7644
2.588461303996155,0,0,1.429338391113281,0,0,1.07016
2.589846653980203,0,0,1.5035586425781249,0,0,0.84084
2.5912471530027688,0,0,1.1444283935546875,0,0,0.6115200000000001
2.59263372598798,0,0,1.2401964599609374,0,0,0.7644
2.5940189469838515,0,0,1.2497732666015624,0,0,1.07016
2.595404574996792,0,0,1.35990654296875,0,0,0.53508
2.5967893519846257,0,0,1.4101847778320311,0,0,0.91728
2.5981891469855327,0,0,1.3910311645507811,0,0,0.6115200000000001
2.5995782379759476,0,0,1.4341267944335936,0,0,0.6115200000000001
2.600975032983115,0,0,1.4413093994140624,0,0,0.53508
2.602360698976554,0,0,1.3623007446289062,0,0,0.84084
2.603748383000493,0,0,1.158793603515625,0,0,0.68796
2.605132622993551,0,0,0.9792284790039062,0,0,0.84084
2.6065177510026842,0,0,1.177947216796875,0,0,0.3822
2.6079045649967156,0,0,1.3479355346679687,0,0,0.53508
2.609289692976745,0,0,1.6519991455078125,0,0,0.53508
2.6106751920015085,0,0,1.4772224243164063,0,0,0.84084
2.6120607649791054,0,0,1.4053963745117186,0,0,0.84084
2.613446578994626,0,0,1.1707646118164061,0,0,1.07016
2.6148319659987465,0,0,1.1635820068359375,0,0,0.7644
2.616218076000223,0,0,1.1851298217773436,0,0,0.68796
2.6176037050026935,0,0,1.2641384765625,0,0,0.91728
2.61898909197771,0,0,1.5179238525390624,0,0,0.30576000000000003
2.6203729620028753,0,0,1.3144167114257812,0,0,0.7644
2.6217571460001636,0,0,1.3910311645507811,0,0,1.07016
2.623323198000435,0,0,1.3144167114257812,0,0,0.68796
2.6247222329839133,0,0,1.209071838378906,0,0,0.91728
2.6261031949834432,0,0,1.1420341918945311,0,0,0.84084
2.6276790059928317,0,0,1.0917559570312498,0,0,0.7644
2.6290618009807076,0,0,1.16837041015625,0,0,0.84084
2.6304416519997176,0,0,1.4149731811523436,0,0,0.6115200000000001
2.631825131975347,0,0,1.3048399047851562,0,0,0.91728
2.633204816986108,0,0,1.5418658691406248,0,0,0.6115200000000001
2.6345949999813456,0,0,1.2401964599609374,0,0,0.99372
2.636124626995297,0,0,1.0941501586914062,0,0,0.68796
2.6375075519899838,0,0,1.2210428466796874,0,0,0.53508
2.6388870509981643,0,0,1.3527239379882812,0,0,0.45864
2.640538674982963,0,0,1.4772224243164063,0,0,0.30576000000000003
2.64193263699417,0,0,1.4963760375976562,0,0,0.68796
2.643317024980206,0,0,1.4317325927734375,0,0,0.45864
2.644701190001797,0,0,1.2521674682617188,0,0,0.53508
2.6460916709911544,0,0,1.2497732666015624,0,0,1.07016
2.6474754469818436,0,0,1.2042834350585936,0,0,0.7644
2.648859871987952,0,0,1.2473790649414063,0,0,0.53508
2.6502618519880343,0,0,1.0893617553710937,0,0,0.6115200000000001
2.6516425919835456,0,0,1.3742717529296875,0,0,0.30576000000000003
2.6530158129753545,0,0,1.3431471313476562,0,0,0.53508
2.654389015980996,0,0,1.62805712890625,0,0,0.84084
2.655773495993344,0,0,1.2785036865234374,0,0,0.53508
2.6571619019960053,0,0,1.1659762084960936,0,0,0.84084
2.6585441420029383,0,0,1.0462661254882812,0,0,0.45864
2.6599278999783564,0,0,1.1061211669921875,0,0,0.6115200000000001
2.6613092689949553,0,0,1.3359645263671873,0,0,0.91728
2.662691138975788,0,0,1.4915876342773438,0,0,0.6115200000000001
2.6640741000010166,0,0,1.4317325927734375,0,0,0.84084
2.6654562659969088,0,0,1.4149731811523436,0,0,1.07016
2.6668387459940277,0,0,1.139639990234375,0,0,0.91728
2.668224503984675,0,0,1.1947066284179686,0,0,0.53508
2.669598132983083,0,0,1.158793603515625,0,0,0.6115200000000001
2.6718631009862293,0,0,1.1468225952148436,0,0,0.7644
2.6732561549870297,0,0,1.2689268798828124,0,0,0.22932
2.6746311169990804,0,0,1.3479355346679687,0,0,0.7644
2.676012763986364,0,0,1.5227122558593749,0,0,0.6115200000000001
2.6773961699800566,0,0,1.2641384765625,0,0,1.07016
2.6787793549883645,0,0,1.199495031738281,0,0,1.07016
2.6801631129928865,0,0,1.149216796875,0,0,0.6115200000000001
2.681545870989794,0,0,1.20667763671875,0,0,0.53508
2.682929146976676,0,0,1.3551181396484375,0,0,0.6115200000000001
2.6843068129965104,0,0,1.4820108276367188,0,0,0.53508
2.685679830989102,0,0,1.3527239379882812,0,0,0.84084
2.6870530329761095,0,0,1.5945383056640625,0,0,0.7644
2.6884357539820485,0,0,1.0558429321289062,0,0,0.68796
2.689819234976312,0,0,1.2569558715820313,0,0,0.7644
2.6912023259792477,0,0,1.2952630981445312,0,0,0.6115200000000001
2.6925857509777416,0,0,1.3120225097656248,0,0,0.30576000000000003
2.693968416977441,0,0,1.5227122558593749,0,0,0.7644
2.6953518409864046,0,0,1.43652099609375,0,0,0.6115200000000001
2.6967354329826776,0,0,1.3718775512695311,0,0,0.99372
2.6981180979928467,0,0,1.39821376953125,0,0,0.91728
2.6995008939993568,0,0,1.2282254516601563,0,0,0.7644
2.700878706993535,0,0,1.199495031738281,0,0,0.7644
2.702252872986719,0,0,1.0989385620117187,0,0,0.84084
2.7036415390030015,0,0,1.189918225097656,0,0,0.22932
2.7050256859802175,0,0,1.350329736328125,0,0,1.1465999999999998
2.706407666002633,0,0,1.5107412475585937,0,0,0.84084
2.707791091001127,0,0,1.3192051147460937,0,0,0.84084
2.7091914969787467,0,0,1.3383587280273437,0,0,0.84084
2.710575421981048,0,0,1.197100830078125,0,0,0.91728
2.7119660869939253,0,0,1.369483349609375,0,0,0.45864
2.713348770979792,0,0,1.2378022583007813,0,0,0.84084
2.714730880979914,0,0,1.1516109985351561,0,0,0.68796
2.7161141949763987,0,0,1.3646949462890625,0,0,0.68796
2.7174967309983913,0,0,1.39821376953125,0,0,0.68796
2.718878877989482,0,0,1.2617442749023438,0,0,0.91728
2.720261413982371,0,0,1.254561669921875,0,0,0.7644
2.721774428995559,0,0,1.2617442749023438,0,0,0.7644
2.7231600579980295,0,0,1.2641384765625,0,0,-9.24924
2.724546315992484,0,0,1.1420341918945311,0,0,0.91728
2.7259302960010245,0,0,1.1420341918945311,0,0,0.84084
2.7273132389818784,0,0,1.3934253662109375,0,0,0.22932
2.728696737991413,0,0,1.4006079711914061,0,0,0.45864
2.7300801259989385,0,0,1.3814543579101561,0,0,0.99372
2.7314626809966285,0,0,1.2138602416992186,0,0,0.68796
2.73283853099565,0,0,1.254561669921875,0,0,1.2230400000000001
2.7342117529769894,0,0,1.2282254516601563,0,0,0.6115200000000001
2.735595826001372,0,0,1.2593500732421874,0,0,0.7644
2.736978842993267,0,0,1.177947216796875,0,0,0.53508
2.738361878989963,0,0,1.438915197753906,0,0,0.0
2.73974604398245,0,0,1.5107412475585937,0,0,0.3822
2.7411280059895944,0,0,1.4317325927734375,0,0,0.84084
2.7425107269955333,0,0,1.20667763671875,0,0,0.7644
2.74389500397956,0,0,1.1947066284179686,0,0,0.84084
2.7452769659867045,0,0,1.1707646118164061,0,0,0.53508
2.7466599459876306,0,0,1.2234370483398436,0,0,0.53508
2.7480513519840315,0,0,1.2761094848632812,0,0,0.68796
2.749425480986247,0,0,1.4987702392578124,0,0,0.68796
2.750799498986453,0,0,1.5298948608398437,0,0,0.7644
2.752182237978559,0,0,1.3215993164062498,0,0,1.07016
2.753564662998542,0,0,1.235408056640625,0,0,0.68796
2.754947105975589,0,0,1.3120225097656248,0,0,0.7644
2.756339493993437,0,0,1.1372457885742187,0,0,0.45864
2.7577218629885465,0,0,1.0965443603515623,0,0,0.7644
2.7591036949888803,0,0,1.3575123413085937,0,0,0.7644
2.760486138984561,0,0,1.4053963745117186,0,0,0.3822
2.761868229979882,0,0,1.2976572998046874,0,0,0.7644
2.763250488002086,0,0,1.43652099609375,0,0,0.99372
2.7646332469885238,0,0,1.1851298217773436,0,0,0.68796
2.766015375003917,0,0,1.3718775512695311,0,0,2.36964
2.7674043369770516,0,0,1.0989385620117187,0,0,0.84084
2.768787095003063,0,0,1.1659762084960936,0,0,0.6115200000000001
2.7701689089881256,0,0,1.3934253662109375,0,0,0.6115200000000001
2.771551814978011,0,0,1.3646949462890625,0,0,0.68796
2.7729328139976133,0,0,1.3287819213867187,0,0,0.7644
2.774314479000168,0,0,1.3311761230468748,0,0,0.6115200000000001
2.7756973859795835,0,0,1.254561669921875,0,0,0.84084
2.777077995997388,0,0,1.2378022583007813,0,0,0.3822
2.778460253990488,0,0,1.20667763671875,0,0,0.53508
2.7798429190006573,0,0,1.0821791503906248,0,0,0.7644
2.781223528989358,0,0,1.3287819213867187,0,0,0.91728
2.78260569498525,0,0,1.438915197753906,0,0,0.91728
2.783988415991189,0,0,1.429338391113281,0,0,0.7644
2.785369377990719,0,0,1.3551181396484375,0,0,0.99372
2.786751617997652,0,0,1.1611878051757811,0,0,1.07016
2.7881335799756926,0,0,1.1324573852539062,0,0,0.68796
2.789515059994301,0,0,1.0893617553710937,0,0,0.91728
2.7908971139986534,0,0,1.254561669921875,0,0,0.45864
2.792279149987735,0,0,1.4532804077148436,0,0,0.3822
2.793661407980835,0,0,1.3455413330078123,0,0,0.84084
2.7950428699841723,0,0,1.484405029296875,0,0,1.07016
2.796425016975263,0,0,1.2138602416992186,0,0,0.99372
2.7978065719944425,0,0,1.180341418457031,0,0,0.99372
2.7991951819858514,0,0,1.13006318359375,0,0,0.68796
2.800578902999405,0,0,1.3096283081054687,0,0,0.7644
2.8019610309856944,0,0,1.3431471313476562,0,0,0.45864
2.803342511993833,0,0,1.3814543579101561,0,0,0.3822
2.8047245659981854,0,0,1.2689268798828124,0,0,0.99372
2.8061056209844537,0,0,1.5801730957031248,0,0,0.91728
2.8074876379978377,0,0,1.4006079711914061,0,0,0.91728
2.8088699329819065,0,0,1.2401964599609374,0,0,1.07016
2.8102509139862377,0,0,1.1420341918945311,0,0,0.6115200000000001
2.8116332089994103,0,0,1.1420341918945311,0,0,0.68796
2.8130153189995326,0,0,1.4796166259765624,0,0,0.7644
2.814397039997857,0,0,1.5538368774414062,0,0,0.84084
2.8157794089929666,0,0,1.3910311645507811,0,0,0.7644
2.817471588990884,0,0,1.4125789794921875,0,0,0.53508
2.818850568990456,0,0,1.16837041015625,0,0,0.91728
2.820227845979389,0,0,1.1372457885742187,0,0,0.68796
2.821601492993068,0,0,1.2928688964843749,0,0,0.91728
2.8229798809916247,0,0,1.3096283081054687,0,0,0.53508
2.824359934980748,0,0,1.3910311645507811,0,0,0.91728
2.825747656985186,0,0,1.4245499877929686,0,0,0.7644
2.8271309519768693,0,0,1.3000515014648437,0,0,0.84084
2.82850904299994,0,0,1.2928688964843749,0,0,0.6115200000000001
2.8298847829864826,0,0,1.209071838378906,0,0,1.07016
2.8312584859959316,0,0,1.3120225097656248,0,0,0.6115200000000001
2.8326419469958637,0,0,1.2856862915039062,0,0,0.99372
2.8340246320003644,0,0,1.1444283935546875,0,0,0.6115200000000001
2.835406111989869,0,0,1.350329736328125,0,0,0.91728
2.8367883329920005,0,0,1.2593500732421874,0,0,0.68796
2.8381697579752654,0,0,1.5538368774414062,0,0,0.68796
2.839551182987634,0,0,1.5131354492187499,0,0,0.84084
2.8409331449947786,0,0,1.218648645019531,0,0,0.91728
2.8423146619752515,0,0,1.1827356201171875,0,0,0.84084
2.843706530984491,0,0,0.9720458740234375,0,0,0.84084
2.8450876039860304,0,0,1.2713210815429687,0,0,0.84084
2.8465354349755216,0,0,1.3838485595703125,0,0,0.30576000000000003
2.8479278599843383,0,0,1.3838485595703125,0,0,0.6115200000000001
2.8493088399991393,0,0,1.3814543579101561,0,0,0.91728
2.8506861359928735,0,0,1.369483349609375,0,0,0.84084
2.8520797269884497,0,0,1.2785036865234374,0,0,1.07016
2.853461651975522,0,0,1.218648645019531,0,0,0.68796
2.854844020999735,0,0,1.1444283935546875,0,0,0.68796
2.8562262789928354,0,0,1.22583125,0,0,0.91728
2.8576081859937403,0,0,1.2689268798828124,0,0,0.45864
2.8589904439868405,0,0,1.3575123413085937,0,0,0.7644
2.8603720719984267,0,0,1.5298948608398437,0,0,0.99372
2.8617540529812686,0,0,1.3120225097656248,0,0,1.1465999999999998
2.8631357179838233,0,0,1.3263877197265623,0,0,0.68796
2.864517938985955,0,0,1.1420341918945311,0,0,0.84084
2.865899641998112,0,0,1.2497732666015624,0,0,0.68796
2.867281455983175,0,0,1.37906015625,0,0,0.91728
2.868663954985095,0,0,1.4724340209960938,0,0,0.45864
2.8700455649814103,0,0,1.2928688964843749,0,0,0.84084
2.871427156002028,0,0,1.5131354492187499,0,0,0.6115200000000001
2.8728088589850813,0,0,1.2689268798828124,0,0,0.68796
2.874190190981608,0,0,1.2713210815429687,0,0,0.7644
2.8755862819962204,0,0,1.0917559570312498,0,0,0.7644
2.876968484983081,0,0,1.2713210815429687,0,0,0.45864
2.8783495759998914,0,0,1.3958195678710936,0,0,0.84084
2.879731611988973,0,0,1.4437036010742186,0,0,0.84084
2.8811138149758335,0,0,1.388636962890625,0,0,1.1465999999999998
2.882495368976379,0,0,1.2952630981445312,0,0,0.84084
2.88389014598215,0,0,1.235408056640625,0,0,0.68796
2.885272144980263,0,0,1.2832920898437499,0,0,0.53508
2.8866605139919557,0,0,1.1611878051757811,0,0,0.99372
2.8880550869798753,0,0,1.3048399047851562,0,0,0.30576000000000003
2.8894370299822185,0,0,1.4867992309570313,0,0,1.1465999999999998
2.890818435989786,0,0,1.484405029296875,0,0,0.68796
2.89220021298388,0,0,1.4149731811523436,0,0,0.68796
2.893582211981993,0,0,1.47482822265625,0,0,0.68796
2.8949636179895606,0,0,1.2234370483398436,0,0,0.91728
2.896345486980863,0,0,1.13006318359375,0,0,0.68796
2.89772743100184,0,0,0.9337386474609375,0,0,0.7644
2.8991088369803037,0,0,1.3024457031249999,0,0,0.22932
2.9004948169749696,0,0,1.446097802734375,0,0,0.6115200000000001
2.901876445976086,0,0,1.3646949462890625,0,0,0.6115200000000001
2.903258388978429,0,0,1.388636962890625,0,0,0.6115200000000001
2.9046400179795455,0,0,1.3287819213867187,0,0,0.84084
2.9060213689808734,0,0,1.2665326782226562,0,0,0.7644
2.9074029789771885,0,0,1.1156979736328125,0,0,0.84084
2.9087848289927933,0,0,1.1827356201171875,0,0,0.7644
2.9101663469919004,0,0,1.2880804931640624,0,0,0.6115200000000001
2.9115488459938206,0,0,1.4939818359375,0,0,0.45864
2.912930158985546,0,0,1.1468225952148436,0,0,0.68796
2.914311361993896,0,0,1.4221557861328125,0,0,0.84084
2.9156939719978254,0,0,1.465251416015625,0,0,1.1465999999999998
2.917074322991539,0,0,1.2713210815429687,0,0,0.99372
2.9184555249812547,0,0,1.189918225097656,0,0,0.91728
2.919837227993412,0,0,1.1659762084960936,0,0,0.53508
2.9221269550034776,0,0,1.4413093994140624,0,0,0.30576000000000003
2.923651543998858,0,0,1.426944189453125,0,0,0.6115200000000001
2.9250393389957026,0,0,1.43652099609375,0,0,0.91728
2.926454781991197,0,0,1.1923124267578125,0,0,0.7644
2.9278457809996326,0,0,1.197100830078125,0,0,0.68796
2.9292292059981264,0,0,1.1156979736328125,0,0,0.68796
2.9306125750008505,0,0,1.0845733520507812,0,0,0.6115200000000001
2.932013202982489,0,0,1.3359645263671873,0,0,0.68796
2.9333860909973737,0,0,1.419761584472656,0,0,0.6115200000000001
2.9347591639962047,0,0,1.5059528442382812,0,0,0.84084
2.9361424410017207,0,0,1.4939818359375,0,0,0.6115200000000001
2.937525161978556,0,0,1.3623007446289062,0,0,0.7644
2.938908216980053,0,0,1.2569558715820313,0,0,0.53508
2.9402917900006287,0,0,1.16837041015625,0,0,0.99372
2.9416746030037757,0,0,1.1611878051757811,0,0,0.45864
2.943065379979089,0,0,1.369483349609375,0,0,0.84084
2.9444552669883706,0,0,1.407790576171875,0,0,0.6115200000000001
2.94583811800112,0,0,1.3551181396484375,0,0,0.84084
2.9472217279835604,0,0,1.446097802734375,0,0,0.7644
2.9485982089827303,0,0,1.1923124267578125,0,0,0.7644
2.9499714849807788,0,0,1.3263877197265623,0,0,0.7644
2.95134498400148,0,0,1.0749965454101562,0,0,0.84084
2.9527297979802825,0,0,1.2737152832031249,0,0,0.7644
2.9541128529817797,0,0,1.3335703247070312,0,0,0.68796
2.955496536975261,0,0,1.37906015625,0,0,0.68796
2.956879460980417,0,0,1.4245499877929686,0,0,0.7644
2.958262664003996,0,0,1.4030021728515625,0,0,0.53508
2.959647273994051,0,0,1.1540052001953125,0,0,0.68796
2.9610296429891605,0,0,1.1324573852539062,0,0,0.45864
2.9624126609996893,0,0,1.0462661254882812,0,0,0.7644
2.9637966779991984,0,0,1.180341418457031,0,0,0.53508
2.9651786589820404,0,0,1.3096283081054687,0,0,0.53508
2.9665613980032504,0,0,1.4987702392578124,0,0,0.6115200000000001
2.9679453229764476,0,0,1.3958195678710936,0,0,0.84084
2.9693279329803772,0,0,1.3215993164062498,0,0,0.84084
2.9707111539901234,0,0,1.1635820068359375,0,0,0.7644
2.9723076869850047,0,0,1.16837041015625,0,0,0.7644
2.973691481980495,0,0,1.0797849487304687,0,0,0.99372
2.975085276993923,0,0,1.2306196533203124,0,0,0.7644
2.9764834799862,0,0,1.4532804077148436,0,0,0.53508
2.9778670519881416,0,0,1.2713210815429687,0,0,0.84084
2.979257311002584,0,0,1.4341267944335936,0,0,0.99372
2.980633938976098,0,0,1.5298948608398437,0,0,0.68796
2.9820080490026157,0,0,1.2138602416992186,0,0,0.84084
2.9833809190022293,0,0,1.2234370483398436,0,0,0.7644
2.9847652319876943,0,0,1.149216796875,0,0,0.91728
2.986148341995431,0,0,1.3287819213867187,0,0,0.99372
2.987533211999107,0,0,1.4053963745117186,0,0,0.7644
2.988915672991425,0,0,1.3168109130859373,0,0,0.68796
2.990299023978878,0,0,1.467645617675781,0,0,0.7644
2.9916830049769487,0,0,1.3455413330078123,0,0,0.7644
2.9930652259790804,0,0,1.2234370483398436,0,0,0.53508
2.9944485389860347,0,0,1.1276689819335937,0,0,0.91728
2.995828259998234,0,0,1.1923124267578125,0,0,0.6115200000000001
2.997200593003072,0,0,1.2593500732421874,0,0,0.68796
2.99857368398807,0,0,1.438915197753906,0,0,0.68796
2.9999570910003968,0,0,1.3144167114257812,0,0,0.91728
3.0013573489850387,0,0,1.4053963745117186,0,0,0.7644
3.0027418099925853,0,0,1.180341418457031,0,0,0.68796
3.0041258829878643,0,0,1.2282254516601563,0,0,0.84084
3.005509290000191,0,0,1.1851298217773436,0,0,0.84084
3.0068927519896533,0,0,1.218648645019531,0,0,0.45864
3.008276416978333,0,0,1.3479355346679687,0,0,0.99372
3.0096598230011296,0,0,1.3958195678710936,0,0,0.7644
3.0110432479996234,0,0,1.35990654296875,0,0,0.53508
3.012427209992893,0,0,1.4413093994140624,0,0,0.68796
3.01381007899181,0,0,1.2689268798828124,0,0,0.91728
3.0151931889995467,0,0,1.189918225097656,0,0,1.07016
3.0165805959841236,0,0,1.0893617553710937,0,0,0.7644
3.017977223993512,0,0,1.139639990234375,0,0,0.6115200000000001
3.019370166992303,0,0,1.2761094848632812,0,0,0.53508
3.0207541289855726,0,0,1.3335703247070312,0,0,0.30576000000000003
3.0221371649822686,0,0,1.4317325927734375,0,0,0.53508
3.0235287379764486,0,0,1.438915197753906,0,0,0.7644
3.0249158289807383,0,0,1.2808978881835937,0,0,0.99372
3.0262987169844564,0,0,1.2330138549804688,0,0,0.68796
3.027681567997206,0,0,1.1420341918945311,0,0,0.84084
3.0290567699994426,0,0,1.2473790649414063,0,0,0.68796
3.030430583981797,0,0,1.5275006591796874,0,0,0.53508
3.031811861001188,0,0,1.3407529296874998,0,0,0.84084
3.033195711992448,0,0,1.39821376953125,0,0,0.99372
3.0345790249994025,0,0,1.5131354492187499,0,0,1.07016
3.0359625609999057,0,0,1.2306196533203124,0,0,0.91728
3.0373465419979766,0,0,1.3623007446289062,0,0,0.6115200000000001
3.038729521998903,0,0,1.1851298217773436,0,0,0.3822
3.040113149996614,0,0,1.1324573852539062,0,0,0.68796
3.041496648977045,0,0,1.3192051147460937,0,0,0.30576000000000003
3.042888869997114,0,0,1.3287819213867187,0,0,0.91728
3.044272553990595,0,0,1.3814543579101561,0,0,0.84084
3.0456557009893004,0,0,1.1827356201171875,0,0,0.91728
3.047038699995028,0,0,1.2593500732421874,0,0,0.91728
3.0484222550003324,0,0,1.24498486328125,0,0,0.68796
3.0498053829942364,0,0,1.1180921752929687,0,0,0.68796
3.051188548997743,0,0,1.2306196533203124,0,0,0.68796
3.0525721960002556,0,0,1.448492004394531,0,0,0.53508
3.0539557129959576,0,0,1.3646949462890625,0,0,0.91728
3.0553388969856314,0,0,1.4532804077148436,0,0,0.68796
3.0567224889819045,0,0,1.2689268798828124,0,0,1.1465999999999998
3.05810533897602,0,0,1.2761094848632812,0,0,0.68796
3.0594996899890248,0,0,1.0845733520507812,0,0,0.45864
3.0608855039754417,0,0,1.1659762084960936,0,0,0.6115200000000001
3.062275520991534,0,0,1.2904746948242187,0,0,0.84084
3.0636609270004556,0,0,1.467645617675781,0,0,0.7644
3.065043499984313,0,0,1.3862427612304686,0,0,1.07016
3.066426406992832,0,0,1.5203180541992187,0,0,0.84084
3.067811441986123,0,0,1.120486376953125,0,0,0.7644
3.069193977979012,0,0,1.1348515869140625,0,0,0.68796
3.0705764959857333,0,0,1.2234370483398436,0,0,0.84084
3.071960809000302,0,0,1.2808978881835937,0,0,0.45864
3.0733436049777083,0,0,1.3287819213867187,0,0,0.6115200000000001
3.0747268259874545,0,0,1.4101847778320311,0,0,0.45864
3.0761107319849543,0,0,1.3646949462890625,0,0,0.91728
3.077493748976849,0,0,1.656787548828125,0,0,0.7644
3.0788774709799327,0,0,1.2042834350585936,0,0,1.07016
3.0802608209778555,0,0,1.0941501586914062,0,0,0.84084
3.081643746001646,0,0,1.1420341918945311,0,0,0.84084
3.083026781998342,0,0,1.1851298217773436,0,0,0.53508
3.084410540002864,0,0,1.350329736328125,0,0,0.91728
3.0857937799883075,0,0,1.4245499877929686,0,0,1.37592
3.0871765009942465,0,0,1.2473790649414063,0,0,0.7644
3.088560443982715,0,0,1.2330138549804688,0,0,0.53508
3.0899432209844235,0,0,1.1540052001953125,0,0,0.68796
3.0913262569811195,0,0,1.0989385620117187,0,0,0.7644
3.092709830001695,0,0,1.1755530151367186,0,0,0.6115200000000001
3.0940933839883655,0,0,1.189918225097656,0,0,0.45864
3.0954767349758185,0,0,1.5203180541992187,0,0,0.22932
3.096859974990366,0,0,1.4508862060546874,0,0,0.53508
3.0982433809840586,0,0,1.5298948608398437,0,0,0.84084
3.0996400459844153,0,0,1.2593500732421874,0,0,0.91728
3.1010233599809,0,0,1.2665326782226562,0,0,0.91728
3.1024066919926554,0,0,1.3192051147460937,0,0,0.45864
3.1037910979939625,0,0,1.2808978881835937,0,0,0.45864
3.105173449002905,0,0,1.2952630981445312,0,0,0.7644
3.1065649849770125,0,0,1.43652099609375,0,0,0.53508
3.107946317002643,0,0,1.2569558715820313,0,0,0.68796
3.109318593982607,0,0,1.47482822265625,0,0,0.91728
3.110692833986832,0,0,1.1037269653320312,0,0,0.91728
3.1121599239995703,0,0,1.1420341918945311,0,0,0.68796
3.1135437749908306,0,0,1.1348515869140625,0,0,0.3822
3.1149264029809274,0,0,1.180341418457031,0,0,0.84084
3.116309160977835,0,0,1.2856862915039062,0,0,0.91728
3.117698770976858,0,0,1.4245499877929686,0,0,0.53508
3.1190823069773614,0,0,1.3144167114257812,0,0,1.07016
3.1204655839828774,0,0,1.5131354492187499,0,0,0.91728
3.1218475269852206,0,0,1.1875240234375,0,0,0.84084
3.1232296929811127,0,0,1.0893617553710937,0,0,0.7644
3.124611635983456,0,0,1.197100830078125,0,0,0.68796
3.1259939129813574,0,0,1.216254443359375,0,0,0.45864
3.12737644900335,0,0,1.3718775512695311,0,0,0.99372
3.1287587620026898,0,0,1.3862427612304686,0,0,0.68796
3.1301407979917713,0,0,1.3144167114257812,0,0,1.07016
3.131531870982144,0,0,1.3096283081054687,0,0,0.53508
3.1329144809860736,0,0,1.189918225097656,0,0,0.84084
3.1342963139759377,0,0,1.3192051147460937,0,0,0.7644
3.1356796829786617,0,0,1.1851298217773436,0,0,0.68796
3.1370614219922572,0,0,1.180341418457031,0,0,0.84084
3.13844347698614,0,0,1.3383587280273437,0,0,0.7644
3.139826456987066,0,0,1.4987702392578124,0,0,0.68796
3.14120834498317,0,0,1.2737152832031249,0,0,-9.172799999999999
3.142592658987269,0,0,1.22583125,0,0,0.68796
3.143976360996021,0,0,1.189918225097656,0,0,1.1465999999999998
3.1453578419750556,0,0,1.3455413330078123,0,0,0.7644
3.1467479149869177,0,0,1.2114660400390624,0,0,0.84084
3.1483192809973843,0,0,1.1276689819335937,0,0,0.53508
3.1497178169956896,0,0,1.4532804077148436,0,0,0.22932
3.1511240379768424,0,0,1.3000515014648437,0,0,0.53508
3.152509443985764,0,0,1.4413093994140624,0,0,0.84084
3.153891942987684,0,0,1.2569558715820313,0,0,0.91728
3.1552742380008567,0,0,1.2569558715820313,0,0,0.84084
3.1566565519897267,0,0,1.20667763671875,0,0,0.6115200000000001
3.158038753987057,0,0,1.2234370483398436,0,0,0.6115200000000001
3.15942080898094,0,0,1.1755530151367186,0,0,0.84084
3.1608033629890997,0,0,1.458068811035156,0,0,0.53508
3.1621857509890106,0,0,1.35990654296875,0,0,0.7644
3.1635848049772903,0,0,1.4796166259765624,0,0,0.84084
3.1649674889922608,0,0,1.2138602416992186,0,0,0.84084
3.1663498769921716,0,0,1.2234370483398436,0,0,0.68796
3.1677323390031233,0,0,1.1324573852539062,0,0,0.7644
3.1691124489880167,0,0,1.1013327636718748,0,0,0.45864
3.170494152000174,0,0,1.3670891479492187,0,0,0.84084
3.1721726279938594,0,0,1.5514426757812498,0,0,0.84084
3.173607347998768,0,0,1.4221557861328125,0,0,0.99372
3.17501256900141,0,0,1.446097802734375,0,0,0.68796
3.176438030001009,0,0,1.1875240234375,0,0,0.68796
3.1778764729970135,0,0,1.2330138549804688,0,0,0.7644
3.1792663050000556,0,0,1.158793603515625,0,0,0.7644
3.180661506979959,0,0,1.2737152832031249,0,0,0.7644
3.182050542993238,0,0,1.4915876342773438,0,0,0.68796
3.183438985986868,0,0,1.3646949462890625,0,0,0.53508
3.1848204109992366,0,0,1.4221557861328125,0,0,0.68796
3.186199150979519,0,0,1.3144167114257812,0,0,0.45864
3.1876015749876387,0,0,1.235408056640625,0,0,1.07016
3.18898838898167,0,0,1.2593500732421874,0,0,0.53508
3.1903743139992002,0,0,1.2401964599609374,0,0,0.99372
3.1917612019751687,0,0,1.2114660400390624,0,0,0.68796
3.1931468489929102,0,0,1.47482822265625,0,0,0.30576000000000003
3.1945496989937965,0,0,1.3407529296874998,0,0,0.68796
3.1959355869912542,0,0,1.5011644409179687,0,0,0.45864
3.197319733997574,0,0,1.2785036865234374,0,0,0.7644
3.1987037879880518,0,0,1.218648645019531,0,0,0.53508
3.200155767990509,0,0,1.0726023437499999,0,0,0.3822
3.201542711001821,0,0,1.2018892333984375,0,0,0.68796
3.2029292279912625,0,0,1.2234370483398436,0,0,0.84084
3.204316374991322,0,0,1.4006079711914061,0,0,0.53508
3.2057029479765333,0,0,1.1851298217773436,0,0,0.84084
3.207088520983234,0,0,1.43652099609375,0,0,0.99372
3.2084913709841203,0,0,1.2425906616210938,0,0,0.99372
3.2098772779863793,0,0,1.2497732666015624,0,0,0.45864
3.2112632950011175,0,0,1.2114660400390624,0,0,0.45864
3.2126489419897553,0,0,1.2785036865234374,0,0,0.6115200000000001
3.2140347370004747,0,0,1.2521674682617188,0,0,0.91728
3.215420513995923,0,0,1.3814543579101561,0,0,0.6115200000000001
3.216805864998605,0,0,1.2928688964843749,0,0,1.1465999999999998
3.218191455991473,0,0,1.4915876342773438,0,0,0.68796
3.219593731977511,0,0,1.2282254516601563,0,0,0.91728
3.220980341982795,0,0,1.3192051147460937,0,0,0.68796
3.222366581991082,0,0,1.2808978881835937,0,0,0.99372
3.2237598579959013,0,0,1.2617442749023438,0,0,0.7644
3.2251464129949454,0,0,1.3024457031249999,0,0,0.91728
3.2265385779901408,0,0,1.3431471313476562,0,0,0.68796
3.2279363359848503,0,0,1.3168109130859373,0,0,0.84084
3.229322704981314,0,0,1.4317325927734375,0,0,0.84084
3.230708759976551,0,0,1.2808978881835937,0,0,0.53508
3.2320956850016955,0,0,1.3623007446289062,0,0,0.84084
3.233481553994352,0,0,1.2665326782226562,0,0,0.7644
3.2348820339830127,0,0,1.2880804931640624,0,0,0.84084
3.236269402987091,0,0,1.3623007446289062,0,0,0.45864
3.2376620689756237,0,0,1.3814543579101561,0,0,0.7644
3.23904952997691,0,0,1.4628572143554686,0,0,0.7644
3.2404370849835686,0,0,1.1947066284179686,0,0,0.84084
3.2418228059832472,0,0,1.2497732666015624,0,0,0.7644
3.243208767991746,0,0,1.158793603515625,0,0,0.68796
3.2445948959793895,0,0,1.180341418457031,0,0,0.45864
3.2459806359838694,0,0,1.3455413330078123,0,0,0.91728
3.2473661529948004,0,0,1.3646949462890625,0,0,0.6115200000000001
3.2487527069752105,0,0,1.2904746948242187,0,0,0.91728
3.25013850297546,0,0,1.43652099609375,0,0,0.84084
3.251525130996015,0,0,1.2138602416992186,0,0,0.84084
3.2529113889904693,0,0,1.3120225097656248,0,0,0.68796
3.25429696199717,0,0,1.0917559570312498,0,0,0.7644
3.255683739000233,0,0,1.180341418457031,0,0,0.7644
3.25706944099511,0,0,1.3742717529296875,0,0,0.84084
3.25845475497772,0,0,1.448492004394531,0,0,0.45864
3.259840771992458,0,0,1.2785036865234374,0,0,1.1465999999999998
3.2612262339971494,0,0,1.419761584472656,0,0,1.1465999999999998
3.262611232989002,0,0,1.1827356201171875,0,0,0.7644
3.2639979719824623,0,0,1.1348515869140625,0,0,0.6115200000000001
3.2653832490032073,0,0,1.235408056640625,0,0,0.68796
3.266768506990047,0,0,1.2904746948242187,0,0,0.53508
3.2681542279897258,0,0,1.3287819213867187,0,0,0.99372
3.2695405969861895,0,0,1.455674609375,0,0,0.84084
3.2709258559916634,0,0,1.3359645263671873,0,0,1.07016
3.272311520995572,0,0,1.3527239379882812,0,0,0.6115200000000001
3.2736987980024423,0,0,1.235408056640625,0,0,0.91728
3.275084296998102,0,0,1.2808978881835937,0,0,0.6115200000000001
3.2764890359831043,0,0,1.1947066284179686,0,0,0.84084
3.2778751459845807,0,0,1.3239935180664062,0,0,0.53508
3.2792609600001015,0,0,1.2928688964843749,0,0,0.84084
3.2806464579771273,0,0,1.3814543579101561,0,0,0.7644
3.2820405869861133,0,0,1.3575123413085937,0,0,0.91728
3.2834262889809906,0,0,1.2785036865234374,0,0,0.68796
3.2848117879766505,0,0,1.1324573852539062,0,0,0.68796
3.286197490990162,0,0,1.1755530151367186,0,0,0.6115200000000001
3.2875833599828184,0,0,1.2401964599609374,0,0,0.6115200000000001
3.2889689509756863,0,0,1.3096283081054687,0,0,0.30576000000000003
3.290486799989594,0,0,1.4437036010742186,0,0,0.22932
3.2920411480008624,0,0,1.4628572143554686,0,0,0.91728
3.294444262981415,0,0,1.1324573852539062,0,0,0.7644
3.2958378169860225,0,0,1.1851298217773436,0,0,0.99372
3.2972264449927025,0,0,1.235408056640625,0,0,0.84084
3.2986145000031684,0,0,1.2042834350585936,0,0,0.6115200000000001
3.3000051279959735,0,0,1.209071838378906,0,0,0.91728
3.301393867994193,0,0,1.4724340209960938,0,0,0.30576000000000003
3.302781847974984,0,0,1.3646949462890625,0,0,1.1465999999999998
3.3041701059846673,0,0,1.4006079711914061,0,0,0.99372
3.3055573829915375,0,0,1.2880804931640624,0,0,0.91728
3.306944454991026,0,0,1.3024457031249999,0,0,1.07016
3.3083328799984884,0,0,1.0630255371093749,0,0,0.6115200000000001
3.309720211982494,0,0,1.2114660400390624,0,0,0.53508
3.3111076740024146,0,0,1.2617442749023438,0,0,0.6115200000000001
3.3124954139930196,0,0,1.5203180541992187,0,0,0.68796
3.313882874994306,0,0,1.2425906616210938,0,0,0.84084
3.315269818995148,0,0,1.4006079711914061,0,0,0.53508
3.316657002986176,0,0,1.1324573852539062,0,0,0.84084
3.318044446001295,0,0,1.3335703247070312,0,0,0.6115200000000001
3.3194314999855123,0,0,1.1923124267578125,0,0,0.84084
3.320818740001414,0,0,1.3048399047851562,0,0,0.7644
3.3222064609872177,0,0,1.2808978881835937,0,0,0.91728
3.3236217189987656,0,0,1.4604630126953124,0,0,0.7644
3.3250109579821583,0,0,1.4963760375976562,0,0,1.2994800000000002
3.3264077350031585,0,0,1.3335703247070312,0,0,0.91728
3.3277966780005954,0,0,1.1037269653320312,0,0,0.53508
3.329183602996636,0,0,1.3168109130859373,0,0,0.30576000000000003
3.3305707309918944,0,0,1.180341418457031,0,0,0.3822
3.3319586369907483,0,0,1.1109095703125,0,0,0.68796
3.3333454139938112,0,0,1.4724340209960938,0,0,0.84084
3.3347328759846278,0,0,1.5969325073242187,0,0,0.68796
3.3361202819796745,0,0,1.2617442749023438,0,0,-8.867040000000001
3.337508947995957,0,0,1.3311761230468748,0,0,0.3822
3.338896612985991,0,0,1.158793603515625,0,0,1.1465999999999998
3.3402837789908517,0,0,1.139639990234375,0,0,0.7644
3.3416712769831065,0,0,1.1635820068359375,0,0,0.99372
3.343058608996216,0,0,1.1348515869140625,0,0,0.6115200000000001
3.344466848997399,0,0,1.458068811035156,0,0,0.7644
3.3458557179837953,0,0,1.2976572998046874,0,0,0.6115200000000001
3.3472463649814017,0,0,1.5227122558593749,0,0,0.99372
3.3486339749943,0,0,1.2425906616210938,0,0,0.68796
3.3500207509787288,0,0,1.1635820068359375,0,0,1.07016
3.3514078979787882,0,0,1.1156979736328125,0,0,0.84084
3.352807433984708,0,0,1.216254443359375,0,0,0.53508
3.3541954699903727,0,0,1.2138602416992186,0,0,0.91728
3.355584042990813,0,0,1.3958195678710936,0,0,0.45864
3.3569703009852674,0,0,1.5155296508789062,0,0,0.91728
3.358357243996579,0,0,1.5658078857421873,0,0,0.7644
3.35974416899262,0,0,1.3024457031249999,0,0,0.99372
3.36113101997762,0,0,1.3742717529296875,0,0,0.84084
3.362517759000184,0,0,1.2737152832031249,0,0,0.45864
3.3639061099966057,0,0,1.1635820068359375,0,0,0.84084
3.3652921640023123,0,0,1.3623007446289062,0,0,0.68796
3.366679292987101,0,0,1.4628572143554686,0,0,0.6115200000000001
3.368066994997207,0,0,1.3192051147460937,0,0,0.84084
3.3694543089950457,0,0,1.4724340209960938,0,0,1.07016
3.3708488999982364,0,0,1.2665326782226562,0,0,0.99372
3.3722359179810155,0,0,1.1635820068359375,0,0,0.6115200000000001
3.373622749990318,0,0,1.1348515869140625,0,0,0.30576000000000003
3.3750095079885796,0,0,1.2952630981445312,0,0,0.6115200000000001
3.3763975619804114,0,0,1.35990654296875,0,0,1.07016
3.3777845239965245,0,0,1.3024457031249999,0,0,1.07016
3.379171615000814,0,0,1.407790576171875,0,0,1.1465999999999998
3.380558706994634,0,0,1.5370774658203123,0,0,0.91728
3.381945575994905,0,0,1.2928688964843749,0,0,0.68796
3.383332129975315,0,0,1.1827356201171875,0,0,0.68796
3.3847194259869866,0,0,1.2018892333984375,0,0,0.68796
3.386106257996289,0,0,1.1348515869140625,0,0,0.53508
3.3874925159907434,0,0,1.3934253662109375,0,0,0.7644
3.3888797179970425,0,0,1.4245499877929686,0,0,0.84084
3.390267346985638,0,0,1.4101847778320311,0,0,0.91728
3.3916551419824827,0,0,1.350329736328125,0,0,0.7644
3.3930414189817384,0,0,1.1037269653320312,0,0,0.84084
3.39442836199305,0,0,1.2928688964843749,0,0,0.7644
3.3958156569860876,0,0,1.0821791503906248,0,0,0.53508
3.3972019889915828,0,0,1.2737152832031249,0,0,0.99372
3.3985885249858256,0,0,1.3479355346679687,0,0,0.45864
3.3999759309808724,0,0,1.4437036010742186,0,0,0.53508
3.4013624669751152,0,0,1.3862427612304686,0,0,0.68796
3.402749483997468,0,0,1.2617442749023438,0,0,0.99372
3.4041506130015478,0,0,1.2473790649414063,0,0,0.84084
3.40553861198714,0,0,1.149216796875,0,0,0.91728
3.4069257579976693,0,0,0.9911994873046874,0,0,0.6115200000000001
3.4083128679776564,0,0,1.22583125,0,0,0.53508
3.409700014977716,0,0,1.448492004394531,0,0,0.53508
3.4110969769826625,0,0,1.2808978881835937,0,0,0.84084
3.4124854569963645,0,0,1.419761584472656,0,0,1.07016
3.4138862889958546,0,0,1.0917559570312498,0,0,0.84084
3.4152750840003137,0,0,1.22583125,0,0,1.1465999999999998
3.416662841977086,0,0,1.1947066284179686,0,0,0.68796
3.4180495079781394,0,0,1.1013327636718748,0,0,0.45864
3.4194363769784104,0,0,1.3239935180664062,0,0,0.91728
3.420823931985069,0,0,1.5011644409179687,0,0,0.68796
3.4222111529961694,0,0,1.2521674682617188,0,0,0.99372
3.423702186992159,0,0,1.4867992309570313,0,0,0.7644
3.4251717219885904,0,0,1.3144167114257812,0,0,0.68796
3.4265642020036466,0,0,1.2497732666015624,0,0,0.6115200000000001
3.4279548119811807,0,0,1.1133037719726562,0,0,0.84084
3.429334939981345,0,0,1.13006318359375,0,0,0.53508
3.4307138650037814,0,0,1.2737152832031249,0,0,0.84084
3.432104363979306,0,0,1.3383587280273437,0,0,0.68796
3.4334916959924158,0,0,1.2785036865234374,0,0,0.84084
3.4348786769842263,0,0,1.4245499877929686,0,0,0.3822
3.436261526978342,0,0,1.2880804931640624,0,0,0.91728
3.437639859999763,0,0,1.2425906616210938,0,0,0.68796
3.4390186549862847,0,0,1.0726023437499999,0,0,0.99372
3.4404061719833408,0,0,1.2425906616210938,0,0,0.68796
3.441793392994441,0,0,1.3862427612304686,0,0,0.99372
3.4431803920015227,0,0,1.3144167114257812,0,0,0.91728
3.4445671689754818,0,0,1.3646949462890625,0,0,0.99372
3.4459543339908123,0,0,1.4963760375976562,0,0,0.53508
3.4473692209867295,0,0,1.2593500732421874,0,0,0.45864
3.4487590169883333,0,0,1.1923124267578125,0,0,0.84084
3.4501467189984396,0,0,1.1540052001953125,0,0,0.53508
3.4515344399842434,0,0,1.2330138549804688,0,0,0.6115200000000001
3.4529209199827164,0,0,1.3024457031249999,0,0,0.7644
3.454308159998618,0,0,1.2785036865234374,0,0,0.84084
3.4556958629982546,0,0,1.4437036010742186,0,0,0.7644
3.4570830279844813,0,0,1.2617442749023438,0,0,0.91728
3.458484618982766,0,0,1.2425906616210938,0,0,0.91728
3.4598721919755917,0,0,1.2114660400390624,0,0,0.68796
3.4612581719993614,0,0,1.1659762084960936,0,0,0.6115200000000001
3.4626455789839383,0,0,1.3311761230468748,0,0,0.6115200000000001
3.464033539989032,0,0,1.426944189453125,0,0,0.45864
3.465420186985284,0,0,1.3192051147460937,0,0,0.84084
3.466807833989151,0,0,1.5298948608398437,0,0,0.7644
3.4681949809892103,0,0,1.1276689819335937,0,0,0.84084
3.469588516978547,0,0,1.3623007446289062,0,0,0.68796
3.470991590002086,0,0,1.1851298217773436,0,0,0.84084
3.472379902988905,0,0,1.2569558715820313,0,0,0.7644
3.4737670499889646,0,0,1.2856862915039062,0,0,0.7644
3.4751544749888126,0,0,1.5658078857421873,0,0,0.7644
3.476541455980623,0,0,1.4532804077148436,0,0,1.07016
3.477938453987008,0,0,1.4939818359375,0,0,0.7644
3.4793252679810394,0,0,1.2234370483398436,0,0,0.84084
3.48071243299637,0,0,1.1923124267578125,0,0,0.68796
3.48209971000324,0,0,1.1659762084960936,0,0,0.91728
3.4834868379984982,0,0,1.177947216796875,0,0,0.6115200000000001
3.4848729849909432,0,0,1.3120225097656248,0,0,0.68796
3.486260076984763,0,0,1.3431471313476562,0,0,0.99372
3.4876481870014686,0,0,1.2904746948242187,0,0,0.7644
3.4890343339939136,0,0,1.2282254516601563,0,0,0.7644
3.4904207959771156,0,0,1.2521674682617188,0,0,0.6115200000000001
3.491808275983203,0,0,1.3527239379882812,0,0,0.6115200000000001
3.4931947559816763,0,0,1.2569558715820313,0,0,0.6115200000000001
3.4945819769927766,0,0,1.369483349609375,0,0,0.7644
3.4959695319994353,0,0,1.465251416015625,0,0,0.99372
3.4973561229999177,0,0,1.4245499877929686,0,0,0.68796
3.498742843978107,0,0,1.2737152832031249,0,0,0.99372
3.500132268993184,0,0,1.2234370483398436,0,0,0.7644
3.501528897002572,0,0,1.1156979736328125,0,0,0.7644
3.502916543977335,0,0,1.1827356201171875,0,0,0.84084
3.504303747002268,0,0,1.1731588134765625,0,0,0.3822
3.505690930993296,0,0,1.1563994018554686,0,0,0.68796
3.507077966001816,0,0,1.3742717529296875,0,0,0.30576000000000003
3.5084770579996984,0,0,1.3742717529296875,0,0,0.68796
3.5099171109905,0,0,1.458068811035156,0,0,0.7644
3.5113064809993375,0,0,1.177947216796875,0,0,0.53508
3.512693701981334,0,0,1.149216796875,0,0,0.99372
3.5140812739846297,0,0,1.216254443359375,0,0,0.84084
3.5154686069872696,0,0,1.216254443359375,0,0,0.6115200000000001
3.5168552169925533,0,0,1.3431471313476562,0,0,0.7644
3.5182425300008617,0,0,1.467645617675781,0,0,0.3822
3.519633639982203,0,0,1.2521674682617188,0,0,0.84084
3.521020564978244,0,0,1.429338391113281,0,0,0.68796
3.522407081996789,0,0,1.2401964599609374,0,0,0.84084
3.5237941179948393,0,0,1.350329736328125,0,0,0.84084
3.5251810059999116,0,0,1.2114660400390624,0,0,0.84084
3.5267965749953873,0,0,1.369483349609375,0,0,0.91728
3.5281998519785702,0,0,1.3263877197265623,0,0,0.84084
3.529588220990263,0,0,1.3263877197265623,0,0,0.7644
3.530975182977272,0,0,1.446097802734375,0,0,0.6115200000000001
3.5323628670012113,0,0,1.438915197753906,0,0,0.53508
3.5337497549771797,0,0,1.2234370483398436,0,0,0.7644
3.5351366979884915,0,0,1.1228805786132812,0,0,0.6115200000000001
3.5365238819795195,0,0,1.0127473022460938,0,0,0.53508
3.537910639977781,0,0,1.2904746948242187,0,0,0.45864
3.539297990995692,0,0,1.4173673828125,0,0,0.91728
3.5406860819784924,0,0,1.438915197753906,0,0,0.6115200000000001
3.5420726549928077,0,0,1.4963760375976562,0,0,0.7644
3.5434597279818263,0,0,1.3383587280273437,0,0,0.7644
3.5448468749818858,0,0,1.209071838378906,0,0,0.91728
3.5462407619925216,0,0,1.1851298217773436,0,0,0.53508
3.5476444649975747,0,0,1.1037269653320312,0,0,0.6115200000000001
3.5490326669823844,0,0,1.3431471313476562,0,0,0.53508
3.550419498991687,0,0,1.4700398193359374,0,0,0.3822
3.5518111829878762,0,0,1.4532804077148436,0,0,0.68796
3.55319803400198,0,0,1.5275006591796874,0,0,0.99372
3.5545851629867684,0,0,1.3239935180664062,0,0,0.68796
3.5559734019916505,0,0,1.2401964599609374,0,0,0.84084
3.5573600489879027,0,0,1.197100830078125,0,0,0.84084
3.5587469179881737,0,0,1.0989385620117187,0,0,0.45864
3.560134528001072,0,0,1.3000515014648437,0,0,0.91728
3.561521230993094,0,0,1.448492004394531,0,0,-9.40212
3.5629151180037297,0,0,1.2880804931640624,0,0,0.99372
3.564303431980079,0,0,1.4772224243164063,0,0,1.07016
3.5656901719921734,0,0,1.2665326782226562,0,0,0.91728
3.567077077983413,0,0,1.3096283081054687,0,0,0.6115200000000001
3.5684673539944924,0,0,1.1923124267578125,0,0,0.6115200000000001
3.5698550379893277,0,0,1.1659762084960936,0,0,0.7644
3.571242092992179,0,0,1.2928688964843749,0,0,0.84084
3.572629424976185,0,0,1.4939818359375,0,0,0.53508
3.574015886988491,0,0,1.2976572998046874,0,0,0.91728
3.5754027189977933,0,0,1.4532804077148436,0,0,0.6115200000000001
3.576789494982222,0,0,1.3407529296874998,0,0,0.84084
3.5781760499812663,0,0,1.2976572998046874,0,0,0.6115200000000001
3.5795737149892375,0,0,1.3623007446289062,0,0,0.7644
3.5809606769762468,0,0,1.218648645019531,0,0,0.53508
