Time,AccelX1,AccelY1,AccelZ1,AccelX2,AccelY2,AccelZ2
6.518996087834239e-06,0,0,1.2737152832031249,0,0,0.84084
0.0036813670012634248,0,0,1.2569558715820313,0,0,0.07644000000000001
0.007436826010234654,0,0,1.3527239379882812,0,0,0.68796
0.011051656008930877,0,0,1.1276689819335937,0,0,0.3822
0.01457669198862277,0,0,1.2665326782226562,0,0,1.1465999999999998
0.01809896799386479,0,0,1.2497732666015624,0,0,0.91728
0.021619114006171003,0,0,1.1252747802734375,0,0,1.07016
0.025245425989851356,0,0,1.5131354492187499,0,0,0.68796
0.028869033994851634,0,0,1.678335363769531,0,0,0.68796
0.03243799498886801,0,0,1.3407529296874998,0,0,1.07016
0.035959436994744465,0,0,1.4125789794921875,0,0,0.84084
0.03947536199120805,0,0,1.3407529296874998,0,0,1.1465999999999998
0.0430126560095232,0,0,1.254561669921875,0,0,1.2230400000000001
0.04653095098910853,0,0,1.3215993164062498,0,0,0.6115200000000001
0.05004476400790736,0,0,1.2593500732421874,0,0,1.2230400000000001
0.05356796600972302,0,0,1.2952630981445312,0,0,0.22932
0.05708261200925335,0,0,1.2306196533203124,0,0,0.84084
0.060604294994845986,0,0,1.2282254516601563,0,0,0.6115200000000001
0.06411731199477799,0,0,1.2593500732421874,0,0,0.6115200000000001
0.06784497501212172,0,0,1.5203180541992187,0,0,0.6115200000000001
0.07149180499254726,0,0,1.1516109985351561,0,0,0.53508
0.07503982199705206,0,0,1.2785036865234374,0,0,0.7644
0.07857907901052386,0,0,1.3670891479492187,0,0,0.84084
0.08209957700455561,0,0,1.3120225097656248,0,0,1.5288
0.08561803799238987,0,0,1.3718775512695311,0,0,0.6115200000000001
0.08913216600194573,0,0,1.22583125,0,0,1.1465999999999998
0.09283168098772876,0,0,1.24498486328125,0,0,-0.15288000000000002
0.09635988299851306,0,0,1.1133037719726562,0,0,0.84084
0.10002482400159352,0,0,1.1324573852539062,0,0,0.3822
0.10346443401067518,0,0,1.1037269653320312,0,0,0.91728
0.10658165899803862,0,0,1.1731588134765625,0,0,0.91728
0.10969732899684459,0,0,1.3120225097656248,0,0,0.68796
0.11281164598767646,0,0,1.0941501586914062,0,0,-0.15288000000000002
0.11593094500130974,0,0,1.4101847778320311,0,0,0.68796
0.1190632070065476,0,0,1.2808978881835937,0,0,0.91728
0.1221764319925569,0,0,1.350329736328125,0,0,1.07016
0.12549646900151856,0,0,1.235408056640625,0,0,0.68796
0.1288817840104457,0,0,1.3383587280273437,0,0,0.99372
0.13206730398815125,0,0,1.2617442749023438,0,0,1.2230400000000001
0.13518832600675523,0,0,1.2378022583007813,0,0,0.6115200000000001
0.13830542098730803,0,0,1.139639990234375,0,0,0.53508
0.141425664012786,0,0,1.3287819213867187,0,0,0.91728
0.14455364798777737,0,0,1.467645617675781,0,0,1.2230400000000001
0.1476716700126417,0,0,1.5634136840820312,0,0,1.1465999999999998
0.15078585699666291,0,0,0.9696516723632812,0,0,0.6115200000000001
0.15390252700308338,0,0,1.3862427612304686,0,0,0.6115200000000001
0.1570196780085098,0,0,1.5562310791015623,0,0,0.91728
0.16013219900196418,0,0,1.1707646118164061,0,0,0.68796
0.16324614599579945,0,0,1.3144167114257812,0,0,0.99372
0.16635990800568834,0,0,1.438915197753906,0,0,0.84084
0.16950829900451936,0,0,1.3407529296874998,0,0,0.45864
0.17265965300612152,0,0,1.3575123413085937,0,0,0.7644
0.1757746929943096,0,0,1.2880804931640624,0,0,0.99372
0.17889149198890664,0,0,1.2282254516601563,0,0,0.7644
0.18201195800793357,0,0,1.3311761230468748,0,0,-0.22932
0.18512996099889278,0,0,1.3383587280273437,0,0,0.84084
0.18824362999293953,0,0,1.189918225097656,0,0,0.7644
0.19135992901283316,0,0,1.2617442749023438,0,0,1.37592
0.19447389501146972,0,0,1.2401964599609374,0,0,0.6115200000000001
0.1976409709895961,0,0,1.3072341064453123,0,0,0.53508
0.20085382400429808,0,0,1.199495031738281,0,0,1.07016
0.203909272007877,0,0,1.3455413330078123,0,0,0.53508
0.20670700099435635,0,0,1.6998831787109374,0,0,0.53508
0.2095031359931454,0,0,1.1420341918945311,0,0,0.68796
0.21232186499400996,0,0,1.3766659545898436,0,0,0.07644000000000001
0.21512374098529108,0,0,1.0821791503906248,0,0,0.84084
0.2179227099986747,0,0,1.2808978881835937,0,0,0.68796
0.22072373499395326,0,0,1.3455413330078123,0,0,0.22932
0.22351966699352488,0,0,1.2665326782226562,0,0,0.53508
0.22675129800336435,0,0,1.5466542724609373,0,0,1.07016
0.22956922999583185,0,0,1.218648645019531,0,0,0.68796
0.23236866199295036,0,0,1.2856862915039062,0,0,1.2230400000000001
0.23519759401096962,0,0,1.2689268798828124,0,0,0.68796
0.23799519299063832,0,0,1.3646949462890625,0,0,2.52252
0.24079484699177556,0,0,1.139639990234375,0,0,1.37592
0.24360492700361647,0,0,1.458068811035156,0,0,1.07016
0.24640126700978726,0,0,1.656787548828125,0,0,0.99372
0.2492044400132727,0,0,0.9552864624023437,0,0,0.53508
0.2520137240062468,0,0,1.235408056640625,0,0,0.84084
0.25481032198877074,0,0,1.0821791503906248,0,0,0.84084
0.25760664299014024,0,0,1.2114660400390624,0,0,0.84084
0.2604275940102525,0,0,1.3766659545898436,0,0,1.1465999999999998
0.2632265260035638,0,0,1.3551181396484375,0,0,0.91728
0.2660249579930678,0,0,1.39821376953125,0,0,0.7644
0.2688227419857867,0,0,1.0462661254882812,0,0,0.6115200000000001
0.2716197849949822,0,0,1.2282254516601563,0,0,0.07644000000000001
0.2744177730055526,0,0,1.1420341918945311,0,0,0.91728
0.27721668701269664,0,0,1.3120225097656248,0,0,0.45864
0.2800122110056691,0,0,1.2952630981445312,0,0,0.53508
0.28280836599878967,0,0,1.3646949462890625,0,0,0.84084
0.2856077420001384,0,0,1.5394716674804687,0,0,0.68796
0.2884074710018467,0,0,1.3718775512695311,0,0,0.15288000000000002
0.29120507001061924,0,0,1.254561669921875,0,0,0.15288000000000002
0.2940033350023441,0,0,1.0749965454101562,0,0,0.68796
0.29680082300910726,0,0,1.1133037719726562,0,0,0.7644
0.299686106009176,0,0,1.1875240234375,0,0,-8.25552
0.3033949540113099,0,0,1.254561669921875,0,0,0.68796
0.30687289699562825,0,0,1.2401964599609374,0,0,0.99372
0.3100030850037001,0,0,1.3072341064453123,0,0,1.75812
0.31312293899827637,0,0,1.5083470458984374,0,0,0.53508
0.31623986799968407,0,0,1.1324573852539062,0,0,0.84084
0.31940614798804745,0,0,1.1085153686523437,0,0,0.6115200000000001
0.3225276129960548,0,0,1.3407529296874998,0,0,0.91728
0.3256439309916459,0,0,1.6831237670898436,0,0,0.53508
0.32876211899565533,0,0,1.13006318359375,0,0,0.99372
0.3318763439892791,0,0,1.2856862915039062,0,0,0.3822
0.33497577300295234,0,0,1.5059528442382812,0,0,0.91728
0.3380893860012293,0,0,1.0271125122070313,0,0,0.99372
0.3412063329888042,0,0,1.3144167114257812,0,0,0.7644
0.3443241140048485,0,0,1.4963760375976562,0,0,0.91728
0.3474384869914502,0,0,1.4413093994140624,0,0,0.3822
0.35055556398583576,0,0,1.369483349609375,0,0,0.6115200000000001
0.35366971499752253,0,0,1.2832920898437499,0,0,1.1465999999999998
0.3568020139937289,0,0,1.3359645263671873,0,0,1.07016
0.35991314600687474,0,0,1.2665326782226562,0,0,0.0
0.3630278710043058,0,0,1.1085153686523437,0,0,0.99372
0.3661420959979296,0,0,1.2306196533203124,0,0,0.91728
0.36926639499142766,0,0,1.3742717529296875,0,0,1.2230400000000001
0.3724084529967513,0,0,1.39821376953125,0,0,0.68796
0.3755250659887679,0,0,1.2952630981445312,0,0,0.30576000000000003
0.3801253679848742,0,0,1.3120225097656248,0,0,0.99372
0.38327770298928954,0,0,1.3024457031249999,0,0,1.07016
0.38639816900831647,0,0,1.2330138549804688,0,0,0.68796
0.3895190049952362,0,0,1.3168109130859373,0,0,-0.3822
0.3927047479955945,0,0,1.1875240234375,0,0,0.91728
0.39582562100258656,0,0,1.3670891479492187,0,0,0.84084
0.39894527100841515,0,0,1.2737152832031249,0,0,0.7644
0.4020998849882744,0,0,1.4030021728515625,0,0,0.6115200000000001
0.40522096201311797,0,0,1.3120225097656248,0,0,0.3822
0.4083393350010738,0,0,1.24498486328125,0,0,1.37592
0.4114594479906373,0,0,1.4724340209960938,0,0,1.07016
0.4145773579948582,0,0,1.3096283081054687,0,0,0.68796
0.41769549099262804,0,0,1.3024457031249999,0,0,0.91728
0.42081508599221706,0,0,1.2665326782226562,0,0,0.53508
0.4239293849968817,0,0,1.5466542724609373,0,0,0.84084
0.4270445909933187,0,0,1.0869675537109373,0,0,0.84084
0.43016000199713744,0,0,1.3120225097656248,0,0,0.84084
0.4332957080041524,0,0,1.2737152832031249,0,0,0.84084
0.43641000700881705,0,0,1.3455413330078123,0,0,0.53508
0.4395267869986128,0,0,1.254561669921875,0,0,1.1465999999999998
0.4426445309945848,0,0,1.3431471313476562,0,0,0.91728
0.44577634800225496,0,0,1.2569558715820313,0,0,0.7644
0.4488949619990308,0,0,1.0893617553710937,0,0,0.0
0.4520460570056457,0,0,1.0893617553710937,0,0,0.84084
0.45518550398992375,0,0,1.180341418457031,0,0,0.7644
0.458304803003557,0,0,1.4053963745117186,0,0,0.68796
0.46142789800069295,0,0,1.3527239379882812,0,0,0.53508
0.46455528898513876,0,0,1.1037269653320312,0,0,0.6115200000000001
0.46767112499219365,0,0,1.3862427612304686,0,0,1.45236
0.4707929980068002,0,0,1.3479355346679687,0,0,0.84084
0.473911853012396,0,0,1.5131354492187499,0,0,0.7644
0.4770311329921242,0,0,1.1468225952148436,0,0,0.53508
0.48014713599695824,0,0,1.3192051147460937,0,0,0.68796
0.4832628419972025,0,0,1.6735469604492186,0,0,0.68796
0.4863790119998157,0,0,1.1013327636718748,0,0,-9.01992
0.48949944000924006,0,0,1.3192051147460937,0,0,0.6115200000000001
0.49260951700853184,0,0,1.6328455322265625,0,0,0.7644
0.4957296120119281,0,0,1.20667763671875,0,0,0.53508
0.4988463369954843,0,0,1.3718775512695311,0,0,1.60524
0.5019626180001069,0,0,1.158793603515625,0,0,1.1465999999999998
0.5151694169908296,0,0,1.2928688964843749,0,0,0.6115200000000001
0.5184350849885959,0,0,1.3646949462890625,0,0,0.45864
0.5215548459964339,0,0,1.3431471313476562,0,0,1.1465999999999998
0.5246821639884729,0,0,1.3311761230468748,0,0,0.91728
0.5277880929934327,0,0,1.3670891479492187,0,0,0.0
0.5308899839874357,0,0,1.3168109130859373,0,0,0.99372
0.534036246011965,0,0,1.0941501586914062,0,0,0.6115200000000001
0.5372796549927443,0,0,1.3646949462890625,0,0,1.5288
0.5404332309844904,0,0,1.35990654296875,0,0,0.53508
0.5435335299989674,0,0,1.3263877197265623,0,0,0.6115200000000001
0.5466588659910485,0,0,1.3766659545898436,0,0,0.6115200000000001
0.5497777950076852,0,0,1.5298948608398437,0,0,1.07016
0.5528981859970372,0,0,1.5155296508789062,0,0,0.99372
0.556019818992354,0,0,0.948103857421875,0,0,0.68796
0.5591371920017991,0,0,1.3646949462890625,0,0,0.45864
0.5622543609933928,0,0,1.4772224243164063,0,0,0.84084
0.5654036040068604,0,0,1.120486376953125,0,0,0.7644
0.5685719769971911,0,0,1.3407529296874998,0,0,0.68796
0.5716987380001228,0,0,1.6304513305664061,0,0,0.53508
0.5749176100071054,0,0,1.0869675537109373,0,0,0.22932
0.5780983720032964,0,0,1.35990654296875,0,0,1.2230400000000001
0.5812598179909401,0,0,1.3335703247070312,0,0,0.68796
0.5844380419875961,0,0,1.2689268798828124,0,0,0.6115200000000001
0.5875631009985227,0,0,1.3215993164062498,0,0,0.53508
0.5906833260087296,0,0,1.3024457031249999,0,0,1.07016
0.5938334570091683,0,0,1.3623007446289062,0,0,0.68796
0.5969512749870773,0,0,1.2665326782226562,0,0,0.07644000000000001
0.6000681669975165,0,0,1.2330138549804688,0,0,0.84084
0.6032172240084037,0,0,1.0869675537109373,0,0,0.53508
0.6063608939875849,0,0,1.2114660400390624,0,0,1.911
0.609489766007755,0,0,1.3670891479492187,0,0,0.53508
0.6126492499897722,0,0,1.2904746948242187,0,0,0.53508
0.6157733270083554,0,0,1.3527239379882812,0,0,0.99372
0.6189251439936925,0,0,1.4772224243164063,0,0,1.1465999999999998
0.6220544060051907,0,0,1.5059528442382812,0,0,0.45864
0.6251779079902917,0,0,1.1516109985351561,0,0,0.6115200000000001
0.6283470960042905,0,0,1.407790576171875,0,0,0.7644
0.6322356830060016,0,0,1.4963760375976562,0,0,0.68796
0.6353625739866402,0,0,1.2761094848632812,0,0,0.68796
0.6384825030108914,0,0,1.2306196533203124,0,0,0.68796
0.6416457449959125,0,0,1.39821376953125,0,0,0.99372
0.6447822659974918,0,0,1.189918225097656,0,0,0.45864
0.6478993250057101,0,0,1.2785036865234374,0,0,0.22932
0.6510232719883788,0,0,1.5921441040039062,0,0,0.84084
0.6541453670070041,0,0,1.3192051147460937,0,0,0.53508
0.6572628509893548,0,0,1.2593500732421874,0,0,1.2230400000000001
0.6604109829931986,0,0,1.6831237670898436,0,0,0.7644
0.6635612449899781,0,0,1.2737152832031249,0,0,0.45864
0.6666798219957855,0,0,1.1348515869140625,0,0,0.30576000000000003
0.6697962869948242,0,0,1.254561669921875,0,0,1.2230400000000001
0.6729125310084783,0,0,1.3072341064453123,0,0,0.91728
0.676027478009928,0,0,1.3359645263671873,0,0,-0.15288000000000002
0.6791419250075705,0,0,1.4341267944335936,0,0,0.99372
0.6827164230053313,0,0,1.3742717529296875,0,0,0.45864
0.6858214249950834,0,0,1.2808978881835937,0,0,9.47856
0.6889877979992889,0,0,1.350329736328125,0,0,0.6115200000000001
0.6920847079891246,0,0,1.3263877197265623,0,0,0.53508
0.6951989519875497,0,0,1.1061211669921875,0,0,1.5288
0.6983097319898661,0,0,1.3024457031249999,0,0,0.3822
0.7014137720107101,0,0,1.0941501586914062,0,0,0.53508
0.7046395700017456,0,0,1.0869675537109373,0,0,0.3822
0.7075676299864426,0,0,1.4437036010742186,0,0,1.07016
0.7104399689997081,0,0,1.675941162109375,0,0,0.84084
0.7132358090020716,0,0,1.199495031738281,0,0,0.22932
0.7160253330075648,0,0,1.484405029296875,0,0,9.24924
0.7188164319959469,0,0,1.3000515014648437,0,0,0.84084
0.7216068269917741,0,0,1.2761094848632812,0,0,0.45864
0.724601238995092,0,0,1.3383587280273437,0,0,0.53508
0.7275717619922943,0,0,1.2521674682617188,0,0,1.2994800000000002
0.7306126359908376,0,0,1.3407529296874998,0,0,1.07016
0.7334083640016615,0,0,0.9241618408203125,0,0,0.84084
0.7361896479851566,0,0,1.2737152832031249,0,0,0.53508
0.7389720439969096,0,0,1.0965443603515623,0,0,1.1465999999999998
0.7417781979893334,0,0,1.2138602416992186,0,0,0.68796
0.7445824629976414,0,0,1.2641384765625,0,0,0.7644
0.7473833399999421,0,0,1.5179238525390624,0,0,1.07016
0.7501849760010373,0,0,1.3934253662109375,0,0,1.2230400000000001
0.7529851300059818,0,0,1.2425906616210938,0,0,0.30576000000000003
0.7557842659880407,0,0,1.3192051147460937,0,0,0.30576000000000003
0.7585993829998188,0,0,1.1755530151367186,0,0,1.2230400000000001
0.7613930189982057,0,0,1.1947066284179686,0,0,0.22932
0.7641770069894847,0,0,1.2713210815429687,0,0,0.91728
0.7669621240056586,0,0,1.2497732666015624,0,0,0.53508
0.7697459449991584,0,0,1.4939818359375,0,0,0.84084
0.7725707470090128,0,0,1.199495031738281,0,0,0.6115200000000001
0.7753615500114392,0,0,1.2952630981445312,0,0,9.40212
0.7781640560133383,0,0,1.2761094848632812,0,0,0.68796
0.7809667469991837,0,0,1.2330138549804688,0,0,0.3822
0.783763365005143,0,0,1.2928688964843749,0,0,0.53508
0.7865620189986657,0,0,1.2330138549804688,0,0,0.45864
0.789375544001814,0,0,1.5586252807617187,0,0,0.6115200000000001
0.7928932089998852,0,0,0.967257470703125,0,0,0.68796
0.7957370479998644,0,0,1.22583125,0,0,1.45236
0.7985401279875077,0,0,1.2785036865234374,0,0,1.2230400000000001
0.8013426899851765,0,0,1.254561669921875,0,0,0.91728
0.8041744729853235,0,0,1.2665326782226562,0,0,1.68168
0.806975904997671,0,0,1.5227122558593749,0,0,1.07016
0.8097771710017696,0,0,1.4508862060546874,0,0,1.2994800000000002
0.8125795839878265,0,0,1.0390835205078124,0,0,0.53508
0.8153789239877369,0,0,1.2761094848632812,0,0,1.07016
0.8181670969934203,0,0,1.429338391113281,0,0,1.07016
0.820959214004688,0,0,1.35990654296875,0,0,0.91728
0.8237586460018065,0,0,1.2521674682617188,0,0,1.5288
0.8265650040120818,0,0,1.4891934326171874,0,0,1.1465999999999998
0.8293720659858081,0,0,1.3455413330078123,0,0,0.99372
0.8321696649945807,0,0,1.197100830078125,0,0,0.30576000000000003
0.83496941201156,0,0,1.4317325927734375,0,0,0.91728
0.8377677699900232,0,0,1.209071838378906,0,0,0.7644
0.8405699059949256,0,0,1.1037269653320312,0,0,0.6115200000000001
0.8433726530056447,0,0,1.2593500732421874,0,0,1.07016
0.8461863989941776,0,0,1.407790576171875,0,0,1.2230400000000001
0.848979202011833,0,0,1.599326708984375,0,0,0.30576000000000003
0.8517618929909077,0,0,1.1755530151367186,0,0,0.53508
0.8545687329897191,0,0,1.3000515014648437,0,0,1.2994800000000002
0.8573639059904963,0,0,1.2401964599609374,0,0,0.53508
0.8601430050039198,0,0,1.0989385620117187,0,0,0.07644000000000001
0.862944714986952,0,0,1.1611878051757811,0,0,0.6115200000000001
0.8657333689916413,0,0,1.2737152832031249,0,0,0.7644
0.8685783009859733,0,0,1.3934253662109375,0,0,0.22932
0.8713821590063162,0,0,1.1037269653320312,0,0,0.53508
0.874185275984928,0,0,1.2330138549804688,0,0,0.68796
0.8769845780043397,0,0,1.3239935180664062,0,0,1.911
0.8798843240074348,0,0,1.8555062866210936,0,0,1.911
0.8829230130068026,0,0,2.039859814453125,0,0,2.2931999999999997
0.8857255929906387,0,0,2.906560815429687,0,0,2.2931999999999997
0.8885268029989675,0,0,2.214636535644531,0,0,0.30576000000000003
0.8913235499931034,0,0,1.2761094848632812,0,0,0.7644
0.8941211299970746,0,0,1.4700398193359374,0,0,0.99372
0.8969332849956118,0,0,1.5322890624999999,0,0,0.91728
0.8997289199905936,0,0,1.7764976318359373,0,0,1.2230400000000001
0.9025262600043789,0,0,2.408566870117187,0,0,1.911
0.9054195430071559,0,0,1.8531120849609375,0,0,2.14032
0.9084258799848612,0,0,1.8722656982421875,0,0,1.75812
0.9115434940031264,0,0,1.3838485595703125,0,0,0.91728
0.9146780890005175,0,0,1.6160861206054686,0,0,0.91728
0.9177940549852792,0,0,2.039859814453125,0,0,1.07016
0.920911002001958,0,0,1.5442600708007812,0,0,0.7644
0.9240253189927898,0,0,1.8555062866210936,0,0,1.68168
0.9271414520044345,0,0,2.5953145996093747,0,0,1.5288
0.9302581030060537,0,0,1.1276689819335937,0,0,0.30576000000000003
0.9333859570033383,0,0,1.89620771484375,0,0,1.45236
0.9365298300108407,0,0,1.5155296508789062,0,0,1.911
0.9396463139855769,0,0,1.5562310791015623,0,0,2.06388
0.9427620019996539,0,0,2.04943662109375,0,0,1.1465999999999998
0.9458778930129483,0,0,2.094926452636719,0,0,0.99372
0.9489941000065301,0,0,1.7621324218749999,0,0,0.7644
0.9521076400124002,0,0,1.2306196533203124,0,0,1.68168
0.9552232910064049,0,0,1.5203180541992187,0,0,1.07016
0.9583382559940219,0,0,1.5227122558593749,0,0,1.68168
0.9614579069893807,0,0,1.879448303222656,0,0,1.68168
0.9645767619949766,0,0,1.9680337646484374,0,0,1.2230400000000001
0.9676925980020314,0,0,2.461239306640625,0,0,2.4460800000000003
0.9708153959945776,0,0,1.7597382202148437,0,0,0.68796
0.9739328990108334,0,0,0.948103857421875,0,0,0.53508
0.9770433460071217,0,0,2.6599580444335937,0,0,2.4460800000000003
0.9801375349925365,0,0,1.3287819213867187,0,0,0.6115200000000001
0.9832598519860767,0,0,1.9416975463867185,0,0,1.2994800000000002
0.9863760209991597,0,0,2.664746447753906,0,0,0.84084
0.9894944500119891,0,0,0.5889736083984375,0,0,0.84084
0.9926100079901516,0,0,1.9512743530273435,0,0,2.2167600000000003
0.9957250290026423,0,0,1.5586252807617187,0,0,1.5288
0.9988417539861985,0,0,2.683900061035156,0,0,0.68796
1.0020701450121123,0,0,1.6472107421875,0,0,9.32568
1.005311034998158,0,0,2.0757728393554684,0,0,1.2994800000000002
1.008647517010104,0,0,1.8124106567382812,0,0,1.5288
1.0118989250040613,0,0,1.7166425903320313,0,0,0.68796
1.0151069079875015,0,0,1.3431471313476562,0,0,3.13404
1.0183624280034564,0,0,1.5203180541992187,0,0,1.2230400000000001
1.0216013739991467,0,0,1.1540052001953125,0,0,-0.84084
1.0248450599901844,0,0,1.946485949707031,0,0,1.60524
1.028003396000713,0,0,2.3151930053710936,0,0,2.52252
1.0311810460116249,0,0,0.9720458740234375,0,0,-0.53508
1.0343743069970515,0,0,1.35990654296875,0,0,9.40212
1.0377189930004533,0,0,2.81558115234375,0,0,2.98116
1.0408493840077426,0,0,0.8762778076171874,0,0,-0.45864
1.0439647019957192,0,0,1.2737152832031249,0,0,0.30576000000000003
1.0471360369992908,0,0,3.787627026367187,0,0,3.4398000000000004
1.0502810209873132,0,0,0.9816226806640624,0,0,-1.37592
1.0534635600051843,0,0,0.47884033203125,0,0,2.6754
1.0566109140054323,0,0,3.9600095458984375,0,0,3.36336
1.0597478429845069,0,0,0.6560112548828124,0,0,0.6115200000000001
1.0628954189887736,0,0,1.455674609375,0,0,2.75184
1.0660769020032603,0,0,4.3622354248046875,0,0,3.13404
1.0692115160054527,0,0,0.028730419921875,0,0,-1.911
1.0724560910020955,0,0,1.5394716674804687,0,0,0.53508
1.075691297010053,0,0,2.482787121582031,0,0,0.30576000000000003
1.0789622789889108,0,0,-1.1755530151367186,0,0,0.7644
1.082230021012947,0,0,2.73896669921875,0,0,1.1465999999999998
1.0854796519852243,0,0,1.3766659545898436,0,0,0.0
1.0887586339958943,0,0,2.0087351928710935,0,0,1.2994800000000002
1.092065116012236,0,0,1.9201497314453124,0,0,-0.3822
1.0952623400080483,0,0,-0.679953271484375,0,0,1.2230400000000001
1.098444600997027,0,0,2.6695348510742187,0,0,0.68796
1.1017789719917346,0,0,-0.15562310791015624,0,0,0.53508
1.1050145289918873,0,0,2.5809493896484375,0,0,1.45236
1.1084359909873456,0,0,2.3870190551757813,0,0,1.83456
1.1105223759950604,0,0,-0.2059013427734375,0,0,-0.7644
1.112002804002259,0,0,0.6488286499023437,0,0,0.0
1.1134715279913507,0,0,1.3838485595703125,0,0,1.2994800000000002
1.114945234003244,0,0,2.597708801269531,0,0,1.60524
1.1164405510062352,0,0,2.0446482177734375,0,0,0.53508
1.117852627998218,0,0,0.1197100830078125,0,0,1.5288
1.1192337239917833,0,0,-0.41898529052734373,0,0,0.91728
1.1206223570043221,0,0,0.9840168823242187,0,0,1.68168
1.1220107859990094,0,0,2.6408044311523438,0,0,1.75812
1.1233904009859543,0,0,2.8945898071289062,0,0,2.06388
1.1247707740112673,0,0,1.4867992309570313,0,0,0.91728
1.1264724959910382,0,0,0.4525041137695312,0,0,0.45864
1.1285373069986235,0,0,1.1180921752929687,0,0,0.0
1.1299875130061992,0,0,2.109291662597656,0,0,0.53508
1.1313697200093884,0,0,2.0063409912109376,0,0,0.99372
1.1327558899938595,0,0,0.8259995727539062,0,0,0.0
1.134135338012129,0,0,0.0,0,0,-0.30576000000000003
1.1355165260029025,0,0,-0.23223756103515625,0,0,1.07016
1.1369000849954318,0,0,1.4604630126953124,0,0,1.1465999999999998
1.1382797739934176,0,0,1.898601916503906,0,0,1.1465999999999998
1.1396587030030787,0,0,1.838746875,0,0,1.911
1.1410403909976594,0,0,1.0989385620117187,0,0,2.4460800000000003
1.1424192090053111,0,0,0.47644613037109373,0,0,-0.53508
1.1437988049874548,0,0,1.1372457885742187,0,0,0.45864
1.1451873639889527,0,0,2.3774422485351563,0,0,0.84084
1.1465758300037123,0,0,2.789244934082031,0,0,1.75812
1.147963408002397,0,0,2.128445275878906,0,0,0.84084
1.1493445039959624,0,0,1.149216796875,0,0,1.45236
1.1507243590021972,0,0,-0.7254431030273437,0,0,-0.7644
1.152105268993182,0,0,0.33518823242187495,0,0,-0.99372
1.1535332909843419,0,0,1.0773907470703123,0,0,0.3822
1.1549682930053677,0,0,2.3535002319335936,0,0,1.37592
1.1563563339877874,0,0,1.9752163696289062,0,0,0.45864
1.1577446890005376,0,0,0.5530605834960938,0,0,1.2994800000000002
1.159212339000078,0,0,0.12449848632812499,0,0,0.91728
1.1606328049965668,0,0,1.6304513305664061,0,0,0.53508
1.1620135859993752,0,0,1.886630908203125,0,0,0.0
1.1633929229865316,0,0,2.2290017456054687,0,0,1.5288
1.1647795739991125,0,0,1.9680337646484374,0,0,0.91728
1.166166095994413,0,0,1.0390835205078124,0,0,-0.3822
1.1675555070105474,0,0,0.2825157958984375,0,0,0.68796
1.168942454009084,0,0,1.6208745239257811,0,0,0.91728
1.170328531996347,0,0,1.6304513305664061,0,0,1.2994800000000002
1.1717149979958776,0,0,1.1420341918945311,0,0,0.45864
1.1731123529898468,0,0,0.7493851196289062,0,0,0.99372
1.174514893005835,0,0,0.11013327636718749,0,0,-1.07016
1.1759035630093422,0,0,1.1037269653320312,0,0,0.84084
1.1772943070100155,0,0,1.908178723144531,0,0,2.36964
1.1786813839862589,0,0,2.3056161987304686,0,0,2.2931999999999997
1.1800689800002147,0,0,2.0063409912109376,0,0,1.75812
1.1814627049898263,0,0,1.4341267944335936,0,0,1.75812
1.1828500420087948,0,0,0.06703764648437499,0,0,-9.784320000000001
1.1842381749884225,0,0,1.429338391113281,0,0,0.45864
1.1856258449843153,0,0,2.085349645996094,0,0,1.98744
1.187013032991672,0,0,1.9895815795898437,0,0,1.911
1.188400573009858,0,0,1.218648645019531,0,0,0.91728
1.1897877430019435,0,0,0.3447650390625,0,0,0.0
1.1911747829872184,0,0,-0.0047884033203125,0,0,1.07016
1.1925643979921006,0,0,1.1324573852539062,0,0,0.53508
1.1939511600066908,0,0,1.5107412475585937,0,0,1.1465999999999998
1.1953380150080193,0,0,1.7238251953125,0,0,1.2230400000000001
1.1967255189956632,0,0,0.8930372192382812,0,0,0.84084
1.1981120400014333,0,0,0.5147533569335937,0,0,0.15288000000000002
1.1994984690099955,0,0,0.5530605834960938,0,0,0.99372
1.200886676000664,0,0,2.5522189697265625,0,0,1.98744
1.2022735310019925,0,0,2.8323405639648436,0,0,2.2931999999999997
1.2036604050081223,0,0,1.1611878051757811,0,0,1.2994800000000002
1.2050473160052206,0,0,0.852335791015625,0,0,0.7644
1.2065157250035554,0,0,0.34237083740234375,0,0,-1.68168
1.207907931995578,0,0,2.04943662109375,0,0,0.84084
1.209296879998874,0,0,2.4947581298828125,0,0,1.60524
1.2106850679847412,0,0,1.5945383056640625,0,0,1.1465999999999998
1.2120729240123183,0,0,0.5243301635742187,0,0,0.07644000000000001
1.2134612789959647,0,0,-0.258573779296875,0,0,0.45864
1.2148493000131566,0,0,0.15562310791015624,0,0,-0.3822
1.2162371180020273,0,0,1.6400281372070311,0,0,0.3822
1.2176246400049422,0,0,2.750937707519531,0,0,2.06388
1.2190114950062707,0,0,2.499546533203125,0,0,0.7644
1.220399109995924,0,0,1.4173673828125,0,0,0.53508
1.2217863719852176,0,0,0.040701428222656245,0,0,0.0
1.2231731899955776,0,0,-0.51714755859375,0,0,0.15288000000000002
1.2245617670123465,0,0,2.068590234375,0,0,0.3822
1.225948289007647,0,0,2.4253262817382812,0,0,1.2230400000000001
1.2273352920019533,0,0,2.7269956909179687,0,0,0.30576000000000003
1.2287231470108964,0,0,0.8499415893554687,0,0,0.7644
1.2301097990130074,0,0,-0.011971008300781249,0,0,-0.84084
1.2314987469871994,0,0,-0.55545478515625,0,0,0.53508
1.2328871939971577,0,0,1.8650830932617186,0,0,1.2230400000000001
1.2342732709948905,0,0,2.597708801269531,0,0,1.07016
1.2356604230008088,0,0,1.438915197753906,0,0,0.53508
1.237047647999134,0,0,0.8379705810546875,0,0,0.6115200000000001
1.2384347440092824,0,0,-0.1005564697265625,0,0,-0.99372
1.2398239329922944,0,0,1.9823989746093749,0,0,1.60524
1.241206490987679,0,0,2.3056161987304686,0,0,1.911
1.2425849759893026,0,0,2.0063409912109376,0,0,1.1465999999999998
1.243973978998838,0,0,0.8283937744140625,0,0,0.07644000000000001
1.2453909819887485,0,0,0.1580173095703125,0,0,0.15288000000000002
1.246778633998474,0,0,-0.29927520751953124,0,0,0.0
1.2481674519949593,0,0,1.8291700683593748,0,0,1.07016
1.249548658990534,0,0,3.21780703125,0,0,2.5989600000000004
1.2509306249849033,0,0,2.549824768066406,0,0,2.2167600000000003
1.252312091004569,0,0,1.0917559570312498,0,0,0.84084
1.25370598299196,0,0,-0.6823474731445313,0,0,-0.15288000000000002
1.2550957089988515,0,0,-0.6871358764648438,0,0,-0.15288000000000002
1.2564954709960148,0,0,2.4947581298828125,0,0,0.6115200000000001
1.257874881994212,0,0,3.418919970703125,0,0,2.82828
1.2592533479910344,0,0,3.1747114013671873,0,0,1.911
1.2606398510106374,0,0,0.8690952026367187,0,0,2.06388
1.2620273549982812,0,0,-0.3854664672851562,0,0,-1.07016
1.2634160429879557,0,0,-1.1276689819335937,0,0,0.22932
1.264801843004534,0,0,2.2481553588867187,0,0,0.99372
1.2661806420073844,0,0,3.0909143432617188,0,0,2.2167600000000003
1.2675593309977558,0,0,1.9129671264648436,0,0,1.911
1.2689447779848706,0,0,0.9552864624023437,0,0,0.22932
1.2703311149962246,0,0,-0.6679822631835937,0,0,-1.37592
1.2717186179943383,0,0,0.8044517578125,0,0,9.40212
1.2731051949958783,0,0,2.032677209472656,0,0,1.60524
1.2744921249977779,0,0,2.9735984619140625,0,0,1.45236
1.2758785169862676,0,0,1.7286135986328124,0,0,1.68168
1.2772648530080914,0,0,0.8044517578125,0,0,0.6115200000000001
1.2786508569843136,0,0,-0.9241618408203125,0,0,-0.91728
1.2800386380113196,0,0,0.9409212524414062,0,0,0.07644000000000001
1.2814248999929987,0,0,2.3822306518554686,0,0,1.07016
1.2828115700103808,0,0,2.9640216552734375,0,0,1.60524
1.284197758010123,0,0,2.1930887207031247,0,0,1.1465999999999998
1.2855844649893697,0,0,-0.30406361083984373,0,0,0.0
1.2869711350067519,0,0,-0.9792284790039062,0,0,-0.6115200000000001
1.288364489999367,0,0,0.7015010864257812,0,0,-0.15288000000000002
1.2897521599952597,0,0,3.038241906738281,0,0,2.2931999999999997
1.2911388300126418,0,0,3.0597897216796874,0,0,1.2994800000000002
1.2925252779969014,0,0,0.9074024291992187,0,0,0.7644
1.2939116880006623,0,0,-0.7326257080078125,0,0,-0.91728
1.2952995249943342,0,0,-1.5322890624999999,0,0,-0.7644
1.2966879910090938,0,0,1.7166425903320313,0,0,0.07644000000000001
1.2980740309867542,0,0,2.971204260253906,0,0,1.75812
1.2996324769919738,0,0,2.6982652709960937,0,0,1.911
1.301025591994403,0,0,1.8435352783203125,0,0,1.5288
1.3024132800055668,0,0,0.15322890625,0,0,-0.99372
1.3038028570008464,0,0,0.0526724365234375,0,0,-0.30576000000000003
1.3051858980034012,0,0,1.3383587280273437,0,0,0.6115200000000001
1.3065651789947879,0,0,3.3327287109375,0,0,1.1465999999999998
1.3079470150114503,0,0,2.6192566162109374,0,0,1.68168
1.309370333008701,0,0,1.8938135131835936,0,0,1.1465999999999998
1.3107566139951814,0,0,-0.8403647827148437,0,0,-0.91728
1.3121459879912436,0,0,0.277727392578125,0,0,-0.84084
1.3135325830080546,0,0,2.4205378784179685,0,0,-8.7906
1.314919346012175,0,0,2.499546533203125,0,0,1.37592
1.3163055710028857,0,0,2.0350714111328125,0,0,1.5288
1.3176923709979746,0,0,0.19871873779296872,0,0,1.07016
1.3190785959886853,0,0,-0.6392518432617187,0,0,9.631440000000001
1.320465396012878,0,0,1.7022773803710936,0,0,0.68796
1.321851807006169,0,0,2.6719290527343746,0,0,2.36964
1.3232380129920784,0,0,2.6384102294921874,0,0,1.98744
1.3246252200042363,0,0,1.7357962036132812,0,0,1.1465999999999998
1.3260107790119946,0,0,0.25139117431640623,0,0,-0.15288000000000002
1.3274068380123936,0,0,0.411802685546875,0,0,-0.15288000000000002
1.3287969889934175,0,0,1.62805712890625,0,0,0.3822
1.3301825299859047,0,0,2.5857377929687497,0,0,1.83456
1.3315687179856468,0,0,2.1404162841796874,0,0,1.911
1.3329547029861715,0,0,1.3263877197265623,0,0,1.2230400000000001
1.3343408909859136,0,0,0.028730419921875,0,0,-0.22932
1.3357271539862268,0,0,0.22026655273437498,0,0,0.15288000000000002
1.3371135639899876,0,0,1.3646949462890625,0,0,0.6115200000000001
1.3385001230053604,0,0,2.499546533203125,0,0,0.3822
1.3398859039880335,0,0,2.4253262817382812,0,0,2.06388
1.341273314988939,0,0,2.27927998046875,0,0,2.2167600000000003
1.3426594480115455,0,0,-0.51714755859375,0,0,0.07644000000000001
1.3440465989988297,0,0,0.00718260498046875,0,0,-0.30576000000000003
1.3454330099921208,0,0,1.889025109863281,0,0,0.91728
1.3468191800056957,0,0,2.602497204589844,0,0,0.15288000000000002
1.348204904992599,0,0,2.7341782958984373,0,0,1.2994800000000002
1.349591242003953,0,0,0.737414111328125,0,0,0.91728
1.3509776889986824,0,0,-0.42377369384765623,0,0,-0.3822
1.3523646740068216,0,0,0.6512228515624999,0,0,-0.7644
1.3537524179846514,0,0,1.7022773803710936,0,0,0.91728
1.3551395139948,0,0,2.1835119140624997,0,0,0.68796
1.3565262760093901,0,0,1.6424223388671875,0,0,0.45864
1.3579113539890386,0,0,0.6536170532226562,0,0,0.84084
1.359297319984762,0,0,-0.15083470458984374,0,0,0.3822
1.3606847309856676,0,0,2.133233679199219,0,0,0.91728
1.3620703449996654,0,0,2.710236279296875,0,0,1.68168
1.3634565520042088,0,0,1.9512743530273435,0,0,1.60524
1.3648431659967173,0,0,1.120486376953125,0,0,0.53508
1.366228428989416,0,0,0.24181436767578124,0,0,-0.68796
1.3676152100088075,0,0,0.8690952026367187,0,0,0.53508
1.3690013980085496,0,0,2.1691467041015624,0,0,1.07016
1.370389660994988,0,0,2.6623522460937497,0,0,1.07016
1.371774570987327,0,0,1.7549498168945312,0,0,1.5288
1.3731614080024883,0,0,0.6200982299804687,0,0,1.07016
1.3745473739982117,0,0,-0.6655880615234374,0,0,-0.84084
1.37593428499531,0,0,0.33039982910156246,0,0,0.22932
1.3773202140000649,0,0,1.889025109863281,0,0,0.91728
1.379717242991319,0,0,1.908178723144531,0,0,2.4460800000000003
1.3811727830034215,0,0,1.3192051147460937,0,0,1.83456
1.3825616379908752,0,0,0.06943184814453125,0,0,-0.6115200000000001
1.3839500669855624,0,0,0.7015010864257812,0,0,-0.30576000000000003
1.3853593849926256,0,0,2.6575638427734374,0,0,1.37592
1.3867473689897452,0,0,2.722207287597656,0,0,0.53508
1.3881347980059218,0,0,1.7645266235351562,0,0,0.84084
1.3895220239937771,0,0,0.09576806640624999,0,0,0.7644
1.3909084899933077,0,0,-0.13646949462890623,0,0,-1.1465999999999998
1.39229786398937,0,0,0.6703764648437499,0,0,-0.15288000000000002
1.3936856079963036,0,0,2.157175695800781,0,0,1.1465999999999998
1.3950724439928308,0,0,2.0254946044921875,0,0,0.99372
1.3964608359965496,0,0,1.1755530151367186,0,0,0.7644
1.3978470799920615,0,0,0.8092401611328125,0,0,1.68168
1.3992336580122355,0,0,0.7302315063476562,0,0,0.84084
1.400620272004744,0,0,2.0542250244140625,0,0,-0.15288000000000002
1.402005960000679,0,0,2.0087351928710935,0,0,0.3822
1.4033920750080142,0,0,1.5849614990234373,0,0,0.53508
1.404778800002532,0,0,1.0031704956054688,0,0,0.3822
1.4061648409988265,0,0,0.3711012573242187,0,0,-0.15288000000000002
1.4075516590091866,0,0,1.0390835205078124,0,0,1.2994800000000002
1.408938420994673,0,0,2.1164742675781247,0,0,1.911
1.4103246279992163,0,0,2.0470424194335934,0,0,0.99372
1.4117106309859082,0,0,1.1228805786132812,0,0,1.45236
1.4130983199866023,0,0,0.296881005859375,0,0,0.84084
1.4144846189883538,0,0,0.028730419921875,0,0,-0.7644
1.4158711780037265,0,0,1.1348515869140625,0,0,1.2994800000000002
1.417258014989784,0,0,2.6240450195312497,0,0,1.911
1.4186444070073776,0,0,3.1196447631835937,0,0,1.37592
1.420030614011921,0,0,2.233790148925781,0,0,1.98744
1.421417023986578,0,0,-0.4525041137695312,0,0,1.5288
1.4228037130087614,0,0,-1.2282254516601563,0,0,-0.99372
1.4241911419958342,0,0,0.296881005859375,0,0,0.3822
1.4255778859951533,0,0,2.896984008789062,0,0,1.911
1.426990517997183,0,0,3.0550013183593747,0,0,1.45236
1.4283970769902226,0,0,0.842758984375,0,0,0.7644
1.429791264992673,0,0,-0.20829554443359374,0,0,0.3822
1.431180009007221,0,0,-0.6967126831054687,0,0,0.07644000000000001
1.4325694199942518,0,0,1.7381904052734374,0,0,0.45864
1.4339543489913922,0,0,2.4756045166015626,0,0,1.5288
1.435340519004967,0,0,1.9393033447265624,0,0,1.45236
1.4367273369862232,0,0,1.3144167114257812,0,0,0.30576000000000003
1.4381138769967947,0,0,0.21787235107421873,0,0,-0.7644
1.4395011400047224,0,0,1.1468225952148436,0,0,0.68796
1.4408881060080603,0,0,2.693476867675781,0,0,0.91728
1.4422756280109752,0,0,2.442085693359375,0,0,1.2230400000000001
1.4436675200122409,0,0,1.3120225097656248,0,0,1.5288
1.445063671009848,0,0,0.296881005859375,0,0,-0.45864
1.4464523410133552,0,0,-0.5961562133789062,0,0,-1.98744
1.4478413809847552,0,0,0.8307879760742187,0,0,0.6115200000000001
1.4492241620027926,0,0,2.89219560546875,0,0,1.98744
1.4506053320073988,0,0,2.9185318237304685,0,0,0.84084
1.4519838170090225,0,0,1.7860744384765623,0,0,1.37592
1.453381356986938,0,0,-0.6751648681640625,0,0,0.7644
1.4547697860107291,0,0,-1.2378022583007813,0,0,-1.45236
1.4561589930090122,0,0,0.296881005859375,0,0,0.07644000000000001
1.4575394039857201,0,0,3.7038299682617186,0,0,2.4460800000000003
1.4589182219933718,0,0,3.7804444213867185,0,0,2.2931999999999997
1.4602967069949955,0,0,1.1875240234375,0,0,1.2230400000000001
1.4616863949922845,0,0,-0.5051765502929687,0,0,1.1465999999999998
1.4630746209877543,0,0,-1.3838485595703125,0,0,-0.99372
1.464461327996105,0,0,2.384624853515625,0,0,0.0
1.4658403130015358,0,0,3.35188232421875,0,0,2.14032
1.4672195379971527,0,0,2.1811177124023438,0,0,1.911
1.4686045779963024,0,0,0.9457096557617187,0,0,0.6115200000000001
1.4699914339871611,0,0,-0.5147533569335937,0,0,0.0
1.4713789740053471,0,0,-0.13407529296874998,0,0,0.6115200000000001
1.472764514008304,0,0,1.618480322265625,0,0,0.45864
1.474143166007707,0,0,3.172317199707031,0,0,1.911
1.4755220760125667,0,0,2.2577321655273437,0,0,2.2931999999999997
1.4769374309980776,0,0,1.675941162109375,0,0,1.75812
1.4783248419989832,0,0,-0.8355763793945312,0,0,-0.22932
1.479713086009724,0,0,-0.1484405029296875,0,0,0.22932
1.4810960890026763,0,0,1.599326708984375,0,0,0.7644
1.4824740370095242,0,0,3.191470812988281,0,0,0.84084
1.4838523920043372,0,0,2.7078420776367187,0,0,1.37592
1.4852392099855933,0,0,0.24899697265624998,0,0,1.45236
1.4866258240072057,0,0,-0.8379705810546875,0,0,-1.2230400000000001
1.488013049995061,0,0,-0.2561795776367187,0,0,0.07644000000000001
1.4894040900107939,0,0,2.4157494750976563,0,0,1.37592
1.4907905189902522,0,0,3.268085266113281,0,0,0.6115200000000001
1.4921765410108492,0,0,1.7812860351562498,0,0,1.1465999999999998
1.4935630999971181,0,0,0.3136404174804687,0,0,1.1465999999999998
1.4949489179998636,0,0,-1.6065093139648436,0,0,-1.5288
1.4963364400027785,0,0,1.3575123413085937,0,0,0.0
1.4977233129902743,0,0,2.50912333984375,0,0,1.75812
1.4991097419988364,0,0,3.5194764404296874,0,0,2.06388
1.5004963009851053,0,0,2.360682836914062,0,0,1.2994800000000002
1.5018823409918696,0,0,0.6153098266601562,0,0,1.2230400000000001
1.5032682339951862,0,0,-1.1252747802734375,0,0,-0.99372
1.5046561069902964,0,0,1.3718775512695311,0,0,-0.7644
1.5060418329958338,0,0,3.2561142578125,0,0,1.2230400000000001
1.5074517620087136,0,0,3.430890979003906,0,0,2.14032
1.508840597991366,0,0,1.956062756347656,0,0,1.75812
1.5102261569991242,0,0,-1.8243816650390623,0,0,-0.91728
1.5116142900078557,0,0,-1.6400281372070311,0,0,-0.22932
1.5130024600075558,0,0,0.22744915771484372,0,0,9.47856
1.5143894439970609,0,0,2.806004345703125,0,0,0.99372
1.515775706997374,0,0,2.882618798828125,0,0,2.14032
1.5171621550107375,0,0,1.419761584472656,0,0,2.82828
1.518548380001448,0,0,-0.4525041137695312,0,0,-9.784320000000001
1.5199356240045745,0,0,-0.7206546997070312,0,0,0.84084
1.5213222570018843,0,0,2.3487118286132813,0,0,2.2931999999999997
1.5227087420062162,0,0,3.1938650146484373,0,0,1.5288
1.524095225991914,0,0,2.808398547363281,0,0,0.99372
1.5254814520012587,0,0,0.9313444458007812,0,0,1.37592
1.5268668069911655,0,0,-0.4070142822265625,0,0,-0.84084
1.5282543470093515,0,0,1.1635820068359375,0,0,-0.7644
1.5296409990114626,0,0,1.9991583862304687,0,0,1.1465999999999998
1.5310445940122008,0,0,2.636016027832031,0,0,1.07016
1.5324641340121161,0,0,1.7238251953125,0,0,0.91728
1.533850692998385,0,0,0.9169792358398436,0,0,0.30576000000000003
1.5352364919963293,0,0,-0.430956298828125,0,0,0.22932
1.5366234589891974,0,0,1.22583125,0,0,0.3822
1.5380077209847514,0,0,1.886630908203125,0,0,1.60524
1.5393935950123705,0,0,2.4109610717773435,0,0,1.37592
1.5407798569940496,0,0,2.1643583007812497,0,0,0.45864
1.5421653049997985,0,0,-0.3950432739257812,0,0,-0.68796
1.5435526790097356,0,0,-0.22505495605468748,0,0,-0.15288000000000002
1.5449395889881998,0,0,1.3048399047851562,0,0,0.6115200000000001
1.5463252780027688,0,0,2.887407202148437,0,0,0.91728
1.5477145590120926,0,0,2.1452046874999997,0,0,2.2167600000000003
1.549100283998996,0,0,0.5578489868164063,0,0,1.911
1.5504860839864705,0,0,-0.612915625,0,0,-1.5288
1.5518727719900198,0,0,-0.6009446166992187,0,0,-0.53508
1.5532622750033624,0,0,2.214636535644531,0,0,0.84084
1.5546482049976476,0,0,2.9975404785156248,0,0,1.07016
1.5560336339985952,0,0,2.5546131713867184,0,0,2.4460800000000003
1.5574194520013407,0,0,1.6328455322265625,0,0,3.36336
1.5588051399972755,0,0,0.1197100830078125,0,0,0.45864
1.5601911619887687,0,0,0.5817910034179687,0,0,0.0
1.5615774060133845,0,0,1.0390835205078124,0,0,0.84084
1.5629701130092144,0,0,1.8650830932617186,0,0,0.22932
1.5643561529868748,0,0,2.360682836914062,0,0,0.0
1.5657419899944216,0,0,1.62805712890625,0,0,1.45236
1.5671277710061986,0,0,-0.11252747802734374,0,0,0.6115200000000001
1.568514532991685,0,0,0.8858546142578124,0,0,0.84084
1.5698999440064654,0,0,0.833182177734375,0,0,1.5288
1.571285779995378,0,0,1.2114660400390624,0,0,1.1465999999999998
1.5726718209916726,0,0,1.5466542724609373,0,0,0.30576000000000003
1.574056434998056,0,0,1.1420341918945311,0,0,-0.30576000000000003
1.5754428090003785,0,0,1.3527239379882812,0,0,1.60524
1.5768295160087291,0,0,2.7461493041992187,0,0,1.2994800000000002
1.5782152230094653,0,0,2.2840683837890623,0,0,1.60524
1.579600744007621,0,0,1.484405029296875,0,0,1.68168
1.5809873589896597,0,0,0.833182177734375,0,0,0.45864
1.582373009994626,0,0,-0.8403647827148437,0,0,-1.75812
1.5837600129889324,0,0,0.40462008056640625,0,0,-0.3822
1.585146053985227,0,0,2.511517541503906,0,0,0.84084
1.5865313530084677,0,0,2.70065947265625,0,0,0.6115200000000001
1.5879170600092039,0,0,1.6735469604492186,0,0,1.68168
1.5893106189905666,0,0,-0.1867477294921875,0,0,1.5288
1.5906978999846615,0,0,-0.5674257934570313,0,0,-1.83456
1.5920850510010496,0,0,2.3487118286132813,0,0,0.45864
1.5934717950003687,0,0,2.6216508178710938,0,0,1.37592
1.5948580210097134,0,0,2.887407202148437,0,0,0.99372
1.5962443200114649,0,0,1.1133037719726562,0,0,1.2230400000000001
1.5976282490009908,0,0,0.17238251953125,0,0,1.68168
1.599078325991286,0,0,0.39983167724609375,0,0,0.22932
1.6004687369859312,0,0,2.3415292236328122,0,0,-0.45864
1.6019945720036048,0,0,2.7533319091796873,0,0,1.1465999999999998
1.6033895559958182,0,0,1.9393033447265624,0,0,1.37592
1.6047779860091396,0,0,1.0319009155273438,0,0,0.84084
1.6061632109922357,0,0,-0.3854664672851562,0,0,-0.84084
1.6075640660128556,0,0,0.239420166015625,0,0,1.5288
1.608950588008156,0,0,2.01112939453125,0,0,0.7644
1.610336349986028,0,0,2.779668127441406,0,0,1.68168
1.6117280389880762,0,0,1.9584569580078124,0,0,1.2230400000000001
1.6131151340086944,0,0,0.6488286499023437,0,0,1.2230400000000001
1.6145012119959574,0,0,-0.1388636962890625,0,0,-1.2994800000000002
1.6158881039882544,0,0,0.5363011718749999,0,0,1.07016
1.617275439988589,0,0,2.3343466186523436,0,0,1.911
1.6186615730111953,0,0,2.4947581298828125,0,0,0.68796
1.6200477429956663,0,0,1.0582371337890624,0,0,1.83456
1.6214335979893804,0,0,0.0383072265625,0,0,1.2994800000000002
1.6228193609858863,0,0,-1.0414777221679687,0,0,-0.45864
1.6242064569960348,0,0,2.2744915771484373,0,0,0.07644000000000001
1.6255930520128459,0,0,3.0430303100585934,0,0,2.14032
1.6269792040111497,0,0,2.090138049316406,0,0,1.2994800000000002
1.6283654109865893,0,0,1.2856862915039062,0,0,3.0576
1.6305636639881413,0,0,-1.16837041015625,0,0,-1.60524
1.631988888984779,0,0,1.8531120849609375,0,0,0.53508
1.633383300009882,0,0,2.808398547363281,0,0,1.2994800000000002
1.6347703030041885,0,0,3.404554760742187,0,0,1.1465999999999998
1.636157231987454,0,0,1.5418658691406248,0,0,1.45236
1.6375440690026153,0,0,0.10295067138671875,0,0,1.60524
1.6389309240039438,0,0,-0.9792284790039062,0,0,-0.15288000000000002
1.6403187979885843,0,0,1.8531120849609375,0,0,0.68796
1.6417056710051838,0,0,2.9472622436523435,0,0,2.52252
1.6430915819946676,0,0,1.879448303222656,0,0,1.911
1.6445110850036144,0,0,0.9217676391601562,0,0,0.53508
1.645899531984469,0,0,-0.5339069702148437,0,0,-0.22932
1.6472884429967962,0,0,0.21068974609375,0,0,9.555
1.648691668000538,0,0,2.43250888671875,0,0,0.68796
1.650082948995987,0,0,3.4931402221679684,0,0,2.14032
1.6514767489861697,0,0,2.2744915771484373,0,0,2.2167600000000003
1.6528644929931033,0,0,1.1228805786132812,0,0,1.911
1.6542431809939444,0,0,-1.3263877197265623,0,0,-1.45236
1.655624055012595,0,0,-0.35194764404296874,0,0,0.15288000000000002
1.6570139469986316,0,0,2.932897033691406,0,0,9.631440000000001
1.6584015800035559,0,0,3.6176387084960937,0,0,0.45864
1.6597882870119065,0,0,2.3918074584960936,0,0,2.2167600000000003
1.661171771993395,0,0,0.7254431030273437,0,0,1.45236
1.6625501080125105,0,0,-1.35990654296875,0,0,-1.98744
1.663928814989049,0,0,1.4724340209960938,0,0,-0.84084
1.6653165589959826,0,0,2.5163059448242184,0,0,1.37592
1.6667031919932924,0,0,3.670311145019531,0,0,0.7644
1.6680892689910252,0,0,1.7381904052734374,0,0,1.2994800000000002
1.6694754950003698,0,0,0.20829554443359374,0,0,1.1465999999999998
1.6708621279976796,0,0,-1.350329736328125,0,0,-0.68796
1.6722497789887711,0,0,1.0941501586914062,0,0,-0.68796
1.6736365419928916,0,0,2.2840683837890623,0,0,1.1465999999999998
1.6750227299926337,0,0,2.5330653564453125,0,0,1.2230400000000001
1.6764167330111377,0,0,2.5234885498046875,0,0,1.911
1.6778102729876991,0,0,1.0797849487304687,0,0,1.07016
1.6791955730004702,0,0,-1.0390835205078124,0,0,1.2230400000000001
1.6810272379952949,0,0,2.4061726684570313,0,0,9.24924
1.682427630003076,0,0,3.5769372802734374,0,0,0.6115200000000001
1.6838166890083812,0,0,2.308010400390625,0,0,1.2230400000000001
1.6852050439920276,0,0,1.1180921752929687,0,0,1.83456
1.6865927510079928,0,0,-0.5722141967773438,0,0,-0.6115200000000001
1.6879831429978367,0,0,0.7852981445312499,0,0,-0.22932
1.6893735530029517,0,0,1.438915197753906,0,0,1.60524
1.6907613340008538,0,0,2.789244934082031,0,0,0.45864
1.69214887500857,0,0,2.518700146484375,0,0,0.91728
1.6935367299884092,0,0,1.1707646118164061,0,0,1.911
1.694936769985361,0,0,-0.8954314208984374,0,0,9.555
1.6963433100027032,0,0,0.9624690673828125,0,0,-0.6115200000000001
1.6977305719919968,0,0,2.085349645996094,0,0,2.2931999999999997
1.699117465002928,0,0,2.616862414550781,0,0,1.37592
1.7005049489962403,0,0,2.6791116577148437,0,0,2.14032
1.7018904339929577,0,0,-0.967257470703125,0,0,0.53508
1.7032778449938633,0,0,-1.6256629272460936,0,0,0.0
1.7046657179889735,0,0,0.3232172241210937,0,0,0.0
1.7060515180055518,0,0,2.935291235351562,0,0,0.7644
1.7074446140031796,0,0,2.942473840332031,0,0,1.75812
1.7088331909908447,0,0,2.7150246826171873,0,0,1.2994800000000002
1.710218989988789,0,0,-0.1197100830078125,0,0,0.45864
1.7116061789856758,0,0,-1.0366893188476562,0,0,0.15288000000000002
1.7129929040092975,0,0,1.4891934326171874,0,0,1.07016
1.7143788329849485,0,0,3.1316157714843746,0,0,0.99372
1.7157652630121447,0,0,2.961627453613281,0,0,1.83456
1.7171516359958332,0,0,1.5227122558593749,0,0,1.98744
1.71853747300338,0,0,0.08858546142578125,0,0,-0.91728
1.719924606004497,0,0,0.2920926025390625,0,0,-0.3822
1.7213113679899834,0,0,1.6519991455078125,0,0,0.84084
1.7226975380035583,0,0,2.9472622436523435,0,0,2.2167600000000003
1.724651424010517,0,0,2.6384102294921874,0,0,1.45236
1.7265058110060636,0,0,-0.08858546142578125,0,0,-0.15288000000000002
1.7279841839917935,0,0,0.2705447875976562,0,0,0.15288000000000002
1.7293903350073379,0,0,1.0390835205078124,0,0,1.2230400000000001
1.7307780229893979,0,0,2.403778466796875,0,0,0.53508
1.732165155990515,0,0,2.6958710693359373,0,0,1.98744
1.7335533630102873,0,0,1.4867992309570313,0,0,2.2931999999999997
1.7349464959988836,0,0,-0.4429273071289062,0,0,0.53508
1.7363343689939938,0,0,0.8020575561523438,0,0,-0.45864
1.7377224279916845,0,0,1.2665326782226562,0,0,1.83456
1.739108876005048,0,0,2.0302830078125,0,0,1.2994800000000002
1.7405143229989335,0,0,2.5163059448242184,0,0,1.75812
1.7419014750048518,0,0,0.25139117431640623,0,0,0.3822
1.7432886819879059,0,0,-0.6512228515624999,0,0,0.15288000000000002
1.7446768330119085,0,0,0.8834604125976562,0,0,0.0
1.7460622070066165,0,0,2.482787121582031,0,0,1.1465999999999998
1.7474484689882956,0,0,2.2098481323242187,0,0,1.5288
1.7488351759966463,0,0,1.1420341918945311,0,0,1.07016
1.7502203829935752,0,0,-0.047884033203124995,0,0,-0.30576000000000003
1.751608533988474,0,0,-0.8786720092773437,0,0,-0.22932
1.7529960559913889,0,0,1.6927005737304686,0,0,0.0
1.754382095998153,0,0,3.3686417358398435,0,0,0.45864
1.7557685069914442,0,0,3.1507693847656246,0,0,2.36964
1.7571561399963684,0,0,1.6041151123046875,0,0,2.36964
1.7585514019883703,0,0,0.22505495605468748,0,0,-0.30576000000000003
1.7599382390035316,0,0,-0.22026655273437498,0,0,-0.99372
1.7613262049853802,0,0,1.01514150390625,0,0,-0.3822
1.76271307899151,0,0,2.365471240234375,0,0,-0.30576000000000003
1.7640995259862393,0,0,2.839523168945312,0,0,0.99372
1.7654857329907827,0,0,1.6735469604492186,0,0,2.06388
1.7668796250072774,0,0,-0.5339069702148437,0,0,0.15288000000000002
1.7682677769917063,0,0,0.2753331909179687,0,0,0.6115200000000001
1.7696543729980476,0,0,1.2114660400390624,0,0,1.60524
1.7710408389975782,0,0,2.24097275390625,0,0,0.99372
1.7724451200047042,0,0,2.540247961425781,0,0,0.84084
1.7738325120008085,0,0,0.699106884765625,0,0,0.3822
1.775218792987289,0,0,-0.00718260498046875,0,0,0.45864
1.7767514610022772,0,0,1.0223241088867188,0,0,0.91728
1.7781467599852476,0,0,2.499546533203125,0,0,1.2994800000000002
1.779533522989368,0,0,1.7764976318359373,0,0,1.60524
1.7809227849938907,0,0,0.6584054565429687,0,0,1.37592
1.7823090289894026,0,0,-0.26336218261718747,0,0,-1.37592
1.7836976250109728,0,0,-0.7015010864257812,0,0,0.6115200000000001
1.785100239008898,0,0,2.5163059448242184,0,0,1.2994800000000002
1.7864904459856916,0,0,2.779668127441406,0,0,0.84084
1.7878769130038563,0,0,1.6735469604492186,0,0,1.60524
1.789263860002393,0,0,0.6943184814453125,0,0,1.60524
1.7906499750097282,0,0,-0.4261678955078125,0,0,-1.07016
1.7920380889845546,0,0,1.3862427612304686,0,0,0.07644000000000001
1.7934249810059555,0,0,2.70065947265625,0,0,2.4460800000000003
1.7948110949946567,0,0,2.4684219116210935,0,0,0.45864
1.7961968579911627,0,0,2.1021090576171875,0,0,1.2994800000000002
1.7975835280085448,0,0,1.1324573852539062,0,0,1.5288
1.798969956988003,0,0,-0.8068459594726562,0,0,-0.84084
1.8003573860041797,0,0,0.44053310546874996,0,0,-0.53508
1.8017453519860283,0,0,1.9728221679687499,0,0,0.30576000000000003
1.8031312439998146,0,0,2.250549560546875,0,0,0.91728
1.804518007003935,0,0,2.0278888061523435,0,0,0.07644000000000001
1.805903528991621,0,0,-0.1771709228515625,0,0,-0.3822
1.8073965309886262,0,0,-0.6153098266601562,0,0,1.2230400000000001
1.8087868670118041,0,0,1.7262193969726563,0,0,0.22932
1.8101726849854458,0,0,2.3870190551757813,0,0,0.68796
1.8115595589915756,0,0,1.924938134765625,0,0,1.2230400000000001
1.8129450069973245,0,0,1.1611878051757811,0,0,1.45236
1.8143293249886483,0,0,0.22744915771484372,0,0,-0.53508
1.8157141800038517,0,0,0.201112939453125,0,0,1.37592
1.817132683005184,0,0,2.6791116577148437,0,0,2.14032
1.8185209819930606,0,0,2.786850732421875,0,0,1.1465999999999998
1.8199079670011997,0,0,1.2928688964843749,0,0,1.60524
1.8213560440053698,0,0,0.20829554443359374,0,0,1.75812
1.822749324986944,0,0,-1.1540052001953125,0,0,-2.2167600000000003
1.8241389020113274,0,0,1.2808978881835937,0,0,-0.68796
1.8255428489937913,0,0,3.2034418212890623,0,0,2.90472
1.8269301860127598,0,0,2.5426421630859375,0,0,1.2994800000000002
1.8283227260108106,0,0,1.668758557128906,0,0,2.06388
1.8297094150038902,0,0,-1.0869675537109373,0,0,0.99372
1.8310965099954046,0,0,-1.3311761230468748,0,0,-0.45864
1.8324979209864978,0,0,0.679953271484375,0,0,-0.91728
1.8338846089900471,0,0,4.036623999023437,0,0,1.911
1.8352714639913756,0,0,3.744531396484375,0,0,2.52252
1.8366585600015242,0,0,2.4756045166015626,0,0,1.37592
1.8380436009902041,0,0,-1.1516109985351561,0,0,-0.30576000000000003
1.8394308259885293,0,0,-2.0350714111328125,0,0,-1.07016
1.8408187000022735,0,0,2.3439234252929686,0,0,-0.91728
1.8422046290070284,0,0,3.8043864379882812,0,0,0.15288000000000002
1.843591001990717,0,0,3.5194764404296874,0,0,2.2167600000000003
1.8449843389971647,0,0,1.1085153686523437,0,0,1.75812
1.8463707870105281,0,0,-0.6775590698242188,0,0,-1.1465999999999998
1.8477588079986162,0,0,-0.0047884033203125,0,0,0.22932
1.849145996995503,0,0,2.094926452636719,0,0,0.6115200000000001
1.8505341669952031,0,0,3.181894006347656,0,0,1.07016
1.8519196700071916,0,0,2.0542250244140625,0,0,1.98744
1.8533088210097048,0,0,0.8667010009765624,0,0,2.5989600000000004
1.8546949359879363,0,0,-0.8499415893554687,0,0,-1.98744
1.856082846003119,0,0,0.63206923828125,0,0,0.3822
1.8574696829891764,0,0,2.6671406494140624,0,0,1.75812
1.8588552789879031,0,0,3.5290532470703124,0,0,1.75812
1.8602410599996801,0,0,2.212242333984375,0,0,1.60524
1.8616276370012201,0,0,0.7254431030273437,0,0,2.2931999999999997
1.8630132880061865,0,0,-2.1212626708984375,0,0,-1.2994800000000002
1.86440108800889,0,0,-0.22026655273437498,0,0,-0.99372
1.8657911650079768,0,0,4.338293408203125,0,0,2.2167600000000003
1.867177501990227,0,0,3.6535517333984373,0,0,1.60524
1.868564561009407,0,0,2.5330653564453125,0,0,1.1465999999999998
1.8699503050011117,0,0,-1.0223241088867188,0,0,0.15288000000000002
1.8713386599847581,0,0,-2.346317626953125,0,0,-1.2230400000000001
1.8727375699963886,0,0,1.3335703247070312,0,0,-1.07016
1.8741250729945023,0,0,3.4859576171874997,0,0,0.6115200000000001
1.8755131690122653,0,0,3.775656018066406,0,0,2.4460800000000003
1.8768994320125785,0,0,0.9193734375,0,0,0.53508
1.8782840089988895,0,0,-0.8164227661132812,0,0,-0.7644
1.880552743008593,0,0,-1.905784521484375,0,0,-1.75812
1.8821723370056134,0,0,2.597708801269531,0,0,0.3822
1.8835700619965792,0,0,3.404554760742187,0,0,0.68796
1.884982138988562,0,0,1.6256629272460936,0,0,0.22932
1.8863709940051194,0,0,-0.5865794067382812,0,0,1.07016
1.8877770339895505,0,0,-2.2481553588867187,0,0,-1.75812
1.8891686110000592,0,0,0.24181436767578124,0,0,-0.7644
1.8905575220123865,0,0,1.2761094848632812,0,0,1.911
1.8919453579874244,0,0,2.3965958618164063,0,0,0.0
1.8933576389972586,0,0,2.1835119140624997,0,0,3.36336
1.894737383001484,0,0,-0.8858546142578124,0,0,1.1465999999999998
1.896117719996255,0,0,-1.0295067138671874,0,0,-2.82828
1.8975091860047542,0,0,-1.3335703247070312,0,0,1.83456
1.8988985230098478,0,0,2.710236279296875,0,0,-1.5288
1.9002874520083424,0,0,3.6583401367187496,0,0,2.4460800000000003
1.9016751399904024,0,0,1.369483349609375,0,0,2.2167600000000003
1.9030624580045696,0,0,0.565031591796875,0,0,-0.6115200000000001
1.9044514799898025,0,0,-2.1021090576171875,0,0,0.15288000000000002
1.9058393349987455,0,0,-1.7190367919921874,0,0,-3.2869200000000003
1.9072274309874047,0,0,1.0007762939453124,0,0,1.75812
1.908613323001191,0,0,2.4516625,0,0,-0.99372
1.90999264101265,0,0,2.2457611572265623,0,0,3.0576
1.9113717929867562,0,0,0.3854664672851562,0,0,1.83456
1.9127588699921034,0,0,-0.5410895751953124,0,0,-0.30576000000000003
1.9141483359853737,0,0,-1.8770541015625,0,0,0.0
1.9155351360095665,0,0,-0.07900865478515624,0,0,7.03248
1.916943379008444,0,0,3.418919970703125,0,0,2.4460800000000003
1.9183309939980973,0,0,4.328716601562499,0,0,-0.6115200000000001
1.9197175709996372,0,0,2.2936451904296873,0,0,4.815720000000001
1.9211029630096164,0,0,0.028730419921875,0,0,-0.68796
1.922487651987467,0,0,-0.8858546142578124,0,0,0.7644
1.9238976550113875,0,0,-2.0278888061523435,0,0,6.42096
1.9252865279850084,0,0,0.19393033447265623,0,0,-1.1465999999999998
1.9267533450038172,0,0,2.2170307373046874,0,0,-0.91728
1.9281434410077054,0,0,3.1004911499023438,0,0,2.06388
1.9295318330114242,0,0,1.5394716674804687,0,0,1.60524
1.9309197439870331,0,0,-0.28969840087890625,0,0,1.911
1.9323074689891655,0,0,-1.20667763671875,0,0,-0.15288000000000002
1.9336956760089379,0,0,0.30885201416015623,0,0,0.3822
1.9350825129949953,0,0,0.9361328491210937,0,0,-0.6115200000000001
1.9364682940067723,0,0,2.104503259277344,0,0,0.30576000000000003
1.937848149013007,0,0,2.085349645996094,0,0,1.2230400000000001
1.9392275970021728,0,0,1.7118541870117185,0,0,1.83456
1.9406128039991017,0,0,0.354341845703125,0,0,0.84084
1.941999492002651,0,0,-0.16519991455078123,0,0,0.0
1.9435254379932303,0,0,-0.05027823486328125,0,0,-0.53508
1.944935756007908,0,0,0.7422025146484375,0,0,-0.30576000000000003
1.9463239629985765,0,0,1.5203180541992187,0,0,-9.784320000000001
1.9477110959996935,0,0,0.2442085693359375,0,0,0.99372
1.949098987999605,0,0,0.1580173095703125,0,0,-0.45864
1.9504865650087595,0,0,0.19632453613281248,0,0,0.0
1.9518737719918136,0,0,1.1085153686523437,0,0,1.1465999999999998
1.953256145992782,0,0,1.4915876342773438,0,0,1.45236
1.95463514898438,0,0,1.3192051147460937,0,0,0.91728
1.9560140410030726,0,0,1.1827356201171875,0,0,0.91728
1.9574024149915203,0,0,0.7996633544921875,0,0,0.15288000000000002
1.9587883070053067,0,0,0.507570751953125,0,0,-0.68796
1.9601745329855476,0,0,0.6655880615234374,0,0,-0.68796
1.9616085909947287,0,0,0.9337386474609375,0,0,-0.3822
1.9629958900040947,0,0,0.6751648681640625,0,0,-1.2994800000000002
1.9643968750024214,0,0,0.9169792358398436,0,0,0.0
1.9657844890025444,0,0,0.6607996582031249,0,0,1.07016
1.967170455987798,0,0,-0.06943184814453125,0,0,-0.30576000000000003
1.968566606985405,0,0,0.21308394775390624,0,0,0.22932
1.9699494809901807,0,0,0.055066638183593745,0,0,0.45864
1.9713355019921437,0,0,0.718260498046875,0,0,0.22932
1.9727225429960527,0,0,2.4779987182617185,0,0,0.7644
1.9741106200090144,0,0,2.176329309082031,0,0,1.2994800000000002
1.9754966599866748,0,0,1.6807295654296874,0,0,1.2994800000000002
1.976883644994814,0,0,0.6368576416015624,0,0,0.53508
1.9782726670091506,0,0,-0.1005564697265625,0,0,-0.45864
1.9796595769876149,0,0,0.08858546142578125,0,0,-0.91728
1.981045839987928,0,0,1.3000515014648437,0,0,9.01992
1.9824319169856608,0,0,1.697488977050781,0,0,1.68168
1.9838178459904157,0,0,0.3327940307617187,0,0,0.30576000000000003
1.9852041089907289,0,0,0.1580173095703125,0,0,0.91728
1.9865898900025059,0,0,0.10295067138671875,0,0,0.3822
1.987975597003242,0,0,0.22744915771484372,0,0,0.0
1.989363192988094,0,0,0.5961562133789062,0,0,0.91728
1.9907488810131326,0,0,1.8722656982421875,0,0,0.22932
1.9921346619958058,0,0,1.4030021728515625,0,0,2.2167600000000003
1.9935207389935385,0,0,0.3711012573242187,0,0,0.15288000000000002
1.9949069280119147,0,0,0.22744915771484372,0,0,0.0
1.996292652998818,0,0,0.5099649536132812,0,0,9.40212
1.9976791189983487,0,0,0.6631938598632812,0,0,-0.30576000000000003
1.999065326002892,0,0,1.0510545288085937,0,0,-0.22932
2.0004523849929683,0,0,1.0917559570312498,0,0,0.68796
2.0018439989944454,0,0,0.814028564453125,0,0,0.22932
2.003262521000579,0,0,0.239420166015625,0,0,-0.53508
2.0046587089891545,0,0,-0.181959326171875,0,0,-0.30576000000000003
2.0060459900123533,0,0,0.6967126831054687,0,0,0.07644000000000001
2.007432048994815,0,0,1.3838485595703125,0,0,0.0
2.008819034002954,0,0,1.3910311645507811,0,0,0.84084
2.0102049259876367,0,0,0.9074024291992187,0,0,1.45236
2.0115915589849465,0,0,0.47165772705078124,0,0,0.7644
2.012977303005755,0,0,0.6823474731445313,0,0,0.07644000000000001
2.0143629359954502,0,0,1.1228805786132812,0,0,0.68796
2.015748623991385,0,0,1.209071838378906,0,0,0.3822
2.017137182992883,0,0,0.8044517578125,0,0,0.0
2.0185230190108996,0,0,0.584185205078125,0,0,0.22932
2.01990911498433,0,0,0.4908113403320312,0,0,0.0
2.0212950999848545,0,0,0.699106884765625,0,0,0.30576000000000003
2.0226806589926127,0,0,0.9576806640625,0,0,1.07016
2.024066865997156,0,0,0.6153098266601562,0,0,0.30576000000000003
2.025452942994889,0,0,0.0909796630859375,0,0,-0.15288000000000002
2.0268454829929397,0,0,0.5530605834960938,0,0,0.30576000000000003
2.028232874989044,0,0,0.9097966308593749,0,0,0.53508
2.0296193969843443,0,0,1.429338391113281,0,0,0.45864
2.031010011007311,0,0,1.2761094848632812,0,0,1.1465999999999998
2.0323990329925437,0,0,1.0366893188476562,0,0,0.68796
2.033785481005907,0,0,0.45489831542968745,0,0,-0.22932
2.035172114003217,0,0,0.229843359375,0,0,-0.53508
2.036559339001542,0,0,1.4030021728515625,0,0,0.0
2.037945287011098,0,0,1.5155296508789062,0,0,0.0
2.03933134599356,0,0,1.5658078857421873,0,0,0.3822
2.0407181449991185,0,0,0.6751648681640625,0,0,0.45864
2.042103648011107,0,0,0.13168109130859373,0,0,-0.30576000000000003
2.0434898549865466,0,0,0.0718260498046875,0,0,-1.2994800000000002
2.044897357991431,0,0,0.7493851196289062,0,0,-0.3822
2.0462926760083064,0,0,1.3263877197265623,0,0,0.07644000000000001
2.047679106006399,0,0,1.2401964599609374,0,0,0.45864
2.0490797010133974,0,0,0.9624690673828125,0,0,0.91728
2.050471333990572,0,0,0.34715924072265625,0,0,2.06388
2.0518564480007626,0,0,0.13168109130859373,0,0,0.22932
2.0532486920128576,0,0,0.4644751220703125,0,0,0.22932
2.054635047010379,0,0,1.3862427612304686,0,0,0.53508
2.056020588002866,0,0,1.3455413330078123,0,0,0.45864
2.0574063129897695,0,0,0.8571241943359375,0,0,0.53508
2.058792297990294,0,0,0.6919242797851562,0,0,0.45864
2.060188522998942,0,0,0.5147533569335937,0,0,0.84084
2.061575249012094,0,0,0.5434837768554687,0,0,0.22932
2.062960862996988,0,0,0.9552864624023437,0,0,0.91728
2.064346552011557,0,0,0.7709329345703124,0,0,0.07644000000000001
2.0657321469916496,0,0,0.5243301635742187,0,0,0.0
2.0671182989899535,0,0,1.3527239379882812,0,0,1.1465999999999998
2.0685054319910705,0,0,1.1444283935546875,0,0,0.84084
2.069890841987217,0,0,0.6679822631835937,0,0,0.53508
2.0712846599926706,0,0,0.6009446166992187,0,0,-0.22932
2.0726708300062455,0,0,0.7829039428710937,0,0,0.0
2.0740540559927467,0,0,1.16837041015625,0,0,0.7644
2.0755607429891825,0,0,1.695094775390625,0,0,0.99372
2.077040208008839,0,0,1.8315642700195311,0,0,1.37592
2.0784301559906453,0,0,0.9888052856445312,0,0,1.2230400000000001
2.079817140009254,0,0,0.9217676391601562,0,0,0.68796
2.0812044400081504,0,0,0.8810662109374999,0,0,0.84084
2.0825914989982266,0,0,1.6017209106445311,0,0,0.6115200000000001
2.0839781500108074,0,0,1.8267758666992187,0,0,0.22932
2.0853584870055784,0,0,1.4891934326171874,0,0,0.6115200000000001
2.0867369339975994,0,0,1.6519991455078125,0,0,1.07016
2.0881156229879707,0,0,1.1731588134765625,0,0,0.3822
2.0895052929990925,0,0,1.0869675537109373,0,0,0.22932
2.0908922780072317,0,0,1.1013327636718748,0,0,0.53508
2.0923045029921923,0,0,1.180341418457031,0,0,1.07016
2.0936928580049425,0,0,1.426944189453125,0,0,0.22932
2.0950794169912115,0,0,1.3742717529296875,0,0,0.6115200000000001
2.0964667350053787,0,0,1.5155296508789062,0,0,0.6115200000000001
2.0978543300007004,0,0,1.3527239379882812,0,0,0.30576000000000003
2.099241351999808,0,0,1.35990654296875,0,0,1.2230400000000001
2.10062600398669,0,0,1.35990654296875,0,0,1.07016
2.102003932988737,0,0,1.1180921752929687,0,0,0.91728
2.1033819550066255,0,0,1.1444283935546875,0,0,1.2230400000000001
2.104767125012586,0,0,1.3646949462890625,0,0,1.1465999999999998
2.1061527020065114,0,0,1.1540052001953125,0,0,0.6115200000000001
2.107545298000332,0,0,1.5131354492187499,0,0,0.91728
2.108931560011115,0,0,1.2832920898437499,0,0,1.07016
2.110317823011428,0,0,1.2425906616210938,0,0,0.7644
2.1117056779912673,0,0,1.1061211669921875,0,0,0.22932
2.1130917920090724,0,0,1.0486603271484374,0,0,0.99372
2.1144793329876848,0,0,1.419761584472656,0,0,0.6115200000000001
2.1158637620101217,0,0,1.458068811035156,0,0,0.99372
2.117405670986045,0,0,1.5011644409179687,0,0,1.2230400000000001
2.1188692660070956,0,0,1.3144167114257812,0,0,0.68796
2.120300601993222,0,0,1.3024457031249999,0,0,0.45864
2.1217435490107164,0,0,1.22583125,0,0,-9.172799999999999
2.123178421985358,0,0,1.209071838378906,0,0,1.07016
2.124632646999089,0,0,1.419761584472656,0,0,0.30576000000000003
2.1260832420084625,0,0,1.2904746948242187,0,0,0.6115200000000001
2.1275477999879513,0,0,1.5849614990234373,0,0,1.37592
2.129012691002572,0,0,1.3048399047851562,0,0,1.2230400000000001
2.130720190994907,0,0,1.0869675537109373,0,0,0.91728
2.132272062008269,0,0,1.1875240234375,0,0,1.1465999999999998
2.1337865270033944,0,0,1.3048399047851562,0,0,0.3822
2.1352657329989597,0,0,1.3455413330078123,0,0,0.84084
2.1367602910031565,0,0,1.4796166259765624,0,0,0.7644
2.1382610889850184,0,0,1.448492004394531,0,0,0.45864
2.1397194619930815,0,0,1.465251416015625,0,0,0.91728
2.1411037239886355,0,0,1.1037269653320312,0,0,1.2230400000000001
2.14248387599946,0,0,1.0941501586914062,0,0,1.2994800000000002
2.1438629720069002,0,0,1.0749965454101562,0,0,1.75812
2.1452451790100895,0,0,1.3718775512695311,0,0,0.68796
2.146624366985634,0,0,1.3646949462890625,0,0,0.6115200000000001
2.1480026849894784,0,0,1.7262193969726563,0,0,1.37592
2.149382262985455,0,0,1.5322890624999999,0,0,1.1465999999999998
2.150760858989088,0,0,1.3575123413085937,0,0,1.1465999999999998
2.152138751000166,0,0,1.1348515869140625,0,0,0.6115200000000001
2.153525328001706,0,0,1.120486376953125,0,0,0.68796
2.1549099429976195,0,0,1.3575123413085937,0,0,0.7644
2.156287946010707,0,0,1.446097802734375,0,0,0.84084
2.157666615996277,0,0,1.6903063720703124,0,0,0.7644
2.159044841013383,0,0,1.3000515014648437,0,0,0.68796
2.16049488101271,0,0,1.20667763671875,0,0,0.15288000000000002
2.1618749769986607,0,0,1.0271125122070313,0,0,0.68796
2.1632534799864516,0,0,1.218648645019531,0,0,0.53508
2.1646340019942727,0,0,1.39821376953125,0,0,0.22932
2.166012690984644,0,0,1.4891934326171874,0,0,0.6115200000000001
2.1673907120130025,0,0,1.6424223388671875,0,0,0.45864
2.1687720679910854,0,0,1.197100830078125,0,0,0.53508
2.1701509039849043,0,0,1.2401964599609374,0,0,0.91728
2.1715291109867394,0,0,1.197100830078125,0,0,0.7644
2.172921558987582,0,0,1.1037269653320312,0,0,0.84084
2.174299987993436,0,0,1.3742717529296875,0,0,0.7644
2.1756785289908294,0,0,1.4508862060546874,0,0,0.6115200000000001
2.177079290995607,0,0,1.3192051147460937,0,0,0.6115200000000001
2.178481479000766,0,0,1.3479355346679687,0,0,0.84084
2.179867908009328,0,0,1.2282254516601563,0,0,1.1465999999999998
2.1812609859916847,0,0,1.1635820068359375,0,0,0.7644
2.1826475629932247,0,0,1.120486376953125,0,0,0.91728
2.1840331589919515,0,0,1.3024457031249999,0,0,0.84084
2.1854197180073243,0,0,1.4532804077148436,0,0,0.99372
2.1868056649982464,0,0,1.2689268798828124,0,0,0.84084
2.1881915199919604,0,0,1.659181750488281,0,0,0.99372
2.1895780049962923,0,0,1.3024457031249999,0,0,1.2230400000000001
2.1909633229952306,0,0,1.1085153686523437,0,0,0.99372
2.192348493001191,0,0,1.0390835205078124,0,0,0.53508
2.1937405150092673,0,0,1.24498486328125,0,0,0.6115200000000001
2.1951296660117805,0,0,1.467645617675781,0,0,0.91728
2.1965159839892294,0,0,1.2785036865234374,0,0,0.84084
2.197901247011032,0,0,1.6304513305664061,0,0,0.84084
2.199286805000156,0,0,1.1540052001953125,0,0,0.68796
2.2006740490032826,0,0,1.2114660400390624,0,0,0.45864
2.2020595530048013,0,0,1.1061211669921875,0,0,0.45864
2.2034449449856766,0,0,1.149216796875,0,0,0.68796
2.204831243987428,0,0,1.235408056640625,0,0,0.30576000000000003
2.206215988000622,0,0,1.2880804931640624,0,0,0.45864
2.207601676986087,0,0,1.5658078857421873,0,0,0.45864
2.20898688401212,0,0,1.5155296508789062,0,0,0.68796
2.2103721280000173,0,0,1.3359645263671873,0,0,0.7644
2.21183479699539,0,0,1.3670891479492187,0,0,1.07016
2.213290207000682,0,0,1.0773907470703123,0,0,0.91728
2.214865523012122,0,0,1.139639990234375,0,0,0.0
2.2164893570006825,0,0,1.3239935180664062,0,0,1.1465999999999998
2.2179139890067745,0,0,1.7741034301757812,0,0,0.68796
2.2193023999861907,0,0,1.3383587280273437,0,0,0.84084
2.220690384012414,0,0,1.4125789794921875,0,0,0.7644
2.2220764060039073,0,0,1.2138602416992186,0,0,0.53508
2.2234624839911703,0,0,1.1707646118164061,0,0,0.53508
2.2248487650067545,0,0,1.0941501586914062,0,0,0.0
2.226245100988308,0,0,1.3623007446289062,0,0,0.7644
2.227631382003892,0,0,1.5155296508789062,0,0,0.3822
2.229018089012243,0,0,1.5011644409179687,0,0,0.6115200000000001
2.2304048700025305,0,0,1.3024457031249999,0,0,1.1465999999999998
2.2317909839912318,0,0,1.197100830078125,0,0,0.99372
2.2331870429916307,0,0,1.1228805786132812,0,0,1.07016
2.2345841570058838,0,0,1.22583125,0,0,1.07016
2.235970253008418,0,0,1.5251064575195312,0,0,1.1465999999999998
2.237367033987539,0,0,1.4341267944335936,0,0,0.6115200000000001
2.2387904440111015,0,0,1.4006079711914061,0,0,0.84084
2.2401771699951496,0,0,1.350329736328125,0,0,1.1465999999999998
2.241562117007561,0,0,1.16837041015625,0,0,0.99372
2.242946120997658,0,0,1.3646949462890625,0,0,0.91728
2.244352938985685,0,0,1.2952630981445312,0,0,0.99372
2.245737052988261,0,0,1.4317325927734375,0,0,0.91728
2.2471164079906885,0,0,1.3144167114257812,0,0,1.1465999999999998
2.248499300010735,0,0,1.697488977050781,0,0,1.2230400000000001
2.2498780630121473,0,0,1.2473790649414063,0,0,1.2230400000000001
2.251348287012661,0,0,1.1947066284179686,0,0,0.53508
2.252737272006925,0,0,1.254561669921875,0,0,0.22932
2.2541381460032426,0,0,1.216254443359375,0,0,0.45864
2.2555182409996632,0,0,1.3072341064453123,0,0,0.22932
2.256902781984536,0,0,1.2737152832031249,0,0,0.53508
2.258281952003017,0,0,1.6639701538085936,0,0,0.84084
2.2596607329905964,0,0,1.1611878051757811,0,0,0.6115200000000001
2.261041866004234,0,0,1.3551181396484375,0,0,0.22932
2.2624205730098765,0,0,1.0295067138671874,0,0,0.84084
2.2637990950024687,0,0,1.0582371337890624,0,0,0.84084
2.2651783759938553,0,0,1.2976572998046874,0,0,-0.07644000000000001
2.2665586009970866,0,0,1.2976572998046874,0,0,0.3822
2.267936919000931,0,0,1.0989385620117187,0,0,0.30576000000000003
2.2693306999863125,0,0,1.2018892333984375,0,0,0.45864
2.270709981006803,0,0,1.3742717529296875,0,0,1.2994800000000002
2.2720884289883543,0,0,1.1133037719726562,0,0,1.37592
2.273470673011616,0,0,1.2042834350585936,0,0,0.84084
2.274878842988983,0,0,1.3455413330078123,0,0,1.2230400000000001
2.276258808997227,0,0,1.35990654296875,0,0,0.84084
2.277705866988981,0,0,1.369483349609375,0,0,0.7644
2.2790935559896752,0,0,1.3551181396484375,0,0,1.2230400000000001
2.2804928550031036,0,0,1.3192051147460937,0,0,1.2230400000000001
2.281880488008028,0,0,1.3479355346679687,0,0,0.68796
2.2832754169940017,0,0,1.1013327636718748,0,0,0.30576000000000003
2.2846738650114276,0,0,1.0893617553710937,0,0,1.37592
2.286059609003132,0,0,1.3766659545898436,0,0,0.91728
2.2874460380116943,0,0,1.2856862915039062,0,0,0.91728
2.288833225989947,0,0,1.6208745239257811,0,0,0.91728
2.2902191919856705,0,0,1.2234370483398436,0,0,1.07016
2.291605250997236,0,0,1.16837041015625,0,0,0.53508
2.292987272987375,0,0,0.9696516723632812,0,0,0.53508
2.2943654989940114,0,0,1.24498486328125,0,0,0.53508
2.295763853995595,0,0,1.3479355346679687,0,0,0.15288000000000002
2.297151801001746,0,0,1.3000515014648437,0,0,0.15288000000000002
2.2985394159913994,0,0,1.6041151123046875,0,0,0.84084
2.3000003439956345,0,0,1.3144167114257812,0,0,0.3822
2.3013889949943405,0,0,1.197100830078125,0,0,0.45864
2.3027944980130997,0,0,1.005564697265625,0,0,0.6115200000000001
2.3041809829883277,0,0,1.0630255371093749,0,0,0.84084
2.3055678009986877,0,0,1.209071838378906,0,0,0.3822
2.3069537119881716,0,0,1.3287819213867187,0,0,0.6115200000000001
2.3083409369864967,0,0,1.4820108276367188,0,0,0.3822
2.309727607003879,0,0,1.43652099609375,0,0,0.3822
2.31111261001206,0,0,1.3455413330078123,0,0,1.2230400000000001
2.3125014649995137,0,0,1.1875240234375,0,0,1.2994800000000002
2.3139001349918544,0,0,1.2473790649414063,0,0,1.07016
2.3152857499953825,0,0,1.3144167114257812,0,0,0.6115200000000001
2.316706604004139,0,0,1.5083470458984374,0,0,0.30576000000000003
2.318151958985254,0,0,1.6448165405273436,0,0,0.7644
2.319541573000606,0,0,1.4437036010742186,0,0,0.68796
2.320928150002146,0,0,1.1348515869140625,0,0,1.2994800000000002
2.322313987009693,0,0,1.1444283935546875,0,0,1.1465999999999998
2.323699453001609,0,0,1.180341418457031,0,0,0.68796
2.3250856600061525,0,0,1.2737152832031249,0,0,1.2994800000000002
2.3264771079993807,0,0,1.4173673828125,0,0,1.1465999999999998
2.327864666993264,0,0,1.20667763671875,0,0,0.99372
2.3292514109925833,0,0,1.350329736328125,0,0,1.1465999999999998
2.3306574879970867,0,0,1.1563994018554686,0,0,0.91728
2.3320432319887914,0,0,1.1659762084960936,0,0,0.68796
2.333429476013407,0,0,1.2737152832031249,0,0,0.45864
2.334814831003314,0,0,1.2234370483398436,0,0,0.45864
2.3362004079972394,0,0,1.3670891479492187,0,0,0.91728
2.337586707988521,0,0,1.1563994018554686,0,0,0.68796
2.338971599994693,0,0,1.4030021728515625,0,0,0.84084
2.3403568810026627,0,0,1.2378022583007813,0,0,0.53508
2.3417462169891223,0,0,1.3455413330078123,0,0,0.3822
2.3431315910129342,0,0,1.2737152832031249,0,0,0.68796
2.3445167239988223,0,0,1.180341418457031,0,0,0.99372
2.3459022089955397,0,0,1.2425906616210938,0,0,0.7644
2.3472874900035094,0,0,1.4125789794921875,0,0,0.45864
2.348673567001242,0,0,1.4101847778320311,0,0,0.15288000000000002
2.3500584040011745,0,0,1.2665326782226562,0,0,0.68796
2.351443518011365,0,0,1.2737152832031249,0,0,1.07016
2.352829187992029,0,0,1.1324573852539062,0,0,1.1465999999999998
2.3542363950109575,0,0,1.218648645019531,0,0,0.99372
2.3556265830120537,0,0,1.3455413330078123,0,0,0.22932
2.3570989560103044,0,0,1.2952630981445312,0,0,0.7644
2.3585865320055746,0,0,1.2880804931640624,0,0,0.68796
2.3600565530068707,0,0,1.13006318359375,0,0,0.7644
2.3614610740041826,0,0,1.3910311645507811,0,0,0.7644
2.3629790199920535,0,0,1.2306196533203124,0,0,1.1465999999999998
2.364367931004381,0,0,1.1611878051757811,0,0,0.99372
2.3657863780099433,0,0,1.3646949462890625,0,0,0.22932
2.3671722149883863,0,0,1.3742717529296875,0,0,0.91728
2.3686238469963428,0,0,1.2378022583007813,0,0,0.84084
2.370009479986038,0,0,1.2521674682617188,0,0,0.68796
2.3714000199979637,0,0,1.3766659545898436,0,0,1.2994800000000002
2.3727854489989113,0,0,1.177947216796875,0,0,0.99372
2.374168712005485,0,0,1.1348515869140625,0,0,0.91728
2.3755526040040422,0,0,1.1156979736328125,0,0,1.2230400000000001
2.377016624988755,0,0,1.4030021728515625,0,0,-8.71416
2.3784061839978676,0,0,1.3742717529296875,0,0,0.84084
2.37979231699137,0,0,1.66636435546875,0,0,1.07016
2.3811891159857623,0,0,1.2976572998046874,0,0,0.99372
2.382660617993679,0,0,1.1324573852539062,0,0,0.68796
2.384067620994756,0,0,1.1540052001953125,0,0,0.30576000000000003
2.3854597540048417,0,0,1.3072341064453123,0,0,0.45864
2.3868462019891012,0,0,1.2785036865234374,0,0,0.84084
2.3882315939990804,0,0,1.2593500732421874,0,0,0.53508
2.3896173009998165,0,0,1.388636962890625,0,0,1.07016
2.391003360011382,0,0,1.2761094848632812,0,0,0.84084
2.3923902699898463,0,0,1.2401964599609374,0,0,0.30576000000000003
2.393776513985358,0,0,1.1516109985351561,0,0,0.6115200000000001
2.395162294997135,0,0,1.1659762084960936,0,0,0.53508
2.3965484839864075,0,0,1.4149731811523436,0,0,0.30576000000000003
2.397934153996175,0,0,1.2689268798828124,0,0,0.53508
2.3993200270051602,0,0,1.5753846923828123,0,0,0.6115200000000001
2.4007064570032526,0,0,1.2497732666015624,0,0,0.6115200000000001
2.4021107559965458,0,0,1.22583125,0,0,0.45864
2.4034960930002853,0,0,1.1420341918945311,0,0,1.07016
2.4048856509907637,0,0,1.0845733520507812,0,0,1.1465999999999998
2.4062770619930234,0,0,1.3168109130859373,0,0,-0.15288000000000002
2.4076727319916245,0,0,1.429338391113281,0,0,0.53508
2.409058864985127,0,0,1.5634136840820312,0,0,0.3822
2.4104446829878725,0,0,1.4149731811523436,0,0,0.3822
2.4118299270048738,0,0,1.2569558715820313,0,0,1.2230400000000001
2.4132305039966013,0,0,1.2234370483398436,0,0,1.07016
2.414617044007173,0,0,1.235408056640625,0,0,1.07016
2.4160032880026847,0,0,1.2856862915039062,0,0,0.84084
2.4173891989921685,0,0,1.4006079711914061,0,0,0.91728
2.418774702004157,0,0,1.3311761230468748,0,0,0.45864
2.420160409004893,0,0,1.43652099609375,0,0,1.07016
2.421546578989364,0,0,1.3311761230468748,0,0,1.2230400000000001
2.4229319889855105,0,0,1.189918225097656,0,0,0.99372
2.4243178630131297,0,0,1.2042834350585936,0,0,0.45864
2.425704291992588,0,0,1.0821791503906248,0,0,0.45864
2.4270900179981254,0,0,1.4173673828125,0,0,0.84084
2.428534965001745,0,0,1.2976572998046874,0,0,1.1465999999999998
2.429921283008298,0,0,1.4987702392578124,0,0,0.99372
2.4313067680050153,0,0,1.1947066284179686,0,0,0.99372
2.43269269700977,0,0,1.2138602416992186,0,0,0.53508
2.4340782740036957,0,0,1.2713210815429687,0,0,0.30576000000000003
2.435463592002634,0,0,1.1516109985351561,0,0,0.53508
2.4368499470001552,0,0,1.2425906616210938,0,0,0.45864
2.4382349319930654,0,0,1.2234370483398436,0,0,0.53508
2.4396207869867794,0,0,1.438915197753906,0,0,0.6115200000000001
2.4410055129847024,0,0,1.2808978881835937,0,0,0.30576000000000003
2.442389422998531,0,0,1.37906015625,0,0,0.45864
2.4440385159978177,0,0,1.2761094848632812,0,0,0.3822
2.44543844499276,0,0,1.0989385620117187,0,0,0.68796
2.446818466996774,0,0,1.446097802734375,0,0,0.15288000000000002
2.448197304009227,0,0,1.3527239379882812,0,0,0.45864
2.4495768999913707,0,0,1.5418658691406248,0,0,0.6115200000000001
2.4510345500020776,0,0,1.1755530151367186,0,0,0.53508
2.4524145539908204,0,0,1.2401964599609374,0,0,0.68796
2.453811407991452,0,0,1.0726023437499999,0,0,0.91728
2.4551908560097218,0,0,1.2330138549804688,0,0,0.7644
2.4565699149970897,0,0,1.2737152832031249,0,0,0.0
2.457948455004953,0,0,1.3072341064453123,0,0,0.45864
2.4593268480093684,0,0,1.3383587280273437,0,0,0.30576000000000003
2.4607061469869222,0,0,1.4987702392578124,0,0,0.84084
2.46208415098954,0,0,1.3024457031249999,0,0,1.45236
2.4634625609905925,0,0,1.1468225952148436,0,0,1.1465999999999998
2.46484239801066,0,0,1.139639990234375,0,0,0.84084
2.4662208459922113,0,0,1.199495031738281,0,0,1.1465999999999998
2.4675988680101,0,0,1.3910311645507811,0,0,0.91728
2.468978277989663,0,0,1.4341267944335936,0,0,0.99372
2.4703565220115706,0,0,1.5825672973632812,0,0,1.37592
2.471756043989444,0,0,1.3407529296874998,0,0,0.91728
2.4731365840125363,0,0,1.120486376953125,0,0,0.84084
2.4745150140079204,0,0,1.2234370483398436,0,0,0.22932
2.4758938319864683,0,0,1.1827356201171875,0,0,0.53508
2.477287390996935,0,0,1.3431471313476562,0,0,0.68796
2.4786667639855295,0,0,1.2904746948242187,0,0,0.6115200000000001
2.4800456190132536,0,0,1.5538368774414062,0,0,1.2994800000000002
2.481425603997195,0,0,1.120486376953125,0,0,0.53508
2.4828039039857686,0,0,1.1659762084960936,0,0,0.30576000000000003
2.4841823519964237,0,0,1.3048399047851562,0,0,0.07644000000000001
2.4855605399934575,0,0,1.1061211669921875,0,0,0.7644
2.4869385990023147,0,0,1.4939818359375,0,0,0.0
2.488316491013393,0,0,1.3670891479492187,0,0,0.6115200000000001
2.489712938986486,0,0,1.3120225097656248,0,0,0.53508
2.4910990160133224,0,0,1.2737152832031249,0,0,0.30576000000000003
2.492494315985823,0,0,1.3335703247070312,0,0,1.07016
2.493880336987786,0,0,1.2737152832031249,0,0,0.91728
2.4952660629933234,0,0,1.1755530151367186,0,0,1.2230400000000001
2.496652622008696,0,0,1.2378022583007813,0,0,0.91728
2.4980370689881966,0,0,1.369483349609375,0,0,1.1465999999999998
2.4994226100097876,0,0,1.3096283081054687,0,0,0.3822
2.500808649987448,0,0,1.3455413330078123,0,0,0.6115200000000001
2.5021938380086794,0,0,1.4101847778320311,0,0,1.37592
2.5035790640104096,0,0,1.1707646118164061,0,0,1.2994800000000002
2.5049646779953036,0,0,1.0654197387695312,0,0,0.53508
2.506350793002639,0,0,1.189918225097656,0,0,1.2994800000000002
2.507735944003798,0,0,1.3718775512695311,0,0,0.91728
2.5091211319959257,0,0,1.3000515014648437,0,0,0.91728
2.510506858001463,0,0,1.5394716674804687,0,0,1.2230400000000001
2.511892379989149,0,0,1.3311761230468748,0,0,0.91728
2.5132782160071656,0,0,1.1755530151367186,0,0,-9.631440000000001
2.514665941998828,0,0,1.209071838378906,0,0,0.22932
2.5160519079945516,0,0,1.3048399047851562,0,0,0.68796
2.517437558999518,0,0,1.24498486328125,0,0,0.30576000000000003
2.5188243399898056,0,0,1.2904746948242187,0,0,1.1465999999999998
2.5202137689921074,0,0,1.5370774658203123,0,0,0.53508
2.521599809988402,0,0,1.2713210815429687,0,0,0.84084
2.5229856650112197,0,0,1.1611878051757811,0,0,0.84084
2.524383815994952,0,0,1.20667763671875,0,0,0.45864
2.5257700229994953,0,0,1.235408056640625,0,0,0.91728
2.527155860007042,0,0,1.3359645263671873,0,0,0.15288000000000002
2.528541954990942,0,0,1.2306196533203124,0,0,0.45864
2.5299366069957614,0,0,1.6615759521484375,0,0,0.6115200000000001
2.5313223139964975,0,0,1.2713210815429687,0,0,0.68796
2.5327145580085926,0,0,1.3766659545898436,0,0,1.2994800000000002
2.5341003199864645,0,0,1.218648645019531,0,0,1.07016
2.5354860830120742,0,0,1.1085153686523437,0,0,0.99372
2.536874474986689,0,0,1.3359645263671873,0,0,1.1465999999999998
2.5382598669966683,0,0,1.369483349609375,0,0,0.68796
2.539645481010666,0,0,1.3072341064453123,0,0,0.7644
2.541031798988115,0,0,1.3311761230468748,0,0,0.91728
2.542417432006914,0,0,1.3551181396484375,0,0,1.07016
2.5438028060016222,0,0,1.1133037719726562,0,0,1.1465999999999998
2.545189216005383,0,0,1.2880804931640624,0,0,0.7644
2.54657457198482,0,0,1.1420341918945311,0,0,0.99372
2.5479601490078494,0,0,1.4508862060546874,0,0,0.6115200000000001
2.5493460780126043,0,0,1.3623007446289062,0,0,0.91728
2.5507313220005017,0,0,1.4030021728515625,0,0,1.1465999999999998
2.552117048006039,0,0,1.2785036865234374,0,0,0.84084
2.553502810013015,0,0,1.3670891479492187,0,0,0.6115200000000001
2.5548880909918807,0,0,1.1923124267578125,0,0,0.3822
2.5562737050058786,0,0,1.3239935180664062,0,0,0.45864
2.55766006099293,0,0,1.2928688964843749,0,0,0.0
2.559045453002909,0,0,1.2569558715820313,0,0,0.45864
2.5604429930099286,0,0,1.458068811035156,0,0,0.7644
2.561828884994611,0,0,1.22583125,0,0,0.30576000000000003
2.563214722002158,0,0,1.2785036865234374,0,0,0.84084
2.5646008540061302,0,0,1.2234370483398436,0,0,0.3822
2.565985969005851,0,0,1.197100830078125,0,0,1.07016
2.5673725650121924,0,0,1.3048399047851562,0,0,0.30576000000000003
2.568758790002903,0,0,1.2761094848632812,0,0,0.30576000000000003
2.5701441449928097,0,0,1.4413093994140624,0,0,0.3822
2.571529759996338,0,0,1.4772224243164063,0,0,0.7644
2.5729158550093416,0,0,1.3287819213867187,0,0,1.2230400000000001
2.5742989699938335,0,0,1.1827356201171875,0,0,1.1465999999999998
2.575682658003643,0,0,1.1635820068359375,0,0,0.99372
2.5770954950130545,0,0,1.2928688964843749,0,0,1.1465999999999998
2.578483608987881,0,0,1.4628572143554686,0,0,1.07016
2.5798711119859945,0,0,1.4317325927734375,0,0,1.1465999999999998
2.5812534489959944,0,0,1.39821376953125,0,0,0.84084
2.582631711004069,0,0,1.1180921752929687,0,0,0.99372
2.584011881001061,0,0,1.1731588134765625,0,0,0.99372
2.585400773008587,0,0,1.2808978881835937,0,0,0.7644
2.586789572989801,0,0,1.35990654296875,0,0,0.68796
2.588187335000839,0,0,1.455674609375,0,0,0.22932
2.589574782992713,0,0,1.2497732666015624,0,0,0.6115200000000001
2.590961434005294,0,0,1.6232687255859375,0,0,0.91728
2.5923481970094144,0,0,1.2689268798828124,0,0,0.84084
2.5937347559956834,0,0,1.2282254516601563,0,0,0.7644
2.595120907004457,0,0,1.2234370483398436,0,0,0.15288000000000002
2.596508502989309,0,0,1.1827356201171875,0,0,0.6115200000000001
2.597894673002884,0,0,1.3838485595703125,0,0,9.555
2.5992811580072157,0,0,1.3575123413085937,0,0,0.6115200000000001
2.600668327009771,0,0,1.5538368774414062,0,0,0.7644
2.6020540710014757,0,0,1.20667763671875,0,0,0.22932
2.6034406120015774,0,0,1.3048399047851562,0,0,-8.71416
2.6048259109957144,0,0,1.199495031738281,0,0,0.68796
2.606203173985705,0,0,1.2138602416992186,0,0,1.07016
2.6075811960035935,0,0,1.2952630981445312,0,0,0.68796
2.6089670690125786,0,0,1.3048399047851562,0,0,0.68796
2.610352702002274,0,0,1.2689268798828124,0,0,0.30576000000000003
2.6117381310032215,0,0,1.2401964599609374,0,0,0.6115200000000001
2.6131244490097743,0,0,1.216254443359375,0,0,1.2230400000000001
2.614510045008501,0,0,1.2138602416992186,0,0,1.2230400000000001
2.6158960860047955,0,0,1.0654197387695312,0,0,0.99372
2.617282791994512,0,0,1.0845733520507812,0,0,1.45236
2.618669202987803,0,0,1.4101847778320311,0,0,0.68796
2.620062391011743,0,0,1.3335703247070312,0,0,0.99372
2.6214490979909897,0,0,1.5346832641601562,0,0,1.07016
2.622834842011798,0,0,1.2976572998046874,0,0,0.91728
2.62422065998544,0,0,1.3335703247070312,0,0,0.84084
2.625606201007031,0,0,1.1133037719726562,0,0,0.45864
2.626995408005314,0,0,1.197100830078125,0,0,0.84084
2.628393485007109,0,0,1.3144167114257812,0,0,0.30576000000000003
2.6297798400046304,0,0,1.218648645019531,0,0,0.99372
2.631165269005578,0,0,1.5586252807617187,0,0,0.99372
2.6326019570115022,0,0,1.2880804931640624,0,0,1.1465999999999998
2.634063884994248,0,0,1.2401964599609374,0,0,0.30576000000000003
2.6354514439881314,0,0,1.13006318359375,0,0,0.45864
2.6368415399920195,0,0,1.2832920898437499,0,0,0.30576000000000003
2.638223746995209,0,0,1.3766659545898436,0,0,0.0
2.6396096759999637,0,0,1.3311761230468748,0,0,0.6115200000000001
2.6409962349862326,0,0,1.6136919189453125,0,0,0.68796
2.6423821460048202,0,0,1.2330138549804688,0,0,0.84084
2.643768056004774,0,0,1.197100830078125,0,0,0.7644
2.6451833370083477,0,0,1.1923124267578125,0,0,0.68796
2.6465801729937084,0,0,1.2617442749023438,0,0,1.1465999999999998
2.6479593990079593,0,0,1.388636962890625,0,0,0.0
2.649365902005229,0,0,1.3910311645507811,0,0,0.3822
2.6507644790108316,0,0,1.618480322265625,0,0,0.6115200000000001
2.652144001011038,0,0,1.3359645263671873,0,0,0.7644
2.6535625960095786,0,0,1.2138602416992186,0,0,0.99372
2.654942191991722,0,0,1.20667763671875,0,0,1.1465999999999998
2.656321176997153,0,0,1.2138602416992186,0,0,0.91728
2.65770064300159,0,0,1.3527239379882812,0,0,0.53508
2.6590791280032136,0,0,1.4317325927734375,0,0,1.1465999999999998
2.660459353995975,0,0,1.3192051147460937,0,0,0.99372
2.6618378389975987,0,0,1.467645617675781,0,0,0.7644
2.6632162120076828,0,0,1.2401964599609374,0,0,1.2230400000000001
2.664607512007933,0,0,1.1348515869140625,0,0,0.84084
2.6659855149919167,0,0,1.189918225097656,0,0,0.45864
2.667363832995761,0,0,1.3263877197265623,0,0,1.37592
2.6687436329957563,0,0,1.455674609375,0,0,1.1465999999999998
2.670121561997803,0,0,1.2689268798828124,0,0,0.68796
2.671499768999638,0,0,1.5945383056640625,0,0,0.91728
2.6728784579900093,0,0,1.158793603515625,0,0,0.99372
2.6742564429878257,0,0,1.2880804931640624,0,0,0.3822
2.675634352985071,0,0,1.216254443359375,0,0,0.30576000000000003
2.6770355420012493,0,0,1.22583125,0,0,0.6115200000000001
2.678425118996529,0,0,1.2761094848632812,0,0,0.22932
2.6798111220123246,0,0,1.2880804931640624,0,0,0.68796
2.6812347729864996,0,0,1.6208745239257811,0,0,0.68796
2.682629776012618,0,0,1.1851298217773436,0,0,0.3822
2.684015928010922,0,0,1.2737152832031249,0,0,0.68796
2.6854023940104526,0,0,1.1875240234375,0,0,0.53508
2.686788507999154,0,0,1.22583125,0,0,1.07016
2.6881739189848304,0,0,1.1875240234375,0,0,0.0
2.6895595699897967,0,0,1.2976572998046874,0,0,0.22932
2.6909463880001567,0,0,1.4915876342773438,0,0,0.6115200000000001
2.6923322989896405,0,0,1.4317325927734375,0,0,0.6115200000000001
2.6937189500022214,0,0,1.235408056640625,0,0,0.91728
2.695104990998516,0,0,1.2234370483398436,0,0,1.1465999999999998
2.696493735013064,0,0,1.0726023437499999,0,0,0.84084
2.697879829996964,0,0,1.3072341064453123,0,0,0.84084
2.6992658149974886,0,0,1.6639701538085936,0,0,0.68796
2.7006521520088427,0,0,1.4963760375976562,0,0,0.84084
2.7020376730069984,0,0,1.484405029296875,0,0,0.68796
2.703424120991258,0,0,1.1324573852539062,0,0,0.91728
2.7048315499851014,0,0,1.0965443603515623,0,0,0.91728
2.7062224610126577,0,0,1.01514150390625,0,0,0.7644
2.7076208899961784,0,0,1.2952630981445312,0,0,1.2230400000000001
2.709008486010134,0,0,1.3766659545898436,0,0,0.91728
2.7103944520058576,0,0,1.3838485595703125,0,0,0.68796
2.7117805290035903,0,0,1.4963760375976562,0,0,0.84084
2.7131670509988908,0,0,1.2761094848632812,0,0,0.91728
2.7145528130058665,0,0,1.1540052001953125,0,0,0.30576000000000003
2.715938687004382,0,0,1.2282254516601563,0,0,0.53508
2.717324561002897,0,0,1.0749965454101562,0,0,0.45864
2.7187100269948132,0,0,1.4341267944335936,0,0,0.3822
2.720096197008388,0,0,1.235408056640625,0,0,0.53508
2.7214819219952915,0,0,1.6448165405273436,0,0,0.91728
2.722867592005059,0,0,1.2976572998046874,0,0,0.7644
2.7242533919925336,0,0,1.3239935180664062,0,0,0.91728
2.725731504993746,0,0,1.2306196533203124,0,0,0.30576000000000003
2.7272371370054316,0,0,1.1180921752929687,0,0,0.6115200000000001
2.728690935007762,0,0,1.407790576171875,0,0,0.0
2.7301066420041025,0,0,1.3575123413085937,0,0,0.53508
2.7314939409843646,0,0,1.4987702392578124,0,0,0.68796
2.7328808520105667,0,0,1.1133037719726562,0,0,0.7644
2.734267040999839,0,0,1.218648645019531,0,0,0.91728
2.735653859010199,0,0,1.2521674682617188,0,0,0.6115200000000001
2.7370409359864425,0,0,1.0941501586914062,0,0,1.07016
2.73842684700503,0,0,1.350329736328125,0,0,0.15288000000000002
2.7398128309869207,0,0,1.369483349609375,0,0,0.53508
2.7411996859882493,0,0,1.3335703247070312,0,0,0.91728
2.7425858750066254,0,0,1.1061211669921875,0,0,0.22932
2.7439711740007624,0,0,1.20667763671875,0,0,1.2994800000000002
2.745357806998072,0,0,1.1875240234375,0,0,1.07016
2.7467438289895654,0,0,1.1013327636718748,0,0,0.68796
2.7481296100013424,0,0,1.2617442749023438,0,0,1.1465999999999998
2.7495157980010845,0,0,1.3623007446289062,0,0,0.99372
2.7509018940036185,0,0,1.2928688964843749,0,0,1.1465999999999998
2.7523084160056897,0,0,1.5849614990234373,0,0,0.7644
2.7536958449927624,0,0,1.2832920898437499,0,0,0.99372
2.755081996001536,0,0,1.3742717529296875,0,0,0.91728
2.75646833301289,0,0,1.2282254516601563,0,0,0.3822
2.7578541139955632,0,0,1.24498486328125,0,0,1.37592
2.759240338986274,0,0,1.3958195678710936,0,0,0.68796
2.760626695002429,0,0,1.2880804931640624,0,0,0.6115200000000001
2.7620128270064015,0,0,1.6304513305664061,0,0,1.2994800000000002
2.763408052996965,0,0,1.3670891479492187,0,0,0.84084
2.764795352006331,0,0,1.2234370483398436,0,0,0.22932
2.766180948005058,0,0,1.158793603515625,0,0,0.15288000000000002
2.767567284987308,0,0,1.2210428466796874,0,0,0.30576000000000003
2.7689534919918515,0,0,1.5227122558593749,0,0,0.0
2.7703390879905783,0,0,1.4628572143554686,0,0,0.45864
2.771724943013396,0,0,1.62805712890625,0,0,0.84084
2.7731096310017165,0,0,1.3168109130859373,0,0,0.53508
2.774493431003066,0,0,1.189918225097656,0,0,0.45864
2.775878360000206,0,0,1.1420341918945311,0,0,0.7644
2.777281343995128,0,0,1.3263877197265623,0,0,0.7644
2.7786688480118755,0,0,1.4532804077148436,0,0,0.3822
2.7800565180077683,0,0,1.4437036010742186,0,0,0.7644
2.7814439100038726,0,0,1.5562310791015623,0,0,0.53508
2.7828308939933777,0,0,1.3120225097656248,0,0,0.30576000000000003
2.784217879001517,0,0,1.2785036865234374,0,0,1.07016
2.7856061600032263,0,0,1.2880804931640624,0,0,1.2230400000000001
2.7869929969892837,0,0,1.2593500732421874,0,0,0.6115200000000001
2.788399943994591,0,0,1.2521674682617188,0,0,0.91728
2.7897882249963004,0,0,1.3479355346679687,0,0,0.84084
2.791175561986165,0,0,1.235408056640625,0,0,-8.867040000000001
2.7925654349965043,0,0,1.4413093994140624,0,0,0.45864
2.793953549989965,0,0,1.2856862915039062,0,0,1.07016
2.7953505709883757,0,0,1.1348515869140625,0,0,0.3822
2.7967392040009145,0,0,1.2282254516601563,0,0,0.84084
2.7981248929863796,0,0,1.1468225952148436,0,0,1.07016
2.7995113219949417,0,0,1.3862427612304686,0,0,0.3822
2.8008989359950647,0,0,1.2665326782226562,0,0,0.7644
2.802285457990365,0,0,1.6041151123046875,0,0,1.07016
2.803671942994697,0,0,1.0558429321289062,0,0,0.7644
2.8050538529932965,0,0,1.1228805786132812,0,0,0.22932
2.806431764009176,0,0,1.2713210815429687,0,0,0.30576000000000003
2.8078099149861373,0,0,1.1563994018554686,0,0,0.91728
2.8102392030123156,0,0,1.484405029296875,0,0,0.7644
2.8116178729978856,0,0,1.419761584472656,0,0,0.53508
2.812998431996675,0,0,1.4867992309570313,0,0,0.68796
2.814376713009551,0,0,1.3575123413085937,0,0,1.2230400000000001
2.815755105984863,0,0,1.3120225097656248,0,0,0.91728
2.8171374420053326,0,0,1.3766659545898436,0,0,0.68796
2.8185162419977132,0,0,1.3144167114257812,0,0,1.2230400000000001
2.8198945600015577,0,0,1.458068811035156,0,0,1.1465999999999998
2.8212745079945307,0,0,1.3072341064453123,0,0,1.2230400000000001
2.822666307009058,0,0,1.5227122558593749,0,0,0.91728
2.824044959008461,0,0,1.1252747802734375,0,0,0.99372
2.825433591991896,0,0,1.1061211669921875,0,0,0.68796
2.826819723995868,0,0,1.2282254516601563,0,0,0.15288000000000002
2.828208376013208,0,0,1.0965443603515623,0,0,0.99372
2.8295940090029035,0,0,1.448492004394531,0,0,0.91728
2.830979733989807,0,0,1.3838485595703125,0,0,0.6115200000000001
2.8323650890088174,0,0,1.438915197753906,0,0,-8.867040000000001
2.8337532780133188,0,0,1.1875240234375,0,0,0.91728
2.835139244009042,0,0,1.3215993164062498,0,0,0.68796
2.8365263209852856,0,0,1.1372457885742187,0,0,0.15288000000000002
2.8379110470123123,0,0,1.1707646118164061,0,0,0.84084
2.8392971429857425,0,0,1.4125789794921875,0,0,0.22932
2.8407005720073357,0,0,1.3814543579101561,0,0,0.45864
2.8420863159990404,0,0,1.4604630126953124,0,0,0.68796
2.843472151987953,0,0,1.2689268798828124,0,0,0.7644
2.8448640069982503,0,0,1.2306196533203124,0,0,0.68796
2.846271788002923,0,0,1.2521674682617188,0,0,0.84084
2.847651957999915,0,0,1.1252747802734375,0,0,0.7644
2.8490325910097454,0,0,1.254561669921875,0,0,0.07644000000000001
2.850511352007743,0,0,1.4053963745117186,0,0,0.91728
2.851894263003487,0,0,1.4101847778320311,0,0,0.53508
2.8532893219962716,0,0,1.1707646118164061,0,0,0.84084
2.854668491985649,0,0,1.3048399047851562,0,0,1.37592
2.85604736499954,0,0,1.1540052001953125,0,0,1.2994800000000002
2.8574267950025387,0,0,1.2330138549804688,0,0,0.84084
2.8588049650134053,0,0,1.35990654296875,0,0,1.2230400000000001
2.8601828750106506,0,0,1.3263877197265623,0,0,0.68796
2.8615617679897696,0,0,1.2593500732421874,0,0,0.99372
2.8629403639934026,0,0,1.484405029296875,0,0,0.99372
2.8643186450062785,0,0,1.3407529296874998,0,0,1.2230400000000001
2.865697814995656,0,0,1.2665326782226562,0,0,0.84084
2.8670758359949104,0,0,1.3120225097656248,0,0,0.30576000000000003
2.8684582659916487,0,0,1.2114660400390624,0,0,0.91728
2.8698445280024316,0,0,1.2856862915039062,0,0,0.45864
2.8712304389919154,0,0,1.3311761230468748,0,0,0.53508
2.8726193869952112,0,0,1.599326708984375,0,0,0.84084
2.874002500990173,0,0,1.1420341918945311,0,0,0.91728
2.875386856001569,0,0,1.1444283935546875,0,0,0.22932
2.8767841549997684,0,0,1.2593500732421874,0,0,0.53508
2.878170676995069,0,0,1.3263877197265623,0,0,0.22932
2.879556236002827,0,0,1.4030021728515625,0,0,0.15288000000000002
2.8809546279953793,0,0,1.2497732666015624,0,0,0.45864
2.8823403349961154,0,0,1.5658078857421873,0,0,1.07016
2.8837994860077742,0,0,1.254561669921875,0,0,0.30576000000000003
2.885242451011436,0,0,1.1755530151367186,0,0,1.07016
2.886631231987849,0,0,1.216254443359375,0,0,0.68796
2.888017754012253,0,0,1.0941501586914062,0,0,0.6115200000000001
2.889404293993721,0,0,1.2928688964843749,0,0,0.6115200000000001
2.890789667988429,0,0,1.158793603515625,0,0,0.53508
2.892175763990963,0,0,1.7190367919921874,0,0,0.6115200000000001
2.8935611929919105,0,0,1.3934253662109375,0,0,0.68796
2.894946548010921,0,0,1.2808978881835937,0,0,1.2230400000000001
2.8963316440058406,0,0,1.1516109985351561,0,0,1.07016
2.897717424988514,0,0,1.0606313354492187,0,0,1.1465999999999998
2.8991023910057265,0,0,1.199495031738281,0,0,1.2994800000000002
2.9005081719951704,0,0,1.484405029296875,0,0,1.1465999999999998
2.9018940269888844,0,0,1.2330138549804688,0,0,0.91728
2.9032796410028823,0,0,1.4006079711914061,0,0,0.99372
2.904666015005205,0,0,1.22583125,0,0,1.07016
2.906050758989295,0,0,1.2210428466796874,0,0,0.84084
2.9074366510030814,0,0,1.1252747802734375,0,0,0.45864
2.9088231539935805,0,0,1.1875240234375,0,0,0.7644
2.9102082689933013,0,0,1.426944189453125,0,0,0.53508
2.9115941239870153,0,0,1.2425906616210938,0,0,0.99372
2.912979738001013,0,0,1.4317325927734375,0,0,1.2994800000000002
2.914364778000163,0,0,1.20667763671875,0,0,0.68796
2.9157503560127225,0,0,1.3670891479492187,0,0,0.53508
2.917136266012676,0,0,1.149216796875,0,0,0.07644000000000001
2.918521862011403,0,0,1.2497732666015624,0,0,0.53508
2.920022420003079,0,0,1.35990654296875,0,0,0.07644000000000001
2.9214126270089764,0,0,1.3359645263671873,0,0,1.07016
2.922797870996874,0,0,1.5490484741210937,0,0,0.6115200000000001
2.924183021998033,0,0,1.22583125,0,0,0.6115200000000001
2.925568395992741,0,0,1.2473790649414063,0,0,0.84084
2.92696628801059,0,0,1.180341418457031,0,0,0.6115200000000001
2.9283704019908328,0,0,1.1635820068359375,0,0,0.91728
2.9297805720125325,0,0,1.3215993164062498,0,0,0.15288000000000002
2.9311694449861534,0,0,1.2114660400390624,0,0,0.6115200000000001
2.932556634012144,0,0,1.5155296508789062,0,0,0.6115200000000001
2.933941210998455,0,0,1.4030021728515625,0,0,0.45864
2.9353269549901597,0,0,1.2521674682617188,0,0,0.99372
2.9367132729967125,0,0,1.0893617553710937,0,0,1.07016
2.9380979429988656,0,0,1.254561669921875,0,0,0.68796
2.9394931310089305,0,0,1.3000515014648437,0,0,0.53508
2.9408800049859565,0,0,1.3383587280273437,0,0,0.99372
2.942267026985064,0,0,1.4820108276367188,0,0,0.84084
2.943653196009109,0,0,1.5897499023437498,0,0,0.91728
2.9450391629943624,0,0,1.0893617553710937,0,0,1.2994800000000002
2.9464245550043415,0,0,1.1755530151367186,0,0,0.91728
2.9478100769920275,0,0,1.1444283935546875,0,0,0.53508
2.9491957649879623,0,0,1.2952630981445312,0,0,1.2230400000000001
2.950581120006973,0,0,1.4317325927734375,0,0,0.91728
2.9519671599846333,0,0,1.2330138549804688,0,0,0.7644
2.9533530340122525,0,0,1.5298948608398437,0,0,1.2230400000000001
2.9547386670019478,0,0,1.3239935180664062,0,0,1.2994800000000002
2.9561245779914316,0,0,1.120486376953125,0,0,0.22932
2.9575105810072273,0,0,1.180341418457031,0,0,0.15288000000000002
2.958895935997134,0,0,1.2713210815429687,0,0,0.45864
2.9602812720113434,0,0,1.3742717529296875,0,0,0.3822
2.9616672940028366,0,0,1.2401964599609374,0,0,0.30576000000000003
2.9630526679975446,0,0,1.4101847778320311,0,0,0.68796
2.964439503994072,0,0,1.2306196533203124,0,0,0.45864
2.9658254150126595,0,0,1.22583125,0,0,0.53508
2.967210825998336,0,0,1.1348515869140625,0,0,0.7644
2.968597328988835,0,0,1.13006318359375,0,0,0.6115200000000001
2.969986424985109,0,0,1.2832920898437499,0,0,0.0
2.971384261007188,0,0,1.3168109130859373,0,0,0.22932
2.9727708020072896,0,0,1.3311761230468748,0,0,0.53508
2.974154786003055,0,0,1.1061211669921875,0,0,0.3822
2.975538956001401,0,0,1.3048399047851562,0,0,0.84084
2.977054977003718,0,0,1.2401964599609374,0,0,0.7644
2.978441979998024,0,0,1.1851298217773436,0,0,1.37592
2.979827982984716,0,0,1.2928688964843749,0,0,0.84084
2.9812145229952876,0,0,1.35990654296875,0,0,1.07016
2.9826006189978216,0,0,1.35990654296875,0,0,0.53508
2.983986195991747,0,0,1.6831237670898436,0,0,0.6115200000000001
2.9853726259898394,0,0,1.369483349609375,0,0,0.99372
2.9867659249866847,0,0,1.1851298217773436,0,0,0.6115200000000001
2.988151872996241,0,0,1.0582371337890624,0,0,0.84084
2.989537819987163,0,0,1.2976572998046874,0,0,1.2994800000000002
2.9909234159858897,0,0,1.407790576171875,0,0,0.91728
2.9923095119884238,0,0,1.2856862915039062,0,0,0.53508
2.9936954230070114,0,0,1.5418658691406248,0,0,1.07016
2.995081500004744,0,0,1.2665326782226562,0,0,0.91728
2.99646726300125,0,0,1.1635820068359375,0,0,0.45864
2.997863321012119,0,0,1.1755530151367186,0,0,0.22932
2.9992496389895678,0,0,1.3527239379882812,0,0,0.6115200000000001
3.000636865006527,0,0,1.4437036010742186,0,0,0.22932
3.002022256987402,0,0,1.2904746948242187,0,0,1.07016
3.003410000994336,0,0,1.618480322265625,0,0,0.91728
3.0047970229934435,0,0,1.2473790649414063,0,0,0.53508
3.0061857670079917,0,0,1.0989385620117187,0,0,0.68796
3.0075757880113088,0,0,1.1085153686523437,0,0,0.30576000000000003
3.0089619210048113,0,0,1.2018892333984375,0,0,0.53508
3.0103480909892824,0,0,1.3551181396484375,0,0,-0.15288000000000002
3.011735186999431,0,0,1.426944189453125,0,0,0.45864
3.0131213940039743,0,0,1.6304513305664061,0,0,0.68796
3.0145072680024896,0,0,1.177947216796875,0,0,0.3822
3.0159058079880197,0,0,1.1061211669921875,0,0,1.07016
3.017292033007834,0,0,1.2018892333984375,0,0,0.84084
3.0186776850023307,0,0,1.1875240234375,0,0,0.68796
3.0200638360111043,0,0,1.3479355346679687,0,0,1.07016
3.021452154003782,0,0,1.465251416015625,0,0,0.99372
3.022837991011329,0,0,1.3215993164062498,0,0,0.68796
3.024224179011071,0,0,1.3239935180664062,0,0,0.6115200000000001
3.0256096819939557,0,0,1.3670891479492187,0,0,1.1465999999999998
3.027078276994871,0,0,1.2138602416992186,0,0,0.91728
3.0284671320114285,0,0,1.139639990234375,0,0,0.99372
3.0300393190118484,0,0,1.3575123413085937,0,0,1.07016
3.0314323589846026,0,0,1.467645617675781,0,0,0.84084
3.0328192510060035,0,0,1.2018892333984375,0,0,0.68796
3.0342044759890996,0,0,1.369483349609375,0,0,0.7644
3.0355896090040915,0,0,1.3551181396484375,0,0,1.2230400000000001
3.0369757610023953,0,0,1.2234370483398436,0,0,0.84084
3.038361042010365,0,0,1.13006318359375,0,0,0.7644
3.0397459900123067,0,0,1.2808978881835937,0,0,1.2994800000000002
3.04113195600803,0,0,1.4125789794921875,0,0,0.91728
3.0425176070129965,0,0,1.197100830078125,0,0,0.7644
3.043903092009714,0,0,1.5251064575195312,0,0,0.99372
3.04556903601042,0,0,1.2593500732421874,0,0,1.5288
3.0469487250084057,0,0,1.1540052001953125,0,0,0.7644
3.04832704301225,0,0,1.1851298217773436,0,0,0.53508
3.049708158010617,0,0,1.0965443603515623,0,0,1.2994800000000002
3.051134456996806,0,0,1.3742717529296875,0,0,0.99372
3.0525148670130875,0,0,1.2952630981445312,0,0,1.07016
3.053909907990601,0,0,1.3910311645507811,0,0,1.2230400000000001
3.0552892069972586,0,0,1.1923124267578125,0,0,1.1465999999999998
3.056685783987632,0,0,1.3096283081054687,0,0,0.22932
3.05806421401212,0,0,1.254561669921875,0,0,0.3822
3.0594493279932067,0,0,1.2713210815429687,0,0,0.3822
3.0608290350064635,0,0,1.2952630981445312,0,0,-0.30576000000000003
3.062209575000452,0,0,1.2497732666015624,0,0,0.15288000000000002
3.063588004995836,0,0,1.455674609375,0,0,0.7644
3.0649675079912413,0,0,1.2569558715820313,0,0,0.53508
3.066346251987852,0,0,1.2521674682617188,0,0,0.7644
3.067724291991908,0,0,1.1540052001953125,0,0,0.91728
3.0691105549922213,0,0,1.20667763671875,0,0,1.37592
3.0704972429957706,0,0,1.2378022583007813,0,0,0.15288000000000002
3.0718825240037404,0,0,1.3000515014648437,0,0,0.53508
3.0732674160099123,0,0,1.35990654296875,0,0,0.53508
3.0746512720070314,0,0,1.5275006591796874,0,0,0.84084
3.076034792989958,0,0,1.3311761230468748,0,0,1.45236
3.077434740989702,0,0,1.2306196533203124,0,0,1.1465999999999998
3.0788211330072954,0,0,1.2378022583007813,0,0,0.91728
3.0802065070020035,0,0,1.3000515014648437,0,0,1.1465999999999998
3.0815925839997362,0,0,1.5107412475585937,0,0,1.37592
3.082978032005485,0,0,1.3670891479492187,0,0,0.84084
3.0843636830104515,0,0,1.4867992309570313,0,0,1.1465999999999998
3.0857504089944996,0,0,1.0749965454101562,0,0,1.07016
3.0871366710052826,0,0,1.1875240234375,0,0,0.53508
3.088523193000583,0,0,1.1731588134765625,0,0,0.22932
3.089908252004534,0,0,1.3120225097656248,0,0,1.1465999999999998
3.0912940879934467,0,0,1.5011644409179687,0,0,0.91728
3.092681535985321,0,0,1.3575123413085937,0,0,0.68796
3.09406557600596,0,0,1.4437036010742186,0,0,0.84084
3.0954511720046867,0,0,1.3168109130859373,0,0,0.68796
3.0968377309909556,0,0,1.2473790649414063,0,0,0.30576000000000003
3.0982221410085913,0,0,1.3144167114257812,0,0,0.30576000000000003
3.0996078480093274,0,0,1.149216796875,0,0,0.68796
3.1009940369985998,0,0,1.4437036010742186,0,0,0.0
3.102379761985503,0,0,1.4149731811523436,0,0,0.45864
3.1038020059932023,0,0,1.3215993164062498,0,0,0.91728
3.1051884540065657,0,0,1.2737152832031249,0,0,0.7644
3.106574161007302,0,0,1.3646949462890625,0,0,0.53508
3.107959793007467,0,0,1.1851298217773436,0,0,0.6115200000000001
3.1093455369991716,0,0,1.1659762084960936,0,0,0.68796
3.1107312999956775,0,0,1.3742717529296875,0,0,0.0
3.1121187660028227,0,0,1.407790576171875,0,0,0.68796
3.1135045289993286,0,0,1.4532804077148436,0,0,0.45864
3.1148998650023714,0,0,1.1707646118164061,0,0,0.53508
3.1162860720069148,0,0,1.1707646118164061,0,0,1.1465999999999998
3.1176722050004173,0,0,1.0989385620117187,0,0,1.1465999999999998
3.1190578560053837,0,0,1.177947216796875,0,0,0.3822
3.120444192987634,0,0,1.3527239379882812,0,0,1.1465999999999998
3.1218300299951807,0,0,1.37906015625,0,0,0.91728
3.123215533007169,0,0,1.3072341064453123,0,0,0.91728
3.1246017400117125,0,0,1.5346832641601562,0,0,1.07016
3.1259872619993985,0,0,1.2401964599609374,0,0,1.07016
3.127372986986302,0,0,1.2234370483398436,0,0,0.3822
3.1287590459978674,0,0,1.2114660400390624,0,0,0.22932
3.130144789989572,0,0,1.3144167114257812,0,0,1.1465999999999998
3.1315306260075886,0,0,1.3958195678710936,0,0,1.2994800000000002
3.132918037008494,0,0,1.3120225097656248,0,0,0.84084
3.134365390986204,0,0,1.5346832641601562,0,0,0.7644
3.135788987012347,0,0,1.2880804931640624,0,0,0.99372
3.1371813229925465,0,0,1.2808978881835937,0,0,0.22932
3.138568030000897,0,0,1.3168109130859373,0,0,0.22932
3.1399538480036426,0,0,1.3000515014648437,0,0,0.30576000000000003
3.1413426479848567,0,0,1.4030021728515625,0,0,-0.22932
3.1427306330006104,0,0,1.6807295654296874,0,0,0.30576000000000003
3.144116617011605,0,0,1.6543933471679686,0,0,0.91728
3.145502786996076,0,0,1.235408056640625,0,0,0.6115200000000001
3.1469060119998176,0,0,1.2282254516601563,0,0,0.84084
3.1482925529999193,0,0,1.1420341918945311,0,0,0.22932
3.149679333990207,0,0,1.20667763671875,0,0,0.53508
3.1510660219937563,0,0,1.2952630981445312,0,0,0.22932
3.1524523769912776,0,0,1.39821376953125,0,0,-8.867040000000001
3.1538392690126784,0,0,1.6136919189453125,0,0,0.45864
3.155231476004701,0,0,1.2521674682617188,0,0,0.45864
3.156619054003386,0,0,1.1875240234375,0,0,1.1465999999999998
3.158003335003741,0,0,1.1707646118164061,0,0,0.99372
3.1593893750105053,0,0,1.120486376953125,0,0,1.1465999999999998
3.1607762489875313,0,0,1.3048399047851562,0,0,1.2230400000000001
3.1621612700109836,0,0,1.426944189453125,0,0,1.45236
3.163547792006284,0,0,1.120486376953125,0,0,0.7644
3.1649351099913474,0,0,1.2785036865234374,0,0,0.84084
3.16632124298485,0,0,1.2665326782226562,0,0,1.07016
3.1677065799885895,0,0,1.2904746948242187,0,0,0.6115200000000001
3.1690934159851167,0,0,1.1037269653320312,0,0,0.84084
3.1704793449898716,0,0,1.3168109130859373,0,0,1.07016
3.171864200005075,0,0,1.4939818359375,0,0,0.45864
3.1732631110062357,0,0,1.3742717529296875,0,0,0.84084
3.1746480769943446,0,0,1.5490484741210937,0,0,1.2230400000000001
3.1760319510067347,0,0,1.2785036865234374,0,0,1.07016
3.177439769002376,0,0,1.3383587280273437,0,0,0.3822
3.178826808987651,0,0,1.1444283935546875,0,0,0.45864
3.180212979001226,0,0,1.2737152832031249,0,0,0.0
3.1815991119947284,0,0,1.419761584472656,0,0,0.0
3.182985188992461,0,0,1.2856862915039062,0,0,0.68796
3.1843870070006233,0,0,1.6256629272460936,0,0,0.68796
3.185774046985898,0,0,1.24498486328125,0,0,0.6115200000000001
3.187160216999473,0,0,1.2282254516601563,0,0,0.99372
3.1885472199937794,0,0,1.1731588134765625,0,0,0.22932
3.1899323349935003,0,0,1.2138602416992186,0,0,0.91728
3.1913416530005634,0,0,1.3383587280273437,0,0,0.45864
3.192728914989857,0,0,1.2641384765625,0,0,0.3822
3.1941137890098616,0,0,1.4245499877929686,0,0,0.6115200000000001
3.1954991619859356,0,0,1.3311761230468748,0,0,0.68796
3.1968858320033178,0,0,1.2306196533203124,0,0,1.2994800000000002
3.198270891007269,0,0,1.0965443603515623,0,0,1.07016
3.1996565790032037,0,0,1.2904746948242187,0,0,0.99372
3.2010424720065203,0,0,1.2880804931640624,0,0,1.1465999999999998
3.202427974989405,0,0,1.484405029296875,0,0,0.7644
3.203813608008204,0,0,1.4604630126953124,0,0,0.53508
3.2051999809918925,0,0,1.4867992309570313,0,0,0.84084
3.2065855959954206,0,0,1.120486376953125,0,0,1.2230400000000001
3.207970672985539,0,0,1.0366893188476562,0,0,1.2230400000000001
3.209356639010366,0,0,1.0845733520507812,0,0,0.7644
3.210742235009093,0,0,1.254561669921875,0,0,0.84084
3.2121282749867532,0,0,1.4604630126953124,0,0,0.6115200000000001
3.213514130009571,0,0,1.2378022583007813,0,0,0.99372
3.214899410988437,0,0,1.5107412475585937,0,0,1.1465999999999998
3.2162852300098166,0,0,1.1516109985351561,0,0,0.6115200000000001
3.2176709740015212,0,0,1.13006318359375,0,0,0.6115200000000001
3.219056903006276,0,0,1.2497732666015624,0,0,0.15288000000000002
3.2204435729945544,0,0,1.1875240234375,0,0,0.22932
3.221828854002524,0,0,1.3646949462890625,0,0,0.0
3.22321437500068,0,0,1.3862427612304686,0,0,0.68796
3.2246012300020084,0,0,1.4437036010742186,0,0,0.7644
3.225986345001729,0,0,1.2401964599609374,0,0,0.3822
3.227378404000774,0,0,1.3000515014648437,0,0,0.84084
3.228766424988862,0,0,1.2737152832031249,0,0,0.7644
3.2301512990088668,0,0,1.1827356201171875,0,0,0.91728
3.231550783995772,0,0,1.3742717529296875,0,0,0.7644
3.2329372499953024,0,0,1.39821376953125,0,0,0.53508
3.2343296420003753,0,0,1.3623007446289062,0,0,0.6115200000000001
3.235716514987871,0,0,1.1468225952148436,0,0,0.68796
3.237102759012487,0,0,1.2928688964843749,0,0,1.37592
3.238489189010579,0,0,1.0797849487304687,0,0,0.91728
3.239875266008312,0,0,1.158793603515625,0,0,1.2230400000000001
3.2412614730128553,0,0,1.0941501586914062,0,0,1.60524
3.242647123988718,0,0,1.3742717529296875,0,0,1.1465999999999998
3.2440330350073054,0,0,1.2976572998046874,0,0,0.84084
3.2454177050094586,0,0,1.5442600708007812,0,0,1.2230400000000001
3.2468243559997063,0,0,1.2210428466796874,0,0,1.1465999999999998
3.248203803988872,0,0,1.1827356201171875,0,0,0.99372
3.249585289013339,0,0,1.177947216796875,0,0,0.53508
3.250980309996521,0,0,1.3407529296874998,0,0,0.6115200000000001
3.2523589429911226,0,0,1.4963760375976562,0,0,0.22932
3.2537536319869105,0,0,1.218648645019531,0,0,0.99372
3.2551331899885554,0,0,1.6448165405273436,0,0,1.2230400000000001
3.256513822998386,0,0,1.3048399047851562,0,0,0.6115200000000001
3.2578923639957793,0,0,1.209071838378906,0,0,0.53508
3.2592708480078727,0,0,1.139639990234375,0,0,0.0
3.260650426003849,0,0,1.2234370483398436,0,0,0.3822
3.262028763012495,0,0,1.3096283081054687,0,0,0.15288000000000002
3.2634071729844436,0,0,1.467645617675781,0,0,0.6115200000000001
3.2647864169848617,0,0,1.6136919189453125,0,0,0.6115200000000001
3.266164958011359,0,0,1.1109095703125,0,0,0.45864
3.267543146008393,0,0,1.2641384765625,0,0,0.84084
3.2689277789904736,0,0,1.218648645019531,0,0,1.07016
3.270313355984399,0,0,1.120486376953125,0,0,0.84084
3.2716995629889425,0,0,1.35990654296875,0,0,0.22932
3.273084437008947,0,0,1.426944189453125,0,0,0.99372
3.274468051007716,0,0,1.2497732666015624,0,0,0.3822
3.275852054997813,0,0,1.3072341064453123,0,0,0.6115200000000001
3.2772511320072226,0,0,1.2042834350585936,0,0,1.45236
3.2786497460037936,0,0,1.197100830078125,0,0,1.07016
3.280036120006116,0,0,1.22583125,0,0,1.1465999999999998
3.2814217529958114,0,0,1.2737152832031249,0,0,0.91728
3.2828075519937556,0,0,1.465251416015625,0,0,0.53508
3.284193055005744,0,0,1.2976572998046874,0,0,0.91728
3.2855790400062688,0,0,1.3239935180664062,0,0,0.99372
3.286964747007005,0,0,1.2425906616210938,0,0,0.99372
3.2883499909949023,0,0,1.1516109985351561,0,0,0.45864
3.2897469569870736,0,0,1.1348515869140625,0,0,0.45864
3.291132182988804,0,0,1.3407529296874998,0,0,0.53508
3.2925178529985715,0,0,1.3359645263671873,0,0,0.0
3.2939035590097774,0,0,1.3359645263671873,0,0,1.1465999999999998
3.2952891000022646,0,0,1.5658078857421873,0,0,1.07016
3.296675213990966,0,0,1.2497732666015624,0,0,0.84084
3.2980606429919135,0,0,1.2330138549804688,0,0,0.7644
3.2994835170102306,0,0,1.1707646118164061,0,0,0.3822
3.3009193709876854,0,0,1.1947066284179686,0,0,0.45864
3.3023014109930955,0,0,1.3120225097656248,0,0,0.0
3.3036799329856876,0,0,1.2689268798828124,0,0,0.45864
3.3050591769861057,0,0,1.5083470458984374,0,0,0.6115200000000001
3.3064444400079083,0,0,1.4820108276367188,0,0,0.6115200000000001
3.307823184004519,0,0,1.2401964599609374,0,0,1.07016
3.3092085199896246,0,0,1.2138602416992186,0,0,0.91728
3.310587134998059,0,0,1.2234370483398436,0,0,0.91728
3.311965489992872,0,0,1.3335703247070312,0,0,0.53508
3.3133557160035707,0,0,1.4030021728515625,0,0,0.84084
3.314741273992695,0,0,1.5658078857421873,0,0,0.45864
3.316126666002674,0,0,1.5035586425781249,0,0,0.53508
3.3175133549957536,0,0,1.2617442749023438,0,0,1.37592
3.3188988770125434,0,0,1.1156979736328125,0,0,1.07016
3.320284916990204,0,0,1.2425906616210938,0,0,1.1465999999999998
3.321684919996187,0,0,1.2928688964843749,0,0,0.99372
3.323072033992503,0,0,1.419761584472656,0,0,0.91728
3.3244592229893897,0,0,1.2880804931640624,0,0,0.45864
3.3258444480015896,0,0,1.47482822265625,0,0,1.2230400000000001
3.327230007009348,0,0,1.1348515869140625,0,0,1.2230400000000001
3.328616751008667,0,0,1.139639990234375,0,0,0.99372
3.3300020509923343,0,0,1.1875240234375,0,0,0.6115200000000001
3.331388313003117,0,0,1.1061211669921875,0,0,0.53508
3.332774150010664,0,0,1.4101847778320311,0,0,0.45864
3.3341594859957695,0,0,1.2904746948242187,0,0,1.2994800000000002
3.335545470996294,0,0,1.4006079711914061,0,0,1.1465999999999998
3.336931455996819,0,0,1.1109095703125,0,0,0.45864
3.3383172739995643,0,0,1.254561669921875,0,0,0.30576000000000003
3.3397031660133507,0,0,1.3000515014648437,0,0,0.07644000000000001
3.341089761990588,0,0,1.1252747802734375,0,0,0.91728
3.3424758760083932,0,0,1.3455413330078123,0,0,0.30576000000000003
3.3438612500031013,0,0,1.3623007446289062,0,0,0.53508
3.345246993994806,0,0,1.5011644409179687,0,0,0.53508
3.346632608008804,0,0,1.2018892333984375,0,0,0.53508
3.348026758991182,0,0,1.3072341064453123,0,0,0.99372
3.3494124480057508,0,0,1.180341418457031,0,0,0.53508
3.350798172992654,0,0,1.0941501586914062,0,0,1.07016
3.352183676994173,0,0,1.3670891479492187,0,0,0.7644
3.3535695869941264,0,0,1.3024457031249999,0,0,0.91728
3.354954923997866,0,0,1.3742717529296875,0,0,0.53508
3.35634077899158,0,0,1.4820108276367188,0,0,0.84084
3.357726949005155,0,0,1.3120225097656248,0,0,1.2994800000000002
3.3591128599946387,0,0,1.1731588134765625,0,0,1.2994800000000002
3.3604991780011915,0,0,1.2521674682617188,0,0,1.07016
3.3618839400005527,0,0,1.3215993164062498,0,0,0.68796
3.3632692949904595,0,0,1.3551181396484375,0,0,0.91728
3.3646553909929935,0,0,1.35990654296875,0,0,0.68796
3.3660475790093187,0,0,1.5777788940429687,0,0,1.07016
3.3674334899988025,0,0,1.3742717529296875,0,0,1.1465999999999998
3.368819455994526,0,0,1.197100830078125,0,0,1.2994800000000002
3.370204181992449,0,0,1.0821791503906248,0,0,0.45864
3.371589518006658,0,0,1.3072341064453123,0,0,0.45864
3.372975039994344,0,0,1.407790576171875,0,0,0.15288000000000002
3.3743586729979143,0,0,1.2401964599609374,0,0,0.84084
3.375756491004722,0,0,1.6017209106445311,0,0,0.91728
3.3771855309896637,0,0,1.1444283935546875,0,0,0.6115200000000001
3.3785795889853034,0,0,1.1731588134765625,0,0,0.6115200000000001
3.380001796002034,0,0,1.3096283081054687,0,0,0.15288000000000002
3.3813893359911162,0,0,1.1228805786132812,0,0,0.68796
3.3827761909924448,0,0,1.3646949462890625,0,0,0.22932
3.3841628980007954,0,0,1.3072341064453123,0,0,0.3822
3.3856130490021314,0,0,1.659181750488281,0,0,0.6115200000000001
3.387032385013299,0,0,1.3527239379882812,0,0,0.68796
3.3884235550067388,0,0,1.209071838378906,0,0,0.7644
3.389811336004641,0,0,1.218648645019531,0,0,0.68796
3.3911973210051656,0,0,0.967257470703125,0,0,0.53508
3.392583767999895,0,0,1.3383587280273437,0,0,0.45864
3.3939694199943915,0,0,1.4245499877929686,0,0,0.53508
3.3953556639899034,0,0,1.2665326782226562,0,0,0.22932
3.3967415929946583,0,0,1.35990654296875,0,0,0.68796
3.398126929998398,0,0,1.3742717529296875,0,0,0.91728
3.399512728996342,0,0,1.3000515014648437,0,0,1.2230400000000001
3.4008998060016893,0,0,1.2330138549804688,0,0,0.68796
3.4022885499871336,0,0,1.2928688964843749,0,0,0.91728
3.4036747019854374,0,0,1.3766659545898436,0,0,0.99372
3.405061000987189,0,0,1.3455413330078123,0,0,0.6115200000000001
3.4064683559990954,0,0,1.2737152832031249,0,0,0.7644
3.4078546930104494,0,0,1.2018892333984375,0,0,1.07016
3.4092475849902257,0,0,1.1875240234375,0,0,0.84084
3.4106343099847436,0,0,1.1707646118164061,0,0,0.15288000000000002
3.412019868992502,0,0,1.3479355346679687,0,0,1.2994800000000002
3.4134065579855815,0,0,1.37906015625,0,0,0.91728
3.4147922649863176,0,0,1.2641384765625,0,0,0.91728
3.4161779709975235,0,0,1.599326708984375,0,0,1.45236
3.4175644379865844,0,0,1.2210428466796874,0,0,0.84084
3.4189499969943427,0,0,1.3575123413085937,0,0,0.68796
3.4203356289945077,0,0,1.1516109985351561,0,0,0.22932
3.4217220220016316,0,0,1.22583125,0,0,0.6115200000000001
3.4231094690039754,0,0,1.3287819213867187,0,0,0.22932
3.424495990999276,0,0,1.3287819213867187,0,0,0.68796
3.425881939008832,0,0,1.4987702392578124,0,0,0.53508
3.427267385995947,0,0,1.2976572998046874,0,0,0.6115200000000001
3.4286568709940184,0,0,1.3096283081054687,0,0,0.53508
3.4300424109969754,0,0,1.0917559570312498,0,0,0.68796
3.431428081006743,0,0,1.2785036865234374,0,0,0.15288000000000002
3.4328152330126613,0,0,1.388636962890625,0,0,0.0
3.4341995689901523,0,0,1.5155296508789062,0,0,0.68796
3.435584832011955,0,0,1.5059528442382812,0,0,0.68796
3.4369704280106816,0,0,1.5298948608398437,0,0,0.7644
3.4383574679959565,0,0,1.2521674682617188,0,0,1.2230400000000001
3.4397433970007114,0,0,1.180341418457031,0,0,1.1465999999999998
3.441129288985394,0,0,1.1755530151367186,0,0,0.91728
3.4425149410089944,0,0,1.3814543579101561,0,0,1.1465999999999998
3.4439002590079326,0,0,1.426944189453125,0,0,0.91728
3.445285113994032,0,0,1.3239935180664062,0,0,0.91728
3.446691932011163,0,0,1.3287819213867187,0,0,0.84084
3.448074063984677,0,0,1.0965443603515623,0,0,1.2230400000000001
3.449455216003116,0,0,1.2138602416992186,0,0,0.53508
3.4508521819952875,0,0,1.2401964599609374,0,0,0.45864
3.452231351984665,0,0,1.3575123413085937,0,0,0.7644
3.453713113005506,0,0,1.4317325927734375,0,0,0.6115200000000001
3.455092505988432,0,0,1.2952630981445312,0,0,0.84084
3.4564892310008872,0,0,1.3958195678710936,0,0,1.37592
3.4578680680133402,0,0,1.1228805786132812,0,0,0.6115200000000001
3.4592464409943204,0,0,1.3455413330078123,0,0,0.53508
3.460626593005145,0,0,1.1420341918945311,0,0,0.30576000000000003
3.462005206994945,0,0,1.2210428466796874,0,0,0.68796
3.4633832660038024,0,0,1.3958195678710936,0,0,0.45864
3.4647707880067173,0,0,1.2832920898437499,0,0,0.22932
3.466149217012571,0,0,1.5035586425781249,0,0,0.91728
3.467527645989321,0,0,1.20667763671875,0,0,0.84084
3.4689239829895087,0,0,1.4101847778320311,0,0,0.99372
3.470310356991831,0,0,1.1923124267578125,0,0,0.53508
3.4716962119855452,0,0,1.1755530151367186,0,0,0.68796
3.4730814000067767,0,0,1.3718775512695311,0,0,0.15288000000000002
3.4744655700051226,0,0,1.3862427612304686,0,0,0.68796
3.4758492030086927,0,0,1.4053963745117186,0,0,0.53508
3.477249021001626,0,0,1.5849614990234373,0,0,0.45864
3.478635209001368,0,0,1.2521674682617188,0,0,1.07016
3.480020971997874,0,0,1.199495031738281,0,0,0.91728
3.481407548999414,0,0,1.0893617553710937,0,0,1.2230400000000001
3.4827931449981406,0,0,1.2856862915039062,0,0,0.84084
3.4841790559876245,0,0,1.4724340209960938,0,0,1.07016
3.4855652439873666,0,0,1.3527239379882812,0,0,1.07016
3.4869506180111784,0,0,1.6208745239257811,0,0,0.6115200000000001
3.4883365469868295,0,0,1.2114660400390624,0,0,1.1465999999999998
3.4897231979994103,0,0,1.1420341918945311,0,0,0.6115200000000001
3.4911090529931244,0,0,1.3168109130859373,0,0,0.84084
3.492495668004267,0,0,1.1324573852539062,0,0,1.1465999999999998
3.4938814119959716,0,0,1.3742717529296875,0,0,0.7644
3.4952677479886916,0,0,1.3215993164062498,0,0,1.07016
3.4966623070067726,0,0,1.6112977172851561,0,0,0.84084
3.4980478470097296,0,0,1.2785036865234374,0,0,0.84084
3.4994340729899704,0,0,1.158793603515625,0,0,0.15288000000000002
3.500820465007564,0,0,1.0941501586914062,0,0,0.45864
3.502205505006714,0,0,1.0821791503906248,0,0,0.53508
3.5035912680032197,0,0,1.3239935180664062,0,0,0.0
3.504977141012205,0,0,1.3024457031249999,0,0,0.30576000000000003
3.5063626629998907,0,0,1.5897499023437498,0,0,0.7644
3.5077484440116677,0,0,1.2234370483398436,0,0,0.53508
3.5091346509871073,0,0,1.3407529296874998,0,0,0.45864
3.510520468989853,0,0,1.2928688964843749,0,0,0.7644
3.5119064539903775,0,0,1.139639990234375,0,0,0.68796
3.513292290008394,0,0,1.3359645263671873,0,0,0.0
3.51467757098726,0,0,1.3958195678710936,0,0,0.7644
3.5160635380016174,0,0,1.2114660400390624,0,0,0.91728
3.517449114995543,0,0,1.2832920898437499,0,0,0.68796
3.518834674003301,0,0,1.2378022583007813,0,0,0.91728
3.5202203250082675,0,0,1.2306196533203124,0,0,1.07016
3.521606364985928,0,0,1.0917559570312498,0,0,1.1465999999999998
3.5229996280104388,0,0,1.3718775512695311,0,0,1.07016
3.524387187004322,0,0,1.3479355346679687,0,0,0.99372
