Time,AccelX1,AccelY1,AccelZ1,AccelX2,AccelY2,AccelZ2
5.074020009487867e-06,0,0,1.1755530151367186,0,0,1.1465999999999998
0.0032490090234205127,0,0,1.3024457031249999,0,0,0.91728
0.006523295014631003,0,0,1.2904746948242187,0,0,0.84084
0.010217038012342528,0,0,1.1109095703125,0,0,0.84084
0.01333171600708738,0,0,1.1085153686523437,0,0,0.91728
0.016434449004009366,0,0,1.2378022583007813,0,0,0.68796
0.019537275016773492,0,0,1.5179238525390624,0,0,0.84084
0.02308402000926435,0,0,1.2976572998046874,0,0,0.7644
0.026361158001236618,0,0,1.0797849487304687,0,0,0.45864
0.029514852998545393,0,0,1.2689268798828124,0,0,0.53508
0.032678308023605496,0,0,1.197100830078125,0,0,0.99372
0.0358015040110331,0,0,1.350329736328125,0,0,0.7644
0.03892142200493254,0,0,1.2306196533203124,0,0,0.99372
0.04204032101552002,0,0,1.0869675537109373,0,0,0.53508
0.04516133200377226,0,0,1.3096283081054687,0,0,0.6115200000000001
0.0482773240073584,0,0,1.5107412475585937,0,0,0.91728
0.05139531701570377,0,0,1.3862427612304686,0,0,0.68796
0.054518290009582415,0,0,1.2904746948242187,0,0,0.91728
0.0576366710010916,0,0,1.3144167114257812,0,0,0.0
0.06078551500104368,0,0,1.3958195678710936,0,0,0.7644
0.0639035630156286,0,0,1.1731588134765625,0,0,0.6115200000000001
0.0670052960049361,0,0,1.2832920898437499,0,0,0.68796
0.07013225101400167,0,0,1.3000515014648437,0,0,0.91728
0.07337457500398159,0,0,1.4987702392578124,0,0,1.07016
0.07684463600162417,0,0,1.20667763671875,0,0,0.68796
0.08000472001731396,0,0,1.446097802734375,0,0,0.91728
0.08316463802475482,0,0,1.24498486328125,0,0,0.68796
0.08632144401781261,0,0,1.235408056640625,0,0,0.6115200000000001
0.08949504702468403,0,0,1.22583125,0,0,0.68796
0.09282533201621845,0,0,1.24498486328125,0,0,0.84084
0.09563097701175138,0,0,1.3287819213867187,0,0,0.53508
0.09818990301573649,0,0,1.177947216796875,0,0,0.91728
0.1007585330225993,0,0,1.2880804931640624,0,0,0.45864
0.10328801500145346,0,0,1.5083470458984374,0,0,0.53508
0.1058317560236901,0,0,1.254561669921875,0,0,0.99372
0.10837475702282973,0,0,1.2425906616210938,0,0,0.6115200000000001
0.11090529401553795,0,0,1.2425906616210938,0,0,0.99372
0.11344618402654305,0,0,1.4796166259765624,0,0,0.7644
0.11598911002511159,0,0,1.3527239379882812,0,0,0.7644
0.11853142600739375,0,0,1.1133037719726562,0,0,0.84084
0.12107955600367859,0,0,1.2904746948242187,0,0,1.07016
0.12362312999903224,0,0,1.2952630981445312,0,0,0.53508
0.1261686120124068,0,0,1.4772224243164063,0,0,0.6115200000000001
0.1287809630157426,0,0,1.2138602416992186,0,0,0.45864
0.13132811200921424,0,0,1.3383587280273437,0,0,0.3822
0.13387266802601516,0,0,1.5610194824218748,0,0,0.7644
0.13641592802014202,0,0,1.2473790649414063,0,0,0.84084
0.1389593910134863,0,0,1.2641384765625,0,0,0.6115200000000001
0.14152426199871115,0,0,1.3766659545898436,0,0,0.45864
0.14406815101392567,0,0,1.3623007446289062,0,0,0.45864
0.14661124401027337,0,0,1.35990654296875,0,0,0.6115200000000001
0.14914961502654478,0,0,1.0893617553710937,0,0,1.1465999999999998
0.15167483800905757,0,0,1.2880804931640624,0,0,0.68796
0.1542305980110541,0,0,1.3239935180664062,0,0,0.6115200000000001
0.15677722802502103,0,0,1.3623007446289062,0,0,1.07016
0.15931811701739207,0,0,1.2928688964843749,0,0,0.53508
0.16185989501536824,0,0,1.3431471313476562,0,0,0.7644
0.16439939601696096,0,0,1.2976572998046874,0,0,0.99372
0.1669409520109184,0,0,1.426944189453125,0,0,0.84084
0.1695048969995696,0,0,1.4413093994140624,0,0,0.53508
0.1720454340102151,0,0,1.3072341064453123,0,0,0.68796
0.17465102599817328,0,0,1.3551181396484375,0,0,0.99372
0.1771946380031295,0,0,1.5131354492187499,0,0,1.911
0.1797346009989269,0,0,1.4772224243164063,0,0,0.6115200000000001
0.18227513899910264,0,0,1.2234370483398436,0,0,0.7644
0.18484195400378667,0,0,1.2042834350585936,0,0,0.7644
0.18738230600138195,0,0,1.2282254516601563,0,0,0.6115200000000001
0.18992475100094453,0,0,1.4006079711914061,0,0,0.7644
0.1925461390055716,0,0,1.0726023437499999,0,0,0.68796
0.19556437400751747,0,0,1.3024457031249999,0,0,0.68796
0.19872664302238263,0,0,1.4437036010742186,0,0,1.07016
0.2019079489982687,0,0,1.2976572998046874,0,0,0.91728
0.20503560799988918,0,0,1.2880804931640624,0,0,0.7644
0.20815560000482947,0,0,1.2761094848632812,0,0,0.53508
0.2112773890257813,0,0,1.2832920898437499,0,0,0.91728
0.21439332500449382,0,0,1.2593500732421874,0,0,0.91728
0.21750698401592672,0,0,1.2880804931640624,0,0,0.91728
0.22067086500464939,0,0,1.3144167114257812,0,0,0.91728
0.22379437502240762,0,0,1.2018892333984375,0,0,0.7644
0.2270033110107761,0,0,1.1348515869140625,0,0,0.68796
0.23017752400483005,0,0,1.3263877197265623,0,0,0.30576000000000003
0.233293572004186,0,0,1.5011644409179687,0,0,0.68796
0.23640876801800914,0,0,1.2665326782226562,0,0,0.45864
0.23952457500854507,0,0,1.3718775512695311,0,0,0.68796
0.24263890102156438,0,0,1.3263877197265623,0,0,0.84084
0.2458268360060174,0,0,1.1085153686523437,0,0,0.53508
0.24894581001717597,0,0,1.235408056640625,0,0,0.91728
0.252058117010165,0,0,1.5155296508789062,0,0,0.84084
0.2551760720089078,0,0,1.4532804077148436,0,0,1.07016
0.25829050902393647,0,0,1.2569558715820313,0,0,0.6115200000000001
0.2614060380146839,0,0,1.1156979736328125,0,0,0.91728
0.2645185860164929,0,0,1.2282254516601563,0,0,0.68796
0.26784192700870335,0,0,1.3766659545898436,0,0,0.45864
0.27102715900400653,0,0,1.2425906616210938,0,0,0.68796
0.27414846600731835,0,0,1.2473790649414063,0,0,0.84084
0.2772660330228973,0,0,1.2928688964843749,0,0,0.7644
0.28042456100229174,0,0,1.2832920898437499,0,0,0.91728
0.283586183009902,0,0,1.4245499877929686,0,0,0.68796
0.2866989160247613,0,0,1.4030021728515625,0,0,0.68796
0.28981661100988276,0,0,1.197100830078125,0,0,0.30576000000000003
0.2929726220027078,0,0,1.2378022583007813,0,0,-9.40212
0.2961226320185233,0,0,1.3670891479492187,0,0,0.68796
0.29924014300922863,0,0,1.1372457885742187,0,0,0.7644
0.3023549500212539,0,0,1.0773907470703123,0,0,0.84084
0.3059476390189957,0,0,1.4245499877929686,0,0,1.07016
0.3094556440191809,0,0,1.2785036865234374,0,0,0.45864
0.3125783770228736,0,0,1.3000515014648437,0,0,0.68796
0.3156939990003593,0,0,1.3144167114257812,0,0,0.6115200000000001
0.3188101210107561,0,0,1.3814543579101561,0,0,0.6115200000000001
0.32192631700308993,0,0,1.2042834350585936,0,0,0.53508
0.3251009189989418,0,0,1.16837041015625,0,0,0.3822
0.32824309600982815,0,0,1.3383587280273437,0,0,0.6115200000000001
0.33136129201739095,0,0,1.2234370483398436,0,0,0.7644
0.33447574701858684,0,0,1.2880804931640624,0,0,0.84084
0.33759066500351764,0,0,1.5059528442382812,0,0,0.99372
0.34070651000365615,0,0,1.2282254516601563,0,0,0.91728
0.3438192240137141,0,0,1.2330138549804688,0,0,0.68796
0.34693277202313766,0,0,1.2880804931640624,0,0,0.91728
0.3500465050165076,0,0,1.3311761230468748,0,0,0.84084
0.35316049700486474,0,0,1.3551181396484375,0,0,0.7644
0.3562710450205486,0,0,1.2330138549804688,0,0,1.1465999999999998
0.3593845560098998,0,0,1.5275006591796874,0,0,0.91728
0.36249782601953484,0,0,1.1707646118164061,0,0,0.99372
0.365613096015295,0,0,1.149216796875,0,0,-9.172799999999999
0.3687300140154548,0,0,1.426944189453125,0,0,0.6115200000000001
0.3718437100178562,0,0,1.4939818359375,0,0,0.45864
0.37505573802627623,0,0,1.2306196533203124,0,0,-9.32568
0.3781742300197948,0,0,1.3670891479492187,0,0,0.53508
0.38129101900267415,0,0,1.446097802734375,0,0,0.91728
0.38440545499906875,0,0,1.3646949462890625,0,0,0.45864
0.38752857700455934,0,0,1.2617442749023438,0,0,0.84084
0.3906403470027726,0,0,1.419761584472656,0,0,0.6115200000000001
0.3937909870001022,0,0,1.4149731811523436,0,0,0.99372
0.3969363120268099,0,0,1.2521674682617188,0,0,0.6115200000000001
0.4000505820149556,0,0,1.3742717529296875,0,0,0.3822
0.40316374102258123,0,0,1.3096283081054687,0,0,0.99372
0.4065608590026386,0,0,1.2785036865234374,0,0,0.7644
0.40988951502367854,0,0,1.2569558715820313,0,0,0.45864
0.4130083220079541,0,0,1.3958195678710936,0,0,1.07016
0.41612388801877387,0,0,1.350329736328125,0,0,0.68796
0.41930960200261325,0,0,1.3407529296874998,0,0,0.53508
0.4224238349997904,0,0,1.407790576171875,0,0,0.84084
0.42557203001342714,0,0,1.3024457031249999,0,0,0.7644
0.4287837250158191,0,0,1.2952630981445312,0,0,0.6115200000000001
0.4319011620245874,0,0,1.2617442749023438,0,0,0.68796
0.43501570902299136,0,0,1.3431471313476562,0,0,0.91728
0.43813201601733454,0,0,1.1827356201171875,0,0,0.68796
0.4412473610136658,0,0,1.2904746948242187,0,0,0.91728
0.4450610470084939,0,0,1.4101847778320311,0,0,0.91728
0.44827263001934625,0,0,1.350329736328125,0,0,0.7644
0.4514008440019097,0,0,1.2521674682617188,0,0,0.6115200000000001
0.45455179901910014,0,0,1.4915876342773438,0,0,0.6115200000000001
0.4576734020083677,0,0,1.3958195678710936,0,0,0.68796
0.46080528301536106,0,0,1.1923124267578125,0,0,0.91728
0.46392290500807576,0,0,1.1516109985351561,0,0,0.22932
0.4670399900060147,0,0,1.3718775512695311,0,0,0.68796
0.47015692602144554,0,0,1.2210428466796874,0,0,0.6115200000000001
0.4732755110017024,0,0,1.3144167114257812,0,0,0.6115200000000001
0.4763910590263549,0,0,1.43652099609375,0,0,1.07016
0.47950981100439094,0,0,1.3311761230468748,0,0,0.68796
0.4826265990268439,0,0,1.2617442749023438,0,0,0.91728
0.48574348000693135,0,0,1.2785036865234374,0,0,0.7644
0.48886000900529325,0,0,1.2330138549804688,0,0,0.6115200000000001
0.49197687199921347,0,0,1.2593500732421874,0,0,0.45864
0.4951298820087686,0,0,1.3000515014648437,0,0,0.91728
0.4982456150173675,0,0,1.388636962890625,0,0,0.99372
0.5013778670108877,0,0,1.2473790649414063,0,0,0.7644
0.5135910240060184,0,0,1.3383587280273437,0,0,0.68796
0.5168606260267552,0,0,1.3072341064453123,0,0,0.84084
0.5199746360012796,0,0,1.4820108276367188,0,0,0.91728
0.5230763140134513,0,0,1.2856862915039062,0,0,0.68796
0.5261878060118761,0,0,1.2785036865234374,0,0,2.14032
0.5294330560136586,0,0,1.5035586425781249,0,0,0.53508
0.5325431960227434,0,0,1.4125789794921875,0,0,0.53508
0.5356727630132809,0,0,1.1659762084960936,0,0,0.99372
0.5388274209981319,0,0,1.2401964599609374,0,0,0.45864
0.541931765008485,0,0,1.3311761230468748,0,0,0.84084
0.5450336650246754,0,0,1.22583125,0,0,0.84084
0.5481289540184662,0,0,1.235408056640625,0,0,0.84084
0.5512284280266613,0,0,1.5107412475585937,0,0,0.53508
0.5543282720027491,0,0,1.3096283081054687,0,0,0.68796
0.5574295060068835,0,0,1.199495031738281,0,0,0.7644
0.5605243309983052,0,0,1.3742717529296875,0,0,0.68796
0.5636471570178401,0,0,1.3287819213867187,0,0,0.7644
0.5667520750139374,0,0,1.1133037719726562,0,0,0.68796
0.5699110670248047,0,0,1.2952630981445312,0,0,1.1465999999999998
0.5730347630160395,0,0,1.4772224243164063,0,0,0.91728
0.5761514400073793,0,0,1.2401964599609374,0,0,0.91728
0.5792790620180313,0,0,1.2617442749023438,0,0,0.6115200000000001
0.5826033850025851,0,0,1.3192051147460937,0,0,0.68796
0.5859038190101273,0,0,1.4053963745117186,0,0,0.68796
0.5890381440112833,0,0,1.3407529296874998,0,0,0.53508
0.5921510250191204,0,0,1.2689268798828124,0,0,0.6115200000000001
0.5953662200190593,0,0,1.2665326782226562,0,0,0.91728
0.5982118080137298,0,0,1.209071838378906,0,0,0.99372
0.6010105640161783,0,0,1.2306196533203124,0,0,0.7644
0.6038058210106101,0,0,1.3144167114257812,0,0,0.6115200000000001
0.6066134100256022,0,0,1.3838485595703125,0,0,0.91728
0.6094182580127381,0,0,1.3383587280273437,0,0,0.45864
0.6122189400193747,0,0,1.2832920898437499,0,0,0.84084
0.616240290022688,0,0,1.3000515014648437,0,0,0.6115200000000001
0.6191254340228625,0,0,1.180341418457031,0,0,0.68796
0.6219325420097448,0,0,1.3168109130859373,0,0,0.6115200000000001
0.6247889450169168,0,0,1.22583125,0,0,0.53508
0.6275893860147335,0,0,1.2904746948242187,0,0,0.91728
0.6303854940051679,0,0,1.3670891479492187,0,0,0.84084
0.633205676014768,0,0,1.235408056640625,0,0,0.53508
0.6359968949982431,0,0,1.2713210815429687,0,0,0.91728
0.6387870030011982,0,0,1.2497732666015624,0,0,0.91728
0.641610759019386,0,0,1.2569558715820313,0,0,0.99372
0.6444016820169054,0,0,1.2210428466796874,0,0,0.7644
0.6471950859995559,0,0,1.4939818359375,0,0,0.84084
0.649985750002088,0,0,1.24498486328125,0,0,0.68796
0.6527944130066317,0,0,1.120486376953125,0,0,0.84084
0.6555849280266557,0,0,1.0965443603515623,0,0,0.99372
0.6583766850235406,0,0,1.4700398193359374,0,0,0.7644
0.6611663850198966,0,0,1.2665326782226562,0,0,0.84084
0.663952679024078,0,0,1.2856862915039062,0,0,0.84084
0.6667425270134117,0,0,1.2808978881835937,0,0,0.91728
0.6695351720263716,0,0,1.4173673828125,0,0,0.84084
0.6723209470219444,0,0,1.235408056640625,0,0,0.7644
0.6751227030181326,0,0,1.2689268798828124,0,0,0.53508
0.6781310299993493,0,0,1.3551181396484375,0,0,0.45864
0.6809333420242183,0,0,1.2330138549804688,0,0,0.7644
0.6837235240091104,0,0,1.2282254516601563,0,0,0.84084
0.6865152990212664,0,0,1.254561669921875,0,0,0.6115200000000001
0.6893081290181726,0,0,1.2904746948242187,0,0,0.6115200000000001
0.6921251630119514,0,0,1.3527239379882812,0,0,0.7644
0.6950339730246924,0,0,1.1827356201171875,0,0,0.7644
0.6981380020151846,0,0,1.2282254516601563,0,0,0.84084
0.7012719390040729,0,0,1.2808978881835937,0,0,0.91728
0.7043604500067886,0,0,1.43652099609375,0,0,0.99372
0.7074718119984027,0,0,1.13006318359375,0,0,0.84084
0.710584620013833,0,0,1.2689268798828124,0,0,0.99372
0.7136913530121092,0,0,1.180341418457031,0,0,0.84084
0.7167980860103853,0,0,1.0821791503906248,0,0,0.68796
0.7199038930120878,0,0,1.2832920898437499,0,0,0.22932
0.7230562370095868,0,0,1.2330138549804688,0,0,0.84084
0.7261655809998047,0,0,1.3335703247070312,0,0,0.91728
0.729282776999753,0,0,1.2856862915039062,0,0,0.68796
0.7323881030024495,0,0,1.3000515014648437,0,0,0.91728
0.7354958729993086,0,0,1.2832920898437499,0,0,0.53508
0.7386014950170647,0,0,1.2617442749023438,0,0,0.68796
0.7417107280052733,0,0,1.3096283081054687,0,0,0.45864
0.7448141089989804,0,0,1.446097802734375,0,0,0.68796
0.747919768007705,0,0,1.197100830078125,0,0,0.68796
0.7510411680268589,0,0,1.2425906616210938,0,0,0.0
0.7541661790164653,0,0,1.5035586425781249,0,0,0.91728
0.7572756150038913,0,0,1.458068811035156,0,0,0.6115200000000001
0.7603781630168669,0,0,1.2689268798828124,0,0,0.6115200000000001
0.7634862480044831,0,0,1.3431471313476562,0,0,0.53508
0.7673547110171057,0,0,1.3144167114257812,0,0,0.68796
0.7705039620050229,0,0,1.2689268798828124,0,0,0.7644
0.7736124730145093,0,0,1.2282254516601563,0,0,0.91728
0.7767184100230224,0,0,1.4700398193359374,0,0,0.7644
0.7798246800084598,0,0,1.37906015625,0,0,0.7644
0.7829352469998412,0,0,1.3287819213867187,0,0,0.45864
0.7860911270254292,0,0,1.3838485595703125,0,0,0.6115200000000001
0.7891986010072287,0,0,1.4700398193359374,0,0,0.3822
0.7923021310125478,0,0,1.3575123413085937,0,0,0.7644
0.7954492710123304,0,0,1.3479355346679687,0,0,0.6115200000000001
0.7985552810132504,0,0,1.2880804931640624,0,0,0.6115200000000001
0.8016620890120976,0,0,1.1061211669921875,0,0,0.53508
0.8048060620203614,0,0,1.2617442749023438,0,0,0.6115200000000001
0.8079234430042561,0,0,1.4341267944335936,0,0,0.6115200000000001
0.8110344170127064,0,0,1.4700398193359374,0,0,0.6115200000000001
0.814139113004785,0,0,1.2880804931640624,0,0,1.07016
0.8172458280168939,0,0,1.0989385620117187,0,0,0.53508
0.8203493940236513,0,0,1.254561669921875,0,0,0.7644
0.8234564240265172,0,0,1.2234370483398436,0,0,0.68796
0.8265636569994967,0,0,1.0773907470703123,0,0,0.7644
0.8296716490003746,0,0,1.2473790649414063,0,0,0.91728
0.8328106230183039,0,0,1.2210428466796874,0,0,0.91728
0.835916559008183,0,0,1.2904746948242187,0,0,0.53508
0.8390254590194672,0,0,1.2569558715820313,0,0,0.91728
0.8421310810081195,0,0,1.5203180541992187,0,0,0.84084
0.8452390920137987,0,0,1.35990654296875,0,0,0.53508
0.8483425849990454,0,0,1.3359645263671873,0,0,1.2994800000000002
0.8514531880209688,0,0,1.438915197753906,0,0,0.7644
0.8545592360023875,0,0,1.4245499877929686,0,0,1.1465999999999998
0.8576680990227032,0,0,1.3215993164062498,0,0,0.53508
0.8607960720255505,0,0,1.4006079711914061,0,0,0.84084
0.8639009350154083,0,0,1.4341267944335936,0,0,0.53508
0.8670094460248947,0,0,1.2593500732421874,0,0,0.7644
0.870115309022367,0,0,1.2737152832031249,0,0,0.99372
0.8732222460093908,0,0,1.3359645263671873,0,0,1.2994800000000002
0.8763260340201668,0,0,1.4604630126953124,0,0,1.75812
0.8795619320007972,0,0,2.070984436035156,0,0,1.68168
0.8828074040065985,0,0,2.6048914062499997,0,0,1.37592
0.8860998200252652,0,0,2.4492682983398435,0,0,0.6115200000000001
0.889219608012354,0,0,1.3072341064453123,0,0,1.98744
0.8923260450246744,0,0,1.4891934326171874,0,0,1.2994800000000002
0.8954655929992441,0,0,1.6831237670898436,0,0,1.83456
0.8985796220076736,0,0,1.8770541015625,0,0,1.45236
0.9016897810215596,0,0,2.2385785522460937,0,0,1.68168
0.9047981440089643,0,0,1.7405846069335937,0,0,1.45236
0.9079029880231246,0,0,1.9129671264648436,0,0,1.07016
0.9110090540198144,0,0,1.66636435546875,0,0,0.91728
0.9141140470164828,0,0,1.687912170410156,0,0,1.37592
0.9172211500117555,0,0,1.9201497314453124,0,0,0.91728
0.9211823900113814,0,0,1.6112977172851561,0,0,1.2230400000000001
0.9243098630104214,0,0,2.24097275390625,0,0,1.2994800000000002
0.9274207820126321,0,0,1.7238251953125,0,0,0.53508
0.9305267180025112,0,0,1.4317325927734375,0,0,0.68796
0.9336352850077674,0,0,1.7477672119140624,0,0,1.2230400000000001
0.9367868140107021,0,0,1.8267758666992187,0,0,1.45236
0.9398940649989527,0,0,2.003946789550781,0,0,1.37592
0.9429989470227156,0,0,2.549824768066406,0,0,1.2230400000000001
0.9461403090099338,0,0,1.9823989746093749,0,0,1.5288
0.9494449839985464,0,0,2.1308394775390624,0,0,0.7644
0.9525681790255476,0,0,1.3910311645507811,0,0,0.3822
0.9556754680234008,0,0,1.3527239379882812,0,0,3.7455600000000002
0.9588147010072134,0,0,2.300827795410156,0,0,1.98744
0.9619743410148658,0,0,1.848323681640625,0,0,1.07016
0.9650869440229144,0,0,1.7334020019531249,0,0,1.5288
0.968194418004714,0,0,2.3774422485351563,0,0,1.2994800000000002
0.9713024100055918,0,0,1.1707646118164061,0,0,0.15288000000000002
0.9744280880258884,0,0,1.7262193969726563,0,0,1.75812
0.9775396170152817,0,0,2.147598889160156,0,0,1.2230400000000001
0.9806881090044044,0,0,1.5370774658203123,0,0,1.2230400000000001
0.983802545000799,0,0,2.319981408691406,0,0,1.1465999999999998
0.9869115379988216,0,0,0.7230489013671875,0,0,0.84084
0.9900090120208915,0,0,1.7022773803710936,0,0,1.98744
0.993109152012039,0,0,1.848323681640625,0,0,1.98744
0.9963119400199503,0,0,1.7453730102539062,0,0,1.60524
0.9992604160215706,0,0,1.8315642700195311,0,0,1.45236
1.0021013200166635,0,0,1.2401964599609374,0,0,2.2931999999999997
1.0049943710037041,0,0,1.5059528442382812,0,0,2.75184
1.0079509020142723,0,0,1.8555062866210936,0,0,2.14032
1.0108521940128412,0,0,1.3192051147460937,0,0,1.2230400000000001
1.013797596009681,0,0,1.5466542724609373,0,0,2.14032
1.0167025910050143,0,0,1.3742717529296875,0,0,1.98744
1.0196142159984447,0,0,1.4125789794921875,0,0,0.45864
1.0225244340253994,0,0,1.637633935546875,0,0,1.07016
1.0253886150021572,0,0,2.5067291381835934,0,0,1.68168
1.0282429070211947,0,0,2.0638018310546875,0,0,0.15288000000000002
1.031099644023925,0,0,1.7884686401367187,0,0,2.06388
1.0342998749983963,0,0,2.1164742675781247,0,0,3.7455600000000002
1.0371197050262708,0,0,1.908178723144531,0,0,1.37592
1.0399200720130466,0,0,0.5626373901367188,0,0,-0.99372
1.0427263650053646,0,0,1.7357962036132812,0,0,0.84084
1.0455302699992899,0,0,3.5889082885742187,0,0,3.36336
1.0483559510030318,0,0,1.6017209106445311,0,0,-9.784320000000001
1.05117757699918,0,0,-0.201112939453125,0,0,-0.99372
1.0540250180056319,0,0,3.4069489624023435,0,0,3.51624
1.0569006060250103,0,0,2.511517541503906,0,0,0.99372
1.0597099920269102,0,0,-0.2154781494140625,0,0,8.867040000000001
1.0625201550137717,0,0,4.053383410644531,0,0,2.90472
1.0654080770036671,0,0,3.7517140014648436,0,0,0.68796
1.068291016999865,0,0,-0.36631285400390623,0,0,-0.68796
1.0711939190223347,0,0,2.1116858642578125,0,0,0.91728
1.0741280810034368,0,0,1.6927005737304686,0,0,0.91728
1.0770240390265826,0,0,-1.0007762939453124,0,0,0.07644000000000001
1.0813372740230989,0,0,2.9089550170898435,0,0,1.2230400000000001
1.0842443430155981,0,0,0.44532150878906246,0,0,0.22932
1.0871453380095772,0,0,2.0877438476562498,0,0,1.5288
1.0900872590136714,0,0,2.901772412109375,0,0,0.7644
1.0932748240011279,0,0,-1.0726023437499999,0,0,0.0
1.0962670959997922,0,0,2.27927998046875,0,0,2.06388
1.0988962990231812,0,0,1.62805712890625,0,0,1.07016
1.1003791850234848,0,0,0.4285620971679687,0,0,-0.15288000000000002
1.1018359790032264,0,0,-0.4429273071289062,0,0,0.07644000000000001
1.1033190690213814,0,0,1.388636962890625,0,0,0.91728
1.104784789000405,0,0,3.057395520019531,0,0,1.2994800000000002
1.106171028019162,0,0,2.906560815429687,0,0,1.07016
1.1075521930179093,0,0,0.4261678955078125,0,0,0.91728
1.108936247008387,0,0,-0.7254431030273437,0,0,-1.1465999999999998
1.1103194870229345,0,0,-0.3327940307617187,0,0,0.22932
1.1117006890126504,0,0,1.697488977050781,0,0,1.1465999999999998
1.1130806319997646,0,0,2.437297290039062,0,0,1.2230400000000001
1.1144607239984907,0,0,1.4173673828125,0,0,1.1465999999999998
1.115840130019933,0,0,0.41419688720703124,0,0,1.37592
1.1172245730122086,0,0,-0.1149216796875,0,0,0.0
1.1186047939991113,0,0,2.0973206542968748,0,0,0.6115200000000001
1.1199847740062978,0,0,2.6240450195312497,0,0,1.911
1.1213717909995466,0,0,3.0071172851562498,0,0,1.83456
1.122751753020566,0,0,1.4963760375976562,0,0,20
1.1241317880048882,0,0,0.3711012573242187,0,0,0.0
1.1255327310063876,0,0,0.1580173095703125,0,0,-0.30576000000000003
1.1269155080080964,0,0,1.8722656982421875,0,0,0.22932
1.1282953030022327,0,0,2.2074539306640624,0,0,1.37592
1.1296768379979767,0,0,2.094926452636719,0,0,0.99372
1.1310567629989237,0,0,0.9457096557617187,0,0,0.22932
1.1324357060075272,0,0,-0.5219359619140624,0,0,-0.7644
1.1338189450034406,0,0,-0.0909796630859375,0,0,0.53508
1.1351985369983595,0,0,1.6807295654296874,0,0,0.84084
1.1365776090242434,0,0,2.5067291381835934,0,0,1.5288
1.137958367005922,0,0,2.1739351074218747,0,0,1.911
1.1393373290193267,0,0,1.659181750488281,0,0,1.98744
1.1407172350154724,0,0,0.10295067138671875,0,0,-0.68796
1.1420967710146215,0,0,0.23702596435546874,0,0,0.0
1.1434766029997263,0,0,2.4253262817382812,0,0,1.1465999999999998
1.1448568240157329,0,0,3.0238766967773434,0,0,1.68168
1.146236360014882,0,0,2.7174188842773437,0,0,1.2994800000000002
1.147615099005634,0,0,0.40462008056640625,0,0,1.75812
1.1489949310198426,0,0,-0.8212111694335937,0,0,-0.7644
1.1503753930155654,0,0,-0.7541735229492187,0,0,-0.22932
1.1517556510225404,0,0,1.3958195678710936,0,0,0.7644
1.1531418710073922,0,0,2.221819140625,0,0,1.07016
1.1545282959996257,0,0,1.7357962036132812,0,0,1.2230400000000001
1.1559148320229724,0,0,0.9552864624023437,0,0,1.83456
1.157303662999766,0,0,0.40462008056640625,0,0,0.3822
1.1586896070220973,0,0,1.3910311645507811,0,0,0.7644
1.1600756609987002,0,0,1.5777788940429687,0,0,1.1465999999999998
1.1614621780172456,0,0,2.2553379638671873,0,0,1.2994800000000002
1.1628479540231638,0,0,1.9632453613281249,0,0,0.15288000000000002
1.1642365820007399,0,0,1.6831237670898436,0,0,0.0
1.1656230810040142,0,0,0.5339069702148437,0,0,0.53508
1.1670090430125128,0,0,1.6328455322265625,0,0,0.30576000000000003
1.168396245018812,0,0,1.68551796875,0,0,0.99372
1.1697826510062441,0,0,1.3215993164062498,0,0,0.53508
1.171168964006938,0,0,1.0295067138671874,0,0,0.91728
1.1725547410023864,0,0,0.09816226806640624,0,0,-0.99372
1.1739439240191132,0,0,0.22505495605468748,0,0,0.91728
1.1753302750003058,0,0,2.0973206542968748,0,0,1.83456
1.1767173850093968,0,0,2.360682836914062,0,0,1.5288
1.1781032910221256,0,0,2.1547814941406247,0,0,1.37592
1.1794891410099808,0,0,0.9720458740234375,0,0,1.07016
1.1808759910054505,0,0,0.08140285644531249,0,0,-0.6115200000000001
1.1822623230109457,0,0,0.5339069702148437,0,0,0.7644
1.1836480440106243,0,0,2.319981408691406,0,0,1.2994800000000002
1.1850345430138987,0,0,2.370259643554687,0,0,0.99372
1.186419856006978,0,0,1.1659762084960936,0,0,0.22932
1.1878060960152652,0,0,0.622492431640625,0,0,0.91728
1.1891925939999055,0,0,-0.1149216796875,0,0,9.172799999999999
1.1905799630039837,0,0,1.608903515625,0,0,0.15288000000000002
1.1919662390137091,0,0,1.448492004394531,0,0,1.2230400000000001
1.193352071015397,0,0,1.1348515869140625,0,0,0.99372
1.1947363110084552,0,0,0.928950244140625,0,0,1.37592
1.196843131998321,0,0,0.6272808349609375,0,0,0.6115200000000001
1.1982998520252295,0,0,0.9792284790039062,0,0,1.911
1.1997211100242566,0,0,2.6958710693359373,0,0,1.98744
1.2011133120104205,0,0,2.6336218261718747,0,0,1.1465999999999998
1.202499199018348,0,0,0.7876923461914062,0,0,-0.22932
1.2038882160268258,0,0,0.5386953735351562,0,0,0.22932
1.2052774370240513,0,0,0.5793968017578125,0,0,0.0
1.2066641390265431,0,0,2.559401574707031,0,0,-9.09636
1.2080545640201308,0,0,2.3870190551757813,0,0,1.68168
1.2094511180184782,0,0,1.0773907470703123,0,0,1.1465999999999998
1.2108399870048743,0,0,0.2059013427734375,0,0,0.22932
1.2122277450107504,0,0,-0.3495534423828125,0,0,-1.2230400000000001
1.2136134280008264,0,0,0.40222587890625,0,0,0.0
1.2149929639999755,0,0,2.166752502441406,0,0,0.99372
1.2163728330051526,0,0,3.0933085449218747,0,0,2.2931999999999997
1.2177641650196165,0,0,2.360682836914062,0,0,1.75812
1.2191519780026283,0,0,1.8243816650390623,0,0,1.68168
1.2205396440112963,0,0,-0.603338818359375,0,0,-0.30576000000000003
1.221922679018462,0,0,-0.2920926025390625,0,0,0.3822
1.2233199740003329,0,0,1.8004396484374998,0,0,0.68796
1.22471363900695,0,0,2.825157958984375,0,0,1.2230400000000001
1.22610250802245,0,0,2.085349645996094,0,0,0.68796
1.2274930250132456,0,0,0.6919242797851562,0,0,1.2994800000000002
1.228877913003089,0,0,-0.1197100830078125,0,0,-0.3822
1.2302595040237065,0,0,0.25139117431640623,0,0,0.84084
1.2316388360050041,0,0,1.8746598999023436,0,0,1.98744
1.233031686017057,0,0,2.4349030883789062,0,0,0.91728
1.234418963023927,0,0,1.149216796875,0,0,0.15288000000000002
1.2358074060175568,0,0,0.507570751953125,0,0,0.68796
1.2371955340204295,0,0,0.2059013427734375,0,0,0.0
1.2385834210144822,0,0,2.70065947265625,0,0,1.37592
1.2399712160113268,0,0,2.454056701660156,0,0,2.4460800000000003
1.2413547710166313,0,0,1.1755530151367186,0,0,1.37592
1.2427344730240293,0,0,0.229843359375,0,0,0.0
1.2441140090231784,0,0,-0.354341845703125,0,0,-1.45236
1.2455057850165758,0,0,0.7278373046875,0,0,-0.15288000000000002
1.246892598021077,0,0,2.760514514160156,0,0,1.37592
1.2482796150143258,0,0,3.105279553222656,0,0,2.4460800000000003
1.2496667810191866,0,0,1.659181750488281,0,0,2.06388
1.2510537240013946,0,0,0.488417138671875,0,0,0.7644
1.2524402780109085,0,0,-1.2976572998046874,0,0,-1.2230400000000001
1.2538284250185825,0,0,-0.105344873046875,0,0,0.07644000000000001
1.2552153680007905,0,0,2.427720483398437,0,0,1.1465999999999998
1.2566026260028593,0,0,4.039018200683594,0,0,2.2931999999999997
1.2579962910094764,0,0,2.858676782226562,0,0,1.68168
1.259382511023432,0,0,0.07900865478515624,0,0,1.60524
1.2607698060164694,0,0,-1.3335703247070312,0,0,-1.45236
1.2621576570090838,0,0,-0.5506663818359374,0,0,-0.3822
1.263545507012168,0,0,2.6815058593749996,0,0,1.60524
1.2649374690081459,0,0,3.708618371582031,0,0,1.60524
1.266320467024343,0,0,1.5538368774414062,0,0,1.5288
1.2677299100032542,0,0,0.12449848632812499,0,0,0.91728
1.269140797026921,0,0,-1.149216796875,0,0,-0.68796
1.2705319439992309,0,0,1.3144167114257812,0,0,-0.22932
1.2719205169996712,0,0,2.578555187988281,0,0,1.83456
1.273331793025136,0,0,2.1811177124023438,0,0,1.2994800000000002
1.2747210500237998,0,0,1.4700398193359374,0,0,1.2994800000000002
1.276109049009392,0,0,0.44053310546874996,0,0,0.3822
1.277497585018864,0,0,-0.01915361328125,0,0,0.15288000000000002
1.2788862130255438,0,0,1.8124106567382812,0,0,1.07016
1.2802739520266186,0,0,3.3877953491210935,0,0,1.98744
1.2816646360151935,0,0,2.233790148925781,0,0,1.1465999999999998
1.2830524680030067,0,0,1.678335363769531,0,0,0.99372
1.2844400030153338,0,0,-0.718260498046875,0,0,-0.99372
1.2858289280266035,0,0,-0.17956512451171874,0,0,0.30576000000000003
1.287216944998363,0,0,2.142810485839844,0,0,1.83456
1.288604147004662,0,0,2.9568390502929685,0,0,0.99372
1.2899917200265918,0,0,2.418143676757812,0,0,1.37592
1.2913792000035755,0,0,0.4908113403320312,0,0,0.68796
1.2927665320166852,0,0,-0.967257470703125,0,0,-1.37592
1.2941551970143337,0,0,-0.48123453369140623,0,0,-0.6115200000000001
1.2955439730139915,0,0,2.023100402832031,0,0,1.37592
1.2969320270058233,0,0,3.162740393066406,0,0,1.83456
1.298318304005079,0,0,2.0159177978515626,0,0,1.60524
1.2997055989981163,0,0,1.0438719238281249,0,0,1.75812
1.3010933379991911,0,0,-0.6871358764648438,0,0,8.48484
1.3024804660235532,0,0,0.7158662963867187,0,0,-0.6115200000000001
1.3038681320031174,0,0,2.059013427734375,0,0,1.68168
1.3052557230112143,0,0,2.798821740722656,0,0,1.2230400000000001
1.306642666022526,0,0,2.540247961425781,0,0,1.5288
1.3080302380258217,0,0,1.3766659545898436,0,0,0.68796
1.309417441021651,0,0,-0.6057330200195312,0,0,0.0
1.3108050130249467,0,0,0.6679822631835937,0,0,9.47856
1.3121932159992866,0,0,2.5330653564453125,0,0,1.1465999999999998
1.3136011770111509,0,0,2.0374656127929685,0,0,1.2230400000000001
1.314989008998964,0,0,2.001552587890625,0,0,1.2230400000000001
1.3163766369980294,0,0,-0.1580173095703125,0,0,-0.15288000000000002
1.3177655980107374,0,0,-0.011971008300781249,0,0,0.53508
1.3191533380013425,0,0,1.1348515869140625,0,0,1.1465999999999998
1.320541225024499,0,0,2.4109610717773435,0,0,1.37592
1.3219291680143215,0,0,1.93451494140625,0,0,1.2994800000000002
1.3233163890254218,0,0,0.9600748657226562,0,0,0.99372
1.3247063140152022,0,0,-0.0143652099609375,0,0,-0.45864
1.3260949420218822,0,0,0.22744915771484372,0,0,-0.22932
1.327482292021159,0,0,2.0733786376953125,0,0,1.68168
1.3288707720057573,0,0,2.6982652709960937,0,0,0.91728
1.3302576410060283,0,0,1.6927005737304686,0,0,1.5288
1.3316448440018576,0,0,0.5195417602539062,0,0,0.7644
1.3330332490149885,0,0,-0.42377369384765623,0,0,-0.99372
1.3344206740148365,0,0,1.1468225952148436,0,0,-0.6115200000000001
1.3358077650191262,0,0,2.085349645996094,0,0,1.5288
1.3371950790169649,0,0,2.250549560546875,0,0,1.45236
1.3385826140001882,0,0,2.1619640991210938,0,0,1.83456
1.3399704090261366,0,0,1.1635820068359375,0,0,1.60524
1.3413582040229812,0,0,-0.7110778930664062,0,0,-0.15288000000000002
1.3427466840075795,0,0,0.3016694091796875,0,0,-0.30576000000000003
1.3441342380247079,0,0,1.3742717529296875,0,0,0.30576000000000003
1.3455216810107231,0,0,2.817975354003906,0,0,1.1465999999999998
1.3469120130175725,0,0,2.913743420410156,0,0,2.06388
1.3482991040218621,0,0,0.29448680419921874,0,0,0.91728
1.3496862690080889,0,0,-0.5027823486328125,0,0,0.30576000000000003
1.3510741200007033,0,0,0.13646949462890623,0,0,-0.15288000000000002
1.3526051720255055,0,0,1.7022773803710936,0,0,0.07644000000000001
1.3539971520076506,0,0,1.7693150268554687,0,0,0.84084
1.3553850580065046,0,0,1.5729904907226562,0,0,1.07016
1.3567733340023551,0,0,0.8547299926757812,0,0,-0.15288000000000002
1.358160037023481,0,0,1.5322890624999999,0,0,1.07016
1.3595474240137264,0,0,2.0159177978515626,0,0,2.5989600000000004
1.3609358300163876,0,0,2.0374656127929685,0,0,1.68168
1.3623225320188794,0,0,0.97683427734375,0,0,0.91728
1.3637095120211598,0,0,0.5961562133789062,0,0,0.45864
1.365097104018787,0,0,0.28730419921875,0,0,-1.1465999999999998
1.3664847320178524,0,0,1.9847931762695312,0,0,0.07644000000000001
1.367871823022142,0,0,2.6815058593749996,0,0,2.36964
1.3692591920262203,0,0,2.0757728393554684,0,0,1.98744
1.3706463390262797,0,0,1.1276689819335937,0,0,1.07016
1.3720336710102856,0,0,-0.01915361328125,0,0,0.45864
1.373422094999114,0,0,-0.6177040283203125,0,0,0.53508
1.374809612025274,0,0,1.2114660400390624,0,0,0.0
1.3761971850180998,0,0,3.1028853515624997,0,0,1.45236
1.3775999790232163,0,0,2.5857377929687497,0,0,1.1465999999999998
1.3789869600150269,0,0,2.0374656127929685,0,0,1.37592
1.3803741990122944,0,0,0.37828386230468747,0,0,0.68796
1.381761994009139,0,0,-0.17477672119140625,0,0,0.91728
1.3831495290214662,0,0,1.4724340209960938,0,0,0.30576000000000003
1.384537102014292,0,0,2.398990063476562,0,0,0.6115200000000001
1.3859234520059545,0,0,2.1212626708984375,0,0,1.1465999999999998
1.3873104140220676,0,0,1.2521674682617188,0,0,0.53508
1.3886985610006377,0,0,0.6057330200195312,0,0,-0.22932
1.3900904850161169,0,0,1.3527239379882812,0,0,0.91728
1.391477521014167,0,0,1.455674609375,0,0,1.37592
1.3928651680180337,0,0,1.5849614990234373,0,0,0.84084
1.3942515360249672,0,0,1.0103531005859374,0,0,0.99372
1.3956385540077463,0,0,0.8858546142578124,0,0,0.91728
1.3970262560178526,0,0,0.8810662109374999,0,0,0.0
1.3984134210040793,0,0,2.042254016113281,0,0,0.84084
1.3998004010063596,0,0,2.288856787109375,0,0,1.60524
1.40118786302628,0,0,1.2425906616210938,0,0,0.3822
1.4025744720129296,0,0,0.8595183959960937,0,0,0.30576000000000003
1.4039611750049517,0,0,0.3399766357421875,0,0,0.3822
1.4053481919982005,0,0,0.5291185668945312,0,0,0.3822
1.4067354500002693,0,0,1.886630908203125,0,0,0.30576000000000003
1.4081221329979599,0,0,2.7724855224609373,0,0,1.60524
1.4095270950056147,0,0,1.7764976318359373,0,0,1.75812
1.4109173160104547,0,0,0.7948749511718749,0,0,0.0
1.4123054440133274,0,0,-0.3854664672851562,0,0,-0.30576000000000003
1.4136966640071478,0,0,0.031124621582031248,0,0,0.84084
1.4150838110072073,0,0,2.806004345703125,0,0,1.07016
1.4164744580048136,0,0,3.361459130859375,0,0,1.75812
1.4179378440021537,0,0,2.7581203125,0,0,2.2167600000000003
1.4193262320186477,0,0,0.4429273071289062,0,0,0.91728
1.4207372300152201,0,0,-0.97683427734375,0,0,-1.45236
1.4221234880096745,0,0,1.1109095703125,0,0,0.3822
1.423503541998798,0,0,2.2673089721679687,0,0,1.5288
1.4248888550209813,0,0,2.978386865234375,0,0,1.07016
1.4262682250118814,0,0,1.455674609375,0,0,1.07016
1.4276467050076462,0,0,0.4333505004882812,0,0,0.99372
1.42902853700798,0,0,-0.3447650390625,0,0,-0.45864
1.4304100170265883,0,0,1.3934253662109375,0,0,0.45864
1.4317939410102554,0,0,2.123656872558594,0,0,1.45236
1.4331815140030812,0,0,2.310404602050781,0,0,0.99372
1.4345683460123837,0,0,1.637633935546875,0,0,0.68796
1.4359562520112377,0,0,0.622492431640625,0,0,0.68796
1.4373436580062844,0,0,0.11013327636718749,0,0,20
1.4387308600125834,0,0,1.9632453613281249,0,0,0.68796
1.4401181920256931,0,0,2.9759926635742184,0,0,1.98744
1.4415057279984467,0,0,2.042254016113281,0,0,1.1465999999999998
1.4428930600115564,0,0,0.9193734375,0,0,-0.6115200000000001
1.4442813550122082,0,0,-0.8451531860351562,0,0,-0.91728
1.4456702610186767,0,0,-0.2059013427734375,0,0,0.07644000000000001
1.4470702219987288,0,0,3.0238766967773434,0,0,1.37592
1.448517423006706,0,0,2.96881005859375,0,0,1.911
1.4499533839989454,0,0,2.0278888061523435,0,0,2.06388
1.4513417900016066,0,0,-0.1388636962890625,0,0,0.6115200000000001
1.4527469370223116,0,0,-0.9840168823242187,0,0,-1.37592
1.4541482130007353,0,0,1.7334020019531249,0,0,0.22932
1.4555351739982143,0,0,3.2920272827148436,0,0,1.83456
1.4569272280205041,0,0,3.9647979492187497,0,0,1.2994800000000002
1.4583137830195483,0,0,1.9033903198242186,0,0,1.75812
1.4597012070007622,0,0,0.2059013427734375,0,0,0.99372
1.46108998300042,0,0,-1.3335703247070312,0,0,-0.84084
1.4624775190022774,0,0,1.0031704956054688,0,0,-0.3822
1.4638649620173965,0,0,2.693476867675781,0,0,1.2994800000000002
1.4652534050110262,0,0,2.9496564453125,0,0,1.60524
1.4666401440044865,0,0,2.138022082519531,0,0,0.7644
1.468026957998518,0,0,-0.6775590698242188,0,0,0.99372
1.4694156050099991,0,0,-1.1156979736328125,0,0,0.0
1.4708029740140773,0,0,0.258573779296875,0,0,0.22932
1.4721901200246066,0,0,2.7365724975585937,0,0,1.5288
1.473579100013012,0,0,2.626439221191406,0,0,1.2994800000000002
1.4749663030088414,0,0,2.384624853515625,0,0,1.68168
1.4763528750045225,0,0,0.32561142578124996,0,0,0.53508
1.477746503020171,0,0,-0.25139117431640623,0,0,1.1465999999999998
1.4791345760168042,0,0,1.707065783691406,0,0,0.6115200000000001
1.4805212970240973,0,0,2.5953145996093747,0,0,0.7644
1.4819099990127143,0,0,2.588131994628906,0,0,1.1465999999999998
1.4832973680167925,0,0,1.4724340209960938,0,0,0.7644
1.48469521800871,0,0,0.2561795776367187,0,0,-1.2230400000000001
1.4860829760145862,0,0,1.005564697265625,0,0,0.53508
1.4874705120164435,0,0,1.8602946899414061,0,0,1.2230400000000001
1.4888585840235464,0,0,2.636016027832031,0,0,1.07016
1.4902445460029412,0,0,1.886630908203125,0,0,1.1465999999999998
1.4916317110182717,0,0,0.6919242797851562,0,0,1.2230400000000001
1.4930195800261572,0,0,-1.5729904907226562,0,0,-1.75812
1.4944067270262167,0,0,0.4908113403320312,0,0,0.0
1.4957937069993932,0,0,2.0063409912109376,0,0,1.60524
1.497180891019525,0,0,3.4739866088867184,0,0,1.60524
1.4985698520031292,0,0,2.834734765625,0,0,1.98744
1.4999579620198347,0,0,-0.3447650390625,0,0,2.2931999999999997
1.501345961005427,0,0,-1.7238251953125,0,0,-1.1465999999999998
1.5027342740213498,0,0,-0.24181436767578124,0,0,-1.60524
1.5041223280131817,0,0,4.125209460449218,0,0,1.2994800000000002
1.5055098270240705,0,0,4.254496350097656,0,0,1.83456
1.506897214014316,0,0,2.829946362304687,0,0,1.37592
1.5082849530153908,0,0,-0.9217676391601562,0,0,0.30576000000000003
1.5096727300260682,0,0,-2.29843359375,0,0,-0.15288000000000002
1.5110607840179,0,0,0.507570751953125,0,0,-0.30576000000000003
1.5124484680127352,0,0,2.152387292480469,0,0,0.53508
1.5138363370206207,0,0,2.6623522460937497,0,0,1.37592
1.515243668021867,0,0,2.463633508300781,0,0,2.2931999999999997
1.516641389025608,0,0,0.8786720092773437,0,0,0.45864
1.518028962018434,0,0,0.3327940307617187,0,0,-8.7906
1.5194165710126981,0,0,1.8626888916015625,0,0,1.75812
1.5208049400243908,0,0,2.7054478759765623,0,0,1.2994800000000002
1.5221933090069797,0,0,2.2266075439453124,0,0,1.60524
1.5235808080178685,0,0,1.5011644409179687,0,0,1.68168
1.5249688800249714,0,0,-0.5506663818359374,0,0,-1.07016
1.5263579900201876,0,0,0.55545478515625,0,0,-1.07016
1.5277458589989692,0,0,1.7788918334960937,0,0,0.84084
1.5291342090058606,0,0,2.5953145996093747,0,0,1.2994800000000002
1.5305214670079295,0,0,1.9512743530273435,0,0,1.2230400000000001
1.5319085770170204,0,0,-0.34715924072265625,0,0,1.2994800000000002
1.533296613022685,0,0,-1.1109095703125,0,0,9.24924
1.5346930000232533,0,0,0.49320554199218747,0,0,0.0
1.5361186280206311,0,0,2.7844565307617186,0,0,1.83456
1.5375093480106443,0,0,3.0597897216796874,0,0,1.37592
1.538897551014088,0,0,2.379836450195312,0,0,1.5288
1.5402851050021127,0,0,0.6751648681640625,0,0,0.3822
1.5416671220154967,0,0,-0.9050082275390624,0,0,-0.15288000000000002
1.5430488800047897,0,0,1.5801730957031248,0,0,0.3822
1.5444429710041732,0,0,2.4947581298828125,0,0,0.91728
1.5458341360208578,0,0,2.5067291381835934,0,0,1.37592
1.547221505024936,0,0,1.3335703247070312,0,0,1.2994800000000002
1.5486093000217807,0,0,0.21308394775390624,0,0,-0.84084
1.5499980020103976,0,0,0.2825157958984375,0,0,0.0
1.551385390019277,0,0,1.4724340209960938,0,0,0.30576000000000003
1.552774333016714,0,0,2.269703173828125,0,0,1.1465999999999998
1.5541604240133893,0,0,2.4564509033203126,0,0,2.06388
1.5555479230242781,0,0,2.224213342285156,0,0,3.13404
1.556935662025353,0,0,-0.26815058593749996,0,0,0.0
1.5583226790186018,0,0,0.2442085693359375,0,0,0.0
1.5597101410094183,0,0,1.0678139404296874,0,0,0.22932
1.5610980470082723,0,0,2.3918074584960936,0,0,0.15288000000000002
1.562484416004736,0,0,2.346317626953125,0,0,0.0
1.563871618011035,0,0,0.9864110839843749,0,0,1.68168
1.5652596540166996,0,0,-0.15322890625,0,0,0.45864
1.5666473370220046,0,0,0.7015010864257812,0,0,1.1465999999999998
1.5680350400216412,0,0,1.2832920898437499,0,0,1.37592
1.569422446016688,0,0,1.350329736328125,0,0,0.7644
1.5708094630099367,0,0,1.216254443359375,0,0,0.22932
1.5721966470009647,0,0,1.2425906616210938,0,0,-0.45864
1.5736577000061516,0,0,0.6727706665039062,0,0,0.84084
1.575047402002383,0,0,2.461239306640625,0,0,1.2230400000000001
1.576435549010057,0,0,2.3630770385742186,0,0,1.2994800000000002
1.5778240100189578,0,0,2.1499930908203124,0,0,1.60524
1.5792115460208151,0,0,0.5913678100585937,0,0,1.2994800000000002
1.5805994149995968,0,0,-0.2442085693359375,0,0,-1.68168
1.5819889320118818,0,0,1.3575123413085937,0,0,0.0
1.5833760230161715,0,0,2.5450363647460934,0,0,0.99372
1.5847697440185584,0,0,3.0310593017578125,0,0,1.2994800000000002
1.5861575020244345,0,0,1.235408056640625,0,0,1.83456
1.5875516480009537,0,0,0.20829554443359374,0,0,1.83456
1.5889408870134503,0,0,-0.5363011718749999,0,0,-1.2230400000000001
1.5903283310180996,0,0,1.3527239379882812,0,0,0.6115200000000001
1.5917156810173765,0,0,2.4492682983398435,0,0,1.5288
1.5931036430120002,0,0,2.501940734863281,0,0,1.2994800000000002
1.5944901230104733,0,0,1.5801730957031248,0,0,0.84084
1.5958770660217851,0,0,0.10295067138671875,0,0,1.68168
1.5972651379997842,0,0,-0.12449848632812499,0,0,-0.15288000000000002
1.5986532290116884,0,0,1.2808978881835937,0,0,0.0
1.60004022801877,0,0,2.4564509033203126,0,0,1.45236
1.6014274670160376,0,0,2.360682836914062,0,0,1.2230400000000001
1.60281429902534,0,0,1.7477672119140624,0,0,0.7644
1.6042014090053272,0,0,0.19393033447265623,0,0,0.30576000000000003
1.605601593008032,0,0,-0.20350714111328125,0,0,0.68796
1.6069898130081128,0,0,2.042254016113281,0,0,0.6115200000000001
1.6083769600081723,0,0,2.360682836914062,0,0,1.5288
1.6097945320070721,0,0,2.061407629394531,0,0,1.5288
1.6111838830111083,0,0,0.8379705810546875,0,0,1.5288
1.612570974015398,0,0,0.1484405029296875,0,0,-1.83456
1.6139534730173182,0,0,1.697488977050781,0,0,1.2230400000000001
1.615332434012089,0,0,2.722207287597656,0,0,1.07016
1.6167248770070728,0,0,2.863465185546875,0,0,0.7644
1.6181125430157408,0,0,1.3048399047851562,0,0,1.45236
1.6195000970037654,0,0,0.469263525390625,0,0,1.45236
1.6208841880143154,0,0,-1.0295067138671874,0,0,-1.75812
1.622265187004814,0,0,1.235408056640625,0,0,0.22932
1.6236438890045974,0,0,2.971204260253906,0,0,1.45236
1.6250302210100926,0,0,3.019088293457031,0,0,1.07016
1.6264177200209815,0,0,1.7669208251953124,0,0,1.2230400000000001
1.6278051999979652,0,0,-0.852335791015625,0,0,1.07016
1.6291888280247804,0,0,-1.2665326782226562,0,0,-0.6115200000000001
1.6305691600136925,0,0,0.8954314208984374,0,0,0.0
1.631967399007408,0,0,3.1292215698242187,0,0,1.37592
1.6333546380046755,0,0,3.0119056884765625,0,0,1.5288
1.6347421190002933,0,0,2.080561242675781,0,0,0.7644
1.6361294870148413,0,0,-0.4860229370117187,0,0,0.15288000000000002
1.6375176529982127,0,0,-1.0079588989257813,0,0,0.0
1.6389054290193599,0,0,2.3223756103515623,0,0,0.15288000000000002
1.640293187025236,0,0,3.201047619628906,0,0,1.5288
1.641680463013472,0,0,2.6623522460937497,0,0,1.83456
1.6430674620205536,0,0,0.2346317626953125,0,0,0.99372
1.6444547940045595,0,0,-0.7972691528320313,0,0,-1.5288
1.6458438110130373,0,0,1.4915876342773438,0,0,0.99372
1.6472309210221283,0,0,2.9927520751953125,0,0,1.45236
1.6486183080123737,0,0,3.5242648437499997,0,0,1.83456
1.650018769025337,0,0,1.7645266235351562,0,0,2.06388
1.651406026998302,0,0,0.46686932373046874,0,0,1.68168
1.652817488007713,0,0,-1.5203180541992187,0,0,-1.5288
1.654209691012511,0,0,0.9097966308593749,0,0,0.0
1.655597763019614,0,0,2.6862942626953124,0,0,1.37592
1.656987021007808,0,0,3.1699229980468746,0,0,0.7644
1.6583747980184853,0,0,2.5857377929687497,0,0,1.68168
1.6597624630085193,0,0,-0.46686932373046874,0,0,2.52252
1.6611477390106302,0,0,-1.7860744384765623,0,0,-0.3822
1.6625279050203972,0,0,-0.21068974609375,0,0,-1.07016
1.6639081810135394,0,0,3.2441432495117186,0,0,1.2994800000000002
1.665296217019204,0,0,3.1651345947265623,0,0,1.1465999999999998
1.6666841040132567,0,0,2.1835119140624997,0,0,1.1465999999999998
1.6680709360225592,0,0,-0.3280056274414062,0,0,0.53508
1.6694589160033502,0,0,-1.1228805786132812,0,0,0.3822
1.670847933011828,0,0,1.1755530151367186,0,0,0.0
1.672234487021342,0,0,2.4684219116210935,0,0,0.7644
1.6736218190053478,0,0,2.710236279296875,0,0,1.60524
1.6750210960162804,0,0,1.917755529785156,0,0,1.45236
1.6764080389984883,0,0,0.6057330200195312,0,0,0.0
1.6777954450226389,0,0,0.2154781494140625,0,0,1.1465999999999998
1.6791822950181086,0,0,1.8315642700195311,0,0,0.30576000000000003
1.680569349002326,0,0,3.201047619628906,0,0,0.91728
1.681956311018439,0,0,2.123656872558594,0,0,1.60524
1.6833436240267474,0,0,1.9129671264648436,0,0,1.98744
1.6847433260118123,0,0,-0.8954314208984374,0,0,-1.2994800000000002
1.6861317880102433,0,0,0.181959326171875,0,0,-0.30576000000000003
1.6875194160093088,0,0,1.2593500732421874,0,0,0.91728
1.688907118019415,0,0,2.4971523315429685,0,0,0.22932
1.6903010240057483,0,0,2.501940734863281,0,0,0.99372
1.6916880780190695,0,0,2.176329309082031,0,0,2.06388
1.6930783920106478,0,0,-1.3024457031249999,0,0,-0.22932
1.6944657050189562,0,0,-0.17956512451171874,0,0,-1.1465999999999998
1.695853907003766,0,0,3.0980969482421874,0,0,1.75812
1.697235999017721,0,0,3.2034418212890623,0,0,1.60524
1.698640664020786,0,0,3.0071172851562498,0,0,1.60524
1.7001025690115057,0,0,-0.040701428222656245,0,0,1.07016
1.7014997710066382,0,0,-1.5227122558593749,0,0,0.0
1.7028896400006488,0,0,0.7805097412109374,0,0,9.24924
1.7042778420145623,0,0,2.147598889160156,0,0,0.53508
1.705677377001848,0,0,2.9855694702148434,0,0,1.98744
1.7070656720025,0,0,2.0278888061523435,0,0,1.1465999999999998
1.7084536150214262,0,0,0.4429273071289062,0,0,-0.45864
1.7098422250128351,0,0,-0.40462008056640625,0,0,0.07644000000000001
1.7112307980132755,0,0,1.3263877197265623,0,0,0.68796
1.7126463140011765,0,0,2.5665841796874997,0,0,0.68796
1.7140353680006228,0,0,2.9496564453125,0,0,1.98744
1.715422571025556,0,0,2.221819140625,0,0,2.4460800000000003
1.7168106620083563,0,0,-0.7326257080078125,0,0,-0.6115200000000001
1.7181989750242792,0,0,-0.7326257080078125,0,0,-0.53508
1.7196049920166843,0,0,1.0606313354492187,0,0,0.7644
1.7209938800078817,0,0,2.96881005859375,0,0,0.15288000000000002
1.7223803780216258,0,0,2.559401574707031,0,0,1.45236
1.7237674320058431,0,0,0.6536170532226562,0,0,2.36964
1.7251570610096678,0,0,-0.6871358764648438,0,0,-0.45864
1.7265456520253792,0,0,-0.6416460449218749,0,0,-0.45864
1.7279340390232392,0,0,1.8171990600585937,0,0,0.68796
1.7293230750074144,0,0,2.5737667846679684,0,0,0.91728
1.7307102770137135,0,0,2.3774422485351563,0,0,1.1465999999999998
1.7321003500255756,0,0,0.852335791015625,0,0,2.06388
1.733492830011528,0,0,-0.3016694091796875,0,0,0.7644
1.7348808840033598,0,0,1.2689268798828124,0,0,-0.7644
1.7362686230044346,0,0,1.8938135131835936,0,0,1.45236
1.7376561220153235,0,0,2.147598889160156,0,0,1.68168
1.7390437130234204,0,0,2.0757728393554684,0,0,1.1465999999999998
1.7404312490252778,0,0,0.718260498046875,0,0,-0.30576000000000003
1.7418189510062803,0,0,-0.19153613281249998,0,0,0.22932
1.743517797003733,0,0,1.1635820068359375,0,0,1.45236
1.744920406024903,0,0,2.5641899780273434,0,0,0.3822
1.7463146270019934,0,0,2.403778466796875,0,0,2.4460800000000003
1.7476996630139183,0,0,0.51714755859375,0,0,1.98744
1.7491019760200288,0,0,-0.5434837768554687,0,0,0.0
1.7504889370175079,0,0,-0.7134720947265625,0,0,-0.68796
1.7518783060077112,0,0,2.6791116577148437,0,0,1.45236
1.7532663980091456,0,0,3.5027170288085934,0,0,1.45236
1.7546543960052077,0,0,2.6312276245117188,0,0,1.2230400000000001
1.7560414129984565,0,0,0.9552864624023437,0,0,2.2931999999999997
1.757428727025399,0,0,-0.4213794921875,0,0,0.45864
1.758817188005196,0,0,0.430956298828125,0,0,-1.37592
1.7602042610233184,0,0,1.2808978881835937,0,0,0.22932
1.7615921110264026,0,0,2.2601263671875,0,0,1.1465999999999998
1.7629864800255746,0,0,2.3726538452148436,0,0,0.91728
1.7643741270003375,0,0,0.8164227661132812,0,0,0.84084
1.7657614590134472,0,0,-0.033518823242187495,0,0,1.2994800000000002
1.7671492350054905,0,0,0.9576806640625,0,0,0.0
1.7685357340087648,0,0,1.6400281372070311,0,0,0.0
1.7699227510020137,0,0,1.9919757812499999,0,0,1.83456
1.771310768002877,0,0,1.944091748046875,0,0,0.99372
1.7726987110218033,0,0,0.258573779296875,0,0,-1.2230400000000001
1.7740863760118373,0,0,0.5099649536132812,0,0,0.68796
1.7754737270006444,0,0,1.85790048828125,0,0,0.7644
1.7768612620129716,0,0,2.403778466796875,0,0,0.53508
1.7782481310132425,0,0,1.446097802734375,0,0,1.07016
1.7796347600233275,0,0,-0.1580173095703125,0,0,1.75812
1.7810235360229854,0,0,-0.9097966308593749,0,0,-1.911
1.7824105160252657,0,0,-0.0526724365234375,0,0,-0.45864
1.783799089025706,0,0,2.940079638671875,0,0,1.98744
1.785235420014942,0,0,3.028665100097656,0,0,0.91728
1.7866289550147485,0,0,1.5298948608398437,0,0,1.2230400000000001
1.7880167130206246,0,0,0.0383072265625,0,0,1.37592
1.7894041380204726,0,0,-0.6392518432617187,0,0,0.0
1.7907938960124739,0,0,2.061407629394531,0,0,9.32568
1.7921957640210167,0,0,2.961627453613281,0,0,1.75812
1.793606670020381,0,0,2.3151930053710936,0,0,1.911
1.7949938350066077,0,0,2.123656872558594,0,0,0.99372
1.7963809820066672,0,0,0.7565677246093749,0,0,0.3822
1.797770721022971,0,0,-0.34237083740234375,0,0,0.0
1.799159183021402,0,0,1.3431471313476562,0,0,-0.7644
1.8005474590172525,0,0,2.061407629394531,0,0,-9.32568
1.801935069001047,0,0,1.7669208251953124,0,0,2.14032
1.8033223079983145,0,0,1.47482822265625,0,0,1.45236
1.8047094920184463,0,0,-0.21787235107421873,0,0,-0.3822
1.8060983790201135,0,0,0.01915361328125,0,0,0.99372
1.8075055260269437,0,0,1.649604943847656,0,0,1.68168
1.8089006720110774,0,0,2.3223756103515623,0,0,0.07644000000000001
1.8102879670041148,0,0,1.7477672119140624,0,0,1.45236
1.8116774840163998,0,0,0.5099649536132812,0,0,2.2167600000000003
1.8130651500250679,0,0,0.0047884033203125,0,0,-1.5288
1.8144611480238382,0,0,0.7134720947265625,0,0,0.53508
1.8158560910087544,0,0,3.0933085449218747,0,0,2.4460800000000003
1.8172437930188607,0,0,2.8419173706054686,0,0,1.2994800000000002
1.8186313660116866,0,0,1.0630255371093749,0,0,0.91728
1.8200216790137347,0,0,-0.7206546997070312,0,0,0.0
1.8214112710265908,0,0,-1.4053963745117186,0,0,-0.3822
1.8227998430083971,0,0,2.4109610717773435,0,0,-0.68796
1.824187507998431,0,0,3.3111808959960936,0,0,2.36964
1.8255753590201493,0,0,1.886630908203125,0,0,2.06388
1.826963154016994,0,0,1.467645617675781,0,0,1.45236
1.8283507260202896,0,0,-0.14125789794921875,0,0,0.22932
1.8297389470099006,0,0,-0.33518823242187495,0,0,0.15288000000000002
1.8311269270197954,0,0,1.9129671264648436,0,0,0.07644000000000001
1.8325141850218643,0,0,3.229778039550781,0,0,1.5288
1.833901499019703,0,0,2.5761609863281247,0,0,2.4460800000000003
1.8352887560031377,0,0,1.66636435546875,0,0,2.36964
1.836692088021664,0,0,-1.4939818359375,0,0,-1.07016
1.838081271998817,0,0,-1.1085153686523437,0,0,-0.6115200000000001
1.8394697150215507,0,0,1.5921441040039062,0,0,0.0
1.840857732022414,0,0,3.938461730957031,0,0,0.45864
1.8422803600260522,0,0,2.35589443359375,0,0,1.83456
1.843668729008641,0,0,-0.3280056274414062,0,0,2.36964
1.8450580979988445,0,0,-1.2641384765625,0,0,-1.83456
1.8464468739985023,0,0,-0.9888052856445312,0,0,-0.3822
1.847835724009201,0,0,3.019088293457031,0,0,1.2230400000000001
1.849222834018292,0,0,3.411737365722656,0,0,1.45236
1.8506255180109292,0,0,1.5873557006835937,0,0,0.68796
1.85201397901983,0,0,0.031124621582031248,0,0,20
1.853401737025706,0,0,-1.16837041015625,0,0,9.7461
1.8547894580115099,0,0,1.7238251953125,0,0,0.0
1.8561763640027493,0,0,3.2728736694335936,0,0,2.14032
1.8575637330068275,0,0,2.990357873535156,0,0,1.83456
1.8589510830061045,0,0,1.7621324218749999,0,0,0.91728
1.860337841004366,0,0,-0.5099649536132812,0,0,0.0
1.861726136005018,0,0,-1.3958195678710936,0,0,-0.53508
1.8631143200036604,0,0,1.2521674682617188,0,0,8.867040000000001
1.864501485018991,0,0,4.153939880371094,0,0,0.53508
1.8658962980262004,0,0,3.0334535034179684,0,0,2.75184
1.867283519008197,0,0,1.8626888916015625,0,0,1.911
1.8686725730076432,0,0,-1.8148048583984373,0,0,-1.2994800000000002
1.870062535017496,0,0,-2.233790148925781,0,0,-1.45236
1.8714509960263968,0,0,-0.13407529296874998,0,0,0.68796
1.873031492024893,0,0,4.091690637207031,0,0,-0.22932
1.8744209720171057,0,0,3.23696064453125,0,0,2.06388
1.8758091190247796,0,0,0.0047884033203125,0,0,2.4460800000000003
1.8771967840148136,0,0,-1.4939818359375,0,0,-1.83456
1.8785954310151283,0,0,-0.5770026000976562,0,0,-1.45236
1.8801265380170662,0,0,1.0845733520507812,0,0,1.07016
1.8815960730134975,0,0,2.4851813232421875,0,0,1.68168
1.8840343710035086,0,0,0.5865794067382812,0,0,0.91728
1.8854256100021303,0,0,-0.9840168823242187,0,0,-2.2931999999999997
1.8868182940059341,0,0,-1.0726023437499999,0,0,0.45864
1.8882067369995639,0,0,1.189918225097656,0,0,-0.3822
1.889595217013266,0,0,2.932897033691406,0,0,1.37592
1.8909832340141293,0,0,1.6543933471679686,0,0,2.4460800000000003
1.8923707880021539,0,0,1.9536685546875,0,0,-0.22932
1.8937583610240836,0,0,-0.8667010009765624,0,0,2.2931999999999997
1.8951465630088933,0,0,-1.426944189453125,0,0,-1.83456
1.8965546539984643,0,0,2.7629087158203123,0,0,-0.99372
1.8979431160259992,0,0,3.287238879394531,0,0,3.21048
1.899331170017831,0,0,3.679887951660156,0,0,-0.99372
1.9007199650222901,0,0,1.197100830078125,0,0,3.13404
1.9021074080083054,0,0,-1.0869675537109373,0,0,-1.2994800000000002
1.903496017010184,0,0,-2.195482922363281,0,0,6.72672
1.904884812014643,0,0,-0.6655880615234374,0,0,-1.2230400000000001
1.9062731810263358,0,0,2.3535002319335936,0,0,-0.22932
1.9076608470059,0,0,2.760514514160156,0,0,3.66912
1.90904923400376,0,0,1.4413093994140624,0,0,-0.22932
1.9104358070180751,0,0,-0.19153613281249998,0,0,3.7455600000000002
1.911824176000664,0,0,-1.8315642700195311,0,0,-1.83456
1.9132125450123567,0,0,-1.1611878051757811,0,0,-0.68796
1.9146008760144468,0,0,1.707065783691406,0,0,-1.75812
1.915988468012074,0,0,4.99909306640625,0,0,2.4460800000000003
1.9173711700132117,0,0,3.3782185424804685,0,0,3.13404
1.9187506690213922,0,0,1.4772224243164063,0,0,1.98744
1.9201299819978885,0,0,-0.6105214233398437,0,0,1.60524
1.9215228880057111,0,0,-2.185906115722656,0,0,20
1.9229128870065324,0,0,-1.3742717529296875,0,0,-1.2230400000000001
1.9244298650010023,0,0,1.5227122558593749,0,0,6.879600000000001
1.9258268260164186,0,0,3.296815686035156,0,0,1.75812
1.9272325100027956,0,0,3.0454245117187497,0,0,1.1465999999999998
1.9286200080241542,0,0,0.45489831542968745,0,0,2.4460800000000003
1.9300302660267334,0,0,-1.0199299072265624,0,0,0.3822
1.9314191529992968,0,0,-0.5674257934570313,0,0,0.0
1.9328169850050472,0,0,0.3064578125,0,0,-1.1465999999999998
1.9342082060175017,0,0,1.3263877197265623,0,0,-20
1.9355957049992867,0,0,2.5330653564453125,0,0,0.53508
1.9369845730252564,0,0,2.5905261962890624,0,0,0.53508
1.9383707390225027,0,0,1.6519991455078125,0,0,1.83456
1.9398056260251906,0,0,-0.30885201416015623,0,0,0.0
1.9411965690087527,0,0,-0.9169792358398436,0,0,20
1.942586734017823,0,0,0.009576806640625,0,0,8.48484
1.9439740470261313,0,0,1.1109095703125,0,0,0.0
1.9453612310171593,0,0,1.5945383056640625,0,0,0.0
1.9467479520244524,0,0,0.8307879760742187,0,0,0.15288000000000002
1.9481348950066604,0,0,0.43574470214843747,0,0,1.2994800000000002
1.9495528190163895,0,0,0.22266075439453123,0,0,1.07016
1.9521528370096348,0,0,1.3814543579101561,0,0,0.91728
1.9535655020154081,0,0,1.2401964599609374,0,0,0.91728
1.9549545560148545,0,0,1.0821791503906248,0,0,0.7644
1.9563437580072787,0,0,1.0917559570312498,0,0,0.22932
1.9577307570143603,0,0,0.38307226562499996,0,0,0.0
1.9591173110238742,0,0,1.01514150390625,0,0,-20
1.9605053100094665,0,0,0.679953271484375,0,0,-0.99372
1.9618929930147715,0,0,0.6464344482421874,0,0,0.3822
1.9632802140258718,0,0,0.7829039428710937,0,0,0.0
1.964667250023922,0,0,0.09816226806640624,0,0,0.07644000000000001
1.9660547860257793,0,0,-0.2920926025390625,0,0,0.15288000000000002
1.9674433949985541,0,0,0.21068974609375,0,0,0.0
1.9688304680166766,0,0,0.6200982299804687,0,0,0.22932
1.9702165220223833,0,0,1.3766659545898436,0,0,0.84084
1.9716031500138342,0,0,2.272097375488281,0,0,1.2994800000000002
1.9729912600014359,0,0,1.678335363769531,0,0,0.91728
1.974376629019389,0,0,0.5099649536132812,0,0,0.84084
1.9757627939980011,0,0,0.13646949462890623,0,0,0.6115200000000001
1.9771496450121049,0,0,-0.5506663818359374,0,0,-1.83456
1.9785369400051422,0,0,1.0199299072265624,0,0,20
1.9799234940146562,0,0,2.1404162841796874,0,0,0.3822
1.9813103630149271,0,0,2.061407629394531,0,0,0.22932
1.982696102000773,0,0,0.05746083984375,0,0,0.84084
1.9840822860132903,0,0,0.13407529296874998,0,0,-0.22932
1.9854880060011055,0,0,-0.06703764648437499,0,0,0.3822
1.9868752830079757,0,0,0.33518823242187495,0,0,20
1.9882703920011409,0,0,1.458068811035156,0,0,0.91728
1.9896574650192633,0,0,1.9201497314453124,0,0,0.91728
1.9910442780237645,0,0,1.5322890624999999,0,0,0.6115200000000001
1.9924302400031593,0,0,0.239420166015625,0,0,0.84084
1.9938167200016323,0,0,0.13646949462890623,0,0,-0.53508
1.9952031260181684,0,0,0.0047884033203125,0,0,20
1.9965889580198564,0,0,0.6775590698242188,0,0,-20
1.9979779940040316,0,0,1.0773907470703123,0,0,0.53508
1.9993647700175643,0,0,1.5466542724609373,0,0,0.30576000000000003
2.000752158026444,0,0,0.8834604125976562,0,0,1.45236
2.0021383780112956,0,0,0.20829554443359374,0,0,0.45864
2.0035248210188,0,0,-0.23702596435546874,0,0,0.0
2.0049126530066133,0,0,0.49320554199218747,0,0,0.0
2.0062983190000523,0,0,1.5729904907226562,0,0,0.45864
2.007684928015806,0,0,1.2593500732421874,0,0,0.53508
2.0090769640228245,0,0,1.0678139404296874,0,0,0.99372
2.0104674440226518,0,0,0.6943184814453125,0,0,0.3822
2.011854091018904,0,0,0.8188169677734375,0,0,0.30576000000000003
2.0132404970063362,0,0,1.1875240234375,0,0,0.3822
2.014627199008828,0,0,0.8068459594726562,0,0,-20
2.0160394929989707,0,0,0.5147533569335937,0,0,0.07644000000000001
2.0174275480094366,0,0,0.48123453369140623,0,0,-0.3822
2.0188143980049063,0,0,0.7541735229492187,0,0,0.07644000000000001
2.0202007860061713,0,0,1.0486603271484374,0,0,0.0
2.021605765010463,0,0,0.7015010864257812,0,0,0.0
2.02299176400993,0,0,0.3950432739257812,0,0,0.0
2.02437750302488,0,0,0.00718260498046875,0,0,20
2.0257679280184675,0,0,0.6009446166992187,0,0,0.22932
2.0271576860104688,0,0,1.1468225952148436,0,0,0.53508
2.0285569800180383,0,0,1.429338391113281,0,0,1.1465999999999998
2.0299512750061695,0,0,1.3000515014648437,0,0,1.2230400000000001
2.0313379770086613,0,0,0.5123591552734374,0,0,0.22932
2.032738550013164,0,0,0.1580173095703125,0,0,0.0
2.034125160018448,0,0,0.5602431884765625,0,0,-0.45864
2.0355221400095616,0,0,1.3862427612304686,0,0,0.30576000000000003
2.036910175025696,0,0,1.5514426757812498,0,0,0.07644000000000001
2.038296322018141,0,0,0.8643067993164062,0,0,0.84084
2.039682635018835,0,0,0.33518823242187495,0,0,0.07644000000000001
2.0410703560046386,0,0,0.02633621826171875,0,0,0.07644000000000001
2.042455355025595,0,0,0.22744915771484372,0,0,-0.3822
2.0438417610130273,0,0,1.0702081420898437,0,0,0.0
2.04522829601774,0,0,1.5107412475585937,0,0,0.30576000000000003
2.046614610007964,0,0,1.1659762084960936,0,0,0.99372
2.0480108680203557,0,0,0.7972691528320313,0,0,0.7644
2.0493983480264433,0,0,0.24660277099609373,0,0,0.45864
2.0507844570092857,0,0,0.28490999755859375,0,0,0.30576000000000003
2.0521703450067434,0,0,0.7206546997070312,0,0,0.07644000000000001
2.0535573250090238,0,0,1.350329736328125,0,0,0.30576000000000003
2.054943824012298,0,0,1.4221557861328125,0,0,0.45864
2.056330304010771,0,0,0.9097966308593749,0,0,0.07644000000000001
2.057716284005437,0,0,0.6344634399414062,0,0,0.7644
2.059102430997882,0,0,0.5913678100585937,0,0,20
2.0604888740053866,0,0,0.7565677246093749,0,0,0.30576000000000003
2.0618756680050865,0,0,0.833182177734375,0,0,0.0
2.0632617230003234,0,0,0.6967126831054687,0,0,-9.784320000000001
2.0646488690108526,0,0,0.6823474731445313,0,0,0.0
2.066035609022947,0,0,1.3048399047851562,0,0,0.91728
2.067421515006572,0,0,0.8786720092773437,0,0,0.30576000000000003
2.068808476004051,0,0,0.5698199951171875,0,0,0.7644
2.0701943270105403,0,0,0.565031591796875,0,0,0.53508
2.0715803620114457,0,0,0.8690952026367187,0,0,0.3822
2.0729739160160534,0,0,1.3048399047851562,0,0,0.99372
2.0743598970002495,0,0,1.668758557128906,0,0,0.99372
2.075745969021227,0,0,1.3862427612304686,0,0,1.2230400000000001
2.0771326899994165,0,0,1.3359645263671873,0,0,1.1465999999999998
2.078518503025407,0,0,0.8259995727539062,0,0,0.84084
2.079941927018808,0,0,1.2234370483398436,0,0,0.6115200000000001
2.0813379070023075,0,0,1.5298948608398437,0,0,0.91728
2.082724258012604,0,0,1.5634136840820312,0,0,0.84084
2.084156830009306,0,0,1.5849614990234373,0,0,0.68796
2.0855987170070875,0,0,1.199495031738281,0,0,-8.943480000000001
2.086989863018971,0,0,1.1133037719726562,0,0,0.6115200000000001
2.0883764540194534,0,0,1.3000515014648437,0,0,0.3822
2.0897630270046648,0,0,1.3431471313476562,0,0,0.84084
2.0911491000151727,0,0,1.2497732666015624,0,0,0.84084
2.092535117000807,0,0,1.0486603271484374,0,0,0.91728
2.093921338004293,0,0,0.9241618408203125,0,0,0.68796
2.0953073179989588,0,0,1.3838485595703125,0,0,0.7644
2.0966941680235323,0,0,1.3383587280273437,0,0,0.3822
2.0980802410049364,0,0,1.426944189453125,0,0,0.91728
2.099473554000724,0,0,1.350329736328125,0,0,0.99372
2.100862090010196,0,0,1.3239935180664062,0,0,0.91728
2.1022474770143162,0,0,1.0702081420898437,0,0,0.84084
2.1036333829979412,0,0,0.9816226806640624,0,0,0.45864
2.1050433260097634,0,0,1.0726023437499999,0,0,0.7644
2.106492454011459,0,0,1.4939818359375,0,0,0.6115200000000001
2.107951692014467,0,0,1.2378022583007813,0,0,0.6115200000000001
2.1093933560186997,0,0,1.3838485595703125,0,0,0.68796
2.110854280006606,0,0,1.1037269653320312,0,0,0.91728
2.1123023890249897,0,0,1.2761094848632812,0,0,0.91728
2.113803108019056,0,0,1.2497732666015624,0,0,0.99372
2.115280790021643,0,0,1.3527239379882812,0,0,0.68796
2.1167427510081325,0,0,1.369483349609375,0,0,0.7644
2.1181898040231317,0,0,1.37906015625,0,0,0.68796
2.1196533199981786,0,0,1.4987702392578124,0,0,2.06388
2.121103892015526,0,0,1.35990654296875,0,0,0.7644
2.123008105001645,0,0,1.2473790649414063,0,0,0.7644
2.1244809170020744,0,0,1.3024457031249999,0,0,0.91728
2.1258853600011207,0,0,1.1875240234375,0,0,0.84084
2.1272669510217384,0,0,1.2234370483398436,0,0,0.3822
2.1286636170116253,0,0,1.2856862915039062,0,0,0.6115200000000001
2.130045134021202,0,0,1.1923124267578125,0,0,0.6115200000000001
2.131425447005313,0,0,1.5729904907226562,0,0,0.68796
2.1328071870084386,0,0,1.3096283081054687,0,0,1.1465999999999998
2.134187000017846,0,0,1.218648645019531,0,0,0.68796
2.1355691839999054,0,0,1.218648645019531,0,0,0.99372
2.136953072011238,0,0,1.1563994018554686,0,0,0.7644
2.1383378480095416,0,0,1.4125789794921875,0,0,0.6115200000000001
2.139716384001076,0,0,1.4245499877929686,0,0,0.6115200000000001
2.141099901025882,0,0,1.5466542724609373,0,0,0.7644
2.142478232999565,0,0,1.4245499877929686,0,0,0.6115200000000001
2.143856806011172,0,0,1.3359645263671873,0,0,0.7644
2.1452374900109135,0,0,1.0390835205078124,0,0,0.53508
2.1466166920145042,0,0,1.0893617553710937,0,0,0.84084
2.147999968001386,0,0,1.1013327636718748,0,0,0.3822
2.1494640210003126,0,0,1.3000515014648437,0,0,0.22932
2.1508444280188996,0,0,1.35990654296875,0,0,0.7644
2.1522232410206925,0,0,1.5825672973632812,0,0,1.07016
2.153605592000531,0,0,1.4317325927734375,0,0,0.99372
2.1549842760141473,0,0,1.2737152832031249,0,0,1.07016
2.1563624590053223,0,0,0.9744400756835937,0,0,0.84084
2.1577515140234027,0,0,1.13006318359375,0,0,0.3822
2.1591383080231026,0,0,1.4006079711914061,0,0,0.7644
2.160524881008314,0,0,1.5490484741210937,0,0,0.6115200000000001
2.1619224720052443,0,0,1.4413093994140624,0,0,0.91728
2.163301749009406,0,0,1.4413093994140624,0,0,1.1465999999999998
2.164702729001874,0,0,1.1444283935546875,0,0,1.1465999999999998
2.1660891720093787,0,0,1.0678139404296874,0,0,0.45864
2.1674828000250272,0,0,1.0103531005859374,0,0,0.7644
2.168869428016478,0,0,0.9241618408203125,0,0,0.45864
2.1702552040223964,0,0,1.3958195678710936,0,0,0.68796
2.171641296008602,0,0,1.4317325927734375,0,0,0.6115200000000001
2.1730915890075266,0,0,1.5227122558593749,0,0,0.68796
2.174477681022836,0,0,1.3718775512695311,0,0,0.3822
2.175863216019934,0,0,1.2306196533203124,0,0,0.68796
2.177250214997912,0,0,1.2018892333984375,0,0,0.99372
2.17863647302147,0,0,1.189918225097656,0,0,0.53508
2.1800227310159244,0,0,1.1611878051757811,0,0,0.7644
2.1814087480015587,0,0,1.3527239379882812,0,0,0.6115200000000001
2.1827941540104803,0,0,1.429338391113281,0,0,0.53508
2.184179634001339,0,0,1.5083470458984374,0,0,0.6115200000000001
2.18556533602532,0,0,1.3431471313476562,0,0,1.07016
2.1869507240189705,0,0,1.3096283081054687,0,0,0.91728
2.1883361480140593,0,0,1.1851298217773436,0,0,0.99372
2.1897222580155358,0,0,1.2018892333984375,0,0,0.91728
2.1911075160023756,0,0,1.254561669921875,0,0,0.7644
2.1924925330094993,0,0,1.388636962890625,0,0,0.6115200000000001
2.1938779760093894,0,0,1.4053963745117186,0,0,0.7644
2.1952634930203203,0,0,1.5059528442382812,0,0,0.7644
2.1966492700157687,0,0,1.3455413330078123,0,0,0.99372
2.1980339529982302,0,0,1.1947066284179686,0,0,0.7644
2.2003316240152344,0,0,1.0917559570312498,0,0,0.45864
2.2017923070234247,0,0,1.189918225097656,0,0,0.45864
2.2031837130198255,0,0,1.3646949462890625,0,0,0.45864
2.2045703970070463,0,0,1.39821376953125,0,0,0.7644
2.2059764320147224,0,0,1.4149731811523436,0,0,0.99372
2.2073641160095576,0,0,1.2497732666015624,0,0,0.99372
2.2087506510142703,0,0,1.3646949462890625,0,0,0.68796
2.210143465024885,0,0,1.149216796875,0,0,0.7644
2.2115327600040473,0,0,1.2473790649414063,0,0,0.84084
2.2129202030191664,0,0,1.3431471313476562,0,0,0.6115200000000001
2.214307701011421,0,0,1.458068811035156,0,0,0.91728
2.2156942180008627,0,0,1.5442600708007812,0,0,0.7644
2.2170781239983626,0,0,1.4508862060546874,0,0,0.84084
2.2184574010025244,0,0,1.3215993164062498,0,0,0.6115200000000001
2.2198361220071092,0,0,1.2521674682617188,0,0,0.99372
2.2212231020093895,0,0,1.1635820068359375,0,0,0.84084
2.2226265820208937,0,0,1.1156979736328125,0,0,0.45864
2.2240116170141846,0,0,1.3455413330078123,0,0,0.6115200000000001
2.2254115420219023,0,0,1.429338391113281,0,0,0.53508
2.2268147990107536,0,0,1.4724340209960938,0,0,0.84084
2.228201613004785,0,0,1.1540052001953125,0,0,0.53508
2.2295892410038505,0,0,0.967257470703125,0,0,0.91728
2.2309749060077593,0,0,1.1109095703125,0,0,0.68796
2.2323610900202766,0,0,1.120486376953125,0,0,0.53508
2.2337478850095067,0,0,1.2210428466796874,0,0,0.53508
2.235133884008974,0,0,1.3287819213867187,0,0,0.53508
2.236519734025933,0,0,1.3383587280273437,0,0,0.84084
2.237906435999321,0,0,1.4149731811523436,0,0,0.7644
2.239292046026094,0,0,1.3263877197265623,0,0,0.84084
2.240697341010673,0,0,1.2282254516601563,0,0,0.91728
2.242082395008765,0,0,1.1420341918945311,0,0,0.84084
2.243465892999666,0,0,1.20667763671875,0,0,0.7644
2.2448611330182757,0,0,1.1827356201171875,0,0,0.7644
2.246279779006727,0,0,1.4820108276367188,0,0,0.7644
2.247668648022227,0,0,1.37906015625,0,0,0.99372
2.2490802940155845,0,0,1.4245499877929686,0,0,0.68796
2.2504810329992324,0,0,1.4125789794921875,0,0,1.1465999999999998
2.251866588019766,0,0,1.5083470458984374,0,0,0.99372
2.253318066999782,0,0,1.1085153686523437,0,0,0.84084
2.254705769009888,0,0,0.9241618408203125,0,0,0.45864
2.256091823015595,0,0,1.3718775512695311,0,0,0.45864
2.2574782480078284,0,0,1.4341267944335936,0,0,0.84084
2.258864765026374,0,0,1.649604943847656,0,0,0.99372
2.2602505600079894,0,0,1.47482822265625,0,0,0.68796
2.261636762006674,0,0,1.3527239379882812,0,0,0.91728
2.26302274200134,0,0,1.1324573852539062,0,0,0.68796
2.264408222021302,0,0,1.0845733520507812,0,0,0.53508
2.2657945360115264,0,0,1.1372457885742187,0,0,0.3822
2.267180682014441,0,0,1.438915197753906,0,0,0.84084
2.2685659960261546,0,0,1.3838485595703125,0,0,0.53508
2.269951865018811,0,0,1.2473790649414063,0,0,0.84084
2.2713374190207105,0,0,1.1635820068359375,0,0,0.84084
2.2727251770265866,0,0,1.1228805786132812,0,0,0.68796
2.2741122500156052,0,0,1.209071838378906,0,0,0.7644
2.2754988220112864,0,0,1.2138602416992186,0,0,0.53508
2.2768856910115574,0,0,1.1372457885742187,0,0,0.99372
2.278271597024286,0,0,1.39821376953125,0,0,0.6115200000000001
2.2796577070257626,0,0,1.4532804077148436,0,0,0.68796
2.281044298026245,0,0,1.5035586425781249,0,0,0.84084
2.2824296489998233,0,0,1.3431471313476562,0,0,0.84084
2.283815536007751,0,0,1.3359645263671873,0,0,1.07016
2.2852146640070714,0,0,1.13006318359375,0,0,0.68796
2.2866009220015258,0,0,1.197100830078125,0,0,0.22932
2.2879861240216997,0,0,1.3455413330078123,0,0,1.07016
2.2893724010209553,0,0,1.5107412475585937,0,0,0.6115200000000001
2.290757807000773,0,0,1.3958195678710936,0,0,0.7644
2.2921429540147074,0,0,1.429338391113281,0,0,0.91728
2.293535878008697,0,0,1.0749965454101562,0,0,0.84084
2.2949216540146153,0,0,1.1252747802734375,0,0,0.91728
2.2963070050172973,0,0,1.2042834350585936,0,0,0.6115200000000001
2.2976930220029317,0,0,1.0965443603515623,0,0,0.6115200000000001
2.299078502022894,0,0,1.3862427612304686,0,0,0.22932
2.300463908002712,0,0,1.3838485595703125,0,0,0.45864
2.3018498140154406,0,0,1.4149731811523436,0,0,0.6115200000000001
2.30323542401311,0,0,1.4173673828125,0,0,0.45864
2.3046500890050083,0,0,1.149216796875,0,0,0.99372
2.306036217021756,0,0,1.218648645019531,0,0,0.68796
2.30742199299857,0,0,1.1180921752929687,0,0,0.84084
2.3088081590249203,0,0,1.1947066284179686,0,0,0.91728
2.3101934349979274,0,0,1.4317325927734375,0,0,0.30576000000000003
2.3115788040158805,0,0,1.3168109130859373,0,0,0.7644
2.312965062010335,0,0,1.5394716674804687,0,0,0.84084
2.31435004202649,0,0,1.4006079711914061,0,0,0.91728
2.3157358180033043,0,0,1.2521674682617188,0,0,0.7644
2.3171222980017774,0,0,1.0558429321289062,0,0,0.84084
2.3185072600026615,0,0,1.197100830078125,0,0,0.6115200000000001
2.319892814004561,0,0,1.4006079711914061,0,0,0.99372
2.321277367998846,0,0,1.455674609375,0,0,0.53508
2.3226610340061598,0,0,1.4796166259765624,0,0,0.6115200000000001
2.3240452550235204,0,0,1.4341267944335936,0,0,0.53508
2.325445586000569,0,0,1.180341418457031,0,0,0.99372
2.326833566010464,0,0,1.1156979736328125,0,0,0.6115200000000001
2.328220658004284,0,0,1.1085153686523437,0,0,0.45864
2.329608489002567,0,0,1.1563994018554686,0,0,0.45864
2.3309947660018224,0,0,1.35990654296875,0,0,0.7644
2.3323819870129228,0,0,1.5729904907226562,0,0,0.91728
2.3337622820108663,0,0,1.4915876342773438,0,0,0.99372
2.3351408730086405,0,0,1.3479355346679687,0,0,0.91728
2.3365223350119777,0,0,1.350329736328125,0,0,1.07016
2.3379189440165646,0,0,1.1133037719726562,0,0,0.6115200000000001
2.3393049240112305,0,0,1.0797849487304687,0,0,0.6115200000000001
2.3406918859982397,0,0,1.0917559570312498,0,0,0.68796
2.3420757920248434,0,0,1.3527239379882812,0,0,0.45864
2.3434836980013642,0,0,1.5107412475585937,0,0,0.53508
2.3448721220192965,0,0,1.668758557128906,0,0,0.99372
2.346257824014174,0,0,1.2689268798828124,0,0,0.84084
2.347643656015862,0,0,1.2761094848632812,0,0,1.07016
2.349030933022732,0,0,1.139639990234375,0,0,0.7644
2.3504160980228335,0,0,1.1228805786132812,0,0,0.68796
2.351802134013269,0,0,1.1180921752929687,0,0,0.53508
2.3531887060089502,0,0,1.5131354492187499,0,0,0.45864
2.354574612021679,0,0,1.4820108276367188,0,0,0.68796
2.355960815009894,0,0,1.3838485595703125,0,0,0.84084
2.3573467020178214,0,0,1.1755530151367186,0,0,0.91728
2.3587321270024404,0,0,1.1109095703125,0,0,0.84084
2.36011786601739,0,0,1.1444283935546875,0,0,0.7644
2.3615042350138538,0,0,1.1372457885742187,0,0,0.53508
2.3628899000177626,0,0,1.3287819213867187,0,0,0.99372
2.3642753990134224,0,0,1.4700398193359374,0,0,0.84084
2.3656610270263627,0,0,1.2569558715820313,0,0,0.91728
2.3670469890057575,0,0,1.4604630126953124,0,0,0.68796
2.3684325980138965,0,0,1.0869675537109373,0,0,0.68796
2.3698185789980926,0,0,1.1851298217773436,0,0,0.6115200000000001
2.371204003022285,0,0,1.1540052001953125,0,0,0.84084
2.3725892420043238,0,0,1.2665326782226562,0,0,0.45864
2.373975149006583,0,0,1.4532804077148436,0,0,0.0
2.37536109201028,0,0,1.5083470458984374,0,0,0.6115200000000001
2.3767476830107626,0,0,1.455674609375,0,0,0.6115200000000001
2.3781375150138047,0,0,1.5203180541992187,0,0,0.68796
2.3795236430014484,0,0,1.2401964599609374,0,0,0.99372
2.380916493013501,0,0,1.1180921752929687,0,0,0.84084
2.3823024920129683,0,0,1.0462661254882812,0,0,0.91728
2.383688230998814,0,0,1.0965443603515623,0,0,0.45864
2.3850745820091106,0,0,1.3766659545898436,0,0,0.22932
2.386459747009212,0,0,1.5753846923828123,0,0,0.6115200000000001
2.3878453940269537,0,0,1.5394716674804687,0,0,0.68796
2.389231337001547,0,0,1.2473790649414063,0,0,0.84084
2.3906173540162854,0,0,1.3527239379882812,0,0,0.68796
2.392003223008942,0,0,1.0702081420898437,0,0,0.99372
2.3933892030036077,0,0,1.0486603271484374,0,0,0.68796
2.3947745720215607,0,0,1.3958195678710936,0,0,0.84084
2.396160571021028,0,0,1.5107412475585937,0,0,0.68796
2.397546254011104,0,0,1.235408056640625,0,0,0.7644
2.3989322720153723,0,0,1.4963760375976562,0,0,1.1465999999999998
2.400318585016066,0,0,1.218648645019531,0,0,0.84084
2.4017117870098446,0,0,1.3623007446289062,0,0,0.53508
2.4030976750073023,0,0,1.2282254516601563,0,0,0.3822
2.404483581020031,0,0,1.177947216796875,0,0,0.53508
2.4058681530004833,0,0,1.4437036010742186,0,0,0.99372
2.407252226024866,0,0,1.4772224243164063,0,0,0.6115200000000001
2.408648873009952,0,0,1.3120225097656248,0,0,0.99372
2.4100402790063526,0,0,1.4891934326171874,0,0,0.84084
2.4114272959996015,0,0,1.3192051147460937,0,0,0.7644
2.412827702006325,0,0,1.199495031738281,0,0,0.7644
2.4142144409997854,0,0,1.1013327636718748,0,0,0.68796
2.4156006990233436,0,0,1.0438719238281249,0,0,0.84084
2.4170184009999502,0,0,1.4604630126953124,0,0,0.22932
2.4184088250040077,0,0,1.426944189453125,0,0,0.6115200000000001
2.4197882500011474,0,0,1.6448165405273436,0,0,0.84084
2.4211938780208584,0,0,1.3646949462890625,0,0,1.07016
2.422584413026925,0,0,1.1851298217773436,0,0,0.7644
2.423968319024425,0,0,1.149216796875,0,0,0.7644
2.425383021007292,0,0,1.1851298217773436,0,0,0.68796
2.4267694640147965,0,0,1.4796166259765624,0,0,0.45864
2.42815588900703,0,0,1.5251064575195312,0,0,0.45864
2.429541960998904,0,0,1.5298948608398437,0,0,0.6115200000000001
2.4309279790031724,0,0,1.448492004394531,0,0,0.84084
2.4323138480249327,0,0,1.2306196533203124,0,0,0.7644
2.433699568005977,0,0,1.2306196533203124,0,0,0.7644
2.4350850300106686,0,0,1.2641384765625,0,0,0.7644
2.4364703060127795,0,0,1.3527239379882812,0,0,0.7644
2.4378560460172594,0,0,1.350329736328125,0,0,0.6115200000000001
2.439241544023389,0,0,1.4030021728515625,0,0,0.6115200000000001
2.4406426350178663,0,0,1.4125789794921875,0,0,0.91728
2.442029893019935,0,0,1.4820108276367188,0,0,0.91728
2.4434157440264244,0,0,1.2401964599609374,0,0,0.99372
2.4448018900002353,0,0,1.2234370483398436,0,0,0.7644
2.4461862220196053,0,0,1.1635820068359375,0,0,0.91728
2.4475715730222873,0,0,1.1180921752929687,0,0,0.53508
2.4489548860001378,0,0,1.3623007446289062,0,0,-9.47856
2.4512248170212843,0,0,1.4101847778320311,0,0,0.91728
2.452667203004239,0,0,1.5682020874023437,0,0,0.84084
2.4540548130171373,0,0,1.2521674682617188,0,0,1.07016
2.455440552002983,0,0,1.1252747802734375,0,0,0.84084
2.456834903015988,0,0,1.1061211669921875,0,0,0.6115200000000001
2.4582198090211023,0,0,1.1851298217773436,0,0,0.45864
2.459605141018983,0,0,1.2234370483398436,0,0,0.91728
2.4610123060119804,0,0,1.4891934326171874,0,0,0.68796
2.4623963230114896,0,0,1.4413093994140624,0,0,0.84084
2.4637817660113797,0,0,1.350329736328125,0,0,0.68796
2.4651706900040153,0,0,1.2713210815429687,0,0,0.84084
2.4665569300123025,0,0,1.3024457031249999,0,0,0.68796
2.467942243005382,0,0,1.2018892333984375,0,0,0.84084
2.469334779016208,0,0,1.3623007446289062,0,0,0.84084
2.4707207220199052,0,0,1.4796166259765624,0,0,0.53508
2.4721064980258234,0,0,1.4532804077148436,0,0,0.7644
2.473513441014802,0,0,1.3958195678710936,0,0,0.6115200000000001
2.4749008280050475,0,0,1.2785036865234374,0,0,0.84084
2.4762871600105427,0,0,1.1180921752929687,0,0,0.68796
2.4776730480080005,0,0,1.149216796875,0,0,0.91728
2.4790589720068965,0,0,1.1947066284179686,0,0,0.84084
2.4804441750166006,0,0,1.3646949462890625,0,0,0.91728
2.4818317290046252,0,0,1.484405029296875,0,0,0.45864
2.4832182460231707,0,0,1.4628572143554686,0,0,0.7644
2.484603634016821,0,0,1.5275006591796874,0,0,0.91728
2.4859898360155057,0,0,1.1923124267578125,0,0,0.6115200000000001
2.4873765940137673,0,0,1.1635820068359375,0,0,0.99372
2.488763296016259,0,0,1.1348515869140625,0,0,0.6115200000000001
2.4901490170159377,0,0,1.180341418457031,0,0,0.7644
2.4915349780058023,0,0,1.35990654296875,0,0,0.7644
2.4929218660108745,0,0,1.4724340209960938,0,0,0.53508
2.4943069200089667,0,0,1.3072341064453123,0,0,0.7644
2.4956929740146734,0,0,1.4006079711914061,0,0,0.7644
2.4970792320091277,0,0,1.1707646118164061,0,0,0.99372
2.4984642680210527,0,0,1.1348515869140625,0,0,0.68796
2.499849489016924,0,0,1.1444283935546875,0,0,0.84084
2.50123522800277,0,0,1.139639990234375,0,0,0.7644
2.50262085601571,0,0,1.3718775512695311,0,0,0.84084
2.5040064839995466,0,0,1.4987702392578124,0,0,0.68796
2.5053921500220895,0,0,1.426944189453125,0,0,0.99372
2.506777722010156,0,0,1.407790576171875,0,0,0.84084
2.508163295016857,0,0,1.2928688964843749,0,0,1.2230400000000001
2.5095517380104866,0,0,1.149216796875,0,0,0.91728
2.5109379030182026,0,0,1.13006318359375,0,0,0.91728
2.5123232540208846,0,0,1.120486376953125,0,0,0.3822
2.5137319740024395,0,0,1.429338391113281,0,0,0.3822
2.5151176580111496,0,0,1.37906015625,0,0,0.7644
2.516503064020071,0,0,1.4317325927734375,0,0,0.91728
2.5178889890084974,0,0,1.2785036865234374,0,0,0.68796
2.519281728018541,0,0,1.1109095703125,0,0,0.84084
2.5206680230039638,0,0,1.1013327636718748,0,0,0.7644
2.522053559019696,0,0,1.1563994018554686,0,0,0.45864
2.523437168012606,0,0,1.1372457885742187,0,0,0.53508
2.5248384630249348,0,0,1.4006079711914061,0,0,0.30576000000000003
2.52622566500213,0,0,1.4006079711914061,0,0,0.7644
2.527611442026682,0,0,1.4939818359375,0,0,1.07016
2.5289985700219404,0,0,1.22583125,0,0,0.68796
2.5303837720130105,0,0,1.2832920898437499,0,0,0.91728
2.5317692150129005,0,0,1.2306196533203124,0,0,0.84084
2.5331708989979234,0,0,1.1013327636718748,0,0,0.68796
2.5345565090246964,0,0,1.2306196533203124,0,0,0.68796
2.5359421180037316,0,0,1.3670891479492187,0,0,0.53508
2.5373279320192523,0,0,1.3742717529296875,0,0,0.99372
2.5387135230121203,0,0,1.369483349609375,0,0,0.84084
2.5400989850168116,0,0,1.3120225097656248,0,0,1.07016
2.5414852060202975,0,0,1.3718775512695311,0,0,0.6115200000000001
2.542870834004134,0,0,1.189918225097656,0,0,0.68796
2.544256295019295,0,0,1.189918225097656,0,0,0.45864
2.545641405013157,0,0,1.484405029296875,0,0,0.3822
2.5470267740020063,0,0,1.4867992309570313,0,0,0.6115200000000001
2.5484119020111393,0,0,1.3670891479492187,0,0,0.84084
2.549801605026005,0,0,1.2761094848632812,0,0,0.6115200000000001
2.551186880999012,0,0,1.218648645019531,0,0,0.6115200000000001
2.5525856940075755,0,0,1.1156979736328125,0,0,0.84084
2.5539725630078465,0,0,1.1061211669921875,0,0,0.7644
2.5553576730017085,0,0,1.2234370483398436,0,0,0.6115200000000001
2.5567569860140793,0,0,1.5107412475585937,0,0,0.30576000000000003
2.558143355010543,0,0,1.4772224243164063,0,0,0.68796
2.559531186998356,0,0,1.5059528442382812,0,0,0.84084
2.5609178710146807,0,0,1.1372457885742187,0,0,0.6115200000000001
2.5623022590007167,0,0,1.1659762084960936,0,0,0.7644
2.5636876650096383,0,0,1.2521674682617188,0,0,0.6115200000000001
2.5650734970113263,0,0,1.1827356201171875,0,0,0.45864
2.566477106011007,0,0,1.3527239379882812,0,0,0.91728
2.5678640860132873,0,0,1.4628572143554686,0,0,0.6115200000000001
2.5692507140047383,0,0,1.5107412475585937,0,0,0.68796
2.5706365650112275,0,0,1.4030021728515625,0,0,0.6115200000000001
2.572021952015348,0,0,1.1827356201171875,0,0,0.91728
2.5734080810216255,0,0,1.149216796875,0,0,0.91728
2.5747935789986514,0,0,1.1468225952148436,0,0,0.68796
2.57617924400256,0,0,1.3048399047851562,0,0,0.3822
2.5775743359990884,0,0,1.3766659545898436,0,0,0.7644
2.5789599640120286,0,0,1.4532804077148436,0,0,0.7644
2.58034537002095,0,0,1.4724340209960938,0,0,0.84084
2.5817307570250705,0,0,1.3862427612304686,0,0,0.68796
2.583115997025743,0,0,1.3024457031249999,0,0,0.91728
2.5845014580118004,0,0,1.1109095703125,0,0,0.6115200000000001
2.5858876980200876,0,0,1.2473790649414063,0,0,1.07016
2.5872731039999053,0,0,1.0869675537109373,0,0,0.3822
2.588659232016653,0,0,1.4939818359375,0,0,0.91728
2.5900449900073,0,0,1.4221557861328125,0,0,0.68796
2.5914300630101934,0,0,1.4963760375976562,0,0,0.84084
2.592816283024149,0,0,1.3479355346679687,0,0,0.84084
2.59420131900697,0,0,1.1516109985351561,0,0,0.84084
2.5955864660209045,0,0,1.1659762084960936,0,0,0.84084
2.5969722240115516,0,0,1.209071838378906,0,0,0.99372
2.5983569450036157,0,0,1.1372457885742187,0,0,0.68796
2.599742517020786,0,0,1.4915876342773438,0,0,0.7644
2.601135275006527,0,0,1.2521674682617188,0,0,0.7644
2.6025198660208844,0,0,1.458068811035156,0,0,0.84084
2.603905198018765,0,0,1.3287819213867187,0,0,0.84084
2.6052907340053935,0,0,1.35990654296875,0,0,0.84084
2.6066761770052835,0,0,1.1707646118164061,0,0,0.84084
2.608061805018224,0,0,1.2401964599609374,0,0,0.53508
2.609447082009865,0,0,1.2808978881835937,0,0,0.99372
2.610839858010877,0,0,1.5251064575195312,0,0,0.68796
2.6122270970081445,0,0,1.2497732666015624,0,0,0.91728
2.613612892018864,0,0,1.467645617675781,0,0,-9.172799999999999
2.614999428013107,0,0,1.1707646118164061,0,0,1.1465999999999998
2.616385686007561,0,0,1.1755530151367186,0,0,0.53508
2.61777153602452,0,0,1.1611878051757811,0,0,0.7644
2.6191587570065167,0,0,1.199495031738281,0,0,0.15288000000000002
2.620544774021255,0,0,1.4700398193359374,0,0,0.7644
2.6219286620034836,0,0,1.4413093994140624,0,0,0.84084
2.6233121050172485,0,0,1.3335703247070312,0,0,0.6115200000000001
2.624771936010802,0,0,1.3646949462890625,0,0,0.45864
2.626161212014267,0,0,1.3742717529296875,0,0,1.1465999999999998
2.627547100011725,0,0,1.1228805786132812,0,0,0.84084
2.628934950014809,0,0,1.1707646118164061,0,0,0.7644
2.6303201710106805,0,0,1.20667763671875,0,0,0.6115200000000001
2.63170591002563,0,0,1.465251416015625,0,0,0.30576000000000003
2.6330937050224748,0,0,1.5251064575195312,0,0,0.6115200000000001
2.6344786109984852,0,0,1.5059528442382812,0,0,0.84084
2.6358760540024377,0,0,1.3096283081054687,0,0,0.91728
2.637262571020983,0,0,1.1420341918945311,0,0,0.84084
2.6386486810224596,0,0,1.1276689819335937,0,0,0.68796
2.640034217009088,0,0,1.2114660400390624,0,0,0.7644
2.641420697007561,0,0,1.0965443603515623,0,0,0.84084
2.642806529009249,0,0,1.4101847778320311,0,0,0.3822
2.644198842026526,0,0,1.2593500732421874,0,0,0.84084
2.645604303019354,0,0,1.4053963745117186,0,0,0.99372
2.6469905429985374,0,0,1.177947216796875,0,0,0.91728
2.648376041004667,0,0,1.3192051147460937,0,0,0.6115200000000001
2.649829502013745,0,0,1.1372457885742187,0,0,0.68796
2.6512160370184574,0,0,1.0989385620117187,0,0,0.3822
2.6526013320253696,0,0,1.429338391113281,0,0,0.91728
2.6539874050067738,0,0,1.429338391113281,0,0,0.68796
2.655373089015484,0,0,1.2880804931640624,0,0,0.68796
2.656759495002916,0,0,1.4101847778320311,0,0,0.6115200000000001
2.6581453640246764,0,0,1.16837041015625,0,0,0.84084
2.659530918026576,0,0,1.1923124267578125,0,0,0.53508
2.660917880013585,0,0,1.1133037719726562,0,0,0.53508
2.662303138000425,0,0,0.9433154541015625,0,0,0.6115200000000001
2.6636887660133652,0,0,1.4173673828125,0,0,0.45864
2.665075079014059,0,0,1.4006079711914061,0,0,0.6115200000000001
2.6664599670039024,0,0,1.4891934326171874,0,0,0.91728
2.667845762014622,0,0,1.2401964599609374,0,0,0.99372
2.6692315750115085,0,0,1.177947216796875,0,0,0.7644
2.67061698102043,0,0,1.0869675537109373,0,0,0.45864
2.6720029240241274,0,0,1.0486603271484374,0,0,0.53508
2.673388312017778,0,0,1.199495031738281,0,0,1.07016
2.6747740140126552,0,0,1.4413093994140624,0,0,0.30576000000000003
2.6761596980213653,0,0,1.4867992309570313,0,0,0.53508
2.6775456410250627,0,0,1.4700398193359374,0,0,0.84084
2.678930862020934,0,0,1.1947066284179686,0,0,0.6115200000000001
2.680316397018032,0,0,1.1252747802734375,0,0,0.84084
2.6817023400217295,0,0,1.1827356201171875,0,0,0.84084
2.6830879690242,0,0,1.3000515014648437,0,0,0.53508
2.6844736150233075,0,0,1.4173673828125,0,0,0.68796
2.6858595400117338,0,0,1.448492004394531,0,0,0.53508
2.687245316017652,0,0,1.2737152832031249,0,0,0.7644
2.6886400560033508,0,0,1.429338391113281,0,0,0.99372
2.6901409420243,0,0,1.1755530151367186,0,0,0.99372
2.6915295330109075,0,0,1.1516109985351561,0,0,0.84084
2.6929176050180104,0,0,1.1013327636718748,0,0,0.68796
2.694314659020165,0,0,1.189918225097656,0,0,0.45864
2.69570099102566,0,0,1.4245499877929686,0,0,0.84084
2.6970847860211506,0,0,1.3862427612304686,0,0,0.6115200000000001
2.698462970001856,0,0,1.484405029296875,0,0,0.7644
2.699841154011665,0,0,1.4245499877929686,0,0,0.84084
2.7027425010164734,0,0,1.0726023437499999,0,0,0.84084
2.704135722015053,0,0,1.177947216796875,0,0,0.53508
2.705525795026915,0,0,1.3072341064453123,0,0,0.91728
2.7069135530036874,0,0,1.3024457031249999,0,0,0.53508
2.708301218022825,0,0,1.2952630981445312,0,0,0.91728
2.709689105016878,0,0,1.5346832641601562,0,0,0.68796
2.711076845007483,0,0,1.3551181396484375,0,0,0.7644
2.7124649730103556,0,0,1.1755530151367186,0,0,0.68796
2.7138468790217303,0,0,1.1540052001953125,0,0,0.7644
2.715225988999009,0,0,1.158793603515625,0,0,0.45864
2.7166054870176595,0,0,1.2880804931640624,0,0,0.91728
2.7179953190207016,0,0,1.4532804077148436,0,0,0.45864
2.7193830590113066,0,0,1.3670891479492187,0,0,0.68796
2.7207713540119585,0,0,1.4341267944335936,0,0,0.91728
2.722157648007851,0,0,1.3215993164062498,0,0,0.91728
2.7235453320026863,0,0,1.0917559570312498,0,0,0.68796
2.7249335900123697,0,0,1.0869675537109373,0,0,0.53508
2.7263202739995904,0,0,1.3311761230468748,0,0,0.68796
2.7277075690217316,0,0,1.4604630126953124,0,0,0.7644
2.729092234018026,0,0,1.484405029296875,0,0,0.6115200000000001
2.7304701220127754,0,0,1.438915197753906,0,0,0.91728
2.731849324016366,0,0,1.4772224243164063,0,0,0.68796
2.7332554520107806,0,0,1.350329736328125,0,0,0.7644
2.734641895018285,0,0,1.0917559570312498,0,0,0.7644
2.736028523009736,0,0,1.1013327636718748,0,0,0.53508
2.7374145590001717,0,0,1.2138602416992186,0,0,0.7644
2.738800169026945,0,0,1.4891934326171874,0,0,0.45864
2.7401861300168093,0,0,1.4987702392578124,0,0,0.84084
2.7415717219992075,0,0,1.5298948608398437,0,0,0.84084
2.7429575720161665,0,0,1.35990654296875,0,0,0.53508
2.7443439780035987,0,0,1.1540052001953125,0,0,0.6115200000000001
2.745730014023138,0,0,1.13006318359375,0,0,0.53508
2.747116309008561,0,0,1.2401964599609374,0,0,0.68796
2.7485024000052363,0,0,1.4030021728515625,0,0,0.45864
2.749888639023993,0,0,1.618480322265625,0,0,0.6115200000000001
2.751276860013604,0,0,1.4915876342773438,0,0,0.7644
2.7526645620237105,0,0,1.5610194824218748,0,0,0.84084
2.7540587830008008,0,0,1.2856862915039062,0,0,0.68796
2.755445059010526,0,0,1.1635820068359375,0,0,0.6115200000000001
2.756832169019617,0,0,1.1372457885742187,0,0,0.45864
2.75821740902029,0,0,1.2976572998046874,0,0,0.68796
2.759603648009943,0,0,1.4030021728515625,0,0,1.07016
2.7610019800195005,0,0,1.4053963745117186,0,0,0.68796
2.762389126000926,0,0,1.484405029296875,0,0,1.07016
2.7637766250118148,0,0,1.5682020874023437,0,0,0.91728
2.7651805310160853,0,0,1.3646949462890625,0,0,0.68796
2.7665672700095456,0,0,1.1156979736328125,0,0,0.7644
2.7679542130208574,0,0,1.2018892333984375,0,0,0.6115200000000001
2.7693366190069355,0,0,1.197100830078125,0,0,0.3822
2.7707156550022773,0,0,1.39821376953125,0,0,0.45864
2.772094209009083,0,0,1.6136919189453125,0,0,0.68796
2.773489060025895,0,0,1.5179238525390624,0,0,0.84084
2.7748768360179383,0,0,1.35990654296875,0,0,0.84084
2.776263742009178,0,0,1.1563994018554686,0,0,0.84084
2.777664574008668,0,0,1.1061211669921875,0,0,0.6115200000000001
2.779052035009954,0,0,0.9648632690429687,0,0,0.84084
2.7804388299991842,0,0,1.2856862915039062,0,0,0.7644
2.781825921003474,0,0,1.5059528442382812,0,0,0.07644000000000001
2.783213531016372,0,0,1.4915876342773438,0,0,0.7644
2.7846107330115046,0,0,1.5227122558593749,0,0,0.68796
2.786073490016861,0,0,1.3096283081054687,0,0,0.84084
2.7874558780167717,0,0,1.1923124267578125,0,0,1.07016
2.7888380240183324,0,0,1.0917559570312498,0,0,0.91728
2.790217264002422,0,0,1.3718775512695311,0,0,0.45864
2.7915971140027978,0,0,1.3958195678710936,0,0,0.84084
2.792982724000467,0,0,1.4149731811523436,0,0,0.3822
2.794369130017003,0,0,1.3120225097656248,0,0,0.84084
2.7957555550092366,0,0,1.4101847778320311,0,0,1.07016
2.7971415720239747,0,0,1.3287819213867187,0,0,0.91728
2.7985273850208614,0,0,1.2425906616210938,0,0,0.84084
2.7999133840203285,0,0,1.1061211669921875,0,0,0.6115200000000001
2.8012995489989407,0,0,1.1707646118164061,0,0,0.6115200000000001
2.80268558501848,0,0,1.3527239379882812,0,0,0.84084
2.804071732010925,0,0,1.6352397338867186,0,0,0.84084
2.8054573600238655,0,0,1.5011644409179687,0,0,0.91728
2.8068428580008913,0,0,1.5227122558593749,0,0,1.07016
2.80822906101821,0,0,1.1731588134765625,0,0,0.84084
2.8096387260011397,0,0,1.0965443603515623,0,0,0.68796
2.811022113019135,0,0,1.1563994018554686,0,0,0.6115200000000001
2.8125368879991584,0,0,1.3000515014648437,0,0,0.6115200000000001
2.8139191460213624,0,0,1.3958195678710936,0,0,0.30576000000000003
2.8152987000066787,0,0,1.2521674682617188,0,0,0.53508
2.8166938470094465,0,0,1.5035586425781249,0,0,0.91728
2.8180727529979777,0,0,1.3311761230468748,0,0,1.07016
2.819451511022635,0,0,1.2138602416992186,0,0,0.7644
2.8208391390217002,0,0,1.235408056640625,0,0,0.6115200000000001
2.8222188409999944,0,0,1.1659762084960936,0,0,0.84084
2.8235983030172065,0,0,1.2330138549804688,0,0,0.6115200000000001
2.8249844680249225,0,0,1.24498486328125,0,0,0.6115200000000001
2.8263706889993045,0,0,1.4053963745117186,0,0,0.7644
2.8277562250150368,0,0,1.5538368774414062,0,0,0.99372
2.8291436490253545,0,0,1.2785036865234374,0,0,1.1465999999999998
2.8305286850081757,0,0,1.0941501586914062,0,0,0.68796
2.831914221023908,0,0,0.9696516723632812,0,0,0.84084
2.8333003490115516,0,0,1.2018892333984375,0,0,0.22932
2.8346858660224825,0,0,1.455674609375,0,0,0.91728
2.8360713090223726,0,0,1.3838485595703125,0,0,0.53508
2.8374573080218397,0,0,1.4125789794921875,0,0,0.99372
2.8388434550142847,0,0,1.4700398193359374,0,0,0.6115200000000001
2.8402294350089505,0,0,1.1635820068359375,0,0,0.91728
2.8416153410216793,0,0,1.1324573852539062,0,0,-9.24924
2.843008321011439,0,0,1.1324573852539062,0,0,0.6115200000000001
2.844393690000288,0,0,1.1875240234375,0,0,0.53508
2.8457805400248617,0,0,1.3239935180664062,0,0,0.91728
2.8471666680125054,0,0,1.3838485595703125,0,0,0.68796
2.8485523710260168,0,0,1.4628572143554686,0,0,0.91728
2.8499388880154584,0,0,1.47482822265625,0,0,0.68796
2.8513250530231744,0,0,1.235408056640625,0,0,1.37592
2.852749698999105,0,0,1.0893617553710937,0,0,0.53508
2.8541355500055943,0,0,1.1372457885742187,0,0,0.6115200000000001
2.855521548015531,0,0,1.2425906616210938,0,0,0.6115200000000001
2.856907769019017,0,0,1.5011644409179687,0,0,0.22932
2.85829295302392,0,0,1.429338391113281,0,0,0.6115200000000001
2.8596790630253963,0,0,1.5442600708007812,0,0,0.84084
2.8610656170058064,0,0,1.388636962890625,0,0,0.68796
2.8624507640197407,0,0,1.1635820068359375,0,0,0.7644
2.863836781005375,0,0,1.1731588134765625,0,0,0.6115200000000001
2.865234520024387,0,0,1.235408056640625,0,0,0.68796
2.866620556014823,0,0,1.3551181396484375,0,0,0.84084
2.8680067399982363,0,0,1.4053963745117186,0,0,0.84084
2.8693927749991417,0,0,1.350329736328125,0,0,0.6115200000000001
2.87078516301699,0,0,1.4413093994140624,0,0,0.68796
2.872170939022908,0,0,1.20667763671875,0,0,0.84084
2.87355734501034,0,0,1.13006318359375,0,0,0.68796
2.8749431960168295,0,0,1.005564697265625,0,0,0.84084
2.876329324004473,0,0,1.2761094848632812,0,0,0.53508
2.8777152670081705,0,0,1.3311761230468748,0,0,0.6115200000000001
2.8791010249988176,0,0,1.4772224243164063,0,0,0.99372
2.88057400402613,0,0,1.419761584472656,0,0,0.91728
2.8821194440242834,0,0,1.446097802734375,0,0,-9.01992
2.88356020100764,0,0,1.120486376953125,0,0,0.91728
2.8850011989998166,0,0,1.216254443359375,0,0,0.7644
2.8863905500038527,0,0,1.2401964599609374,0,0,0.68796
2.8877777890011203,0,0,1.3670891479492187,0,0,0.84084
2.8891788060136605,0,0,1.5251064575195312,0,0,0.68796
2.8905580270220526,0,0,1.4772224243164063,0,0,0.84084
2.8919386920169927,0,0,1.5921441040039062,0,0,0.68796
2.893319932016311,0,0,1.1635820068359375,0,0,0.53508
2.8946988380048424,0,0,1.209071838378906,0,0,0.84084
2.896077948011225,0,0,1.20667763671875,0,0,0.68796
2.8974655019992497,0,0,1.1947066284179686,0,0,0.45864
2.8988521490246058,0,0,1.2713210815429687,0,0,0.68796
2.9002389990200754,0,0,1.4101847778320311,0,0,0.68796
2.901626386010321,0,0,1.2952630981445312,0,0,0.7644
2.903123272000812,0,0,1.35990654296875,0,0,0.84084
2.9045134379994124,0,0,1.2330138549804688,0,0,0.84084
2.9059007879986893,0,0,1.149216796875,0,0,0.7644
2.907286824018229,0,0,1.1851298217773436,0,0,0.68796
2.9087076370196883,0,0,1.1635820068359375,0,0,0.7644
2.9100882280035876,0,0,1.3120225097656248,0,0,0.99372
2.911466690013185,0,0,1.4221557861328125,0,0,0.7644
2.9128518360084854,0,0,1.438915197753906,0,0,0.84084
2.9142389280023053,0,0,1.350329736328125,0,0,0.91728
2.915624815010233,0,0,1.2665326782226562,0,0,0.84084
2.917011369019747,0,0,1.3455413330078123,0,0,0.84084
2.9183973490144126,0,0,1.1923124267578125,0,0,0.84084
2.919782959012082,0,0,1.120486376953125,0,0,-9.172799999999999
2.921196013019653,0,0,1.5753846923828123,0,0,0.30576000000000003
2.922582826024154,0,0,1.4867992309570313,0,0,0.6115200000000001
2.923968640010571,0,0,1.467645617675781,0,0,0.91728
2.9253558610216714,0,0,1.1731588134765625,0,0,0.99372
2.9267418590025045,0,0,1.1037269653320312,0,0,0.7644
2.9281277650152333,0,0,1.2138602416992186,0,0,0.53508
2.929523245024029,0,0,1.1923124267578125,0,0,0.7644
2.930909596005222,0,0,1.3096283081054687,0,0,0.91728
2.9323495190183166,0,0,1.4915876342773438,0,0,0.91728
2.9337391480221413,0,0,1.2785036865234374,0,0,0.84084
2.9351262200216297,0,0,1.4101847778320311,0,0,0.68796
2.93651301501086,0,0,1.2138602416992186,0,0,0.91728
2.937900143006118,0,0,1.2761094848632812,0,0,0.68796
2.9392868270224426,0,0,1.218648645019531,0,0,2.06388
2.940689918003045,0,0,1.1851298217773436,0,0,0.53508
2.942068898002617,0,0,1.4341267944335936,0,0,0.53508
2.943447452998953,0,0,1.4173673828125,0,0,0.6115200000000001
2.944840025011217,0,0,1.2569558715820313,0,0,0.84084
2.94623133901041,0,0,1.369483349609375,0,0,0.3822
2.9476187450054567,0,0,1.1875240234375,0,0,0.91728
2.949005799018778,0,0,1.1827356201171875,0,0,0.53508
2.95039220500621,0,0,1.1420341918945311,0,0,0.6115200000000001
2.951829962024931,0,0,1.2665326782226562,0,0,1.1465999999999998
2.953287922020536,0,0,1.455674609375,0,0,0.45864
2.9546805880090687,0,0,1.429338391113281,0,0,0.68796
2.9560702530143317,0,0,1.5083470458984374,0,0,0.7644
2.9574579000181984,0,0,1.22583125,0,0,0.7644
2.9588446390116587,0,0,1.13006318359375,0,0,0.68796
2.9602313970099203,0,0,1.1133037719726562,0,0,0.6115200000000001
2.9616320800269023,0,0,1.0797849487304687,0,0,0.3822
2.9630183010012843,0,0,1.3742717529296875,0,0,0.7644
2.964406429004157,0,0,1.448492004394531,0,0,0.6115200000000001
2.9657884470070712,0,0,1.2952630981445312,0,0,0.91728
2.967167742026504,0,0,1.465251416015625,0,0,0.99372
2.968546481017256,0,0,1.13006318359375,0,0,0.84084
2.969936442998005,0,0,1.0773907470703123,0,0,0.91728
2.971323330013547,0,0,1.218648645019531,0,0,0.3822
2.9727107920043636,0,0,1.3407529296874998,0,0,0.53508
2.9740982160146814,0,0,1.4413093994140624,0,0,0.99372
2.9754851040197536,0,0,1.5035586425781249,0,0,0.45864
2.9768723800079897,0,0,1.2832920898437499,0,0,0.68796
2.978258860006463,0,0,1.3072341064453123,0,0,0.6115200000000001
2.9796459510107525,0,0,1.0773907470703123,0,0,0.7644
2.9810298570082523,0,0,1.2378022583007813,0,0,0.84084
2.9824087640154175,0,0,1.1851298217773436,0,0,0.53508
2.9837869290204253,0,0,1.3407529296874998,0,0,0.45864
2.985215001011966,0,0,1.467645617675781,0,0,0.53508
2.9866021110210568,0,0,1.5059528442382812,0,0,0.45864
2.9880022760189604,0,0,1.4796166259765624,0,0,0.84084
2.9893890520033892,0,0,1.20667763671875,0,0,0.68796
2.9907754400046542,0,0,1.3096283081054687,0,0,1.07016
2.9921609010198154,0,0,1.1348515869140625,0,0,0.68796
2.9935471409989987,0,0,1.199495031738281,0,0,0.53508
2.994933102017967,0,0,1.0869675537109373,0,0,0.68796
2.9963258230127394,0,0,1.5155296508789062,0,0,0.15288000000000002
2.997712248004973,0,0,1.5179238525390624,0,0,1.07016
2.9990982279996388,0,0,1.448492004394531,0,0,0.99372
3.0004840780165978,0,0,1.20667763671875,0,0,0.68796
3.0018697250052355,0,0,1.3311761230468748,0,0,0.68796
3.0032560380059294,0,0,1.209071838378906,0,0,0.68796
3.004642167012207,0,0,1.1109095703125,0,0,0.6115200000000001
3.006027443014318,0,0,1.3958195678710936,0,0,0.68796
3.0074129790009465,0,0,1.4915876342773438,0,0,0.68796
3.0087985880090855,0,0,1.388636962890625,0,0,0.84084
3.0102134010230657,0,0,1.39821376953125,0,0,0.7644
3.0117124350217637,0,0,1.1037269653320312,0,0,0.99372
3.0130946380086243,0,0,1.1707646118164061,0,0,0.68796
3.0145161360269412,0,0,1.120486376953125,0,0,0.7644
3.0158967270108406,0,0,1.3455413330078123,0,0,0.6115200000000001
3.0174247790127993,0,0,1.3862427612304686,0,0,0.3822
3.0188108520233072,0,0,1.4221557861328125,0,0,0.68796
3.0201904990244657,0,0,1.5322890624999999,0,0,0.99372
3.021578831016086,0,0,1.3287819213867187,0,0,0.68796
3.022958348010434,0,0,1.2018892333984375,0,0,0.91728
3.024337736016605,0,0,1.120486376953125,0,0,0.68796
3.0257272900198586,0,0,1.1372457885742187,0,0,0.53508
3.0271144920261577,0,0,1.4245499877929686,0,0,0.68796
3.0285015830013435,0,0,1.47482822265625,0,0,0.7644
3.029882341012126,0,0,1.4006079711914061,0,0,0.91728
3.031261247000657,0,0,1.4915876342773438,0,0,0.84084
3.0326638570113573,0,0,1.24498486328125,0,0,0.53508
3.0340521890029777,0,0,1.2330138549804688,0,0,0.6115200000000001
3.0354389100102708,0,0,1.180341418457031,0,0,0.7644
3.036826445022598,0,0,1.1444283935546875,0,0,0.45864
3.038212685001781,0,0,1.4939818359375,0,0,0.91728
3.039599257026566,0,0,1.4125789794921875,0,0,0.91728
3.041007737017935,0,0,1.4508862060546874,0,0,0.7644
3.0423945320071653,0,0,1.448492004394531,0,0,0.68796
3.043781308020698,0,0,1.0845733520507812,0,0,0.91728
3.0451651769981254,0,0,1.0773907470703123,0,0,0.68796
3.0465521390142385,0,0,1.209071838378906,0,0,0.6115200000000001
3.0479311190138105,0,0,1.3479355346679687,0,0,0.6115200000000001
3.0493177290190943,0,0,1.4125789794921875,0,0,0.45864
3.050703615997918,0,0,1.4987702392578124,0,0,0.53508
3.0520890780026093,0,0,1.4700398193359374,0,0,0.6115200000000001
3.0534755770058837,0,0,1.4437036010742186,0,0,0.84084
3.054861668002559,0,0,1.35990654296875,0,0,1.07016
3.05624737002654,0,0,1.180341418457031,0,0,0.53508
3.0576334799989127,0,0,1.1468225952148436,0,0,0.84084
3.0590196270204615,0,0,1.3263877197265623,0,0,0.91728
3.0604050140245818,0,0,1.458068811035156,0,0,0.3822
3.0617910680011846,0,0,1.429338391113281,0,0,0.68796
3.0631816780078225,0,0,1.5251064575195312,0,0,1.2230400000000001
3.0645673060207628,0,0,1.0797849487304687,0,0,0.84084
3.0659536010061856,0,0,1.1156979736328125,0,0,1.07016
3.06733985900064,0,0,1.1156979736328125,0,0,0.99372
3.0687404310156126,0,0,1.1659762084960936,0,0,0.6115200000000001
3.0701260780042503,0,0,1.4317325927734375,0,0,0.84084
3.0716598900035024,0,0,1.3958195678710936,0,0,0.84084
3.0730616100190673,0,0,1.4006079711914061,0,0,0.84084
3.0744470350036863,0,0,1.4772224243164063,0,0,0.7644
3.075834274000954,0,0,1.0893617553710937,0,0,0.84084
3.077221143001225,0,0,1.2234370483398436,0,0,0.7644
3.0786082340055145,0,0,1.1013327636718748,0,0,0.6115200000000001
3.0799951770168263,0,0,1.2018892333984375,0,0,-9.32568
3.0813786390062887,0,0,1.3718775512695311,0,0,0.68796
3.0827581380144693,0,0,1.3934253662109375,0,0,0.91728
3.0841598580009304,0,0,1.4867992309570313,0,0,0.99372
3.0855483199993614,0,0,1.35990654296875,0,0,0.53508
3.0869360960205086,0,0,1.20667763671875,0,0,0.84084
3.0883234280045144,0,0,1.158793603515625,0,0,0.6115200000000001
3.0897106300108135,0,0,1.2234370483398436,0,0,0.91728
3.0910968329990283,0,0,1.3215993164062498,0,0,0.7644
3.092483942018589,0,0,1.388636962890625,0,0,0.45864
3.0938707560126204,0,0,1.2976572998046874,0,0,0.84084
3.0952592540124897,0,0,1.5418658691406248,0,0,0.68796
3.0966469749982934,0,0,1.3311761230468748,0,0,1.1465999999999998
3.098026621999452,0,0,1.218648645019531,0,0,0.99372
3.0994050280132797,0,0,1.0630255371093749,0,0,0.45864
3.1007948230253533,0,0,1.1875240234375,0,0,0.53508
3.1021810620150063,0,0,1.3646949462890625,0,0,0.91728
3.1035668390104547,0,0,1.3958195678710936,0,0,0.84084
3.104961467004614,0,0,1.419761584472656,0,0,0.84084
3.1063470950175542,0,0,1.5083470458984374,0,0,0.68796
3.107732742006192,0,0,1.2378022583007813,0,0,0.99372
3.1091193700267468,0,0,1.2306196533203124,0,0,0.7644
3.1105044610158075,0,0,1.158793603515625,0,0,0.53508
3.1118898300046567,0,0,1.2282254516601563,0,0,0.30576000000000003
3.113275625015376,0,0,1.4030021728515625,0,0,0.99372
3.1146613279997837,0,0,1.388636962890625,0,0,0.99372
3.116046900016954,0,0,1.3766659545898436,0,0,0.84084
3.1174327690096106,0,0,1.5179238525390624,0,0,0.3822
3.1188186200161,0,0,1.1851298217773436,0,0,0.91728
3.1202042670047376,0,0,1.1755530151367186,0,0,0.84084
3.121591432020068,0,0,1.199495031738281,0,0,0.99372
3.1229800970177166,0,0,1.216254443359375,0,0,0.68796
3.124366503005149,0,0,1.35990654296875,0,0,0.3822
3.125752576015657,0,0,1.37906015625,0,0,0.84084
3.1271450370259117,0,0,1.4987702392578124,0,0,0.91728
3.128576609014999,0,0,1.3168109130859373,0,0,0.91728
3.1299651080043986,0,0,1.197100830078125,0,0,0.84084
3.1313527730235364,0,0,1.2641384765625,0,0,0.84084
3.1327638270158786,0,0,1.1276689819335937,0,0,0.84084
3.134150881000096,0,0,1.2378022583007813,0,0,-8.943480000000001
3.1355401950131636,0,0,1.4006079711914061,0,0,0.3822
3.1369254150195047,0,0,1.3551181396484375,0,0,0.91728
3.138303544023074,0,0,1.4939818359375,0,0,0.53508
3.139682672015624,0,0,1.3096283081054687,0,0,0.99372
3.141067874006694,0,0,1.1061211669921875,0,0,0.3822
3.1424544660258107,0,0,1.197100830078125,0,0,0.91728
3.1438409460242838,0,0,1.2042834350585936,0,0,0.53508
3.1452279630175326,0,0,1.3575123413085937,0,0,0.84084
3.1466139990079682,0,0,1.3910311645507811,0,0,0.84084
3.1480009970255196,0,0,1.3838485595703125,0,0,0.68796
3.1493907180265523,0,0,1.4604630126953124,0,0,0.6115200000000001
3.150777791015571,0,0,1.1851298217773436,0,0,0.53508
3.15216475201305,0,0,1.24498486328125,0,0,0.84084
3.153552177012898,0,0,1.0869675537109373,0,0,0.84084
3.154931138007669,0,0,1.2282254516601563,0,0,0.45864
3.156309822021285,0,0,1.3215993164062498,0,0,0.30576000000000003
3.1576988760207314,0,0,1.3838485595703125,0,0,0.68796
3.1590848010091577,0,0,1.5849614990234373,0,0,0.7644
3.16047033702489,0,0,1.5155296508789062,0,0,0.53508
3.161856965016341,0,0,1.2761094848632812,0,0,0.99372
3.1632559260178823,0,0,1.1611878051757811,0,0,0.53508
3.1646425730141345,0,0,1.197100830078125,0,0,0.68796
3.166028757026652,0,0,1.3192051147460937,0,0,0.84084
3.16741434801952,0,0,1.4772224243164063,0,0,0.30576000000000003
3.1688010130019393,0,0,1.37906015625,0,0,0.91728
3.170186179020675,0,0,1.5610194824218748,0,0,0.84084
3.1715785850246903,0,0,1.3407529296874998,0,0,0.7644
3.17296537902439,0,0,1.2473790649414063,0,0,0.84084
3.174352378002368,0,0,1.0749965454101562,0,0,0.45864
3.1757380430062767,0,0,1.3096283081054687,0,0,0.45864
3.1771247459982987,0,0,1.4125789794921875,0,0,0.7644
3.1785098550026305,0,0,1.5921441040039062,0,0,0.99372
3.1798959470179398,0,0,1.426944189453125,0,0,0.84084
3.1812818340258673,0,0,1.649604943847656,0,0,0.91728
3.1827765530033503,0,0,1.1659762084960936,0,0,0.84084
3.1841639040212613,0,0,1.1420341918945311,0,0,1.07016
3.1855516060022637,0,0,1.1923124267578125,0,0,0.6115200000000001
3.1869388449995313,0,0,1.3120225097656248,0,0,0.22932
3.1883255660068244,0,0,1.5011644409179687,0,0,0.84084
3.189712565013906,0,0,1.4939818359375,0,0,0.7644
3.191176970023662,0,0,1.438915197753906,0,0,0.84084
3.1925658940162975,0,0,1.3958195678710936,0,0,0.7644
3.1939535780111328,0,0,1.1228805786132812,0,0,0.91728
3.1953411510039587,0,0,1.177947216796875,0,0,0.84084
3.196749519003788,0,0,1.2497732666015624,0,0,0.6115200000000001
3.198136814025929,0,0,1.3742717529296875,0,0,0.7644
3.199523980001686,0,0,1.4604630126953124,0,0,0.30576000000000003
3.200910052022664,0,0,1.3479355346679687,0,0,0.30576000000000003
3.202339124021819,0,0,1.47482822265625,0,0,0.84084
3.2037678260239772,0,0,1.149216796875,0,0,0.91728
3.2051851210126188,0,0,1.2904746948242187,0,0,0.84084
3.2065720270038582,0,0,1.0845733520507812,0,0,0.53508
3.2079586920153815,0,0,1.1707646118164061,0,0,0.3822
3.2093443020130508,0,0,1.235408056640625,0,0,0.91728
3.2107511700014584,0,0,1.465251416015625,0,0,0.6115200000000001
3.2121502430236433,0,0,1.3239935180664062,0,0,0.84084
3.2135345190181397,0,0,1.465251416015625,0,0,0.68796
3.2149137960223015,0,0,1.2378022583007813,0,0,0.7644
3.2163087200024165,0,0,1.2330138549804688,0,0,0.53508
3.2176880890037864,0,0,1.235408056640625,0,0,0.7644
3.2190668469993398,0,0,1.1731588134765625,0,0,0.53508
3.2204455680039246,0,0,1.3120225097656248,0,0,0.7644
3.221834011026658,0,0,1.3766659545898436,0,0,0.15288000000000002
3.223213047022,0,0,1.455674609375,0,0,0.7644
3.2245988229988143,0,0,1.637633935546875,0,0,0.53508
3.2259886740066577,0,0,1.197100830078125,0,0,0.7644
3.2273750430031214,0,0,1.1372457885742187,0,0,0.3822
3.228760060010245,0,0,1.3000515014648437,0,0,0.68796
3.230138225015253,0,0,1.24498486328125,0,0,0.3822
3.2315165940090083,0,0,1.467645617675781,0,0,0.6115200000000001
3.232905445009237,0,0,1.216254443359375,0,0,0.68796
3.2342980360263027,0,0,1.4101847778320311,0,0,0.91728
3.2356840900029056,0,0,1.1228805786132812,0,0,0.3822
3.237078033009311,0,0,1.254561669921875,0,0,0.68796
3.2384622910176404,0,0,1.1276689819335937,0,0,0.53508
3.2398486040183343,0,0,1.1228805786132812,0,0,0.68796
3.2412344550248235,0,0,1.3144167114257812,0,0,0.91728
3.24262008300866,0,0,1.407790576171875,0,0,0.6115200000000001
3.2440054890175816,0,0,1.4149731811523436,0,0,0.91728
3.245391191012459,0,0,1.419761584472656,0,0,0.91728
3.2467772829986643,0,0,1.139639990234375,0,0,0.68796
3.248163207026664,0,0,1.1707646118164061,0,0,0.84084
3.249559150019195,0,0,1.1563994018554686,0,0,0.53508
3.250944741012063,0,0,1.2593500732421874,0,0,0.6115200000000001
3.2523302210029215,0,0,1.4006079711914061,0,0,0.68796
3.2537163680244703,0,0,1.446097802734375,0,0,0.53508
3.2551025150169153,0,0,1.2641384765625,0,0,0.84084
3.2564883840095717,0,0,1.467645617675781,0,0,0.7644
3.258055176003836,0,0,1.1851298217773436,0,0,0.7644
3.259461341018323,0,0,1.2593500732421874,0,0,0.68796
3.2608498400077224,0,0,1.0797849487304687,0,0,0.68796
3.262235487025464,0,0,1.2042834350585936,0,0,0.68796
3.2636222440050915,0,0,1.3359645263671873,0,0,0.30576000000000003
3.2650093540141825,0,0,1.4053963745117186,0,0,0.68796
3.2663955940224696,0,0,1.6232687255859375,0,0,0.7644
3.2677821289980784,0,0,1.139639990234375,0,0,0.84084
3.269165554025676,0,0,1.1827356201171875,0,0,0.84084
3.2705439230194315,0,0,1.177947216796875,0,0,0.53508
3.2719226620101836,0,0,1.2497732666015624,0,0,0.68796
3.2733098460012116,0,0,1.2473790649414063,0,0,0.68796
3.2746967150014825,0,0,1.484405029296875,0,0,0.68796
3.2760835280059837,0,0,1.3000515014648437,0,0,0.68796
3.2774705270130653,0,0,1.6735469604492186,0,0,1.07016
3.2788570999982767,0,0,1.2234370483398436,0,0,0.68796
3.280251579999458,0,0,1.3048399047851562,0,0,0.68796
3.281638448999729,0,0,1.0773907470703123,0,0,0.84084
3.283025151002221,0,0,1.2018892333984375,0,0,0.6115200000000001
3.284412131004501,0,0,1.3287819213867187,0,0,0.7644
3.285792519018287,0,0,1.4891934326171874,0,0,0.84084
3.2871709059982095,0,0,1.4101847778320311,0,0,0.7644
3.288549775024876,0,0,1.5490484741210937,0,0,0.99372
3.2899375330016483,0,0,1.1875240234375,0,0,0.84084
3.2913237730099354,0,0,1.1133037719726562,0,0,0.6115200000000001
3.2927107530122157,0,0,1.13006318359375,0,0,0.68796
3.294096696015913,0,0,1.2665326782226562,0,0,0.6115200000000001
3.2954821020248346,0,0,1.5059528442382812,0,0,0.3822
3.2968685450032353,0,0,1.2928688964843749,0,0,0.84084
3.2982536360214,0,0,1.2976572998046874,0,0,0.7644
3.2996396899980027,0,0,1.1563994018554686,0,0,0.7644
3.3010260040173307,0,0,1.2737152832031249,0,0,0.99372
3.302410984004382,0,0,1.189918225097656,0,0,0.7644
3.3038042230182327,0,0,1.24498486328125,0,0,0.68796
3.3051903510058764,0,0,1.2282254516601563,0,0,0.68796
3.306576128001325,0,0,1.4772224243164063,0,0,0.6115200000000001
3.3079619409982115,0,0,1.35990654296875,0,0,0.7644
3.3093479580129497,0,0,1.37906015625,0,0,0.7644
3.310733974998584,0,0,1.2306196533203124,0,0,0.6115200000000001
3.3121194740233477,0,0,1.2689268798828124,0,0,0.91728
3.313505584024824,0,0,1.3431471313476562,0,0,0.7644
3.3148913600016385,0,0,1.1707646118164061,0,0,0.68796
3.316277322010137,0,0,1.369483349609375,0,0,0.99372
3.317663468013052,0,0,1.3527239379882812,0,0,0.6115200000000001
3.3190487080137245,0,0,1.3335703247070312,0,0,0.91728
3.3204342250246555,0,0,1.6065093139648436,0,0,0.84084
3.321820167999249,0,0,1.1827356201171875,0,0,0.68796
3.323205944005167,0,0,1.3096283081054687,0,0,0.6115200000000001
3.3245919800247066,0,0,1.1540052001953125,0,0,0.6115200000000001
3.325979127024766,0,0,1.1731588134765625,0,0,0.6115200000000001
3.3273649030015804,0,0,1.2521674682617188,0,0,0.68796
3.3287516060227063,0,0,1.3575123413085937,0,0,0.91728
3.330136289005168,0,0,1.5251064575195312,0,0,0.84084
3.331522529013455,0,0,1.446097802734375,0,0,0.7644
3.332908842014149,0,0,1.2138602416992186,0,0,1.1465999999999998
3.334294285014039,0,0,1.2641384765625,0,0,0.45864
3.335680376010714,0,0,1.1372457885742187,0,0,0.6115200000000001
3.3370667830167804,0,0,1.2521674682617188,0,0,0.91728
3.33845970701077,0,0,1.37906015625,0,0,0.22932
3.3398455940186977,0,0,1.3407529296874998,0,0,0.53508
3.3412317410111427,0,0,1.3862427612304686,0,0,0.84084
3.342617610003799,0,0,1.1324573852539062,0,0,0.84084
3.3440035350213293,0,0,1.1348515869140625,0,0,0.99372
3.345389348018216,0,0,1.0965443603515623,0,0,0.7644
3.3467811240116134,0,0,1.2114660400390624,0,0,0.6115200000000001
3.3481678270036355,0,0,1.2952630981445312,0,0,0.99372
3.349553862004541,0,0,1.455674609375,0,0,0.99372
3.3509395090222824,0,0,1.369483349609375,0,0,1.07016
3.3523254890169483,0,0,1.5562310791015623,0,0,0.91728
3.3537114320206456,0,0,1.1348515869140625,0,0,0.84084
3.355096801009495,0,0,1.2282254516601563,0,0,0.68796
3.3564822820189875,0,0,1.2521674682617188,0,0,0.6115200000000001
3.357868557999609,0,0,1.2138602416992186,0,0,0.45864
3.3592542050173506,0,0,1.2928688964843749,0,0,0.68796
3.3606402590230573,0,0,1.3527239379882812,0,0,0.68796
3.36202631299966,0,0,1.3910311645507811,0,0,0.68796
3.363411682017613,0,0,1.5083470458984374,0,0,0.68796
3.3647984950221144,0,0,1.2425906616210938,0,0,0.91728
3.366183661011746,0,0,1.0989385620117187,0,0,0.84084
3.367569270019885,0,0,1.1947066284179686,0,0,0.91728
3.368956510006683,0,0,1.2521674682617188,0,0,0.53508
3.3703415830095764,0,0,1.3239935180664062,0,0,0.45864
3.371727303019725,0,0,1.369483349609375,0,0,0.68796
3.373118339019129,0,0,1.3934253662109375,0,0,0.84084
3.374503930011997,0,0,1.209071838378906,0,0,0.68796
3.3758894840138964,0,0,1.189918225097656,0,0,0.91728
3.377280223998241,0,0,1.1013327636718748,0,0,0.91728
3.3786604260094464,0,0,1.1611878051757811,0,0,0.53508
3.38003912800923,0,0,1.3048399047851562,0,0,2.2931999999999997
3.3814206270035356,0,0,1.4604630126953124,0,0,0.30576000000000003
3.382799163024174,0,0,1.3862427612304686,0,0,0.53508
3.3841776059998665,0,0,1.467645617675781,0,0,0.99372
3.3855574010231066,0,0,1.1109095703125,0,0,1.07016
3.386936141003389,0,0,1.1563994018554686,0,0,0.99372
3.388314399024239,0,0,1.2138602416992186,0,0,0.7644
3.389699693012517,0,0,1.1851298217773436,0,0,0.53508
3.3910969880234916,0,0,1.2689268798828124,0,0,0.91728
3.39247620900278,0,0,1.350329736328125,0,0,0.7644
3.393864597019274,0,0,1.3144167114257812,0,0,0.84084
3.3952511320239864,0,0,1.5251064575195312,0,0,0.7644
3.3966462050157133,0,0,1.2114660400390624,0,0,0.91728
3.398032426019199,0,0,1.3144167114257812,0,0,0.91728
3.399419184017461,0,0,1.2018892333984375,0,0,0.45864
3.40081246002228,0,0,1.3024457031249999,0,0,0.45864
3.4021982359990943,0,0,1.4604630126953124,0,0,0.30576000000000003
3.403584772022441,0,0,1.4006079711914061,0,0,0.68796
3.4049692150147166,0,0,1.5035586425781249,0,0,0.91728
3.406346880015917,0,0,1.4724340209960938,0,0,0.68796
3.4077256380114704,0,0,1.1276689819335937,0,0,0.91728
3.409110378008336,0,0,1.1851298217773436,0,0,0.68796
3.4105233020090964,0,0,1.1252747802734375,0,0,0.68796
3.411907134024659,0,0,1.2330138549804688,0,0,0.6115200000000001
3.41330896600266,0,0,1.4221557861328125,0,0,0.45864
3.4146891120180953,0,0,1.3623007446289062,0,0,0.45864
3.416068222024478,0,0,1.4413093994140624,0,0,0.6115200000000001
3.417465758015169,0,0,1.1731588134765625,0,0,0.84084
3.4188878670101985,0,0,1.2378022583007813,0,0,0.45864
3.420270458009327,0,0,1.1444283935546875,0,0,0.68796
3.42165712302085,0,0,1.2497732666015624,0,0,0.53508
3.423036085005151,0,0,1.3383587280273437,0,0,1.07016
3.4244152510073036,0,0,1.4125789794921875,0,0,0.6115200000000001
3.425797064002836,0,0,1.3383587280273437,0,0,0.99372
3.427176026016241,0,0,1.5753846923828123,0,0,0.84084
3.428555080026854,0,0,1.139639990234375,0,0,0.7644
3.429934782005148,0,0,1.158793603515625,0,0,0.3822
3.431313263019547,0,0,1.350329736328125,0,0,0.6115200000000001
3.432704132021172,0,0,1.20667763671875,0,0,0.53508
3.4340946300071664,0,0,1.3455413330078123,0,0,0.6115200000000001
3.4354813510144595,0,0,1.3958195678710936,0,0,0.84084
3.436867294018157,0,0,1.438915197753906,0,0,0.68796
3.438254811015213,0,0,1.5251064575195312,0,0,0.84084
3.4396421250130516,0,0,1.3000515014648437,0,0,0.7644
3.4410285120247863,0,0,1.2425906616210938,0,0,0.6115200000000001
3.4424146590172313,0,0,1.1420341918945311,0,0,0.7644
3.443800639011897,0,0,1.2330138549804688,0,0,0.84084
3.445186471013585,0,0,1.2713210815429687,0,0,0.22932
3.446572840010049,0,0,1.2880804931640624,0,0,0.84084
3.4479590610135347,0,0,1.4820108276367188,0,0,0.99372
3.4493455960182473,0,0,1.2689268798828124,0,0,0.68796
3.4507310580229387,0,0,1.13006318359375,0,0,0.84084
3.4521529260091484,0,0,1.1540052001953125,0,0,0.68796
3.4536214420222677,0,0,1.209071838378906,0,0,0.99372
3.4550450700044166,0,0,1.2713210815429687,0,0,0.91728
3.4564339390199166,0,0,1.47482822265625,0,0,0.45864
3.4578215860237833,0,0,1.2928688964843749,0,0,0.84084
3.459208584012231,0,0,1.4796166259765624,0,0,0.53508
3.460595453012502,0,0,1.197100830078125,0,0,0.68796
3.461982674023602,0,0,1.1851298217773436,0,0,0.6115200000000001
3.463369136006804,0,0,1.218648645019531,0,0,0.6115200000000001
3.4647540599980857,0,0,1.2282254516601563,0,0,0.30576000000000003
3.4661322260217275,0,0,1.3000515014648437,0,0,0.68796
3.4675110390235204,0,0,1.4006079711914061,0,0,0.68796
3.4688970930001233,0,0,1.3311761230468748,0,0,0.84084
3.470284036011435,0,0,1.448492004394531,0,0,0.84084
3.4716712570225354,0,0,1.2306196533203124,0,0,0.91728
3.473058960022172,0,0,1.139639990234375,0,0,0.91728
3.4744446060212795,0,0,1.2210428466796874,0,0,0.7644
3.4758318090171088,0,0,1.2401964599609374,0,0,0.6115200000000001
3.4772189740033355,0,0,1.2832920898437499,0,0,0.15288000000000002
3.4786135280155577,0,0,1.3239935180664062,0,0,0.6115200000000001
3.4800002490228508,0,0,1.4700398193359374,0,0,0.91728
3.4813826730242,0,0,1.2282254516601563,0,0,0.84084
3.482761413004482,0,0,1.2042834350585936,0,0,0.84084
3.4841404300241265,0,0,1.189918225097656,0,0,0.91728
3.485527077020379,0,0,1.2210428466796874,0,0,0.3822
3.486913112021284,0,0,1.24498486328125,0,0,0.84084
3.4882986480079126,0,0,1.4939818359375,0,0,0.7644
3.4896842390007805,0,0,1.2928688964843749,0,0,0.91728
3.491069627023535,0,0,1.4915876342773438,0,0,0.68796
3.492455644009169,0,0,1.1324573852539062,0,0,0.99372
3.4938412720221095,0,0,1.2042834350585936,0,0,0.7644
3.495226826024009,0,0,1.0989385620117187,0,0,0.84084
3.4966120470198803,0,0,1.2761094848632812,0,0,0.6115200000000001
3.497999434999656,0,0,1.4508862060546874,0,0,0.84084
3.499385526025435,0,0,1.39821376953125,0,0,0.84084
3.5007719690038357,0,0,1.3144167114257812,0,0,0.7644
3.5021569119999185,0,0,1.467645617675781,0,0,0.6115200000000001
3.5035426890244707,0,0,1.2904746948242187,0,0,0.84084
3.5049285760032944,0,0,1.3144167114257812,0,0,1.1465999999999998
3.5063691480027046,0,0,1.1324573852539062,0,0,0.68796
3.5077868130174465,0,0,1.2856862915039062,0,0,0.53508
3.5091747370024677,0,0,1.5131354492187499,0,0,0.30576000000000003
3.5105614210187923,0,0,1.388636962890625,0,0,0.91728
3.5119483090238646,0,0,1.4628572143554686,0,0,0.91728
3.513349103013752,0,0,1.2330138549804688,0,0,0.99372
3.5147356940142345,0,0,1.3287819213867187,0,0,0.84084
3.5161226560012437,0,0,1.216254443359375,0,0,0.6115200000000001
3.517504544026451,0,0,1.24498486328125,0,0,0.6115200000000001
3.5188828940154053,0,0,1.2785036865234374,0,0,0.68796
3.520261689001927,0,0,1.438915197753906,0,0,0.6115200000000001
3.5216576690145303,0,0,1.3192051147460937,0,0,1.07016
3.5230450570234098,0,0,1.5418658691406248,0,0,0.91728
3.5244317410106305,0,0,1.1731588134765625,0,0,0.84084
3.525819387024967,0,0,1.24498486328125,0,0,0.84084
3.52720592301921,0,0,1.177947216796875,0,0,0.53508
3.5285921250178944,0,0,1.1707646118164061,0,0,0.30576000000000003
3.529978568025399,0,0,1.3359645263671873,0,0,0.68796
3.5313649190065917,0,0,1.4772224243164063,0,0,0.7644
3.532748788013123,0,0,1.3215993164062498,0,0,0.99372
3.534126805025153,0,0,1.438915197753906,0,0,0.68796
3.535505470004864,0,0,1.1468225952148436,0,0,0.84084
3.536890414019581,0,0,1.0869675537109373,0,0,0.6115200000000001
3.538277708023088,0,0,1.235408056640625,0,0,0.68796
3.539663670002483,0,0,1.2306196533203124,0,0,0.45864
3.5410497980192304,0,0,1.3958195678710936,0,0,0.53508
3.542434945004061,0,0,1.3215993164062498,0,0,0.45864
3.543820165999932,0,0,1.4772224243164063,0,0,0.68796
3.545205665024696,0,0,1.5083470458984374,0,0,0.68796
3.5465916450193617,0,0,1.2138602416992186,0,0,0.7644
3.54797718001646,0,0,1.180341418457031,0,0,0.6115200000000001
3.5493631420249585,0,0,1.1755530151367186,0,0,0.6115200000000001
3.5507490480085835,0,0,1.24498486328125,0,0,0.7644
3.5521343980217353,0,0,1.448492004394531,0,0,0.15288000000000002
3.5535202670143917,0,0,1.369483349609375,0,0,0.99372
3.5549061550118495,0,0,1.5203180541992187,0,0,0.99372
3.556291894026799,0,0,1.1540052001953125,0,0,0.91728
3.5576776710222475,0,0,1.2306196533203124,0,0,0.7644
3.5590630770020653,0,0,1.1563994018554686,0,0,0.68796
