Time,AccelX1,AccelY1,AccelZ1,AccelX2,AccelY2,AccelZ2
2.244400093331933e-05,0,0,1.2737152832031249,0,0,0.91728
0.0036893850192427635,0,0,1.2521674682617188,0,0,0.45864
0.008109003014396876,0,0,1.37906015625,0,0,0.6115200000000001
0.011658019007882103,0,0,1.2497732666015624,0,0,0.68796
0.015177184017375112,0,0,1.3263877197265623,0,0,0.53508
0.018698942003538832,0,0,1.659181750488281,0,0,1.07016
0.022223551000934094,0,0,1.3479355346679687,0,0,0.07644000000000001
0.02671503901365213,0,0,1.43652099609375,0,0,0.91728
0.030249463015934452,0,0,1.2234370483398436,0,0,0.91728
0.033768071996746585,0,0,1.3168109130859373,0,0,20
0.03726797801209614,0,0,1.1372457885742187,0,0,0.0
0.040780291019473225,0,0,1.1731588134765625,0,0,0.53508
0.0442893450090196,0,0,1.3311761230468748,0,0,0.91728
0.04781934301718138,0,0,1.4891934326171874,0,0,0.7644
0.051353137008845806,0,0,1.2880804931640624,0,0,0.68796
0.05494465300580487,0,0,1.3311761230468748,0,0,0.7644
0.05846807701163925,0,0,1.39821376953125,0,0,0.91728
0.06196989101590589,0,0,1.1707646118164061,0,0,0.3822
0.0654676670092158,0,0,1.2761094848632812,0,0,1.2230400000000001
0.06912581200595014,0,0,1.3575123413085937,0,0,0.15288000000000002
0.0732403029978741,0,0,1.0821791503906248,0,0,0.7644
0.07668424700386822,0,0,1.4532804077148436,0,0,0.7644
0.07949195700348355,0,0,1.3479355346679687,0,0,1.2230400000000001
0.08229355601361021,0,0,1.218648645019531,0,0,0.84084
0.08508396899560466,0,0,1.369483349609375,0,0,0.99372
0.0878822350059636,0,0,1.3958195678710936,0,0,1.1465999999999998
0.09068270400166512,0,0,1.1611878051757811,0,0,0.53508
0.0934842650021892,0,0,1.2497732666015624,0,0,1.2994800000000002
0.09628582702134736,0,0,1.465251416015625,0,0,0.45864
0.09999154601246119,0,0,1.1276689819335937,0,0,0.53508
0.10293845800333656,0,0,1.24498486328125,0,0,0.3822
0.1058132040197961,0,0,1.4532804077148436,0,0,0.53508
0.10860998800490052,0,0,1.4317325927734375,0,0,0.30576000000000003
0.11139334601466544,0,0,1.2761094848632812,0,0,0.68796
0.11421307400451042,0,0,1.3479355346679687,0,0,0.22932
0.11701354300021194,0,0,1.4604630126953124,0,0,0.53508
0.11981386400293559,0,0,1.2042834350585936,0,0,0.7644
0.12261207401752472,0,0,1.1468225952148436,0,0,0.7644
0.12542691300041042,0,0,1.3766659545898436,0,0,0.99372
0.12822993801091798,0,0,1.3934253662109375,0,0,0.7644
0.13102574099320918,0,0,1.254561669921875,0,0,1.07016
0.13383015399449505,0,0,1.2210428466796874,0,0,-8.943480000000001
0.1366317160136532,0,0,1.3934253662109375,0,0,1.1465999999999998
0.13943137001479045,0,0,1.4772224243164063,0,0,1.07016
0.14223483900423162,0,0,1.1156979736328125,0,0,0.7644
0.14503367900033481,0,0,1.3263877197265623,0,0,0.91728
0.1478333700215444,0,0,1.3168109130859373,0,0,0.7644
0.1506299129978288,0,0,1.2976572998046874,0,0,0.53508
0.1534282340144273,0,0,1.2306196533203124,0,0,1.2994800000000002
0.15622600002097897,0,0,1.2306196533203124,0,0,0.7644
0.15905165401636623,0,0,1.3383587280273437,0,0,0.53508
0.16185134500847198,0,0,1.2928688964843749,0,0,0.53508
0.1646507770055905,0,0,1.2976572998046874,0,0,0.22932
0.16747474600560963,0,0,1.3455413330078123,0,0,0.3822
0.17027449299348518,0,0,1.3096283081054687,0,0,0.53508
0.17317177599761635,0,0,1.4149731811523436,0,0,1.07016
0.17605287401238456,0,0,1.4221557861328125,0,0,0.91728
0.17917224700795487,0,0,1.6807295654296874,0,0,1.2230400000000001
0.18228963800356723,0,0,1.0726023437499999,0,0,0.6115200000000001
0.18542425200575963,0,0,1.3431471313476562,0,0,0.84084
0.18854216200998053,0,0,1.3670891479492187,0,0,0.53508
0.1916563500126358,0,0,1.1755530151367186,0,0,0.68796
0.19475255699944682,0,0,1.2904746948242187,0,0,0.91728
0.19786922601633705,0,0,1.3311761230468748,0,0,1.1465999999999998
0.2009827099973336,0,0,1.3766659545898436,0,0,0.91728
0.20409997200476937,0,0,1.3072341064453123,0,0,0.22932
0.20721101202070713,0,0,1.2473790649414063,0,0,0.45864
0.21032416299567558,0,0,1.2976572998046874,0,0,0.45864
0.21343792500556447,0,0,1.2378022583007813,0,0,1.07016
0.21655226100119762,0,0,1.2689268798828124,0,0,0.7644
0.21966261501074769,0,0,1.0821791503906248,0,0,1.1465999999999998
0.22277578501962125,0,0,1.2569558715820313,0,0,0.7644
0.22589884299668483,0,0,1.2401964599609374,0,0,0.6115200000000001
0.22901673399610445,0,0,1.3814543579101561,0,0,0.7644
0.23213038500398397,0,0,1.1013327636718748,0,0,0.68796
0.23522705500363372,0,0,1.3192051147460937,0,0,0.91728
0.23834816901944578,0,0,1.3192051147460937,0,0,0.7644
0.24145809700712562,0,0,1.1061211669921875,0,0,0.68796
0.24489470801199786,0,0,1.3623007446289062,0,0,0.99372
0.24803078401600942,0,0,1.1707646118164061,0,0,1.07016
0.25115047200233676,0,0,1.3383587280273437,0,0,1.07016
0.25426877100835554,0,0,1.3215993164062498,0,0,0.07644000000000001
0.25741036600084044,0,0,1.458068811035156,0,0,0.68796
0.26053101700381376,0,0,1.216254443359375,0,0,0.3822
0.2636477969936095,0,0,1.3742717529296875,0,0,1.45236
0.26676305901492015,0,0,1.2808978881835937,0,0,0.99372
0.26987895101774484,0,0,1.2234370483398436,0,0,0.7644
0.273346357018454,0,0,1.3239935180664062,0,0,0.6115200000000001
0.2765028960129712,0,0,1.4125789794921875,0,0,1.07016
0.27962104699690826,0,0,1.2521674682617188,0,0,0.99372
0.28276058699702844,0,0,1.0869675537109373,0,0,0.7644
0.2858885340101551,0,0,1.2928688964843749,0,0,0.30576000000000003
0.2890086660045199,0,0,1.649604943847656,0,0,0.45864
0.2921326679934282,0,0,1.199495031738281,0,0,0.6115200000000001
0.2952487080183346,0,0,1.2761094848632812,0,0,1.2230400000000001
0.29836508102016523,0,0,1.3431471313476562,0,0,0.99372
0.3014822140103206,0,0,1.2569558715820313,0,0,0.6115200000000001
0.30460017902078107,0,0,1.2282254516601563,0,0,0.30576000000000003
0.30774736701278016,0,0,1.2808978881835937,0,0,0.68796
0.3108641470025759,0,0,1.3575123413085937,0,0,0.84084
0.3139797050098423,0,0,1.350329736328125,0,0,0.7644
0.31711339301546104,0,0,1.4604630126953124,0,0,0.45864
0.3202812100062147,0,0,1.5035586425781249,0,0,0.6115200000000001
0.32350224899710156,0,0,1.2617442749023438,0,0,1.1465999999999998
0.3268130079959519,0,0,1.438915197753906,0,0,1.1465999999999998
0.3299350480083376,0,0,1.3000515014648437,0,0,1.1465999999999998
0.3330520690069534,0,0,1.0989385620117187,0,0,0.53508
0.33616992400493473,0,0,1.254561669921875,0,0,0.53508
0.3392842970206402,0,0,1.4437036010742186,0,0,0.68796
0.34240498501458205,0,0,1.1420341918945311,0,0,0.84084
0.34552530202199705,0,0,1.2282254516601563,0,0,0.91728
0.34864402702078223,0,0,1.3814543579101561,0,0,0.84084
0.35176201100694016,0,0,1.3575123413085937,0,0,0.91728
0.354961920005735,0,0,1.1133037719726562,0,0,0.53508
0.35808571899542585,0,0,1.3742717529296875,0,0,1.07016
0.3612028140050825,0,0,1.2689268798828124,0,0,0.6115200000000001
0.3643204469990451,0,0,1.3670891479492187,0,0,0.45864
0.3674354120157659,0,0,1.3239935180664062,0,0,0.22932
0.37059117399621755,0,0,1.1851298217773436,0,0,-9.24924
0.3737184360215906,0,0,1.3742717529296875,0,0,1.1465999999999998
0.3768869560153689,0,0,1.3551181396484375,0,0,1.1465999999999998
0.38000499599729665,0,0,1.4867992309570313,0,0,1.37592
0.38311938801780343,0,0,1.1563994018554686,0,0,0.53508
0.38623552001081407,0,0,1.22583125,0,0,0.30576000000000003
0.3893530410132371,0,0,1.465251416015625,0,0,0.68796
0.3924689330160618,0,0,1.1875240234375,0,0,0.22932
0.39561725000385195,0,0,1.2976572998046874,0,0,0.99372
0.3987370490212925,0,0,1.5035586425781249,0,0,0.7644
0.40185221799765714,0,0,1.2785036865234374,0,0,0.7644
0.4049716099980287,0,0,1.1635820068359375,0,0,0.22932
0.4080881310219411,0,0,1.484405029296875,0,0,0.68796
0.4112042259948794,0,0,1.189918225097656,0,0,0.6115200000000001
0.41431976601597853,0,0,1.209071838378906,0,0,0.68796
0.4174355650029611,0,0,1.3215993164062498,0,0,0.53508
0.420554270996945,0,0,1.3718775512695311,0,0,0.7644
0.42366951500298455,0,0,1.2521674682617188,0,0,0.91728
0.42679216602118686,0,0,1.6041151123046875,0,0,0.7644
0.42990820499835536,0,0,1.5155296508789062,0,0,1.1465999999999998
0.4330172270128969,0,0,1.1180921752929687,0,0,0.53508
0.4361303769983351,0,0,1.3048399047851562,0,0,0.22932
0.43924639900797047,0,0,1.3048399047851562,0,0,0.15288000000000002
0.44234597601462156,0,0,1.3120225097656248,0,0,0.53508
0.44546153402188793,0,0,1.3311761230468748,0,0,1.07016
0.44860475801397115,0,0,1.3192051147460937,0,0,0.99372
0.4517523350077681,0,0,1.254561669921875,0,0,0.84084
0.45488472600118257,0,0,1.3215993164062498,0,0,0.0
0.4580012290098239,0,0,1.4317325927734375,0,0,0.6115200000000001
0.4611173430166673,0,0,1.0773907470703123,0,0,0.30576000000000003
0.46423393799341284,0,0,1.3192051147460937,0,0,1.1465999999999998
0.4673528110142797,0,0,1.5227122558593749,0,0,0.30576000000000003
0.47046831401530653,0,0,1.2497732666015624,0,0,0.84084
0.4735832980077248,0,0,1.2521674682617188,0,0,0.7644
0.4767331519979052,0,0,1.4891934326171874,0,0,0.6115200000000001
0.47984332201303914,0,0,1.5538368774414062,0,0,0.84084
0.4830788230174221,0,0,1.0917559570312498,0,0,0.91728
0.4862034550169483,0,0,1.3575123413085937,0,0,0.53508
0.48932032799348235,0,0,1.429338391113281,0,0,0.6115200000000001
0.4924382750177756,0,0,1.22583125,0,0,0.6115200000000001
0.4955535560147837,0,0,1.180341418457031,0,0,0.68796
0.4986864840029739,0,0,1.2617442749023438,0,0,0.91728
0.5020337619935162,0,0,1.3551181396484375,0,0,0.7644
0.5143669219978619,0,0,1.2210428466796874,0,0,0.68796
0.5175946459930856,0,0,1.3431471313476562,0,0,0.6115200000000001
0.520706704002805,0,0,1.1061211669921875,0,0,0.6115200000000001
0.5238190030213445,0,0,1.139639990234375,0,0,0.7644
0.5269163030025084,0,0,1.4891934326171874,0,0,0.7644
0.5300145460059866,0,0,1.4939818359375,0,0,1.2230400000000001
0.5331139379995875,0,0,1.1085153686523437,0,0,0.68796
0.5366329360113014,0,0,1.5179238525390624,0,0,0.91728
0.5404641900095157,0,0,1.438915197753906,0,0,0.84084
0.54367193300277,0,0,1.254561669921875,0,0,0.53508
0.5467909910075832,0,0,1.448492004394531,0,0,0.53508
0.549893568007974,0,0,1.4413093994140624,0,0,0.68796
0.5530142560019158,0,0,1.3575123413085937,0,0,0.68796
0.5561240359966177,0,0,1.1276689819335937,0,0,0.84084
0.5592188349983189,0,0,1.5179238525390624,0,0,0.99372
0.5623674300150014,0,0,1.3575123413085937,0,0,1.07016
0.5654871370061301,0,0,1.1851298217773436,0,0,0.15288000000000002
0.5686049729993101,0,0,1.5107412475585937,0,0,0.7644
0.5718011040007696,0,0,1.0989385620117187,0,0,0.91728
0.575238381017698,0,0,1.3168109130859373,0,0,-9.47856
0.5783518100215588,0,0,1.3096283081054687,0,0,0.68796
0.5812529440154321,0,0,1.2737152832031249,0,0,0.3822
0.5841364680090919,0,0,1.3263877197265623,0,0,0.45864
0.5869351230212487,0,0,1.254561669921875,0,0,0.6115200000000001
0.5897560540179256,0,0,1.419761584472656,0,0,0.45864
0.5925495790143032,0,0,1.3455413330078123,0,0,0.68796
0.5953311409975868,0,0,1.3168109130859373,0,0,0.30576000000000003
0.5981358140124939,0,0,1.3431471313476562,0,0,0.6115200000000001
0.600935283000581,0,0,1.2856862915039062,0,0,1.07016
0.6037343820207752,0,0,1.120486376953125,0,0,0.6115200000000001
0.6065317770116962,0,0,1.2856862915039062,0,0,0.91728
0.609321413008729,0,0,1.5251064575195312,0,0,0.84084
0.6121154010179453,0,0,1.3958195678710936,0,0,1.07016
0.6149378510017414,0,0,1.2689268798828124,0,0,0.84084
0.6178375600138679,0,0,1.4508862060546874,0,0,0.6115200000000001
0.6206752140133176,0,0,1.2282254516601563,0,0,0.91728
0.6235259230015799,0,0,1.2114660400390624,0,0,0.7644
0.6267683689948171,0,0,1.2378022583007813,0,0,0.7644
0.6295946890022606,0,0,1.3814543579101561,0,0,1.1465999999999998
0.6324022879998665,0,0,1.2042834350585936,0,0,0.91728
0.6352037939941511,0,0,1.1133037719726562,0,0,0.84084
0.6379890410171356,0,0,1.2617442749023438,0,0,0.91728
0.6407897510216571,0,0,1.4053963745117186,0,0,0.99372
0.6435895720205735,0,0,1.1540052001953125,0,0,0.91728
0.6463873010070529,0,0,1.209071838378906,0,0,0.7644
0.6491856219945475,0,0,1.467645617675781,0,0,0.99372
0.6519780910166446,0,0,1.24498486328125,0,0,0.91728
0.6547913560061716,0,0,1.24498486328125,0,0,1.2994800000000002
0.6575932140112855,0,0,1.3335703247070312,0,0,0.7644
0.6603924240043852,0,0,1.5083470458984374,0,0,0.7644
0.6631862450158224,0,0,0.9457096557617187,0,0,0.45864
0.6659830290009268,0,0,1.3311761230468748,0,0,0.6115200000000001
0.6687799800129142,0,0,1.2689268798828124,0,0,0.6115200000000001
0.6716587069968227,0,0,1.1540052001953125,0,0,0.7644
0.67445860200678,0,0,1.2497732666015624,0,0,0.6115200000000001
0.6773062190040946,0,0,1.4796166259765624,0,0,0.3822
0.6801038359990343,0,0,1.465251416015625,0,0,0.53508
0.6829008610220626,0,0,1.2785036865234374,0,0,0.84084
0.6856987560167909,0,0,1.2425906616210938,0,0,0.0
0.6884975400171243,0,0,1.3766659545898436,0,0,0.30576000000000003
0.6912927130179014,0,0,1.1276689819335937,0,0,0.99372
0.694089682016056,0,0,1.2737152832031249,0,0,0.45864
0.6968894110177644,0,0,1.3359645263671873,0,0,0.68796
0.6997186570079066,0,0,1.4341267944335936,0,0,0.84084
0.7025156629970297,0,0,1.3646949462890625,0,0,0.99372
0.7053157440095674,0,0,1.3766659545898436,0,0,0.99372
0.708131935010897,0,0,1.3431471313476562,0,0,0.91728
0.7109304600162432,0,0,1.4724340209960938,0,0,1.2230400000000001
0.7137268549995497,0,0,1.218648645019531,0,0,0.7644
0.7165261940099299,0,0,1.3000515014648437,0,0,1.07016
0.7193229969998356,0,0,1.3024457031249999,0,0,1.07016
0.7221195769961923,0,0,1.3766659545898436,0,0,0.7644
0.7249200460209977,0,0,1.3455413330078123,0,0,1.5288
0.7277182190155145,0,0,1.254561669921875,0,0,0.68796
0.7305136329960078,0,0,1.388636962890625,0,0,0.6115200000000001
0.733310176001396,0,0,1.1420341918945311,0,0,0.68796
0.7361097749962937,0,0,1.2593500732421874,0,0,0.30576000000000003
0.7389054289960768,0,0,1.2689268798828124,0,0,0.68796
0.7417157310119364,0,0,1.1731588134765625,0,0,0.7644
0.7445149410050362,0,0,1.2282254516601563,0,0,0.30576000000000003
0.7473093729931861,0,0,1.4413093994140624,0,0,0.30576000000000003
0.7501067309931386,0,0,1.47482822265625,0,0,0.84084
0.7529044969996903,0,0,1.1707646118164061,0,0,0.68796
0.7557017439976335,0,0,1.1420341918945311,0,0,0.0
0.75849702800042,0,0,1.5275006591796874,0,0,0.53508
0.7612935159995686,0,0,1.1563994018554686,0,0,0.91728
0.764090725017013,0,0,1.1276689819335937,0,0,0.53508
0.766884195007151,0,0,1.3215993164062498,0,0,0.84084
0.7696818300173618,0,0,1.235408056640625,0,0,0.84084
0.7724782260193024,0,0,1.16837041015625,0,0,0.7644
0.7760019639972597,0,0,1.3575123413085937,0,0,0.84084
0.7789368030207697,0,0,1.37906015625,0,0,0.84084
0.7820135280198883,0,0,1.369483349609375,0,0,0.91728
0.7851307530072518,0,0,1.3575123413085937,0,0,1.1465999999999998
0.788245663017733,0,0,1.4413093994140624,0,0,0.45864
0.7913603140041232,0,0,1.2378022583007813,0,0,0.7644
0.7944754649943206,0,0,1.1611878051757811,0,0,0.53508
0.7975938930176198,0,0,1.2378022583007813,0,0,0.99372
0.8007097850204445,0,0,1.455674609375,0,0,0.91728
0.8038305280206259,0,0,1.2210428466796874,0,0,0.91728
0.8069459380058106,0,0,1.3144167114257812,0,0,0.0
0.8100624039943796,0,0,1.599326708984375,0,0,0.53508
0.8131774619978387,0,0,1.0175357055664063,0,0,0.84084
0.816291891009314,0,0,1.2641384765625,0,0,20
0.8213690010015853,0,0,1.3670891479492187,0,0,0.68796
0.8246102250122931,0,0,1.1348515869140625,0,0,0.84084
0.8277517830138095,0,0,1.2521674682617188,0,0,0.99372
0.83087245200295,0,0,1.3096283081054687,0,0,0.91728
0.8339809740136843,0,0,1.1276689819335937,0,0,0.6115200000000001
0.8371012170100585,0,0,1.4437036010742186,0,0,0.53508
0.8402185710147023,0,0,1.388636962890625,0,0,0.22932
0.843332389020361,0,0,1.3096283081054687,0,0,0.7644
0.8464473920175806,0,0,1.3383587280273437,0,0,0.91728
0.8495607280055992,0,0,1.3096283081054687,0,0,0.91728
0.8527222300181165,0,0,1.2665326782226562,0,0,0.53508
0.8558396210137289,0,0,1.2401964599609374,0,0,0.15288000000000002
0.8589509020093828,0,0,1.235408056640625,0,0,0.68796
0.8620647010102402,0,0,1.1085153686523437,0,0,0.53508
0.8651770740107168,0,0,1.2808978881835937,0,0,0.53508
0.8686257210210897,0,0,1.3838485595703125,0,0,0.30576000000000003
0.8717485390079673,0,0,1.2521674682617188,0,0,0.53508
0.8749002999975346,0,0,1.254561669921875,0,0,1.98744
0.8780552660173271,0,0,2.061407629394531,0,0,2.36964
0.8811731390014756,0,0,2.2266075439453124,0,0,2.2167600000000003
0.88428430800559,0,0,2.731784094238281,0,0,1.37592
0.8873803660098929,0,0,1.956062756347656,0,0,1.911
0.890500758017879,0,0,1.678335363769531,0,0,0.91728
0.8936398340156302,0,0,1.3646949462890625,0,0,1.37592
0.8967548000218812,0,0,1.7190367919921874,0,0,1.07016
0.8998972469998989,0,0,2.4779987182617185,0,0,1.83456
0.902991156995995,0,0,1.8650830932617186,0,0,1.2230400000000001
0.9061116040102206,0,0,1.6304513305664061,0,0,0.84084
0.9092273480200674,0,0,1.7764976318359373,0,0,0.84084
0.9123439250106458,0,0,1.5442600708007812,0,0,1.60524
0.9154840749979485,0,0,1.8315642700195311,0,0,1.911
0.918601244018646,0,0,1.9967641845703124,0,0,0.7644
0.9217203030129895,0,0,1.467645617675781,0,0,1.2230400000000001
0.9248356019961648,0,0,2.221819140625,0,0,1.37592
0.9279521600110456,0,0,1.599326708984375,0,0,1.07016
0.9310647179954685,0,0,1.9776105712890624,0,0,0.99372
0.9341795539949089,0,0,1.5514426757812498,0,0,1.2230400000000001
0.9372936309955548,0,0,1.5251064575195312,0,0,1.2230400000000001
0.9404091890028212,0,0,2.0757728393554684,0,0,1.1465999999999998
0.9435232480172999,0,0,2.3439234252929686,0,0,1.45236
0.9469524690066464,0,0,1.7429788085937499,0,0,1.75812
0.9500746010162402,0,0,1.8411410766601561,0,0,0.68796
0.9531956220162101,0,0,1.678335363769531,0,0,0.91728
0.9563142920087557,0,0,1.1085153686523437,0,0,1.911
0.95942975700018,0,0,2.511517541503906,0,0,1.911
0.9625485930009745,0,0,1.687912170410156,0,0,0.68796
0.9656637070002034,0,0,2.080561242675781,0,0,1.83456
0.9687782840046566,0,0,2.1308394775390624,0,0,0.84084
0.9718941390165128,0,0,0.603338818359375,0,0,-0.22932
0.975008252018597,0,0,2.4660277099609376,0,0,2.14032
0.9781550140178297,0,0,2.602497204589844,0,0,1.37592
0.9812749609991442,0,0,1.4820108276367188,0,0,0.84084
0.9843917039979715,0,0,2.559401574707031,0,0,1.07016
0.9875052440038417,0,0,0.7829039428710937,0,0,0.68796
0.9906204880098812,0,0,2.104503259277344,0,0,1.75812
0.9937353980203625,0,0,1.4317325927734375,0,0,1.5288
0.9968502150150016,0,0,2.2840683837890623,0,0,1.83456
0.9999659960158169,0,0,1.407790576171875,0,0,1.07016
1.0031804600148462,0,0,1.5227122558593749,0,0,1.60524
1.0064014249946922,0,0,1.1659762084960936,0,0,0.84084
1.0096674810047261,0,0,2.6216508178710938,0,0,0.3822
1.0128644650103524,0,0,1.7597382202148437,0,0,0.91728
1.0160843180201482,0,0,2.4253262817382812,0,0,1.75812
1.0200102750095539,0,0,1.4796166259765624,0,0,0.6115200000000001
1.0239368430047762,0,0,1.7501614135742187,0,0,2.52252
1.0272899720002897,0,0,2.31758720703125,0,0,0.91728
1.0305523989954963,0,0,1.9871873779296874,0,0,-1.68168
1.0338307520141825,0,0,2.01112939453125,0,0,2.75184
1.0370115319965407,0,0,2.549824768066406,0,0,2.6754
1.040139682998415,0,0,0.7733271362304687,0,0,-1.1465999999999998
1.043251463008346,0,0,1.3527239379882812,0,0,2.75184
1.046368744020583,0,0,3.7397429931640622,0,0,1.5288
1.0495483569975477,0,0,0.469263525390625,0,0,0.22932
1.0527978390164208,0,0,1.1851298217773436,0,0,1.83456
1.0559607300092466,0,0,3.0071172851562498,0,0,2.36964
1.0590696959989145,0,0,0.7781155395507812,0,0,0.0
1.062217569007771,0,0,1.369483349609375,0,0,2.52252
1.0653757380205207,0,0,3.928884924316406,0,0,2.5989600000000004
1.0685275360010564,0,0,-0.4261678955078125,0,0,-0.30576000000000003
1.0718718880089,0,0,2.6288334228515624,0,0,0.0
1.0780358200136106,0,0,-0.8283937744140625,0,0,1.45236
1.0812846920161974,0,0,2.8467057739257813,0,0,1.911
1.0834080200002063,0,0,2.4205378784179685,0,0,1.45236
1.0848756339983083,0,0,-0.1388636962890625,0,0,0.0
1.086316433007596,0,0,-0.45489831542968745,0,0,0.84084
1.087810546014225,0,0,2.3247698120117186,0,0,0.84084
1.0892646230058745,0,0,3.1292215698242187,0,0,1.2994800000000002
1.0907335140218493,0,0,2.1715409057617188,0,0,0.22932
1.092207089997828,0,0,0.7589619262695312,0,0,-8.943480000000001
1.093689240020467,0,0,-0.833182177734375,0,0,-0.45864
1.0951645949971862,0,0,0.6153098266601562,0,0,0.0
1.0966482630174141,0,0,2.7653029174804686,0,0,1.1465999999999998
1.0981288030161522,0,0,2.8419173706054686,0,0,1.60524
1.0999355230014771,0,0,0.9337386474609375,0,0,1.45236
1.101499320997391,0,0,-0.74699091796875,0,0,0.15288000000000002
1.104105681006331,0,0,1.9632453613281249,0,0,1.1465999999999998
1.105535720998887,0,0,2.8036101440429686,0,0,-8.7906
1.1069686679984443,0,0,2.346317626953125,0,0,1.2994800000000002
1.108353857009206,0,0,1.3192051147460937,0,0,0.6115200000000001
1.1097352860087994,0,0,-0.5602431884765625,0,0,-0.30576000000000003
1.111118400003761,0,0,0.9935936889648437,0,0,9.32568
1.1124990149983205,0,0,1.936909143066406,0,0,0.84084
1.113878703006776,0,0,1.9584569580078124,0,0,1.07016
1.1152584289957304,0,0,1.4125789794921875,0,0,0.45864
1.1166399320063647,0,0,0.28012159423828126,0,0,-9.40212
1.118019991001347,0,0,0.031124621582031248,0,0,0.3822
1.1193989570019767,0,0,1.6448165405273436,0,0,1.45236
1.120781164005166,0,0,2.748543505859375,0,0,1.60524
1.1221602230216376,0,0,2.5522189697265625,0,0,1.83456
1.1235433560214005,0,0,0.8068459594726562,0,0,0.99372
1.1249239890021272,0,0,0.09337386474609374,0,0,-0.53508
1.1263037140015513,0,0,-0.20350714111328125,0,0,0.0
1.127686755004106,0,0,2.109291662597656,0,0,0.91728
1.129067425004905,0,0,2.398990063476562,0,0,0.91728
1.1304457240039483,0,0,1.4724340209960938,0,0,0.84084
1.1318270240153652,0,0,0.603338818359375,0,0,0.84084
1.1332068229967263,0,0,-0.30406361083984373,0,0,-0.7644
1.1345872899983078,0,0,0.737414111328125,0,0,0.15288000000000002
1.1359684230119456,0,0,1.3718775512695311,0,0,1.2230400000000001
1.1373472590057645,0,0,1.8746598999023436,0,0,1.911
1.138725818018429,0,0,2.3439234252929686,0,0,1.68168
1.1401070989959408,0,0,1.3192051147460937,0,0,2.14032
1.1414859910146333,0,0,-0.1580173095703125,0,0,0.0
1.1428651610040106,0,0,1.0821791503906248,0,0,-0.22932
1.1442463500134181,0,0,1.838746875,0,0,0.99372
1.1456252610078081,0,0,2.674323254394531,0,0,1.2994800000000002
1.1470044490124565,0,0,2.1164742675781247,0,0,0.99372
1.148391619004542,0,0,1.3096283081054687,0,0,0.45864
1.1497781590151135,0,0,-0.6200982299804687,0,0,0.15288000000000002
1.1511654400092084,0,0,0.45968671875,0,0,0.0
1.152551184000913,0,0,1.5322890624999999,0,0,0.6115200000000001
1.153937038994627,0,0,2.0566192260742184,0,0,1.2994800000000002
1.1553234680031892,0,0,1.8315642700195311,0,0,1.1465999999999998
1.1567194530216511,0,0,0.7398083129882812,0,0,0.84084
1.1581055489950813,0,0,0.5147533569335937,0,0,0.6115200000000001
1.1594923860102426,0,0,1.7741034301757812,0,0,1.2994800000000002
1.1608820740075316,0,0,2.1595698974609374,0,0,0.7644
1.162268281012075,0,0,2.1499930908203124,0,0,1.37592
1.1636550250113942,0,0,1.4508862060546874,0,0,1.1465999999999998
1.1650408240093384,0,0,0.6440402465820312,0,0,-0.53508
1.1664270680048503,0,0,1.2473790649414063,0,0,0.53508
1.1678149230137933,0,0,1.4796166259765624,0,0,0.7644
1.1692004820215516,0,0,1.608903515625,0,0,0.84084
1.1705867450218648,0,0,1.37906015625,0,0,0.15288000000000002
1.1719747290189844,0,0,0.842758984375,0,0,1.2230400000000001
1.1733690660039429,0,0,-0.15083470458984374,0,0,9.40212
1.1747566430130973,0,0,1.235408056640625,0,0,1.1465999999999998
1.17614301701542,0,0,1.9584569580078124,0,0,1.75812
1.1775296500127297,0,0,2.3032219970703123,0,0,2.36964
1.1789155790174846,0,0,2.2481553588867187,0,0,1.75812
1.1803018969949335,0,0,1.4867992309570313,0,0,1.2230400000000001
1.1816880849946756,0,0,0.35673604736328124,0,0,0.0
1.183073958993191,0,0,1.5849614990234373,0,0,0.0
1.184459665993927,0,0,1.9800047729492187,0,0,0.99372
1.185845688014524,0,0,1.8914193115234375,0,0,0.6115200000000001
1.1872311909974087,0,0,1.1372457885742187,0,0,0.84084
1.1886174899991602,0,0,0.316034619140625,0,0,-9.631440000000001
1.1900045860093087,0,0,-0.2825157958984375,0,0,0.7644
1.1914006820006762,0,0,1.5753846923828123,0,0,0.45864
1.1927868330094498,0,0,1.5203180541992187,0,0,0.99372
1.194172855000943,0,0,1.4173673828125,0,0,0.53508
1.1955717469973024,0,0,0.8188169677734375,0,0,1.2230400000000001
1.1969575099938083,0,0,0.3136404174804687,0,0,0.45864
1.1983434940048028,0,0,2.020706201171875,0,0,0.6115200000000001
1.1997302570089232,0,0,2.7748797241210936,0,0,1.75812
1.201115149015095,0,0,2.987963671875,0,0,1.60524
1.202501004008809,0,0,1.1156979736328125,0,0,0.84084
1.203887729003327,0,0,0.7876923461914062,0,0,0.84084
1.2052732140000444,0,0,0.4477157104492187,0,0,-0.68796
1.2066596249933355,0,0,2.138022082519531,0,0,0.53508
1.208045053994283,0,0,2.2649147705078123,0,0,1.75812
1.2094307609950192,0,0,1.6160861206054686,0,0,1.1465999999999998
1.2108168569975533,0,0,0.7398083129882812,0,0,0.0
1.2122028970043175,0,0,0.13407529296874998,0,0,0.68796
1.213589048013091,0,0,-0.3016694091796875,0,0,9.24924
1.2149758290033787,0,0,1.5490484741210937,0,0,1.1465999999999998
1.21636242500972,0,0,2.9496564453125,0,0,2.2167600000000003
1.217747946997406,0,0,2.5330653564453125,0,0,1.68168
1.2191341540019494,0,0,1.7956512451171873,0,0,1.2994800000000002
1.220520472008502,0,0,0.0430956298828125,0,0,0.22932
1.2219061230134685,0,0,-0.21068974609375,0,0,0.6115200000000001
1.2232934969943017,0,0,1.3575123413085937,0,0,0.45864
1.2246806299954187,0,0,2.5761609863281247,0,0,1.2230400000000001
1.2260691330011468,0,0,2.39420166015625,0,0,0.7644
1.227469506993657,0,0,0.5626373901367188,0,0,1.2994800000000002
1.2289246940054,0,0,-0.28969840087890625,0,0,-1.07016
1.2303080490091816,0,0,1.20667763671875,0,0,0.84084
1.231707497005118,0,0,2.109291662597656,0,0,1.5288
1.2331079260038678,0,0,2.588131994628906,0,0,1.2230400000000001
1.2345548360026442,0,0,1.3407529296874998,0,0,0.45864
1.2359686540148687,0,0,0.5722141967773438,0,0,0.99372
1.2373490830068476,0,0,0.1771709228515625,0,0,0.0
1.2387296600209083,0,0,2.2290017456054687,0,0,1.5288
1.2401113670202903,0,0,2.7054478759765623,0,0,1.83456
1.2414914820110425,0,0,2.3343466186523436,0,0,0.91728
1.2428711150132585,0,0,0.9528922607421875,0,0,0.0
1.244251672993414,0,0,0.22744915771484372,0,0,-0.68796
1.2456368800194468,0,0,-0.14125789794921875,0,0,-0.3822
1.2470171799941454,0,0,1.8914193115234375,0,0,0.7644
1.2484302009979729,0,0,3.2249896362304686,0,0,1.60524
1.249809353001183,0,0,2.2649147705078123,0,0,1.5288
1.251187893009046,0,0,0.86191259765625,0,0,0.3822
1.2525728220061865,0,0,-1.0127473022460938,0,0,-1.07016
1.2539777510100976,0,0,-0.6200982299804687,0,0,0.53508
1.2553585139976349,0,0,2.6695348510742187,0,0,1.07016
1.2567394800134934,0,0,3.603273498535156,0,0,2.2931999999999997
1.2581192979996558,0,0,3.227383837890625,0,0,1.5288
1.2595123200153466,0,0,0.97683427734375,0,0,1.45236
1.2608923420193605,0,0,-0.488417138671875,0,0,-1.07016
1.2622724560205825,0,0,1.0630255371093749,0,0,-0.15288000000000002
1.263659460004419,0,0,2.2936451904296873,0,0,1.60524
1.2650450369983446,0,0,3.2321722412109373,0,0,1.911
1.2664319100149442,0,0,1.7214309936523438,0,0,1.2994800000000002
1.2678193580068182,0,0,0.5267243652343749,0,0,0.68796
1.2692045090079773,0,0,-0.8858546142578124,0,0,-1.07016
1.2705915130209178,0,0,0.9026140258789062,0,0,0.07644000000000001
1.2719889970030636,0,0,2.1715409057617188,0,0,1.5288
1.2733749820035882,0,0,2.7461493041992187,0,0,1.68168
1.2747611330123618,0,0,1.6256629272460936,0,0,1.45236
1.2761472480196971,0,0,0.82360537109375,0,0,0.7644
1.277533640008187,0,0,-0.7637503295898437,0,0,0.30576000000000003
1.2789205510052852,0,0,1.0773907470703123,0,0,0.53508
1.280312072020024,0,0,3.3399113159179685,0,0,1.68168
1.2816979460185394,0,0,3.095702746582031,0,0,1.37592
1.2830839680100325,0,0,1.9776105712890624,0,0,0.53508
1.2844703040027525,0,0,-0.3591302490234375,0,0,-0.30576000000000003
1.2858576040016487,0,0,-0.852335791015625,0,0,0.0
1.2872443480009679,0,0,1.6208745239257811,0,0,0.07644000000000001
1.2886307949956972,0,0,2.8754361938476563,0,0,1.45236
1.290016873012064,0,0,2.858676782226562,0,0,0.91728
1.2914028390077874,0,0,1.2234370483398436,0,0,0.3822
1.2927891940053087,0,0,-0.5339069702148437,0,0,-1.2994800000000002
1.29417579001165,0,0,-1.16837041015625,0,0,0.15288000000000002
1.2955720150202978,0,0,1.5179238525390624,0,0,1.2994800000000002
1.2969580920180306,0,0,2.8730419921875,0,0,1.5288
1.2983442989934701,0,0,2.4301146850585935,0,0,1.37592
1.299731025006622,0,0,1.6424223388671875,0,0,1.83456
1.3011163799965288,0,0,-0.0383072265625,0,0,-0.6115200000000001
1.3025032170116901,0,0,0.20829554443359374,0,0,-0.53508
1.303890275012236,0,0,1.3239935180664062,0,0,1.75812
1.3052767229964957,0,0,3.0597897216796874,0,0,1.45236
1.306662615010282,0,0,2.5067291381835934,0,0,1.2994800000000002
1.3080486740218475,0,0,1.7262193969726563,0,0,1.07016
1.3094353990163654,0,0,-0.7134720947265625,0,0,-0.22932
1.3108224400202744,0,0,0.38307226562499996,0,0,-0.30576000000000003
1.3122091840195935,0,0,2.3032219970703123,0,0,1.68168
1.3135954280151054,0,0,2.2864625854492187,0,0,1.37592
1.3149824310094118,0,0,1.8531120849609375,0,0,0.99372
1.3163686750049237,0,0,0.062249243164062495,0,0,0.7644
1.317754788993625,0,0,-0.36391865234375,0,0,0.68796
1.3191416629997548,0,0,0.70868369140625,0,0,0.53508
1.3205262219998986,0,0,2.5665841796874997,0,0,1.2230400000000001
1.322842085006414,0,0,2.023100402832031,0,0,1.83456
1.324245810013963,0,0,0.06703764648437499,0,0,0.22932
1.3256342580134515,0,0,-0.5195417602539062,0,0,0.0
1.3270242800062988,0,0,0.7565677246093749,0,0,-0.45864
1.3284315970086027,0,0,2.7916391357421872,0,0,0.91728
1.3298192670044955,0,0,2.7557261108398436,0,0,1.2230400000000001
1.3312065110076219,0,0,1.4796166259765624,0,0,1.07016
1.3325879220210481,0,0,-0.181959326171875,0,0,0.22932
1.3339678880001884,0,0,-0.9193734375,0,0,0.0
1.3353469470166601,0,0,1.3646949462890625,0,0,0.22932
1.3367362840217538,0,0,2.2385785522460937,0,0,0.84084
1.3381239350128453,0,0,2.4492682983398435,0,0,2.2167600000000003
1.3395126789982896,0,0,2.2457611572265623,0,0,2.14032
1.3409014780190773,0,0,0.507570751953125,0,0,0.30576000000000003
1.3422937410068698,0,0,-0.09337386474609374,0,0,0.07644000000000001
1.3436854850151576,0,0,0.8547299926757812,0,0,0.6115200000000001
1.3450733580102678,0,0,2.1356278808593747,0,0,0.53508
1.346460417000344,0,0,2.7629087158203123,0,0,0.99372
1.3478445690125227,0,0,2.446874096679687,0,0,2.14032
1.349223665019963,0,0,-0.33518823242187495,0,0,-0.15288000000000002
1.3506037600163836,0,0,-0.13407529296874998,0,0,0.0
1.3519966710009612,0,0,0.8954314208984374,0,0,0.99372
1.35337580399937,0,0,1.8339584716796873,0,0,0.15288000000000002
1.354754400003003,0,0,2.001552587890625,0,0,0.30576000000000003
1.3561414029973093,0,0,0.7661445312499999,0,0,1.1465999999999998
1.357528758002445,0,0,0.1867477294921875,0,0,0.0
1.3589158719987608,0,0,0.622492431640625,0,0,0.07644000000000001
1.3602980239957105,0,0,2.384624853515625,0,0,1.911
1.3616770090011414,0,0,2.2002713256835937,0,0,1.45236
1.3630561419995502,0,0,1.5682020874023437,0,0,0.68796
1.3644454040040728,0,0,0.43574470214843747,0,0,0.15288000000000002
1.3658312960178591,0,0,0.13168109130859373,0,0,0.30576000000000003
1.367217540013371,0,0,2.195482922363281,0,0,0.30576000000000003
1.3686019880115055,0,0,2.568978381347656,0,0,0.84084
1.3699859910120722,0,0,2.370259643554687,0,0,1.45236
1.3715288999956101,0,0,0.8307879760742187,0,0,0.3822
1.3729177369968966,0,0,-0.17956512451171874,0,0,-0.84084
1.3743078320112545,0,0,0.43574470214843747,0,0,0.30576000000000003
1.3756965950015,0,0,1.7621324218749999,0,0,1.60524
1.3770835240138695,0,0,2.5378537597656248,0,0,1.45236
1.3785219900019001,0,0,2.0542250244140625,0,0,1.37592
1.3799271220050287,0,0,1.8195932617187498,0,0,2.06388
1.3813117370009422,0,0,0.3399766357421875,0,0,-0.68796
1.3827012029942125,0,0,0.45968671875,0,0,0.0
1.384497683000518,0,0,2.233790148925781,0,0,1.75812
1.3858888340182602,0,0,2.152387292480469,0,0,1.68168
1.3872763190011028,0,0,1.1156979736328125,0,0,0.30576000000000003
1.3886647110048216,0,0,0.3902548706054687,0,0,-0.30576000000000003
1.3900542140181642,0,0,0.16998831787109375,0,0,0.53508
1.3914420510118362,0,0,1.8339584716796873,0,0,0.45864
1.3928713500208687,0,0,1.936909143066406,0,0,0.7644
1.3942591499944683,0,0,1.3623007446289062,0,0,1.68168
1.3956443940114696,0,0,1.180341418457031,0,0,1.1465999999999998
1.3970225450175349,0,0,0.8571241943359375,0,0,0.0
1.3984048260026611,0,0,1.1563994018554686,0,0,1.37592
1.399789552000584,0,0,2.1547814941406247,0,0,1.83456
1.4011772030207794,0,0,1.9393033447265624,0,0,0.6115200000000001
1.4025667429959867,0,0,1.1851298217773436,0,0,0.7644
1.4039544130209833,0,0,0.7278373046875,0,0,0.84084
1.4053417130198795,0,0,0.35194764404296874,0,0,-0.6115200000000001
1.406729920010548,0,0,1.2569558715820313,0,0,0.45864
1.4081174970197026,0,0,2.2936451904296873,0,0,2.2167600000000003
1.4095043330162298,0,0,2.1595698974609374,0,0,1.1465999999999998
1.410891244013328,0,0,1.2114660400390624,0,0,0.6115200000000001
1.4122740990133025,0,0,-0.06703764648437499,0,0,0.53508
1.413654491014313,0,0,-0.2657563842773437,0,0,-0.84084
1.4150343090004753,0,0,1.24498486328125,0,0,0.22932
1.41642955300631,0,0,3.327940307617187,0,0,2.2931999999999997
1.4178158160066232,0,0,3.2537200561523436,0,0,2.4460800000000003
1.4192019299953245,0,0,0.7996633544921875,0,0,0.22932
1.4205885080154985,0,0,-0.8906430175781249,0,0,-0.91728
1.4219762330176309,0,0,-1.1061211669921875,0,0,-0.53508
1.4233633470139466,0,0,2.080561242675781,0,0,0.15288000000000002
1.424750184000004,0,0,3.0621839233398433,0,0,1.911
1.4261358910007402,0,0,1.838746875,0,0,1.68168
1.427522615995258,0,0,0.7805097412109374,0,0,0.53508
1.428931119007757,0,0,-0.28012159423828126,0,0,-1.07016
1.4303154929948505,0,0,0.5339069702148437,0,0,0.22932
1.431749976996798,0,0,1.9943699829101562,0,0,1.1465999999999998
1.4331470540200826,0,0,2.645592834472656,0,0,-9.09636
1.434526965022087,0,0,1.8938135131835936,0,0,1.45236
1.4359081530128606,0,0,1.1324573852539062,0,0,1.2994800000000002
1.4372874720138498,0,0,-0.17956512451171874,0,0,-0.53508
1.43866767900181,0,0,1.3168109130859373,0,0,1.45236
1.4400487189996056,0,0,3.1747114013671873,0,0,1.98744
1.4414276480092667,0,0,2.4684219116210935,0,0,0.7644
1.4428061700018588,0,0,1.2378022583007813,0,0,0.84084
1.4441861920058727,0,0,-0.9097966308593749,0,0,0.15288000000000002
1.4455665099958424,0,0,-0.7158662963867187,0,0,-0.84084
1.446946606010897,0,0,0.8714894042968749,0,0,0.45864
1.448327738995431,0,0,3.1364041748046874,0,0,2.4460800000000003
1.449706353014335,0,0,2.7054478759765623,0,0,1.911
1.4510851530067157,0,0,0.41419688720703124,0,0,1.07016
1.4524733970174566,0,0,-0.6919242797851562,0,0,0.45864
1.4538599000079557,0,0,-0.9217676391601562,0,0,-0.6115200000000001
1.4552474770171102,0,0,2.6886884643554687,0,0,0.68796
1.4566333690017927,0,0,3.756502404785156,0,0,2.06388
1.4580187990213744,0,0,2.1068974609374997,0,0,2.4460800000000003
1.4594050800078548,0,0,0.8259995727539062,0,0,0.53508
1.4607933610095643,0,0,-0.7900865478515624,0,0,-1.60524
1.4621812340046745,0,0,0.373495458984375,0,0,-0.53508
1.4635687000118196,0,0,2.389413256835937,0,0,0.45864
1.464970296015963,0,0,3.375824340820312,0,0,1.5288
1.4663551330158953,0,0,2.128445275878906,0,0,2.14032
1.4677426170092076,0,0,1.0606313354492187,0,0,1.45236
1.4691279540129472,0,0,-1.4796166259765624,0,0,-1.98744
1.4705159199947957,0,0,-0.27293898925781246,0,0,-0.53508
1.471903960016789,0,0,1.9033903198242186,0,0,1.37592
1.4733579440217,0,0,3.526659045410156,0,0,1.45236
1.4747456140175927,0,0,2.4779987182617185,0,0,2.06388
1.4761325620056596,0,0,0.1388636962890625,0,0,1.98744
1.4775180100114085,0,0,-1.0462661254882812,0,0,-0.68796
1.4789068649988621,0,0,-0.16759411621093748,0,0,-0.30576000000000003
1.480293978995178,0,0,2.674323254394531,0,0,1.2994800000000002
1.481678964017192,0,0,3.2561142578125,0,0,1.07016
1.483182410011068,0,0,1.93451494140625,0,0,0.53508
1.4845807100064121,0,0,0.3495534423828125,0,0,0.84084
1.4859671940212138,0,0,-0.41898529052734373,0,0,-0.15288000000000002
1.4873739010072313,0,0,1.3551181396484375,0,0,0.53508
1.4887624040129595,0,0,2.1619640991210938,0,0,1.2994800000000002
1.4901487960014492,0,0,2.5713725830078125,0,0,2.14032
1.491536300018197,0,0,1.7214309936523438,0,0,1.45236
1.49292343200068,0,0,0.21787235107421873,0,0,-1.2230400000000001
1.4943115650094114,0,0,-0.603338818359375,0,0,0.15288000000000002
1.4956995680113323,0,0,1.5298948608398437,0,0,0.7644
1.4970859239983838,0,0,3.3590649291992185,0,0,1.2230400000000001
1.4984723899979144,0,0,2.7916391357421872,0,0,1.911
1.4998592820193153,0,0,2.1835119140624997,0,0,2.82828
1.5012450439971872,0,0,-1.2306196533203124,0,0,-1.1465999999999998
1.5026321220211685,0,0,-0.8786720092773437,0,0,-0.84084
1.504019440006232,0,0,3.2609026611328122,0,0,1.45236
1.5054058500099927,0,0,4.115632653808594,0,0,0.3822
1.506792205007514,0,0,2.8131869506835936,0,0,1.75812
1.508178449003026,0,0,-0.22026655273437498,0,0,1.60524
1.5095653970201965,0,0,-1.8746598999023436,0,0,-1.07016
1.5109526780142915,0,0,0.7158662963867187,0,0,-1.07016
1.5123398849973455,0,0,2.090138049316406,0,0,0.6115200000000001
1.5137289249978494,0,0,3.0262708984374997,0,0,1.60524
1.51511587301502,0,0,2.418143676757812,0,0,1.68168
1.5165025610185694,0,0,1.1228805786132812,0,0,2.90472
1.5178885649947915,0,0,-0.5434837768554687,0,0,0.3822
1.519295678997878,0,0,1.2737152832031249,0,0,-0.7644
1.5206831819959916,0,0,2.6958710693359373,0,0,1.45236
1.522069869999541,0,0,3.162740393066406,0,0,2.2167600000000003
1.5234747810172848,0,0,2.138022082519531,0,0,1.60524
1.5248623950174078,0,0,0.7565677246093749,0,0,-0.45864
1.5262490090099163,0,0,-0.6248866333007812,0,0,-9.707880000000001
1.5276370500214398,0,0,1.2497732666015624,0,0,0.3822
1.5290272379934322,0,0,2.8131869506835936,0,0,0.15288000000000002
1.5304130559961777,0,0,2.231395947265625,0,0,1.37592
1.531800208002096,0,0,1.5035586425781249,0,0,1.68168
1.5331856920092832,0,0,-0.7038952880859375,0,0,-1.07016
1.5345728620013688,0,0,-0.29927520751953124,0,0,1.45236
1.5359610879968386,0,0,1.9680337646484374,0,0,1.45236
1.5373468500038143,0,0,2.7820623291015623,0,0,1.07016
1.5387326870113611,0,0,2.592920397949219,0,0,1.45236
1.5401213750010356,0,0,1.1444283935546875,0,0,2.75184
1.5415077670186292,0,0,-0.37828386230468747,0,0,-1.07016
1.542895029997453,0,0,1.4508862060546874,0,0,-0.45864
1.544282014016062,0,0,2.31758720703125,0,0,1.5288
1.5456684620003216,0,0,2.7940333374023436,0,0,1.2230400000000001
1.5470539840171114,0,0,1.6328455322265625,0,0,0.30576000000000003
1.5484409320051782,0,0,0.3399766357421875,0,0,0.99372
1.5498269530071411,0,0,-0.7805097412109374,0,0,0.07644000000000001
1.5512222340039443,0,0,1.3096283081054687,0,0,9.32568
1.5527468840009533,0,0,2.2744915771484373,0,0,1.45236
1.5541443690017331,0,0,2.446874096679687,0,0,1.37592
1.5555330570205115,0,0,2.195482922363281,0,0,2.06388
1.556919986003777,0,0,0.023942016601562498,0,0,0.22932
1.5583066749968566,0,0,-0.5434837768554687,0,0,0.84084
1.559694807016058,0,0,0.8786720092773437,0,0,0.7644
1.5610809400095604,0,0,2.233790148925781,0,0,-0.3822
1.5624675920116715,0,0,2.583343591308594,0,0,0.53508
1.563854613021249,0,0,1.4101847778320311,0,0,1.37592
1.5652401910047047,0,0,0.016759411621093748,0,0,-0.6115200000000001
1.5666261010046583,0,0,-0.12210428466796874,0,0,1.2994800000000002
1.5680126970109995,0,0,1.1013327636718748,0,0,1.2230400000000001
1.569397940998897,0,0,1.66636435546875,0,0,0.0
1.5707824070123024,0,0,1.2689268798828124,0,0,0.53508
1.572573999001179,0,0,1.6041151123046875,0,0,-0.22932
1.5741442590078805,0,0,1.1037269653320312,0,0,0.84084
1.5755394290026743,0,0,2.741360900878906,0,0,1.2230400000000001
1.5769274689955637,0,0,2.5953145996093747,0,0,1.2230400000000001
1.578335454018088,0,0,1.4939818359375,0,0,2.4460800000000003
1.5797238270170055,0,0,0.9864110839843749,0,0,0.99372
1.581110590021126,0,0,-0.699106884765625,0,0,-1.5288
1.5824999820033554,0,0,0.4429273071289062,0,0,-0.22932
1.5838877450150903,0,0,2.636016027832031,0,0,0.91728
1.585273970005801,0,0,2.760514514160156,0,0,1.1465999999999998
1.586660547007341,0,0,1.2928688964843749,0,0,0.7644
1.5880470690026414,0,0,-0.08140285644531249,0,0,1.2230400000000001
1.5894354979973286,0,0,-0.3447650390625,0,0,-1.60524
1.590822889993433,0,0,2.2649147705078123,0,0,0.0
1.5922162079950795,0,0,2.674323254394531,0,0,1.68168
1.5936035079939757,0,0,2.70065947265625,0,0,1.2230400000000001
1.594996585015906,0,0,1.0702081420898437,0,0,1.5288
1.5963835330039728,0,0,0.16759411621093748,0,0,1.07016
1.5977697950147558,0,0,-0.1292868896484375,0,0,0.07644000000000001
1.5991568170138635,0,0,2.2768857788085937,0,0,-0.22932
1.6005433020181954,0,0,2.29843359375,0,0,0.84084
1.6019296750018839,0,0,1.915361328125,0,0,1.37592
1.60331562301144,0,0,1.2282254516601563,0,0,0.99372
1.604702108015772,0,0,0.258573779296875,0,0,0.15288000000000002
1.606088685017312,0,0,0.2537853759765625,0,0,1.2230400000000001
1.607475485012401,0,0,1.9297265380859374,0,0,0.30576000000000003
1.608862302993657,0,0,2.5426421630859375,0,0,1.75812
1.6102490650082473,0,0,1.7764976318359373,0,0,1.83456
1.6116359940206166,0,0,1.177947216796875,0,0,1.5288
1.613021238008514,0,0,-0.105344873046875,0,0,-0.99372
1.6144089449953754,0,0,0.6464344482421874,0,0,0.91728
1.6157957450195681,0,0,2.3439234252929686,0,0,1.75812
1.617182378016878,0,0,2.4851813232421875,0,0,0.6115200000000001
1.6185712139995303,0,0,1.3742717529296875,0,0,1.98744
1.6199578280211426,0,0,0.1149216796875,0,0,1.5288
1.6213404430018272,0,0,-0.8164227661132812,0,0,-1.1465999999999998
1.6227263350156136,0,0,0.3280056274414062,0,0,0.0
1.624126338021597,0,0,2.9376854370117185,0,0,1.68168
1.625513786013471,0,0,3.220201232910156,0,0,1.1465999999999998
1.6269005300127901,0,0,1.0726023437499999,0,0,1.1465999999999998
1.6282865139946807,0,0,-0.3064578125,0,0,1.2230400000000001
1.629679888021201,0,0,-1.3623007446289062,0,0,8.867040000000001
1.6310674650012515,0,0,2.0183119995117185,0,0,0.0
1.632461894012522,0,0,3.0741549316406247,0,0,1.83456
1.6338497120013926,0,0,2.104503259277344,0,0,1.5288
1.6352370670065284,0,0,1.4700398193359374,0,0,0.7644
1.6366442930011544,0,0,-0.07422025146484375,0,0,-0.45864
1.6380265550105833,0,0,-0.086191259765625,0,0,-0.3822
1.6394141690107062,0,0,2.1811177124023438,0,0,-0.30576000000000003
1.6408050800091587,0,0,3.3446997192382812,0,0,1.2230400000000001
1.6421929539937992,0,0,1.8004396484374998,0,0,1.5288
1.6435772349941544,0,0,0.7852981445312499,0,0,0.84084
1.6449562940106262,0,0,-1.180341418457031,0,0,9.24924
1.6463357040192932,0,0,0.143652099609375,0,0,0.84084
1.6477213560137898,0,0,3.114856359863281,0,0,1.37592
1.6491079140105285,0,0,3.42849677734375,0,0,1.5288
1.650494288012851,0,0,2.3295582153320313,0,0,1.98744
1.6518804020015523,0,0,-0.2059013427734375,0,0,1.98744
1.6532675719936378,0,0,-1.3575123413085937,0,0,-1.60524
1.6546543720178306,0,0,-0.19632453613281248,0,0,0.0
1.6560414860141464,0,0,3.0166940917968748,0,0,1.68168
1.6574273040168919,0,0,3.392583752441406,0,0,0.7644
1.6588126780116,0,0,2.061407629394531,0,0,2.2167600000000003
1.6601985699962825,0,0,0.814028564453125,0,0,2.4460800000000003
1.661584314017091,0,0,-1.2976572998046874,0,0,0.15288000000000002
1.6629729279957246,0,0,1.3263877197265623,0,0,-0.68796
1.6643595610221382,0,0,2.403778466796875,0,0,0.99372
1.6657457500114106,0,0,2.1404162841796874,0,0,1.2994800000000002
1.6671315120183863,0,0,1.7645266235351562,0,0,1.37592
1.6685174040030688,0,0,0.2059013427734375,0,0,0.3822
1.669903833011631,0,0,-0.6153098266601562,0,0,1.37592
1.6713520030025393,0,0,1.189918225097656,0,0,0.0
1.6727363020181656,0,0,3.459621398925781,0,0,0.7644
1.6741153610055335,0,0,2.3127988037109373,0,0,1.5288
1.6755097529967315,0,0,2.1595698974609374,0,0,2.06388
1.6768897930160165,0,0,-0.51714755859375,0,0,0.7644
1.678268741001375,0,0,-0.7110778930664062,0,0,0.84084
1.6796499850170221,0,0,1.1731588134765625,0,0,9.09636
1.6810285260144155,0,0,3.440467785644531,0,0,0.53508
1.6824174920038786,0,0,2.272097375488281,0,0,1.5288
1.6838025879987981,0,0,1.1372457885742187,0,0,2.14032
1.6851888690143824,0,0,-0.4285620971679687,0,0,0.3822
1.68657540899585,0,0,-0.7517793212890624,0,0,-0.22932
1.687964782002382,0,0,1.5490484741210937,0,0,0.91728
1.689349674998084,0,0,2.798821740722656,0,0,0.0
1.6907353819988202,0,0,2.592920397949219,0,0,1.07016
1.6921214220055845,0,0,1.1851298217773436,0,0,2.36964
1.6935071840125602,0,0,-0.603338818359375,0,0,-0.3822
1.6949018360173795,0,0,1.2042834350585936,0,0,-1.1465999999999998
1.6962888940179255,0,0,1.9919757812499999,0,0,1.75812
1.6976743609993719,0,0,2.636016027832031,0,0,0.53508
1.6990600489953067,0,0,2.607285607910156,0,0,2.14032
1.7004461630131118,0,0,0.9241618408203125,0,0,0.91728
1.7018319810158573,0,0,-1.39821376953125,0,0,-0.30576000000000003
1.7032187250151765,0,0,0.49320554199218747,0,0,-0.99372
1.7046056360122748,0,0,1.9752163696289062,0,0,-8.56128
1.7059912870172411,0,0,2.6575638427734374,0,0,1.75812
1.7073770310089458,0,0,2.2457611572265623,0,0,1.07016
1.7087631089962088,0,0,-0.49799394531249996,0,0,1.2230400000000001
1.7101493530208245,0,0,-0.9552864624023437,0,0,0.0
1.7115367450169288,0,0,0.6488286499023437,0,0,0.68796
1.7129227480036207,0,0,3.2609026611328122,0,0,0.84084
1.7143086770083755,0,0,3.2130186279296873,0,0,2.2931999999999997
1.715695051010698,0,0,1.3838485595703125,0,0,2.4460800000000003
1.717080016998807,0,0,-0.19153613281249998,0,0,0.07644000000000001
1.7184662799991202,0,0,-1.3311761230468748,0,0,-0.53508
1.7198552089976147,0,0,1.675941162109375,0,0,8.7906
1.7212387309991755,0,0,3.2154128295898436,0,0,0.07644000000000001
1.7226229369989596,0,0,2.932897033691406,0,0,1.68168
1.7240823290194385,0,0,1.5011644409179687,0,0,2.4460800000000003
1.725469499011524,0,0,-0.14125789794921875,0,0,-0.30576000000000003
1.7268644090218004,0,0,0.01915361328125,0,0,-0.30576000000000003
1.7282505610201042,0,0,0.9241618408203125,0,0,1.2230400000000001
1.7296388969989493,0,0,2.454056701660156,0,0,0.30576000000000003
1.7310249190195464,0,0,2.6910826660156246,0,0,1.45236
1.7324120700068306,0,0,1.5490484741210937,0,0,1.911
1.733797796012368,0,0,-0.4165910888671875,0,0,0.30576000000000003
1.7351840579940472,0,0,0.9145850341796874,0,0,0.07644000000000001
1.7365700060036033,0,0,2.2864625854492187,0,0,1.60524
1.7379553980135825,0,0,2.0374656127929685,0,0,0.84084
1.739341142005287,0,0,2.480392919921875,0,0,1.45236
1.7407267749949824,0,0,0.1388636962890625,0,0,-0.91728
1.7421129080175888,0,0,-0.6584054565429687,0,0,0.53508
1.7435147070209496,0,0,0.6416460449218749,0,0,9.40212
1.7449017470062245,0,0,2.5570073730468748,0,0,1.1465999999999998
1.7462882139952853,0,0,2.0973206542968748,0,0,2.36964
1.747675013000844,0,0,1.1851298217773436,0,0,1.5288
1.7490603500045836,0,0,-0.143652099609375,0,0,0.53508
1.750446334015578,0,0,-0.8499415893554687,0,0,0.45864
1.7518336340144742,0,0,1.7310078002929687,0,0,0.84084
1.7532269149960484,0,0,3.4572271972656248,0,0,0.22932
1.754613066004822,0,0,3.086125939941406,0,0,1.75812
1.7559993290051352,0,0,1.6807295654296874,0,0,2.4460800000000003
1.757385091012111,0,0,0.2753331909179687,0,0,-0.30576000000000003
1.7587713910033926,0,0,-0.565031591796875,0,0,-0.53508
1.760158302000491,0,0,0.8834604125976562,0,0,0.6115200000000001
1.7615447120042518,0,0,2.6001030029296874,0,0,0.07644000000000001
1.7629306970047764,0,0,3.0430303100585934,0,0,0.6115200000000001
1.764316829998279,0,0,1.8315642700195311,0,0,2.2931999999999997
1.7657031290000305,0,0,-0.6009446166992187,0,0,0.3822
1.767089594999561,0,0,0.32561142578124996,0,0,0.0
1.7684762100107037,0,0,1.1540052001953125,0,0,1.2230400000000001
1.7698682500049472,0,0,2.0877438476562498,0,0,1.1465999999999998
1.771253846003674,0,0,2.3295582153320313,0,0,0.3822
1.7726424419961404,0,0,0.7733271362304687,0,0,0.99372
1.7740325189952273,0,0,-0.05027823486328125,0,0,0.53508
1.775419540994335,0,0,1.1156979736328125,0,0,0.7644
1.7768055990163703,0,0,2.528276953125,0,0,1.5288
1.7781915660016239,0,0,1.946485949707031,0,0,1.45236
1.7795779209991451,0,0,0.5722141967773438,0,0,0.22932
1.78096360899508,0,0,-0.5003881469726562,0,0,-1.75812
1.7823508350120392,0,0,-0.6655880615234374,0,0,0.6115200000000001
1.7837383190053515,0,0,2.6048914062499997,0,0,1.37592
1.785123008012306,0,0,3.0214824951171875,0,0,1.2994800000000002
1.7865088070102502,0,0,1.3311761230468748,0,0,2.14032
1.7878950879967306,0,0,0.469263525390625,0,0,1.2230400000000001
1.7892799060209654,0,0,-0.5339069702148437,0,0,-0.53508
1.7906669650110416,0,0,1.37906015625,0,0,0.3822
1.7920531910203863,0,0,2.868253588867187,0,0,2.4460800000000003
1.7934388050052803,0,0,3.670311145019531,0,0,0.30576000000000003
1.7948250680055935,0,0,2.1787235107421874,0,0,1.60524
1.7962111630185973,0,0,1.0773907470703123,0,0,1.60524
1.797596832999261,0,0,-0.8930372192382812,0,0,-0.91728
1.798983707005391,0,0,0.45010991210937495,0,0,0.0
1.800369432021398,0,0,2.0781670410156248,0,0,0.91728
1.801756713015493,0,0,2.24097275390625,0,0,0.68796
1.8031425310182385,0,0,2.147598889160156,0,0,0.15288000000000002
1.8045289239962585,0,0,0.13168109130859373,0,0,1.5288
1.8059149640030228,0,0,-0.5147533569335937,0,0,0.6115200000000001
1.807301560009364,0,0,0.6967126831054687,0,0,0.3822
1.8086877110181376,0,0,1.956062756347656,0,0,1.45236
1.8100730660080444,0,0,1.7645266235351562,0,0,1.2994800000000002
1.811471402994357,0,0,1.3000515014648437,0,0,0.30576000000000003
1.812857258017175,0,0,0.6727706665039062,0,0,-0.6115200000000001
1.8142501310212538,0,0,0.4213794921875,0,0,1.45236
1.8156478379969485,0,0,2.6815058593749996,0,0,1.75812
1.8170374339970294,0,0,2.6527754394531247,0,0,1.37592
1.8184229189937469,0,0,1.6352397338867186,0,0,1.83456
1.8198068480123766,0,0,0.16280571289062498,0,0,0.68796
1.8211850179941393,0,0,-0.8403647827148437,0,0,-2.36964
1.8225963909935672,0,0,1.8531120849609375,0,0,-0.45864
1.824303243018221,0,0,3.6248213134765623,0,0,2.75184
1.8256862090202048,0,0,2.6192566162109374,0,0,2.2167600000000003
1.8270662680151872,0,0,1.4867992309570313,0,0,1.07016
1.8297592379967682,0,0,-1.5729904907226562,0,0,-1.83456
1.831150426005479,0,0,0.6607996582031249,0,0,-0.99372
1.8325428550015204,0,0,4.264073156738281,0,0,1.83456
1.8339302109961864,0,0,3.517082238769531,0,0,2.4460800000000003
1.8353169730107766,0,0,2.5737667846679684,0,0,1.5288
1.8366978650155943,0,0,-1.2880804931640624,0,0,0.45864
1.8380771650117822,0,0,-2.001552587890625,0,0,-0.53508
1.8394863160210662,0,0,2.288856787109375,0,0,0.0
1.8408748749934603,0,0,3.7804444213867185,0,0,0.3822
1.8422613780130632,0,0,3.21780703125,0,0,2.14032
1.8436476399947423,0,0,1.4053963745117186,0,0,1.68168
1.8450343660078943,0,0,-0.4429273071289062,0,0,0.0
1.8464216840220615,0,0,-0.06703764648437499,0,0,0.07644000000000001
1.8478064460214227,0,0,1.8770541015625,0,0,0.22932
1.8491846719989553,0,0,3.0430303100585934,0,0,0.68796
1.8505632120068185,0,0,2.1547814941406247,0,0,1.98744
1.8519473820051644,0,0,0.8714894042968749,0,0,2.4460800000000003
1.8533406820206437,0,0,-0.1771709228515625,0,0,-1.60524
1.8547294810123276,0,0,0.6488286499023437,0,0,0.45864
1.8561167810112238,0,0,2.7174188842773437,0,0,1.5288
1.8575029320199974,0,0,3.1699229980468746,0,0,1.5288
1.858905102009885,0,0,2.068590234375,0,0,1.45236
1.8602923639991786,0,0,0.507570751953125,0,0,1.2994800000000002
1.8616777200077195,0,0,-2.085349645996094,0,0,-1.45236
1.8630648340040352,0,0,0.06464344482421874,0,0,-1.5288
1.8644510589947458,0,0,4.278438366699218,0,0,1.75812
1.865836692013545,0,0,3.928884924316406,0,0,2.4460800000000003
1.8672223440080415,0,0,2.5426421630859375,0,0,1.75812
1.8686114760057535,0,0,-1.5083470458984374,0,0,0.99372
1.869998239009874,0,0,-2.8036101440429686,0,0,-1.60524
1.871396075002849,0,0,1.2880804931640624,0,0,-1.98744
1.8727821159991436,0,0,3.9504327392578125,0,0,0.53508
1.8741676740173716,0,0,4.240131140136718,0,0,2.14032
1.8755686960066669,0,0,1.465251416015625,0,0,1.98744
1.8769545880204532,0,0,-0.9193734375,0,0,0.6115200000000001
1.8783408690069336,0,0,-2.2673089721679687,0,0,-0.45864
1.8797293720126618,0,0,0.17238251953125,0,0,-2.14032
1.8811149680113886,0,0,2.0159177978515626,0,0,0.0
1.8825003420060966,0,0,2.8107927490234372,0,0,1.83456
1.8838864190038294,0,0,1.9129671264648436,0,0,0.22932
1.8852721260045655,0,0,-0.43574470214843747,0,0,1.911
1.8866583520139102,0,0,-2.3822306518554686,0,0,-1.1465999999999998
1.8880458180210553,0,0,-0.055066638183593745,0,0,-2.06388
1.8894327839952894,0,0,2.8275521606445313,0,0,3.0576
1.8908183239982463,0,0,2.592920397949219,0,0,1.2230400000000001
1.8922041790210642,0,0,2.1883003173828124,0,0,1.83456
1.8935901079967152,0,0,-0.5099649536132812,0,0,2.14032
1.8949762970150914,0,0,-0.9313444458007812,0,0,-2.2931999999999997
1.896363559004385,0,0,1.5418658691406248,0,0,0.7644
1.8977491550031118,0,0,2.5234885498046875,0,0,-0.84084
1.899138770007994,0,0,3.8091748413085935,0,0,1.60524
1.9005232360213995,0,0,1.66636435546875,0,0,0.0
1.9019089800131042,0,0,0.4333505004882812,0,0,-1.68168
1.9033030570135452,0,0,-2.0733786376953125,0,0,0.0
1.9046894120110665,0,0,-2.243366955566406,0,0,-3.4398000000000004
1.9060760450083762,0,0,0.6560112548828124,0,0,0.99372
1.9074618260201532,0,0,2.3415292236328122,0,0,0.84084
1.9088478480116464,0,0,2.2266075439453124,0,0,2.4460800000000003
1.9102340360113885,0,0,0.6943184814453125,0,0,1.37592
1.9116204279998783,0,0,-0.3327940307617187,0,0,-1.2994800000000002
1.9130064689961728,0,0,-1.4724340209960938,0,0,1.2994800000000002
1.9143928980047349,0,0,0.28730419921875,0,0,-3.36336
1.9157795310020447,0,0,3.404554760742187,0,0,2.4460800000000003
1.917164293001406,0,0,4.436455676269531,0,0,0.0
1.9185497779981233,0,0,2.3918074584960936,0,0,4.0513200000000005
1.9199355030141305,0,0,0.07900865478515624,0,0,-1.45236
1.9213196920172777,0,0,-1.2641384765625,0,0,-0.53508
1.9227052509959321,0,0,-2.214636535644531,0,0,-3.4398000000000004
1.9241096790065058,0,0,-0.08379705810546874,0,0,-0.91728
1.9254981460107956,0,0,2.157175695800781,0,0,9.01992
1.9268848710053135,0,0,2.932897033691406,0,0,2.2931999999999997
1.9283947620133404,0,0,0.5770026000976562,0,0,2.2931999999999997
1.9298806340084411,0,0,-0.44532150878906246,0,0,2.14032
1.931271989014931,0,0,-0.5865794067382812,0,0,0.22932
1.9326596960017923,0,0,0.5458779785156249,0,0,-0.3822
1.934047051006928,0,0,1.5203180541992187,0,0,-0.45864
1.9354340550198685,0,0,2.3582886352539063,0,0,0.91728
1.9368218909949064,0,0,2.1883003173828124,0,0,9.32568
1.9382079130155034,0,0,1.8076222534179687,0,0,1.45236
1.9396076380216982,0,0,0.1197100830078125,0,0,0.6115200000000001
1.940992974996334,0,0,-0.4955997436523437,0,0,-0.30576000000000003
1.9423798480129335,0,0,-0.06703764648437499,0,0,-0.99372
1.9437677410023753,0,0,0.7876923461914062,0,0,-0.30576000000000003
1.9451537069980986,0,0,1.2425906616210938,0,0,-0.3822
1.9465889499988407,0,0,0.36631285400390623,0,0,0.91728
1.9479782310081646,0,0,0.009576806640625,0,0,0.30576000000000003
1.9493643640016671,0,0,0.603338818359375,0,0,0.22932
1.9507502189953811,0,0,1.3072341064453123,0,0,0.0
1.9521361670049373,0,0,1.886630908203125,0,0,1.60524
1.953521929011913,0,0,1.6711527587890624,0,0,0.91728
1.9549078400013968,0,0,0.8714894042968749,0,0,0.53508
1.9562945280049462,0,0,0.5051765502929687,0,0,0.91728
1.957679976010695,0,0,0.24660277099609373,0,0,-0.53508
1.9590687390009407,0,0,0.5410895751953124,0,0,-1.2230400000000001
1.960455834021559,0,0,1.197100830078125,0,0,-0.6115200000000001
1.9618420230108313,0,0,0.9911994873046874,0,0,-0.15288000000000002
1.963228174019605,0,0,0.8212111694335937,0,0,0.0
1.9646145290171262,0,0,0.2154781494140625,0,0,0.91728
1.9660000510048121,0,0,-0.16519991455078123,0,0,0.30576000000000003
1.9673867390083615,0,0,0.28490999755859375,0,0,0.68796
1.9687729279976338,0,0,0.2705447875976562,0,0,0.30576000000000003
1.9701587830204517,0,0,0.7972691528320313,0,0,-0.53508
1.9715453600219917,0,0,2.616862414550781,0,0,1.60524
1.972931641008472,0,0,2.3151930053710936,0,0,1.07016
1.9743239959934726,0,0,0.9337386474609375,0,0,1.45236
1.9757109070196748,0,0,0.354341845703125,0,0,0.3822
1.9770957069995347,0,0,-0.16998831787109375,0,0,-1.5288
1.9784826910181437,0,0,-0.0909796630859375,0,0,-0.53508
1.9798702690168284,0,0,1.3623007446289062,0,0,20
1.981255771999713,0,0,1.6807295654296874,0,0,1.68168
1.982641719019739,0,0,0.4429273071289062,0,0,0.45864
1.9840277780022006,0,0,0.488417138671875,0,0,0.7644
1.9854135409987066,0,0,-0.040701428222656245,0,0,0.15288000000000002
1.9868003030132968,0,0,0.1197100830078125,0,0,-0.68796
1.9881943429936655,0,0,1.9105729248046874,0,0,0.7644
1.9895804950210731,0,0,2.099714855957031,0,0,0.99372
1.9909820900065824,0,0,1.7860744384765623,0,0,1.5288
1.992368778999662,0,0,0.2705447875976562,0,0,0.7644
1.9937545970024075,0,0,0.2537853759765625,0,0,-0.15288000000000002
1.9951413040107582,0,0,0.19632453613281248,0,0,-0.45864
1.996528270014096,0,0,0.5770026000976562,0,0,-0.53508
1.9979143289965577,0,0,0.9097966308593749,0,0,0.22932
1.999300221010344,0,0,1.3766659545898436,0,0,0.84084
2.0006873170204926,0,0,1.1109095703125,0,0,0.0
2.0020735790021718,0,0,0.5410895751953124,0,0,-0.15288000000000002
2.0034606569970492,0,0,-0.1867477294921875,0,0,-0.15288000000000002
2.004847714997595,0,0,0.354341845703125,0,0,0.0
2.0062339040159713,0,0,1.7166425903320313,0,0,0.99372
2.0076207219972275,0,0,1.5107412475585937,0,0,1.07016
2.009006281004986,0,0,1.0726023437499999,0,0,0.91728
2.010392154013971,0,0,0.4908113403320312,0,0,-0.3822
2.0117795090191066,0,0,0.6200982299804687,0,0,-0.07644000000000001
2.013165456999559,0,0,1.4125789794921875,0,0,0.22932
2.0145518310018815,0,0,1.1659762084960936,0,0,0.07644000000000001
2.0159388890024275,0,0,0.7278373046875,0,0,0.3822
2.017326874018181,0,0,0.40222587890625,0,0,0.07644000000000001
2.0187125260126777,0,0,0.5219359619140624,0,0,0.0
2.02009730701684,0,0,0.97683427734375,0,0,0.3822
2.021481810021214,0,0,1.0606313354492187,0,0,0.53508
2.0228661650035065,0,0,0.70868369140625,0,0,0.30576000000000003
2.0242652610177174,0,0,0.09576806640624999,0,0,0.0
2.0256535230146255,0,0,0.12689268798828124,0,0,0.0
2.02704067400191,0,0,0.46686932373046874,0,0,0.3822
2.0284279370098375,0,0,1.4508862060546874,0,0,0.53508
2.0298334959952626,0,0,1.3192051147460937,0,0,1.2230400000000001
2.0312233510194346,0,0,0.8738836059570312,0,0,1.1465999999999998
2.0326386870001443,0,0,0.38307226562499996,0,0,0.45864
2.034038559999317,0,0,0.4213794921875,0,0,-0.3822
2.0354278040176723,0,0,0.8978256225585937,0,0,9.24924
2.036808345001191,0,0,1.5059528442382812,0,0,0.0
2.038186329009477,0,0,1.218648645019531,0,0,0.3822
2.0396006290102378,0,0,0.7781155395507812,0,0,0.99372
2.0409871870069765,0,0,0.30885201416015623,0,0,0.15288000000000002
2.0423738390090875,0,0,-0.01915361328125,0,0,-0.3822
2.043759398016846,0,0,0.6081272216796875,0,0,-0.45864
2.0451378819998354,0,0,1.2665326782226562,0,0,0.15288000000000002
2.0465257370087784,0,0,1.3168109130859373,0,0,0.45864
2.047912111011101,0,0,1.2042834350585936,0,0,1.1465999999999998
2.0493702620151453,0,0,0.26336218261718747,0,0,0.22932
2.0507723939954303,0,0,0.18435352783203124,0,0,-0.3822
2.052224101003958,0,0,0.852335791015625,0,0,-0.15288000000000002
2.053613808006048,0,0,1.2976572998046874,0,0,0.30576000000000003
2.055002217995934,0,0,1.4532804077148436,0,0,0.0
2.0563847400189843,0,0,1.1013327636718748,0,0,1.07016
2.057762984011788,0,0,0.5530605834960938,0,0,0.53508
2.0591424129961524,0,0,0.373495458984375,0,0,0.0
2.060530860995641,0,0,0.5051765502929687,0,0,-0.99372
2.061923197004944,0,0,0.967257470703125,0,0,0.3822
2.0633101080020424,0,0,0.9121908325195311,0,0,0.22932
2.064696815010393,0,0,0.8882488159179687,0,0,0.07644000000000001
2.06608376299846,0,0,1.22583125,0,0,1.2994800000000002
2.0674719880043995,0,0,1.0079588989257813,0,0,0.3822
2.068858990998706,0,0,0.5674257934570313,0,0,0.6115200000000001
2.0702456239960156,0,0,0.4213794921875,0,0,0.0
2.071629924001172,0,0,0.852335791015625,0,0,0.45864
2.0730312230007257,0,0,1.6615759521484375,0,0,0.84084
2.07462409400614,0,0,1.7669208251953124,0,0,1.1465999999999998
2.076031986012822,0,0,1.3215993164062498,0,0,1.83456
2.077419267006917,0,0,0.8906430175781249,0,0,1.07016
2.0788247330056038,0,0,0.82360537109375,0,0,0.84084
2.080211181018967,0,0,1.2617442749023438,0,0,0.53508
2.0815973140124697,0,0,1.637633935546875,0,0,1.2230400000000001
2.0829833910102025,0,0,1.6927005737304686,0,0,1.1465999999999998
2.0843690060137305,0,0,1.697488977050781,0,0,1.2230400000000001
2.0857544720056467,0,0,1.3048399047851562,0,0,0.99372
2.087140197021654,0,0,0.9696516723632812,0,0,0.15288000000000002
2.088526608014945,0,0,1.1252747802734375,0,0,0.30576000000000003
2.0899122410046402,0,0,1.2928688964843749,0,0,0.91728
2.091297929000575,0,0,1.5035586425781249,0,0,0.7644
2.092683951021172,0,0,1.2665326782226562,0,0,0.6115200000000001
2.0940697500191163,0,0,1.4700398193359374,0,0,0.91728
2.095470105006825,0,0,1.2856862915039062,0,0,0.6115200000000001
2.0968572010169737,0,0,1.2473790649414063,0,0,0.53508
2.0982434269972146,0,0,1.1013327636718748,0,0,0.84084
2.0996904660132714,0,0,1.1013327636718748,0,0,1.07016
2.1012365230126306,0,0,1.2737152832031249,0,0,0.30576000000000003
2.1026766930008307,0,0,1.1037269653320312,0,0,0.7644
2.1041303249949124,0,0,1.6160861206054686,0,0,-9.24924
2.1055553460028023,0,0,1.1875240234375,0,0,0.91728
2.1073159750085324,0,0,1.197100830078125,0,0,0.6115200000000001
2.1087570330128074,0,0,1.1013327636718748,0,0,0.53508
2.1110798040172085,0,0,1.3455413330078123,0,0,0.3822
2.112531916995067,0,0,1.467645617675781,0,0,1.07016
2.114436600008048,0,0,1.5418658691406248,0,0,0.7644
2.116261913004564,0,0,1.3910311645507811,0,0,1.2994800000000002
2.117712675011717,0,0,0.9361328491210937,0,0,1.07016
2.119147121993592,0,0,1.20667763671875,0,0,0.3822
2.120693383010803,0,0,1.2306196533203124,0,0,-9.784320000000001
2.1221523669955786,0,0,1.4700398193359374,0,0,0.68796
2.1242324740160257,0,0,1.455674609375,0,0,0.68796
2.1261021380196325,0,0,1.3838485595703125,0,0,0.99372
2.1274874010123312,0,0,1.0797849487304687,0,0,0.7644
2.128868847998092,0,0,1.3383587280273437,0,0,0.53508
2.1302484630141407,0,0,1.1731588134765625,0,0,0.7644
2.131629151001107,0,0,1.3263877197265623,0,0,0.99372
2.1330080430197995,0,0,1.3455413330078123,0,0,0.84084
2.1343867880059406,0,0,1.4963760375976562,0,0,1.07016
2.135767808998935,0,0,1.2856862915039062,0,0,0.7644
2.137146794004366,0,0,1.1085153686523437,0,0,0.45864
2.138525482994737,0,0,1.149216796875,0,0,0.91728
2.139905134012224,0,0,1.2737152832031249,0,0,1.45236
2.1412867860053666,0,0,1.4437036010742186,0,0,0.45864
2.14266502999817,0,0,1.4317325927734375,0,0,0.53508
2.1440481250174344,0,0,1.4939818359375,0,0,0.68796
2.145425961993169,0,0,1.2330138549804688,0,0,0.22932
2.1468042799970135,0,0,1.3239935180664062,0,0,0.6115200000000001
2.1481848580006044,0,0,1.2785036865234374,0,0,0.99372
2.149563434999436,0,0,1.3144167114257812,0,0,0.7644
2.1509415869950317,0,0,1.3838485595703125,0,0,0.3822
2.152332811994711,0,0,1.2521674682617188,0,0,0.6115200000000001
2.153726815013215,0,0,1.3646949462890625,0,0,0.6115200000000001
2.1551127069978975,0,0,1.2401964599609374,0,0,0.6115200000000001
2.1564988770114724,0,0,1.429338391113281,0,0,1.1465999999999998
2.157884862011997,0,0,1.3383587280273437,0,0,0.84084
2.1592706060037017,0,0,1.2737152832031249,0,0,0.6115200000000001
2.1606567570124753,0,0,1.2497732666015624,0,0,0.22932
2.1620429640170187,0,0,1.1731588134765625,0,0,0.3822
2.1634283010207582,0,0,1.1947066284179686,0,0,0.84084
2.164814285002649,0,0,1.4915876342773438,0,0,0.91728
2.1662001220101956,0,0,1.4053963745117186,0,0,1.2994800000000002
2.1676025699998718,0,0,1.3359645263671873,0,0,0.7644
2.168988535995595,0,0,1.0630255371093749,0,0,0.53508
2.1703815940127242,0,0,1.1037269653320312,0,0,0.91728
2.1717685790208634,0,0,1.35990654296875,0,0,0.99372
2.1731536560109816,0,0,1.4413093994140624,0,0,0.7644
2.17453897499945,0,0,1.599326708984375,0,0,0.99372
2.175924662995385,0,0,1.4173673828125,0,0,1.2230400000000001
2.1773101480212063,0,0,1.180341418457031,0,0,0.45864
2.178695892012911,0,0,1.16837041015625,0,0,0.53508
2.180082247010432,0,0,1.1563994018554686,0,0,1.2230400000000001
2.1814675090136006,0,0,1.3455413330078123,0,0,0.91728
2.182853624020936,0,0,1.3551181396484375,0,0,0.7644
2.1842399970046245,0,0,1.5945383056640625,0,0,0.7644
2.185625648999121,0,0,1.3479355346679687,0,0,0.68796
2.1870114479970653,0,0,1.2785036865234374,0,0,0.6115200000000001
2.1883994880190585,0,0,1.0917559570312498,0,0,1.2994800000000002
2.189785213995492,0,0,1.24498486328125,0,0,1.07016
2.1911710500135086,0,0,1.2234370483398436,0,0,0.7644
2.1925572020118125,0,0,1.2497732666015624,0,0,0.22932
2.193943093996495,0,0,1.5083470458984374,0,0,0.45864
2.1953292080143,0,0,1.3814543579101561,0,0,0.84084
2.1967147490067873,0,0,1.2306196533203124,0,0,1.07016
2.1981002149987034,0,0,1.2593500732421874,0,0,1.1465999999999998
2.1994864589942154,0,0,1.0773907470703123,0,0,0.6115200000000001
2.200872368994169,0,0,1.2306196533203124,0,0,-0.3822
2.2022595390153583,0,0,1.3048399047851562,0,0,0.53508
2.2036460429953877,0,0,1.350329736328125,0,0,0.68796
2.2050319900154136,0,0,1.4006079711914061,0,0,0.91728
2.206417289999081,0,0,1.3551181396484375,0,0,1.37592
2.2078037750034127,0,0,1.189918225097656,0,0,0.99372
2.2091961670084856,0,0,1.1180921752929687,0,0,0.3822
2.2105818550044205,0,0,1.1133037719726562,0,0,0.30576000000000003
2.211968395014992,0,0,1.426944189453125,0,0,0.99372
2.213360547000775,0,0,1.4413093994140624,0,0,0.99372
2.2147466790047474,0,0,1.4628572143554686,0,0,-8.71416
2.2161331459938083,0,0,1.3958195678710936,0,0,1.2230400000000001
2.217519223020645,0,0,1.2761094848632812,0,0,0.6115200000000001
2.218904762994498,0,0,1.199495031738281,0,0,0.53508
2.2202904330042657,0,0,1.1755530151367186,0,0,1.1465999999999998
2.221676398999989,0,0,1.3479355346679687,0,0,1.2230400000000001
2.2230616620217916,0,0,1.3192051147460937,0,0,0.6115200000000001
2.224447960994439,0,0,1.6424223388671875,0,0,0.53508
2.225841778999893,0,0,1.3215993164062498,0,0,0.91728
2.2272273570124526,0,0,1.180341418457031,0,0,0.3822
2.2286113790178206,0,0,1.189918225097656,0,0,0.91728
2.2299954930203967,0,0,1.0558429321289062,0,0,0.84084
2.2315862720133737,0,0,1.1468225952148436,0,0,0.91728
2.2329760900174733,0,0,1.2832920898437499,0,0,0.84084
2.234356352011673,0,0,1.4006079711914061,0,0,0.53508
2.23573746701004,0,0,1.2593500732421874,0,0,0.53508
2.237116655014688,0,0,1.2282254516601563,0,0,0.7644
2.2384954919980373,0,0,1.197100830078125,0,0,0.99372
2.2398754020105116,0,0,1.1420341918945311,0,0,0.7644
2.241254276013933,0,0,1.3335703247070312,0,0,0.0
2.2426329830195755,0,0,1.47482822265625,0,0,0.22932
2.244014652998885,0,0,1.6304513305664061,0,0,0.6115200000000001
2.2453968970221467,0,0,1.4173673828125,0,0,0.6115200000000001
2.2467760860163253,0,0,1.3766659545898436,0,0,1.37592
2.248155848006718,0,0,1.2593500732421874,0,0,1.5288
2.24953461100813,0,0,1.3048399047851562,0,0,0.68796
2.2509133919957094,0,0,1.2832920898437499,0,0,0.0
2.2523000799992587,0,0,1.4939818359375,0,0,0.6115200000000001
2.2536856759979855,0,0,1.70467158203125,0,0,0.68796
2.2550713650125545,0,0,1.5777788940429687,0,0,0.84084
2.2564573120034765,0,0,1.5107412475585937,0,0,1.1465999999999998
2.2578556670050602,0,0,1.149216796875,0,0,0.84084
2.2592418740096036,0,0,1.1276689819335937,0,0,0.84084
2.2606279519968666,0,0,1.1156979736328125,0,0,0.6115200000000001
2.262013529019896,0,0,1.3670891479492187,0,0,0.91728
2.263399068993749,0,0,1.3455413330078123,0,0,1.07016
2.2647850350185763,0,0,1.4341267944335936,0,0,0.99372
2.2661701870092656,0,0,1.3215993164062498,0,0,0.84084
2.267569301009644,0,0,1.3479355346679687,0,0,0.45864
2.2689559150021523,0,0,1.199495031738281,0,0,0.30576000000000003
2.2703411219990812,0,0,1.1013327636718748,0,0,1.1465999999999998
2.271727273997385,0,0,1.350329736328125,0,0,0.53508
2.2731122770055663,0,0,1.2785036865234374,0,0,0.53508
2.274498762009898,0,0,1.4317325927734375,0,0,0.68796
2.2758845610078424,0,0,1.2689268798828124,0,0,0.6115200000000001
2.2772724160167854,0,0,1.24498486328125,0,0,0.53508
2.278657901013503,0,0,1.24498486328125,0,0,1.2230400000000001
2.2800422750005964,0,0,1.1133037719726562,0,0,0.91728
2.281426741014002,0,0,1.22583125,0,0,0.99372
2.283071612007916,0,0,1.3862427612304686,0,0,0.53508
2.284480855014408,0,0,1.4508862060546874,0,0,0.7644
2.2858687470143195,0,0,1.3814543579101561,0,0,0.53508
2.2873582860047463,0,0,1.350329736328125,0,0,0.84084
2.289217229001224,0,0,1.0917559570312498,0,0,0.7644
2.2906065470015164,0,0,1.2042834350585936,0,0,1.45236
2.2919951800140552,0,0,1.3910311645507811,0,0,0.99372
2.2933815529977437,0,0,1.3718775512695311,0,0,0.68796
2.294768557010684,0,0,1.467645617675781,0,0,0.68796
2.296156245021848,0,0,1.3096283081054687,0,0,0.53508
2.2975426000193693,0,0,1.3239935180664062,0,0,0.22932
2.298928806994809,0,0,1.158793603515625,0,0,0.68796
2.300311661994783,0,0,0.9193734375,0,0,1.07016
2.3017062210128643,0,0,1.3072341064453123,0,0,0.22932
2.303085983003257,0,0,1.2665326782226562,0,0,0.7644
2.304466579022119,0,0,1.5035586425781249,0,0,0.68796
2.3058452859986573,0,0,1.3215993164062498,0,0,0.84084
2.307223530020565,0,0,1.3096283081054687,0,0,0.53508
2.3086111820011865,0,0,1.235408056640625,0,0,1.2230400000000001
2.309997536998708,0,0,1.139639990234375,0,0,0.6115200000000001
2.3113840400183108,0,0,1.158793603515625,0,0,0.0
2.3127712100103963,0,0,1.3168109130859373,0,0,0.22932
2.314157601998886,0,0,1.6831237670898436,0,0,0.6115200000000001
2.3155423830030486,0,0,1.4867992309570313,0,0,0.84084
2.316921738005476,0,0,1.3479355346679687,0,0,1.2994800000000002
2.318300315993838,0,0,1.2138602416992186,0,0,1.2230400000000001
2.3196842820034362,0,0,1.1444283935546875,0,0,0.7644
2.32107043301221,0,0,1.1923124267578125,0,0,0.30576000000000003
2.3224562329996843,0,0,1.3359645263671873,0,0,0.91728
2.325005446007708,0,0,1.4867992309570313,0,0,0.84084
2.3264170229958836,0,0,1.3144167114257812,0,0,1.1465999999999998
2.327807729016058,0,0,1.1013327636718748,0,0,0.3822
2.329192307021003,0,0,1.1061211669921875,0,0,0.53508
2.330579180008499,0,0,1.2282254516601563,0,0,0.7644
2.3319660350098275,0,0,1.4125789794921875,0,0,0.99372
2.3333515760023147,0,0,1.2856862915039062,0,0,0.6115200000000001
2.3347385980014224,0,0,1.4772224243164063,0,0,-8.7906
2.336126508016605,0,0,1.2497732666015624,0,0,0.53508
2.3375132149958517,0,0,1.1851298217773436,0,0,0.30576000000000003
2.338899958995171,0,0,1.218648645019531,0,0,0.68796
2.3402864070085343,0,0,1.218648645019531,0,0,0.84084
2.3416721319954377,0,0,1.350329736328125,0,0,0.7644
2.3430598950071726,0,0,1.3000515014648437,0,0,0.45864
2.344467304996215,0,0,1.39821376953125,0,0,-9.24924
2.3458541970176157,0,0,1.2928688964843749,0,0,0.68796
2.3472470340202563,0,0,1.2785036865234374,0,0,0.6115200000000001
2.3486339439987205,0,0,1.1109095703125,0,0,1.1465999999999998
2.3500196330132894,0,0,1.1420341918945311,0,0,0.68796
2.3514061360037886,0,0,1.2378022583007813,0,0,0.0
2.3527918610197958,0,0,1.3192051147460937,0,0,0.30576000000000003
2.3541780870000366,0,0,1.4101847778320311,0,0,0.45864
2.3555717749986798,0,0,1.2689268798828124,0,0,0.68796
2.356957964017056,0,0,1.4101847778320311,0,0,1.07016
2.358344152016798,0,0,1.3551181396484375,0,0,1.07016
2.359730711003067,0,0,1.1659762084960936,0,0,0.7644
2.361115917999996,0,0,1.1516109985351561,0,0,0.15288000000000002
2.3625012910051737,0,0,1.3311761230468748,0,0,0.6115200000000001
2.3638880730140954,0,0,1.5107412475585937,0,0,0.99372
2.3652735390060116,0,0,1.6711527587890624,0,0,0.91728
2.366659209015779,0,0,1.3862427612304686,0,0,1.60524
2.368045303999679,0,0,1.1659762084960936,0,0,0.68796
2.3694331599981524,0,0,1.1923124267578125,0,0,0.6115200000000001
2.3708184779970907,0,0,1.120486376953125,0,0,1.07016
2.3722061100124847,0,0,1.2713210815429687,0,0,1.2230400000000001
2.373603873013053,0,0,1.407790576171875,0,0,0.7644
2.3749898390087765,0,0,1.5849614990234373,0,0,0.84084
2.3763757499982603,0,0,1.3575123413085937,0,0,0.68796
2.377761826995993,0,0,1.2761094848632812,0,0,0.3822
2.379147682018811,0,0,1.1444283935546875,0,0,0.7644
2.380533445015317,0,0,1.1923124267578125,0,0,1.45236
2.3819193369999994,0,0,1.3024457031249999,0,0,0.6115200000000001
2.3833046549989376,0,0,1.2976572998046874,0,0,0.84084
2.384690547012724,0,0,1.6017209106445311,0,0,0.45864
2.3860759760136716,0,0,1.3527239379882812,0,0,0.07644000000000001
2.387462793994928,0,0,1.1156979736328125,0,0,0.68796
2.388848500995664,0,0,1.1635820068359375,0,0,1.2994800000000002
2.3902555600216147,0,0,1.1947066284179686,0,0,0.99372
2.391643506998662,0,0,1.3048399047851562,0,0,0.15288000000000002
2.393028585007414,0,0,1.2617442749023438,0,0,0.22932
2.3944140509993304,0,0,1.5298948608398437,0,0,0.45864
2.3958004990126938,0,0,1.3168109130859373,0,0,0.91728
2.3971852800168563,0,0,1.2617442749023438,0,0,1.07016
2.3985705790109932,0,0,1.180341418457031,0,0,1.2230400000000001
2.399958971014712,0,0,1.1156979736328125,0,0,0.68796
2.401344751997385,0,0,1.1156979736328125,0,0,-0.15288000000000002
2.4027387000096496,0,0,1.4413093994140624,0,0,0.45864
2.40412498099613,0,0,1.388636962890625,0,0,0.68796
2.4055102620041,0,0,1.2114660400390624,0,0,0.99372
2.4068953579990193,0,0,1.3287819213867187,0,0,1.2994800000000002
2.408281102019828,0,0,1.120486376953125,0,0,0.84084
2.4096664380049333,0,0,1.2617442749023438,0,0,0.53508
2.4110516820219345,0,0,1.3192051147460937,0,0,0.07644000000000001
2.4124379080021754,0,0,1.24498486328125,0,0,0.99372
2.4138231520191766,0,0,1.429338391113281,0,0,0.91728
2.4152086730173323,0,0,1.6448165405273436,0,0,0.7644
2.416594566020649,0,0,1.3431471313476562,0,0,1.1465999999999998
2.4179802360013127,0,0,1.1276689819335937,0,0,0.6115200000000001
2.4193657760042697,0,0,1.1037269653320312,0,0,0.7644
2.4207497610186692,0,0,1.1228805786132812,0,0,1.2230400000000001
2.422133764019236,0,0,1.2497732666015624,0,0,1.07016
2.423780949000502,0,0,1.3910311645507811,0,0,0.68796
2.4251767300011124,0,0,1.3862427612304686,0,0,0.68796
2.4266078259970527,0,0,1.4317325927734375,0,0,1.1465999999999998
2.427996514015831,0,0,1.3527239379882812,0,0,0.6115200000000001
2.42939368399675,0,0,1.120486376953125,0,0,0.6115200000000001
2.430788076017052,0,0,1.1348515869140625,0,0,1.07016
2.432179986004485,0,0,1.235408056640625,0,0,1.2230400000000001
2.433568712003762,0,0,1.24498486328125,0,0,0.53508
2.434965993015794,0,0,1.4820108276367188,0,0,0.68796
2.4363487740047276,0,0,1.3263877197265623,0,0,0.45864
2.4377282960049342,0,0,1.2665326782226562,0,0,0.53508
2.439107262005564,0,0,1.2952630981445312,0,0,0.91728
2.4404963760171086,0,0,1.120486376953125,0,0,0.99372
2.4418837309931405,0,0,1.216254443359375,0,0,0.3822
2.4432707160012797,0,0,1.2928688964843749,0,0,0.3822
2.4446579230134375,0,0,1.6160861206054686,0,0,0.84084
2.4460453710053116,0,0,1.39821376953125,0,0,0.7644
2.4474319480068516,0,0,1.350329736328125,0,0,0.91728
2.448812635993818,0,0,1.2042834350585936,0,0,1.2230400000000001
2.450191566022113,0,0,1.120486376953125,0,0,0.91728
2.451590884011239,0,0,1.2617442749023438,0,0,0.07644000000000001
2.452993109007366,0,0,1.3215993164062498,0,0,0.30576000000000003
2.454380631010281,0,0,1.5466542724609373,0,0,0.53508
2.455766819010023,0,0,1.3742717529296875,0,0,0.68796
2.457152432994917,0,0,1.2785036865234374,0,0,1.1465999999999998
2.4585385480022524,0,0,1.180341418457031,0,0,1.07016
2.459926309995353,0,0,1.2593500732421874,0,0,0.3822
2.461324850009987,0,0,1.2952630981445312,0,0,0.15288000000000002
2.4627108169952407,0,0,1.2832920898437499,0,0,0.6115200000000001
2.464100615994539,0,0,1.2785036865234374,0,0,0.7644
2.46548880400951,0,0,1.4149731811523436,0,0,0.91728
2.466874770994764,0,0,1.3120225097656248,0,0,1.1465999999999998
2.4682661440165248,0,0,1.3575123413085937,0,0,0.84084
2.4696527210180648,0,0,1.2234370483398436,0,0,0.68796
2.4710439839982428,0,0,1.1731588134765625,0,0,0.7644
2.4724249319988303,0,0,1.4053963745117186,0,0,1.07016
2.473803341999883,0,0,1.2880804931640624,0,0,0.91728
2.4751819200173486,0,0,1.446097802734375,0,0,0.91728
2.476585978001822,0,0,1.2737152832031249,0,0,0.7644
2.4780776660190895,0,0,1.3479355346679687,0,0,0.15288000000000002
2.479469706013333,0,0,1.2282254516601563,0,0,0.3822
2.4808570239983965,0,0,1.1420341918945311,0,0,1.2994800000000002
2.482242916012183,0,0,1.3359645263671873,0,0,0.84084
2.4836309190141037,0,0,1.2880804931640624,0,0,0.53508
2.4850153300212696,0,0,1.4149731811523436,0,0,0.7644
2.4864007779979147,0,0,1.35990654296875,0,0,0.68796
2.4877877620165236,0,0,1.2928688964843749,0,0,0.68796
2.489172988018254,0,0,1.2018892333984375,0,0,0.68796
2.4905592130089644,0,0,1.120486376953125,0,0,0.99372
2.4919450500165112,0,0,1.1611878051757811,0,0,0.0
2.493330572004197,0,0,1.3096283081054687,0,0,0.15288000000000002
2.4947163900069427,0,0,1.4939818359375,0,0,0.6115200000000001
2.496102022996638,0,0,1.2976572998046874,0,0,0.68796
2.497493136994308,0,0,1.3072341064453123,0,0,1.37592
2.4988788070040755,0,0,1.1372457885742187,0,0,0.84084
2.5002654400013853,0,0,1.0726023437499999,0,0,0.7644
2.5016510910063516,0,0,1.2521674682617188,0,0,0.0
2.503036909009097,0,0,1.455674609375,0,0,0.3822
2.5044225600140635,0,0,1.5849614990234373,0,0,0.30576000000000003
2.505808618996525,0,0,1.4006079711914061,0,0,0.68796
2.507194047997473,0,0,1.3383587280273437,0,0,1.37592
2.5085800150118303,0,0,1.180341418457031,0,0,1.2230400000000001
2.509966333018383,0,0,1.0893617553710937,0,0,0.6115200000000001
2.511351224995451,0,0,1.2114660400390624,0,0,0.7644
2.512737098004436,0,0,1.3623007446289062,0,0,0.7644
2.5141230650187936,0,0,1.3718775512695311,0,0,1.1465999999999998
2.5155248079972807,0,0,1.448492004394531,0,0,0.68796
2.5169108860136475,0,0,1.3000515014648437,0,0,0.84084
2.518297111004358,0,0,1.0702081420898437,0,0,0.3822
2.519692855014,0,0,1.0917559570312498,0,0,0.45864
2.521075914002722,0,0,0.9528922607421875,0,0,1.1465999999999998
2.522465991001809,0,0,1.3551181396484375,0,0,1.07016
2.523861402005423,0,0,1.3670891479492187,0,0,0.99372
2.5252493860025425,0,0,1.455674609375,0,0,1.07016
2.5266365749994293,0,0,1.2904746948242187,0,0,0.45864
2.5280236340186093,0,0,1.3168109130859373,0,0,0.45864
2.5294107850058936,0,0,1.1635820068359375,0,0,0.6115200000000001
2.530797565996181,0,0,1.1013327636718748,0,0,0.84084
2.532184366020374,0,0,1.2785036865234374,0,0,0.22932
2.533570775995031,0,0,1.2832920898437499,0,0,0.22932
2.5349577979941387,0,0,1.465251416015625,0,0,0.68796
2.536344652995467,0,0,1.2689268798828124,0,0,0.7644
2.537731601012638,0,0,1.3479355346679687,0,0,0.84084
2.5391179190191906,0,0,1.1923124267578125,0,0,0.84084
2.5405051069974434,0,0,1.180341418457031,0,0,0.6115200000000001
2.5418916839989834,0,0,1.3335703247070312,0,0,0.0
2.543278058001306,0,0,1.2425906616210938,0,0,0.68796
2.5446650060184766,0,0,1.4939818359375,0,0,0.6115200000000001
2.5460512500139885,0,0,1.4413093994140624,0,0,0.99372
2.5474370490119327,0,0,1.39821376953125,0,0,1.07016
2.548825182020664,0,0,1.2018892333984375,0,0,0.84084
2.5502120370219927,0,0,1.1707646118164061,0,0,0.68796
2.551599411002826,0,0,1.2425906616210938,0,0,0.30576000000000003
2.552985136018833,0,0,1.3000515014648437,0,0,0.91728
2.5543712690123357,0,0,1.4413093994140624,0,0,0.84084
2.5557583830086514,0,0,1.4628572143554686,0,0,0.68796
2.5571445529931225,0,0,1.3311761230468748,0,0,0.99372
2.5585312970215455,0,0,1.1731588134765625,0,0,0.6115200000000001
2.5599182640144136,0,0,1.3287819213867187,0,0,0.3822
2.5613047670049127,0,0,1.2425906616210938,0,0,1.07016
2.562691363011254,0,0,1.3527239379882812,0,0,1.07016
2.564078273018822,0,0,1.3575123413085937,0,0,1.07016
2.5654779619944748,0,0,1.4772224243164063,0,0,0.91728
2.566865280008642,0,0,1.3431471313476562,0,0,0.91728
2.5682474870118313,0,0,1.2042834350585936,0,0,0.53508
2.569625916017685,0,0,1.209071838378906,0,0,0.15288000000000002
2.5710042150167283,0,0,1.0797849487304687,0,0,1.37592
2.5723905519989785,0,0,1.2689268798828124,0,0,0.68796
2.5737835920008365,0,0,1.24498486328125,0,0,0.91728
2.5753428900206927,0,0,1.5298948608398437,0,0,0.68796
2.57675891101826,0,0,1.2832920898437499,0,0,0.6115200000000001
2.5781670070136897,0,0,1.20667763671875,0,0,0.3822
2.579568362009013,0,0,1.218648645019531,0,0,0.99372
2.5809551060083322,0,0,1.1923124267578125,0,0,1.37592
2.5823421090026386,0,0,1.2976572998046874,0,0,0.6115200000000001
2.5837292600190267,0,0,1.3239935180664062,0,0,0.45864
2.585114745015744,0,0,1.3934253662109375,0,0,0.68796
2.5865007670072373,0,0,1.2856862915039062,0,0,0.45864
2.5878873259935062,0,0,1.3455413330078123,0,0,0.91728
2.5892731439962517,0,0,1.2785036865234374,0,0,1.5288
2.590659591020085,0,0,1.1013327636718748,0,0,0.6115200000000001
2.5920458170003258,0,0,1.2018892333984375,0,0,0.0
2.5934320609958377,0,0,1.2904746948242187,0,0,0.0
2.5948182310094126,0,0,1.4508862060546874,0,0,0.22932
2.596204586006934,0,0,1.2976572998046874,0,0,0.7644
2.597590126009891,0,0,1.3814543579101561,0,0,1.5288
2.598976148001384,0,0,1.2378022583007813,0,0,1.37592
2.6003623730211984,0,0,1.2018892333984375,0,0,0.53508
2.6017480060108937,0,0,1.0821791503906248,0,0,0.0
2.603133694996359,0,0,1.3024457031249999,0,0,0.53508
2.6045201609958895,0,0,1.4317325927734375,0,0,0.91728
2.605905608012108,0,0,1.656787548828125,0,0,1.07016
2.6072915749973617,0,0,1.2785036865234374,0,0,1.1465999999999998
2.6086776519950945,0,0,1.20667763671875,0,0,0.6115200000000001
2.6100713399937376,0,0,1.1875240234375,0,0,0.6115200000000001
2.611457844002871,0,0,1.1755530151367186,0,0,0.91728
2.612844273011433,0,0,1.3335703247070312,0,0,1.37592
2.6142299979983363,0,0,1.3623007446289062,0,0,1.07016
2.6156167240114883,0,0,1.5562310791015623,0,0,0.91728
2.6170023570011836,0,0,1.3359645263671873,0,0,0.68796
2.6183876380091533,0,0,1.120486376953125,0,0,0.45864
2.6197736590111163,0,0,1.1348515869140625,0,0,0.6115200000000001
2.621157718007453,0,0,1.1923124267578125,0,0,1.37592
2.6225417950190604,0,0,1.2952630981445312,0,0,0.68796
2.6239400019985624,0,0,1.2425906616210938,0,0,0.22932
2.625328543013893,0,0,1.5514426757812498,0,0,-8.943480000000001
2.6267161380092148,0,0,1.3646949462890625,0,0,0.3822
2.6281028270022944,0,0,1.199495031738281,0,0,0.68796
2.6294890150020365,0,0,1.177947216796875,0,0,1.1465999999999998
2.6308870180218946,0,0,1.1109095703125,0,0,0.68796
2.6322877620114014,0,0,1.2761094848632812,0,0,0.0
2.6336758580000605,0,0,1.3192051147460937,0,0,0.07644000000000001
2.6350626200146507,0,0,1.5035586425781249,0,0,0.53508
2.6364588270080276,0,0,1.3311761230468748,0,0,0.7644
2.6378380529931746,0,0,1.4101847778320311,0,0,1.2230400000000001
2.639216612005839,0,0,1.1923124267578125,0,0,1.37592
2.6406068000069354,0,0,1.1659762084960936,0,0,0.84084
2.641993914003251,0,0,1.197100830078125,0,0,0.0
2.643380324996542,0,0,1.4341267944335936,0,0,0.30576000000000003
2.6447609580063727,0,0,1.5035586425781249,0,0,0.91728
2.6461392950150184,0,0,1.2976572998046874,0,0,0.99372
2.647536038013641,0,0,1.3168109130859373,0,0,1.5288
2.648922763997689,0,0,1.2330138549804688,0,0,0.84084
2.6503087670134846,0,0,1.1420341918945311,0,0,0.22932
2.6516944559989497,0,0,1.139639990234375,0,0,0.6115200000000001
2.6530875700118486,0,0,1.3742717529296875,0,0,1.07016
2.6544839430134743,0,0,1.35990654296875,0,0,1.07016
2.6558706130017526,0,0,1.6065093139648436,0,0,0.91728
2.6572554130107164,0,0,1.2928688964843749,0,0,0.7644
2.6586406200076453,0,0,1.1923124267578125,0,0,0.3822
2.660027586010983,0,0,1.1827356201171875,0,0,-9.01992
2.6614147560030688,0,0,1.1516109985351561,0,0,1.07016
2.6628009070118424,0,0,1.2378022583007813,0,0,1.2230400000000001
2.6641871700121555,0,0,1.3575123413085937,0,0,0.99372
2.665573061996838,0,0,1.5729904907226562,0,0,0.68796
2.6669591210084036,0,0,1.5227122558593749,0,0,0.6115200000000001
2.668345345999114,0,0,1.2952630981445312,0,0,0.53508
2.669731035013683,0,0,1.216254443359375,0,0,1.07016
2.6711292779946234,0,0,1.120486376953125,0,0,1.07016
2.6725747250020504,0,0,1.35990654296875,0,0,0.3822
2.6739704690116923,0,0,1.3263877197265623,0,0,0.45864
2.6753568059939425,0,0,1.618480322265625,0,0,0.68796
2.6767447350139264,0,0,1.2521674682617188,0,0,0.7644
2.678131590015255,0,0,1.22583125,0,0,1.1465999999999998
2.6795168340031523,0,0,1.1061211669921875,0,0,1.1465999999999998
2.680895411001984,0,0,1.2042834350585936,0,0,0.91728
2.682273267011624,0,0,1.3838485595703125,0,0,0.0
2.6836584740085527,0,0,1.4987702392578124,0,0,0.45864
2.6850453469960485,0,0,1.5394716674804687,0,0,0.7644
2.6864309429947753,0,0,1.3862427612304686,0,0,0.7644
2.687817261001328,0,0,1.35990654296875,0,0,0.91728
2.6892056530050468,0,0,1.1707646118164061,0,0,0.68796
2.69059186000959,0,0,1.3335703247070312,0,0,0.6115200000000001
2.6919951970048714,0,0,1.3287819213867187,0,0,0.53508
2.693381274002604,0,0,1.3934253662109375,0,0,0.91728
2.6947934800118674,0,0,1.3623007446289062,0,0,0.45864
2.6961805390019435,0,0,1.47482822265625,0,0,0.99372
2.6975740420166403,0,0,1.3263877197265623,0,0,0.91728
2.6989602310059126,0,0,1.13006318359375,0,0,0.6115200000000001
2.700346344994614,0,0,1.1611878051757811,0,0,0.22932
2.7017324780172203,0,0,1.177947216796875,0,0,0.91728
2.7031184259976726,0,0,1.3527239379882812,0,0,1.07016
2.704504780995194,0,0,1.3024457031249999,0,0,0.91728
2.705891377001535,0,0,1.47482822265625,0,0,0.91728
2.7072770100203343,0,0,1.2569558715820313,0,0,0.84084
2.708662771998206,0,0,1.2928688964843749,0,0,0.6115200000000001
2.710048442007974,0,0,1.189918225097656,0,0,0.68796
2.7114345930167474,0,0,1.2425906616210938,0,0,1.2994800000000002
2.712821688997792,0,0,1.3814543579101561,0,0,0.30576000000000003
2.7142074890143704,0,0,1.3407529296874998,0,0,0.3822
2.7155945289996453,0,0,1.5729904907226562,0,0,0.68796
2.716979958000593,0,0,1.2785036865234374,0,0,0.53508
2.718365647015162,0,0,1.2737152832031249,0,0,0.91728
2.719751613010885,0,0,1.1085153686523437,0,0,0.7644
2.7211350230209064,0,0,1.1611878051757811,0,0,0.84084
2.7225213420169894,0,0,1.1348515869140625,0,0,0.0
2.7239192520210054,0,0,1.2593500732421874,0,0,0.45864
2.725307865999639,0,0,1.5298948608398437,0,0,0.68796
2.726695092016598,0,0,1.484405029296875,0,0,0.68796
2.7280817620048765,0,0,1.2904746948242187,0,0,1.2994800000000002
2.7294681170023978,0,0,1.1180921752929687,0,0,1.2230400000000001
2.73085478701978,0,0,1.13006318359375,0,0,0.45864
2.732241845020326,0,0,1.2856862915039062,0,0,0.30576000000000003
2.733628404006595,0,0,1.3862427612304686,0,0,0.7644
2.735014814999886,0,0,1.4963760375976562,0,0,0.84084
2.736402929003816,0,0,1.429338391113281,0,0,0.99372
2.7377894319943152,0,0,1.158793603515625,0,0,1.1465999999999998
2.73917560200789,0,0,1.1156979736328125,0,0,0.45864
2.7405707350117154,0,0,1.0749965454101562,0,0,0.53508
2.7419576270040125,0,0,1.2713210815429687,0,0,0.7644
2.743344242015155,0,0,1.3383587280273437,0,0,1.2230400000000001
2.74473128200043,0,0,1.3623007446289062,0,0,0.7644
2.7461182110127993,0,0,1.4053963745117186,0,0,0.84084
2.747514621994924,0,0,1.3287819213867187,0,0,0.68796
2.7489014030143153,0,0,1.1563994018554686,0,0,0.3822
2.750288184004603,0,0,1.2138602416992186,0,0,0.68796
2.751675798004726,0,0,1.0007762939453124,0,0,1.37592
2.7530897080141585,0,0,1.3311761230468748,0,0,0.68796
2.75447895200341,0,0,1.3718775512695311,0,0,1.1465999999999998
2.7558667330013122,0,0,1.5586252807617187,0,0,0.45864
2.7572536249936093,0,0,1.3646949462890625,0,0,0.53508
2.7586400550208054,0,0,1.3192051147460937,0,0,0.91728
2.760027465003077,0,0,1.2042834350585936,0,0,0.7644
2.761413579020882,0,0,1.1516109985351561,0,0,1.1465999999999998
2.7628004160069395,0,0,1.3575123413085937,0,0,0.0
2.7641866600024514,0,0,1.4173673828125,0,0,0.30576000000000003
2.765572959993733,0,0,1.6735469604492186,0,0,0.68796
2.766959704022156,0,0,1.3144167114257812,0,0,0.53508
2.7683465220034122,0,0,1.3862427612304686,0,0,1.1465999999999998
2.7697324879991356,0,0,1.1013327636718748,0,0,1.07016
2.7711191209964454,0,0,1.0869675537109373,0,0,0.7644
2.772505605011247,0,0,1.209071838378906,0,0,0.07644000000000001
2.773891535005532,0,0,1.3670891479492187,0,0,0.7644
2.775278334011091,0,0,1.448492004394531,0,0,0.6115200000000001
2.7766649480035994,0,0,1.5011644409179687,0,0,1.07016
2.7780511919991113,0,0,1.3862427612304686,0,0,1.1465999999999998
2.7794377139944118,0,0,1.1372457885742187,0,0,1.2230400000000001
2.7808260140009224,0,0,1.0797849487304687,0,0,0.45864
2.7822122579964343,0,0,1.177947216796875,0,0,0.68796
2.783600335009396,0,0,1.5059528442382812,0,0,1.37592
2.7849960600142367,0,0,1.4221557861328125,0,0,0.6115200000000001
2.7863835820171516,0,0,1.4149731811523436,0,0,0.68796
2.7877711040200666,0,0,1.3646949462890625,0,0,0.68796
2.789156996004749,0,0,1.1755530151367186,0,0,0.84084
2.790543666022131,0,0,1.2904746948242187,0,0,0.45864
2.7919313730089925,0,0,1.3359645263671873,0,0,0.99372
2.7933171350159682,0,0,1.3551181396484375,0,0,-9.09636
2.7947048420028295,0,0,1.3623007446289062,0,0,1.07016
2.7960914750001393,0,0,1.4915876342773438,0,0,1.07016
2.797477867017733,0,0,1.2808978881835937,0,0,0.3822
2.7988642590062227,0,0,1.218648645019531,0,0,0.68796
2.8002513370011,0,0,1.2306196533203124,0,0,0.7644
2.801638228993397,0,0,1.1540052001953125,0,0,0.84084
2.8030246760172304,0,0,1.209071838378906,0,0,0.07644000000000001
2.8044119760161266,0,0,1.2665326782226562,0,0,0.68796
2.805798646004405,0,0,1.467645617675781,0,0,0.7644
2.807184981997125,0,0,1.1851298217773436,0,0,0.68796
2.8085718369984534,0,0,1.3407529296874998,0,0,1.07016
2.8099580809939653,0,0,1.2617442749023438,0,0,1.07016
2.811351954995189,0,0,1.2114660400390624,0,0,0.53508
2.812738958018599,0,0,1.0941501586914062,0,0,0.0
2.814125573000638,0,0,1.3359645263671873,0,0,0.3822
2.81551329800277,0,0,1.3910311645507811,0,0,0.6115200000000001
2.8168913749977946,0,0,1.3120225097656248,0,0,0.84084
2.818269842013251,0,0,1.3718775512695311,0,0,1.37592
2.819653862999985,0,0,1.3718775512695311,0,0,1.1465999999999998
2.8210378480143845,0,0,1.1875240234375,0,0,0.6115200000000001
2.8224213880021125,0,0,1.1276689819335937,0,0,0.30576000000000003
2.8238178360043094,0,0,1.3646949462890625,0,0,0.91728
2.8252490050217602,0,0,1.35990654296875,0,0,0.84084
2.8267188040190376,0,0,1.5275006591796874,0,0,0.84084
2.82813363999594,0,0,1.465251416015625,0,0,1.2994800000000002
2.8295224210014567,0,0,1.0773907470703123,0,0,0.91728
2.830909406009596,0,0,1.1276689819335937,0,0,0.6115200000000001
2.832307335018413,0,0,1.1563994018554686,0,0,0.3822
2.8336970980162732,0,0,1.3263877197265623,0,0,0.68796
2.835086545004742,0,0,1.465251416015625,0,0,0.7644
2.836466900014784,0,0,1.5562310791015623,0,0,1.1465999999999998
2.8378450890013482,0,0,1.2952630981445312,0,0,1.1465999999999998
2.8392239999957383,0,0,1.1228805786132812,0,0,0.6115200000000001
2.8406121880107094,0,0,1.1540052001953125,0,0,0.53508
2.8419986730150413,0,0,1.1372457885742187,0,0,1.45236
2.8433860650111455,0,0,1.2928688964843749,0,0,1.2230400000000001
2.84477205001167,0,0,1.3623007446289062,0,0,0.68796
2.8461583490134217,0,0,1.5729904907226562,0,0,0.68796
2.847543278010562,0,0,1.3048399047851562,0,0,0.45864
2.8489219110051636,0,0,1.2641384765625,0,0,0.45864
2.8503001740027685,0,0,1.1707646118164061,0,0,0.53508
2.852891979011474,0,0,1.2641384765625,0,0,0.0
2.854278462997172,0,0,1.3455413330078123,0,0,0.22932
2.855664558999706,0,0,1.3383587280273437,0,0,0.45864
2.857050266000442,0,0,1.350329736328125,0,0,0.7644
2.8584353250043932,0,0,1.3742717529296875,0,0,1.2994800000000002
2.8598217719991226,0,0,1.1252747802734375,0,0,1.07016
2.861206608999055,0,0,1.1061211669921875,0,0,0.53508
2.862591926997993,0,0,1.2665326782226562,0,0,0.0
2.863990078010829,0,0,1.2761094848632812,0,0,0.91728
2.8653758589935023,0,0,1.3623007446289062,0,0,0.84084
2.866761455021333,0,0,1.2569558715820313,0,0,0.84084
2.868146755005,0,0,1.3048399047851562,0,0,1.2994800000000002
2.8695315910154022,0,0,1.13006318359375,0,0,0.7644
2.870932093996089,0,0,1.0821791503906248,0,0,0.30576000000000003
2.8723176160128787,0,0,1.0462661254882812,0,0,0.91728
2.8737100819998886,0,0,1.4317325927734375,0,0,0.99372
2.8750955120194703,0,0,1.3670891479492187,0,0,0.84084
2.8764807560073677,0,0,1.5610194824218748,0,0,0.7644
2.8778662029944826,0,0,1.3168109130859373,0,0,0.6115200000000001
2.8792532430088613,0,0,1.218648645019531,0,0,0.30576000000000003
2.880639080016408,0,0,1.0893617553710937,0,0,0.45864
2.882024231017567,0,0,1.2234370483398436,0,0,1.2994800000000002
2.8834097160142846,0,0,1.3383587280273437,0,0,0.84084
2.8847952380019706,0,0,1.3096283081054687,0,0,0.53508
2.886180408007931,0,0,1.6160861206054686,0,0,0.7644
2.8875667070096824,0,0,1.5059528442382812,0,0,0.3822
2.8889519140066113,0,0,1.2234370483398436,0,0,0.6115200000000001
2.8903374549990986,0,0,1.1875240234375,0,0,0.7644
2.891723125008866,0,0,1.1563994018554686,0,0,0.84084
2.8931081460032146,0,0,1.2497732666015624,0,0,0.07644000000000001
2.894493297993904,0,0,1.2425906616210938,0,0,-9.24924
2.8958815789956134,0,0,1.649604943847656,0,0,0.6115200000000001
2.8972664710017852,0,0,1.419761584472656,0,0,0.7644
2.8986517699959222,0,0,1.209071838378906,0,0,1.37592
2.9000406620034482,0,0,1.0582371337890624,0,0,1.2230400000000001
2.9014244620047975,0,0,1.1947066284179686,0,0,0.84084
2.9028095950197894,0,0,1.3479355346679687,0,0,0.0
2.9041951170074753,0,0,1.4413093994140624,0,0,0.53508
2.90558056399459,0,0,1.24498486328125,0,0,0.53508
2.906965697009582,0,0,1.37906015625,0,0,1.07016
2.908502642996609,0,0,1.2282254516601563,0,0,1.2230400000000001
2.909890869021183,0,0,1.1659762084960936,0,0,1.2994800000000002
2.9112764279998373,0,0,1.0773907470703123,0,0,0.6115200000000001
2.9126623010088224,0,0,1.2832920898437499,0,0,0.22932
2.9141987659968436,0,0,1.429338391113281,0,0,0.53508
2.915591436001705,0,0,1.350329736328125,0,0,0.7644
2.916992623999249,0,0,1.43652099609375,0,0,0.84084
2.9183783680200577,0,0,1.3335703247070312,0,0,1.37592
2.9197642040089704,0,0,1.1707646118164061,0,0,0.7644
2.9211473370087333,0,0,1.2497732666015624,0,0,0.68796
2.9225310629990418,0,0,1.2928688964843749,0,0,1.1465999999999998
2.9239268990058918,0,0,1.3742717529296875,0,0,1.5288
2.925314199004788,0,0,1.3024457031249999,0,0,0.99372
2.926699998002732,0,0,1.3958195678710936,0,0,0.7644
2.9280856310215313,0,0,1.197100830078125,0,0,0.84084
2.9294799490016885,0,0,1.35990654296875,0,0,0.22932
2.9308655450004153,0,0,1.2713210815429687,0,0,0.84084
2.932251381018432,0,0,1.3168109130859373,0,0,1.37592
2.9336368660151493,0,0,1.4173673828125,0,0,0.84084
2.935021814017091,0,0,1.3239935180664062,0,0,-9.09636
2.9364288540091366,0,0,1.458068811035156,0,0,0.84084
2.93781954201404,0,0,1.1947066284179686,0,0,0.30576000000000003
2.939204916008748,0,0,1.3455413330078123,0,0,0.84084
2.9405907150066923,0,0,1.2593500732421874,0,0,1.07016
2.941976219008211,0,0,1.20667763671875,0,0,1.1465999999999998
2.943360778008355,0,0,1.3120225097656248,0,0,0.30576000000000003
2.94474641000852,0,0,1.3479355346679687,0,0,0.0
2.946131931996206,0,0,1.4173673828125,0,0,0.68796
2.947535269020591,0,0,1.419761584472656,0,0,0.68796
2.9489284380106255,0,0,1.3024457031249999,0,0,0.99372
2.9503149420197587,0,0,1.0749965454101562,0,0,1.07016
2.951701389014488,0,0,1.2282254516601563,0,0,0.68796
2.9530859850056004,0,0,1.2689268798828124,0,0,0.07644000000000001
2.9544716740201693,0,0,1.4891934326171874,0,0,0.7644
2.95585765800206,0,0,1.5562310791015623,0,0,0.45864
2.9572426060040016,0,0,1.458068811035156,0,0,0.84084
2.958628571999725,0,0,1.3479355346679687,0,0,1.2994800000000002
2.9600142239942215,0,0,1.1851298217773436,0,0,1.07016
2.961408005008707,0,0,1.2138602416992186,0,0,0.99372
2.9627939340134617,0,0,1.2473790649414063,0,0,0.53508
2.964180048002163,0,0,1.47482822265625,0,0,0.7644
2.9655656990071293,0,0,1.4891934326171874,0,0,0.91728
2.966951017995598,0,0,1.5298948608398437,0,0,0.68796
2.968336743011605,0,0,1.35990654296875,0,0,1.2230400000000001
2.969722191017354,0,0,1.1420341918945311,0,0,0.53508
2.971107490011491,0,0,1.180341418457031,0,0,0.68796
2.972493512002984,0,0,1.0917559570312498,0,0,1.37592
2.9738998480024748,0,0,1.3120225097656248,0,0,1.2230400000000001
2.9752864809997845,0,0,1.3359645263671873,0,0,0.68796
2.9766731510171667,0,0,1.4820108276367188,0,0,0.84084
2.978059340006439,0,0,1.2832920898437499,0,0,0.68796
2.979463138995925,0,0,1.465251416015625,0,0,0.7644
2.9808504010143224,0,0,1.1324573852539062,0,0,0.53508
2.9822360340040177,0,0,1.139639990234375,0,0,1.07016
2.983622611995088,0,0,1.2976572998046874,0,0,0.68796
2.9850083000201266,0,0,1.216254443359375,0,0,0.53508
2.986394895997364,0,0,1.4437036010742186,0,0,0.68796
2.98779310300597,0,0,1.2306196533203124,0,0,0.68796
2.9891788469976746,0,0,1.3168109130859373,0,0,1.07016
2.990564424020704,0,0,1.1875240234375,0,0,0.91728
2.9919506490114145,0,0,1.1851298217773436,0,0,0.99372
2.9933356900000945,0,0,1.3000515014648437,0,0,0.0
2.994721137016313,0,0,1.429338391113281,0,0,0.07644000000000001
2.996106641017832,0,0,1.4867992309570313,0,0,0.6115200000000001
2.997492569993483,0,0,1.2737152832031249,0,0,0.53508
2.9988778690167237,0,0,1.2952630981445312,0,0,1.2994800000000002
3.0002639279991854,0,0,1.0534487304687499,0,0,0.99372
3.0016496909956913,0,0,1.1516109985351561,0,0,0.6115200000000001
3.0030349160078913,0,0,1.2665326782226562,0,0,-0.15288000000000002
3.0044276599946897,0,0,1.4820108276367188,0,0,0.6115200000000001
3.0058136630104855,0,0,1.4149731811523436,0,0,0.45864
3.007199000014225,0,0,1.4628572143554686,0,0,0.84084
3.0085848360031378,0,0,1.4221557861328125,0,0,1.2994800000000002
3.009970247017918,0,0,1.180341418457031,0,0,0.6115200000000001
3.0113557320146356,0,0,1.1923124267578125,0,0,0.45864
3.012741383019602,0,0,1.2808978881835937,0,0,0.99372
3.0141268680163193,0,0,1.3048399047851562,0,0,1.2994800000000002
3.015513667021878,0,0,1.4149731811523436,0,0,1.1465999999999998
3.0168988190125674,0,0,1.484405029296875,0,0,0.68796
3.0182845260133035,0,0,1.2378022583007813,0,0,0.53508
3.019669955014251,0,0,1.197100830078125,0,0,0.53508
3.021052699012216,0,0,1.1851298217773436,0,0,0.68796
3.0224362020089757,0,0,1.0941501586914062,0,0,1.1465999999999998
3.023833002022002,0,0,1.4221557861328125,0,0,0.68796
3.0252215230138972,0,0,1.5251064575195312,0,0,0.45864
3.0266075640101917,0,0,1.4891934326171874,0,0,0.68796
3.027994641015539,0,0,1.235408056640625,0,0,0.53508
3.0293808660062496,0,0,1.4772224243164063,0,0,0.53508
3.0307805920019746,0,0,1.2042834350585936,0,0,0.68796
3.0321751500014216,0,0,1.1085153686523437,0,0,0.84084
3.033562616998097,0,0,1.3551181396484375,0,0,0.0
3.0349489159998484,0,0,1.3431471313476562,0,0,-9.707880000000001
3.03633227100363,0,0,1.4724340209960938,0,0,0.6115200000000001
3.0377104229992256,0,0,1.2521674682617188,0,0,0.7644
3.03908849999425,0,0,1.5083470458984374,0,0,1.2230400000000001
3.040477392001776,0,0,1.2401964599609374,0,0,1.2230400000000001
3.0418640070129186,0,0,1.1827356201171875,0,0,0.91728
3.043250379996607,0,0,1.1875240234375,0,0,0.22932
3.044631309021497,0,0,1.39821376953125,0,0,0.3822
3.04602168299607,0,0,1.4101847778320311,0,0,0.68796
3.0473999270179775,0,0,1.3335703247070312,0,0,1.07016
3.048803597019287,0,0,1.37906015625,0,0,1.5288
3.0502507660130505,0,0,1.0773907470703123,0,0,1.07016
3.051644417020725,0,0,1.2425906616210938,0,0,0.7644
3.053052272007335,0,0,1.1276689819335937,0,0,0.7644
3.054442053020466,0,0,1.2593500732421874,0,0,0.68796
3.055826686002547,0,0,1.35990654296875,0,0,0.84084
3.0572058190009557,0,0,1.5155296508789062,0,0,0.7644
3.0585844330198597,0,0,1.20667763671875,0,0,0.91728
3.0599699370213784,0,0,1.0989385620117187,0,0,0.84084
3.061357124999631,0,0,1.3455413330078123,0,0,0.30576000000000003
3.062743999005761,0,0,1.1420341918945311,0,0,1.2230400000000001
3.0641313540108968,0,0,1.2521674682617188,0,0,1.2994800000000002
3.065519801020855,0,0,1.3670891479492187,0,0,0.99372
3.0669067300041206,0,0,1.5394716674804687,0,0,1.1465999999999998
3.0682935859949794,0,0,1.2713210815429687,0,0,0.6115200000000001
3.0696800890145823,0,0,1.2593500732421874,0,0,0.45864
3.07106705501792,0,0,1.1755530151367186,0,0,0.45864
3.0724475950119086,0,0,1.1827356201171875,0,0,1.2230400000000001
3.0738256729964633,0,0,1.3287819213867187,0,0,0.53508
3.0752089169982355,0,0,1.4939818359375,0,0,0.84084
3.0766634750179946,0,0,1.5346832641601562,0,0,0.53508
3.0781041810114402,0,0,1.3431471313476562,0,0,0.6115200000000001
3.0794931660057046,0,0,1.1276689819335937,0,0,0.6115200000000001
3.0808800020022318,0,0,1.149216796875,0,0,1.07016
3.082266432000324,0,0,1.1324573852539062,0,0,0.53508
3.083654453017516,0,0,1.3072341064453123,0,0,0.53508
3.0850397530011833,0,0,1.3742717529296875,0,0,0.3822
3.086425904009957,0,0,1.5251064575195312,0,0,0.7644
3.0878129070042633,0,0,1.2282254516601563,0,0,0.68796
3.0891983740148135,0,0,1.3407529296874998,0,0,0.7644
3.0905839320039377,0,0,1.1109095703125,0,0,1.1465999999999998
3.0919895650004037,0,0,1.13006318359375,0,0,0.68796
3.0933760680200066,0,0,1.37906015625,0,0,0.0
3.0947614420147147,0,0,1.4317325927734375,0,0,0.22932
3.0961478160170373,0,0,1.4867992309570313,0,0,0.53508
3.0975331889931113,0,0,1.3239935180664062,0,0,0.91728
3.098918767005671,0,0,1.3287819213867187,0,0,0.6115200000000001
3.103293718013447,0,0,1.0893617553710937,0,0,0.0
3.104734943015501,0,0,1.3048399047851562,0,0,0.0
3.1061165950086433,0,0,1.3862427612304686,0,0,0.53508
3.1075345420103986,0,0,1.3479355346679687,0,0,0.99372
3.108918340993114,0,0,1.2401964599609374,0,0,1.2994800000000002
3.110297492996324,0,0,1.235408056640625,0,0,1.1465999999999998
3.1116782370081637,0,0,1.16837041015625,0,0,0.7644
3.1130576110153925,0,0,1.1827356201171875,0,0,0.91728
3.114435947005404,0,0,1.429338391113281,0,0,0.84084
3.1158219880016986,0,0,1.3431471313476562,0,0,0.99372
3.1172094170178752,0,0,1.4867992309570313,0,0,0.99372
3.1185958640126046,0,0,1.3359645263671873,0,0,0.6115200000000001
3.119991386018228,0,0,1.3383587280273437,0,0,0.6115200000000001
3.1213756859942805,0,0,1.180341418457031,0,0,0.3822
3.1227596520038787,0,0,1.2306196533203124,0,0,1.2994800000000002
3.1241601729998365,0,0,1.3359645263671873,0,0,1.07016
3.125548287993297,0,0,1.3335703247070312,0,0,0.91728
3.1269353100215085,0,0,1.678335363769531,0,0,0.6115200000000001
3.128321924014017,0,0,1.350329736328125,0,0,-9.01992
3.129710631008493,0,0,1.2282254516601563,0,0,0.22932
3.1310976709937677,0,0,1.1133037719726562,0,0,0.68796
3.1324855080165435,0,0,1.189918225097656,0,0,0.84084
3.1338723259977996,0,0,1.3359645263671873,0,0,0.0
3.1352587360015605,0,0,1.4867992309570313,0,0,0.6115200000000001
3.1366458690026775,0,0,1.4867992309570313,0,0,0.53508
3.138032465009019,0,0,1.2785036865234374,0,0,1.07016
3.139431098010391,0,0,1.3048399047851562,0,0,0.6115200000000001
3.140818471001694,0,0,1.2713210815429687,0,0,0.84084
3.142205659998581,0,0,1.158793603515625,0,0,0.7644
3.1435929590079468,0,0,1.22583125,0,0,0.0
3.1449788880127016,0,0,1.5203180541992187,0,0,0.30576000000000003
3.1463656690029893,0,0,1.6424223388671875,0,0,0.6115200000000001
3.1477530620177276,0,0,1.4341267944335936,0,0,0.68796
3.1491390459996182,0,0,1.3479355346679687,0,0,1.2230400000000001
3.1505256420059595,0,0,1.1851298217773436,0,0,0.99372
3.151912792993244,0,0,1.2401964599609374,0,0,0.6115200000000001
3.1532991109997965,0,0,1.2617442749023438,0,0,0.22932
3.1546858549991157,0,0,1.3934253662109375,0,0,0.3822
3.156072932993993,0,0,1.2856862915039062,0,0,0.7644
3.1574596209975425,0,0,1.3359645263671873,0,0,0.99372
3.1588458100159187,0,0,1.209071838378906,0,0,0.91728
3.1602328500011936,0,0,1.1228805786132812,0,0,0.6115200000000001
3.1616192790097557,0,0,1.22583125,0,0,0.6115200000000001
3.1630057450092863,0,0,1.1133037719726562,0,0,1.45236
3.164392934006173,0,0,1.4006079711914061,0,0,0.91728
3.165787806996377,0,0,1.3383587280273437,0,0,0.91728
3.1671744030027185,0,0,1.675941162109375,0,0,0.68796
3.1685617030016147,0,0,1.3072341064453123,0,0,0.99372
3.169948243012186,0,0,1.2808978881835937,0,0,0.68796
3.1713346159958746,0,0,1.24498486328125,0,0,0.45864
3.1727216750150546,0,0,1.1420341918945311,0,0,0.99372
3.174108530016383,0,0,1.3527239379882812,0,0,1.2230400000000001
3.1755080519942567,0,0,1.3742717529296875,0,0,0.53508
3.176895295997383,0,0,1.5705962890624998,0,0,0.91728
3.1782815770129673,0,0,1.2737152832031249,0,0,0.68796
3.1796687839960214,0,0,1.2928688964843749,0,0,0.45864
3.1810547310160473,0,0,1.1540052001953125,0,0,0.99372
3.18245784600731,0,0,1.0630255371093749,0,0,0.7644
3.1838454230164643,0,0,1.3024457031249999,0,0,0.53508
3.1852314260031562,0,0,1.3934253662109375,0,0,0.22932
3.1866178550117183,0,0,1.6543933471679686,0,0,0.53508
3.188004247000208,0,0,1.5131354492187499,0,0,0.84084
3.1893911030201707,0,0,1.1755530151367186,0,0,0.84084
3.19077784701949,0,0,1.16837041015625,0,0,1.2994800000000002
3.19216442402103,0,0,1.0869675537109373,0,0,0.3822
3.1935504830034915,0,0,1.3862427612304686,0,0,0.3822
3.1949365600012243,0,0,1.458068811035156,0,0,0.22932
3.196322692994727,0,0,1.5107412475585937,0,0,0.6115200000000001
3.1977094000030775,0,0,1.3766659545898436,0,0,0.99372
3.199096088006627,0,0,1.3120225097656248,0,0,0.99372
3.2004825540061574,0,0,1.1563994018554686,0,0,1.1465999999999998
3.20186892800848,0,0,1.1444283935546875,0,0,0.45864
3.20325550501002,0,0,1.3168109130859373,0,0,-8.943480000000001
3.2046435640077107,0,0,1.3958195678710936,0,0,0.7644
3.206030086003011,0,0,1.369483349609375,0,0,0.99372
3.2074189039994963,0,0,1.426944189453125,0,0,0.99372
3.208799333020579,0,0,1.2665326782226562,0,0,1.2230400000000001
3.2101770770095754,0,0,1.1827356201171875,0,0,0.53508
3.211572950996924,0,0,1.2114660400390624,0,0,0.3822
3.2129593980207574,0,0,1.218648645019531,0,0,1.37592
3.2143451050214935,0,0,1.438915197753906,0,0,1.07016
3.2157316460215952,0,0,1.2785036865234374,0,0,0.91728
3.217116445011925,0,0,1.6807295654296874,0,0,0.7644
3.2185024110076483,0,0,1.2761094848632812,0,0,0.68796
3.2198879700154066,0,0,1.3048399047851562,0,0,0.3822
3.221271546994103,0,0,1.2785036865234374,0,0,0.53508
3.222655699006282,0,0,1.1372457885742187,0,0,0.7644
3.2240611830202397,0,0,1.235408056640625,0,0,0.91728
3.2254474270157516,0,0,1.2808978881835937,0,0,0.53508
3.2268400600005407,0,0,1.3239935180664062,0,0,0.53508
3.2282269520219415,0,0,1.2473790649414063,0,0,0.84084
3.229612826020457,0,0,1.2928688964843749,0,0,0.7644
3.23099855100736,0,0,1.1444283935546875,0,0,0.99372
3.2323943140218034,0,0,1.1540052001953125,0,0,0.68796
3.233781965012895,0,0,1.35990654296875,0,0,-0.15288000000000002
3.2351685980102047,0,0,1.3215993164062498,0,0,0.3822
3.2365560090111103,0,0,1.5179238525390624,0,0,0.68796
3.2379430120054167,0,0,1.3958195678710936,0,0,0.84084
3.2393292369961273,0,0,1.2641384765625,0,0,1.2230400000000001
3.240709981007967,0,0,1.1923124267578125,0,0,0.7644
3.2420881330035627,0,0,1.158793603515625,0,0,0.68796
3.2434749139938504,0,0,1.3479355346679687,0,0,0.6115200000000001
3.24486178701045,0,0,1.458068811035156,0,0,0.30576000000000003
3.2462476610089652,0,0,1.458068811035156,0,0,0.68796
3.247633257007692,0,0,1.4245499877929686,0,0,0.84084
3.2490188340016175,0,0,1.350329736328125,0,0,1.37592
3.250404577993322,0,0,1.1875240234375,0,0,0.84084
3.2517902110121213,0,0,1.3742717529296875,0,0,0.7644
3.2531755109957885,0,0,1.2425906616210938,0,0,1.2230400000000001
3.254561420995742,0,0,1.3575123413085937,0,0,0.91728
3.25594992400147,0,0,1.4317325927734375,0,0,0.91728
3.257334780006204,0,0,1.6112977172851561,0,0,0.7644
3.258720653015189,0,0,1.1324573852539062,0,0,0.6115200000000001
3.2601068600197323,0,0,1.1324573852539062,0,0,0.45864
3.261492604011437,0,0,1.2114660400390624,0,0,0.53508
3.2628785700071603,0,0,0.9576806640625,0,0,1.1465999999999998
3.264264740020735,0,0,1.388636962890625,0,0,1.07016
3.2657099649950396,0,0,1.3168109130859373,0,0,0.91728
3.267099301010603,0,0,1.4796166259765624,0,0,0.6115200000000001
3.2684860640147235,0,0,1.2904746948242187,0,0,0.7644
3.269885345012881,0,0,1.2641384765625,0,0,0.45864
3.271271756006172,0,0,1.1947066284179686,0,0,0.7644
3.2727737200038973,0,0,1.0726023437499999,0,0,0.91728
3.2741617239953484,0,0,1.3527239379882812,0,0,0.30576000000000003
3.275566041993443,0,0,1.3407529296874998,0,0,0.45864
3.276952637010254,0,0,1.3934253662109375,0,0,0.68796
3.278338325995719,0,0,1.2665326782226562,0,0,0.84084
3.2797250330040697,0,0,1.3742717529296875,0,0,0.91728
3.281110369018279,0,0,1.1109095703125,0,0,0.84084
3.282506446004845,0,0,1.0941501586914062,0,0,0.68796
3.2838937650085427,0,0,1.1947066284179686,0,0,20
3.285278712020954,0,0,1.3958195678710936,0,0,0.68796
3.2866642519948073,0,0,1.5179238525390624,0,0,1.07016
3.288050959003158,0,0,1.2785036865234374,0,0,0.68796
3.2894365550018847,0,0,1.37906015625,0,0,1.2994800000000002
3.2908224290004,0,0,1.1085153686523437,0,0,0.91728
3.292208210012177,0,0,1.189918225097656,0,0,0.53508
3.293593750015134,0,0,1.1540052001953125,0,0,0.07644000000000001
3.2949793279985897,0,0,1.458068811035156,0,0,0.91728
3.296365386020625,0,0,1.4341267944335936,0,0,0.68796
3.297751149017131,0,0,1.4987702392578124,0,0,1.1465999999999998
3.299136910995003,0,0,1.254561669921875,0,0,0.91728
3.3005230629933067,0,0,1.1228805786132812,0,0,0.68796
3.3019085100095253,0,0,1.3263877197265623,0,0,0.3822
3.303293940000003,0,0,1.2617442749023438,0,0,1.07016
3.3046799059957266,0,0,1.2904746948242187,0,0,1.2230400000000001
3.306065650016535,0,0,1.4173673828125,0,0,1.07016
3.3074615969962906,0,0,1.599326708984375,0,0,1.07016
3.3088481560116634,0,0,1.2473790649414063,0,0,0.7644
3.310234047996346,0,0,1.20667763671875,0,0,0.3822
3.3116198659990914,0,0,1.3670891479492187,0,0,0.53508
3.3130054990178905,0,0,1.2330138549804688,0,0,1.2230400000000001
3.3143987799994648,0,0,1.3359645263671873,0,0,0.99372
3.3157854310120456,0,0,1.22583125,0,0,0.53508
3.317170287016779,0,0,1.5466542724609373,0,0,0.84084
3.318555956997443,0,0,1.2330138549804688,0,0,0.6115200000000001
3.319941182009643,0,0,1.4891934326171874,0,0,0.3822
3.321324667020235,0,0,1.2018892333984375,0,0,0.91728
3.3227092630113475,0,0,1.1516109985351561,0,0,1.07016
3.3241080430161674,0,0,1.4245499877929686,0,0,0.0
3.3254943799984176,0,0,1.3814543579101561,0,0,0.22932
3.326906290021725,0,0,1.4796166259765624,0,0,0.68796
3.3283683670160826,0,0,1.2713210815429687,0,0,0.91728
3.329793259006692,0,0,1.2665326782226562,0,0,0.68796
3.331179817003431,0,0,1.216254443359375,0,0,1.1465999999999998
3.332566098019015,0,0,1.216254443359375,0,0,0.6115200000000001
3.3339521570014767,0,0,1.3431471313476562,0,0,0.0
3.335337883007014,0,0,1.3431471313476562,0,0,0.22932
3.336723978020018,0,0,1.6400281372070311,0,0,0.91728
3.338109741016524,0,0,1.2665326782226562,0,0,0.7644
3.3395214110205416,0,0,1.2808978881835937,0,0,1.1465999999999998
3.340926043019863,0,0,1.2042834350585936,0,0,0.84084
3.3423123240063433,0,0,1.1923124267578125,0,0,0.53508
3.3437111240054946,0,0,1.2473790649414063,0,0,0.30576000000000003
3.345098516001599,0,0,1.369483349609375,0,0,0.53508
3.3464840190135874,0,0,1.3718775512695311,0,0,0.91728
3.3478705040179193,0,0,1.6112977172851561,0,0,0.99372
3.3492570999951568,0,0,1.3407529296874998,0,0,1.37592
3.3506426950043533,0,0,1.1061211669921875,0,0,0.91728
3.352028513007099,0,0,1.1180921752929687,0,0,0.3822
3.3534402759978548,0,0,1.2234370483398436,0,0,0.6115200000000001
3.3548278899979778,0,0,1.4724340209960938,0,0,0.7644
3.3562147449993063,0,0,1.5059528442382812,0,0,0.91728
3.357614322012523,0,0,1.659181750488281,0,0,0.84084
3.3590006770100445,0,0,1.3862427612304686,0,0,1.07016
3.3603874210093636,0,0,1.235408056640625,0,0,0.45864
3.3617728130193427,0,0,1.3287819213867187,0,0,0.53508
3.363157965010032,0,0,1.2521674682617188,0,0,1.1465999999999998
3.364544394018594,0,0,1.3192051147460937,0,0,1.07016
3.3659294529934414,0,0,1.3431471313476562,0,0,0.53508
3.367315270996187,0,0,1.5155296508789062,0,0,0.68796
3.3687014960160013,0,0,1.2856862915039062,0,0,0.91728
3.3700872220215388,0,0,1.1324573852539062,0,0,0.3822
3.3714731320214923,0,0,1.197100830078125,0,0,1.07016
3.372860875999322,0,0,1.1923124267578125,0,0,0.84084
3.374251750006806,0,0,1.3527239379882812,0,0,0.53508
3.3756379749975167,0,0,1.4508862060546874,0,0,0.45864
3.377022978995228,0,0,1.5514426757812498,0,0,0.30576000000000003
3.3784088710090145,0,0,1.3862427612304686,0,0,0.84084
3.379797948000487,0,0,1.39821376953125,0,0,0.99372
3.3811822480056435,0,0,1.1923124267578125,0,0,1.2230400000000001
3.382567824999569,0,0,1.20667763671875,0,0,0.45864
3.383954549994087,0,0,1.3215993164062498,0,0,0.0
3.3853392390010413,0,0,1.446097802734375,0,0,0.30576000000000003
3.386725315998774,0,0,1.43652099609375,0,0,0.7644
3.3881116709962953,0,0,1.35990654296875,0,0,0.68796
3.3894968969980255,0,0,1.4915876342773438,0,0,1.2230400000000001
3.3908827520208433,0,0,1.1755530151367186,0,0,1.07016
3.39226810701075,0,0,1.2378022583007813,0,0,0.7644
3.393652999016922,0,0,1.3646949462890625,0,0,0.0
3.395038779999595,0,0,1.3934253662109375,0,0,0.91728
3.3964241910143755,0,0,1.2904746948242187,0,0,0.99372
3.397810490016127,0,0,1.5490484741210937,0,0,0.7644
3.399204956018366,0,0,1.2330138549804688,0,0,0.99372
3.4005919040064327,0,0,1.1133037719726562,0,0,0.53508
3.401991518010618,0,0,1.1372457885742187,0,0,0.45864
3.403377744019963,0,0,1.2306196533203124,0,0,1.2994800000000002
3.404763672995614,0,0,1.3718775512695311,0,0,1.1465999999999998
3.406149398011621,0,0,1.2497732666015624,0,0,1.07016
3.4075363090087194,0,0,1.47482822265625,0,0,0.68796
3.4089215340209194,0,0,1.3168109130859373,0,0,0.45864
3.4103075379971415,0,0,1.189918225097656,0,0,0.3822
3.4116941709944513,0,0,1.1851298217773436,0,0,0.6115200000000001
3.413078896002844,0,0,1.1731588134765625,0,0,0.91728
3.414464750996558,0,0,1.3311761230468748,0,0,0.68796
3.415851643017959,0,0,1.3287819213867187,0,0,0.22932
3.4172525909962133,0,0,1.5634136840820312,0,0,0.68796
3.418639298004564,0,0,1.4125789794921875,0,0,0.68796
3.4200261530058924,0,0,1.2808978881835937,0,0,0.53508
3.4214102670084685,0,0,1.1372457885742187,0,0,0.7644
3.4227941959979944,0,0,1.1731588134765625,0,0,0.6115200000000001
3.4241941990039777,0,0,1.3096283081054687,0,0,0.0
3.425580314011313,0,0,1.4915876342773438,0,0,0.15288000000000002
3.4269661320140585,0,0,1.47482822265625,0,0,0.53508
3.4283523200138006,0,0,1.2761094848632812,0,0,0.6115200000000001
3.429737972008297,0,0,1.2617442749023438,0,0,1.2994800000000002
3.43112723401282,0,0,1.2234370483398436,0,0,0.91728
3.432544311013771,0,0,1.2689268798828124,0,0,0.53508
3.433930888015311,0,0,1.3407529296874998,0,0,0.0
3.4353162060142495,0,0,1.3910311645507811,0,0,0.45864
3.4367021170037333,0,0,1.4508862060546874,0,0,0.84084
3.4380875280185137,0,0,1.3311761230468748,0,0,0.91728
3.439473642007215,0,0,1.2114660400390624,0,0,1.07016
3.4408592190011404,0,0,1.1827356201171875,0,0,0.84084
3.4422449260018766,0,0,1.2737152832031249,0,0,0.45864
3.4436304300033953,0,0,1.2018892333984375,0,0,0.91728
3.4450280070013832,0,0,1.2976572998046874,0,0,0.99372
3.4464146950049326,0,0,1.2497732666015624,0,0,0.84084
3.4478003840195015,0,0,1.4628572143554686,0,0,0.7644
3.449185905017657,0,0,1.3670891479492187,0,0,1.07016
3.4505716120183934,0,0,1.2952630981445312,0,0,0.30576000000000003
3.451961726997979,0,0,1.1659762084960936,0,0,0.6115200000000001
3.4533470820169896,0,0,1.1228805786132812,0,0,1.2994800000000002
3.4547557329933625,0,0,1.47482822265625,0,0,0.84084
3.4561449580069166,0,0,1.3646949462890625,0,0,0.68796
3.4575435540173203,0,0,1.5394716674804687,0,0,0.91728
3.458930724009406,0,0,1.3144167114257812,0,0,0.53508
3.4603167269960977,0,0,1.2617442749023438,0,0,0.6115200000000001
3.461702304019127,0,0,1.0821791503906248,0,0,0.91728
3.463088011019863,0,0,1.199495031738281,0,0,0.84084
3.464473830012139,0,0,1.2737152832031249,0,0,0.22932
3.4658601109986193,0,0,1.2761094848632812,0,0,0.15288000000000002
3.4672461510053836,0,0,1.4891934326171874,0,0,0.91728
3.4686320059990976,0,0,1.4341267944335936,0,0,0.6115200000000001
3.470017490995815,0,0,1.3263877197265623,0,0,0.91728
3.4714034750068095,0,0,1.1420341918945311,0,0,1.2230400000000001
3.472789053019369,0,0,1.1061211669921875,0,0,0.68796
3.4741747970110737,0,0,1.2617442749023438,0,0,20
3.4755825030151755,0,0,1.5011644409179687,0,0,0.68796
3.4769687470106874,0,0,1.5155296508789062,0,0,1.2230400000000001
3.478354176011635,0,0,1.4796166259765624,0,0,1.1465999999999998
3.479740328009939,0,0,1.3192051147460937,0,0,1.2994800000000002
3.4811250900093,0,0,1.2042834350585936,0,0,0.84084
3.4825105570198502,0,0,1.1755530151367186,0,0,0.30576000000000003
3.483896782010561,0,0,1.3527239379882812,0,0,0.15288000000000002
3.4852819700026885,0,0,1.4867992309570313,0,0,0.68796
3.48666691800463,0,0,1.2665326782226562,0,0,0.99372
3.4880526440101676,0,0,1.5059528442382812,0,0,0.7644
3.489445739018265,0,0,1.3239935180664062,0,0,1.07016
3.4908316130167805,0,0,1.1516109985351561,0,0,0.45864
3.492217598017305,0,0,1.2665326782226562,0,0,0.45864
3.493603434006218,0,0,1.1468225952148436,0,0,1.07016
3.494988882011967,0,0,1.4125789794921875,0,0,1.2230400000000001
3.49637466299464,0,0,1.3096283081054687,0,0,0.7644
3.497760518017458,0,0,1.4149731811523436,0,0,0.99372
3.4991460769961122,0,0,1.1659762084960936,0,0,0.53508
3.5005320430209395,0,0,1.1755530151367186,0,0,0.22932
3.5019182130054105,0,0,1.2617442749023438,0,0,0.3822
3.50330330900033,0,0,1.139639990234375,0,0,0.84084
3.504689257009886,0,0,1.4413093994140624,0,0,0.45864
3.5060752410208806,0,0,1.3431471313476562,0,0,0.30576000000000003
3.5074621890089475,0,0,1.4987702392578124,0,0,0.6115200000000001
3.508847599994624,0,0,1.2808978881835937,0,0,0.68796
3.5102335099945776,0,0,1.4149731811523436,0,0,1.07016
3.511619088007137,0,0,1.197100830078125,0,0,1.07016
3.5130028870189562,0,0,1.0965443603515623,0,0,0.68796
3.5145766110217664,0,0,1.3120225097656248,0,0,0.0
3.515970798995113,0,0,1.3168109130859373,0,0,0.30576000000000003
3.517370395013131,0,0,1.467645617675781,0,0,0.45864
3.5187580269994214,0,0,1.2210428466796874,0,0,0.53508
3.520145512011368,0,0,1.3215993164062498,0,0,0.45864
3.5215341080038343,0,0,1.1851298217773436,0,0,0.91728
3.522921296011191,0,0,1.149216796875,0,0,0.68796
3.5243086330010556,0,0,1.3287819213867187,0,0,0.0
3.5256954320066143,0,0,1.3072341064453123,0,0,0.22932
3.5270824360195547,0,0,1.5179238525390624,0,0,0.68796
3.5284689020190854,0,0,1.5203180541992187,0,0,0.7644
3.529855424014386,0,0,1.2569558715820313,0,0,1.2994800000000002
3.53130561101716,0,0,1.1468225952148436,0,0,1.1465999999999998
3.532717299007345,0,0,1.1156979736328125,0,0,0.6115200000000001
3.5341058210178744,0,0,1.2665326782226562,0,0,0.0
3.535495454008924,0,0,1.4963760375976562,0,0,0.6115200000000001
3.5368840680166613,0,0,1.4221557861328125,0,0,0.68796
3.538271163997706,0,0,1.37906015625,0,0,0.84084
3.539666056021815,0,0,1.3000515014648437,0,0,1.5288
