Time,AccelX1,AccelY1,AccelZ1,AccelX2,AccelY2,AccelZ2
5.278008757159114e-06,0,0,1.2689268798828124,0,0,0.68796
0.0036633580166380852,0,0,1.5131354492187499,0,0,0.84084
0.007297753996681422,0,0,1.254561669921875,0,0,0.84084
0.010895002022152767,0,0,1.2976572998046874,0,0,0.84084
0.01451263899798505,0,0,1.465251416015625,0,0,1.07016
0.018240496021462604,0,0,1.1348515869140625,0,0,0.30576000000000003
0.021765523008070886,0,0,1.5227122558593749,0,0,0.91728
0.02533334502368234,0,0,1.3335703247070312,0,0,0.7644
0.028972815023735166,0,0,1.2785036865234374,0,0,1.45236
0.03249963800772093,0,0,1.5083470458984374,0,0,0.6115200000000001
0.03602048000902869,0,0,1.1468225952148436,0,0,0.45864
0.039532914001028985,0,0,1.3766659545898436,0,0,0.84084
0.04305008900701068,0,0,1.3455413330078123,0,0,0.99372
0.046564746007788926,0,0,1.1947066284179686,0,0,0.84084
0.05008047600858845,0,0,1.0845733520507812,0,0,0.07644000000000001
0.05360039201332256,0,0,1.2832920898437499,0,0,1.1465999999999998
0.057117364020086825,0,0,1.3024457031249999,0,0,0.84084
0.06064329799846746,0,0,1.3215993164062498,0,0,0.0
0.06404986302368343,0,0,1.1372457885742187,0,0,0.6115200000000001
0.0671683770196978,0,0,1.1731588134765625,0,0,0.68796
0.0703827410179656,0,0,1.2401964599609374,0,0,1.2230400000000001
0.07357543901889585,0,0,1.4820108276367188,0,0,0.53508
0.0766982120112516,0,0,1.5203180541992187,0,0,1.1465999999999998
0.07981591101270169,0,0,1.1180921752929687,0,0,0.6115200000000001
0.08293214702280238,0,0,1.2761094848632812,0,0,0.91728
0.08605097600957379,0,0,1.5011644409179687,0,0,0.30576000000000003
0.0891742109961342,0,0,1.0797849487304687,0,0,0.68796
0.09229387302184477,0,0,1.4820108276367188,0,0,0.45864
0.09540716500487179,0,0,1.1348515869140625,0,0,0.99372
0.09852595601114444,0,0,1.3383587280273437,0,0,0.68796
0.10164209999493323,0,0,1.3096283081054687,0,0,1.45236
0.10476966900750995,0,0,1.5251064575195312,0,0,0.53508
0.10788984902319498,0,0,1.235408056640625,0,0,0.68796
0.11100345599697903,0,0,1.2713210815429687,0,0,0.30576000000000003
0.1141208210028708,0,0,1.37906015625,0,0,1.07016
0.11723655700916424,0,0,1.4867992309570313,0,0,0.53508
0.12035377501160838,0,0,1.1540052001953125,0,0,0.7644
0.12346899200929329,0,0,1.2665326782226562,0,0,0.84084
0.12658443200052716,0,0,1.16837041015625,0,0,0.7644
0.12970894601312466,0,0,1.24498486328125,0,0,0.53508
0.1328306820068974,0,0,1.3742717529296875,0,0,0.45864
0.13595197300310247,0,0,1.2497732666015624,0,0,0.91728
0.13906650501303375,0,0,1.177947216796875,0,0,0.84084
0.14218242702190764,0,0,1.2713210815429687,0,0,0.68796
0.14529773700633086,0,0,1.3024457031249999,0,0,1.1465999999999998
0.14841641701059416,0,0,1.4987702392578124,0,0,0.99372
0.15153076400747523,0,0,1.1061211669921875,0,0,0.99372
0.15464600000996143,0,0,1.2425906616210938,0,0,0.53508
0.15781090201926418,0,0,1.2042834350585936,0,0,0.7644
0.16093049000483006,0,0,1.1324573852539062,0,0,0.30576000000000003
0.1640475960157346,0,0,1.2569558715820313,0,0,0.53508
0.1671602209971752,0,0,1.199495031738281,0,0,0.84084
0.17030645700288005,0,0,1.0869675537109373,0,0,0.84084
0.17342443400411867,0,0,1.3311761230468748,0,0,1.1465999999999998
0.17654113200842403,0,0,1.4413093994140624,0,0,0.7644
0.17965583101613447,0,0,1.4053963745117186,0,0,1.07016
0.18278325200662948,0,0,1.139639990234375,0,0,0.6115200000000001
0.18589706299826503,0,0,1.484405029296875,0,0,0.68796
0.18901274300878868,0,0,1.4820108276367188,0,0,0.7644
0.19215223801438697,0,0,1.1611878051757811,0,0,0.84084
0.19526708501507528,0,0,1.2928688964843749,0,0,0.7644
0.1983826360083185,0,0,1.2306196533203124,0,0,1.1465999999999998
0.20149709400720894,0,0,1.1947066284179686,0,0,0.84084
0.2046145710046403,0,0,1.3766659545898436,0,0,0.68796
0.2077663429954555,0,0,1.3838485595703125,0,0,0.45864
0.2108849869982805,0,0,1.1851298217773436,0,0,0.7644
0.21400194501620717,0,0,1.2401964599609374,0,0,2.06388
0.21711694000987336,0,0,1.3311761230468748,0,0,1.1465999999999998
0.22023241702117957,0,0,1.407790576171875,0,0,0.84084
0.22334711599978618,0,0,1.1420341918945311,0,0,0.68796
0.22646209300728515,0,0,1.3048399047851562,0,0,0.91728
0.22957697699894197,0,0,1.199495031738281,0,0,0.3822
0.2326923420187086,0,0,1.2114660400390624,0,0,0.45864
0.2358070600021165,0,0,1.3168109130859373,0,0,-0.15288000000000002
0.23892225901363418,0,0,1.3431471313476562,0,0,0.7644
0.2420377540111076,0,0,1.0797849487304687,0,0,0.68796
0.24515334199531935,0,0,1.3527239379882812,0,0,1.2994800000000002
0.24827535601798445,0,0,1.4628572143554686,0,0,0.7644
0.251388388016494,0,0,1.5083470458984374,0,0,0.91728
0.25450249400455505,0,0,1.3215993164062498,0,0,0.91728
0.25761697100824676,0,0,1.3311761230468748,0,0,0.91728
0.26076515100430697,0,0,1.5825672973632812,0,0,0.53508
0.2639232570072636,0,0,1.2761094848632812,0,0,0.7644
0.26720338000450283,0,0,1.3718775512695311,0,0,1.1465999999999998
0.2703310600190889,0,0,1.0726023437499999,0,0,1.1465999999999998
0.2734495180193335,0,0,1.1707646118164061,0,0,0.91728
0.27656845800811425,0,0,1.158793603515625,0,0,1.2994800000000002
0.2796843600226566,0,0,1.4006079711914061,0,0,0.6115200000000001
0.2828018740110565,0,0,1.2713210815429687,0,0,0.45864
0.2859173880133312,0,0,1.3646949462890625,0,0,0.6115200000000001
0.28903942002216354,0,0,1.47482822265625,0,0,0.84084
0.29216171201551333,0,0,1.4700398193359374,0,0,0.84084
0.295277224999154,0,0,1.1947066284179686,0,0,0.7644
0.2983984800230246,0,0,1.4221557861328125,0,0,0.84084
0.30151471600402147,0,0,1.2114660400390624,0,0,0.84084
0.3046229330066126,0,0,1.24498486328125,0,0,0.53508
0.30777955800294876,0,0,1.3766659545898436,0,0,0.0
0.31089653400704265,0,0,1.0989385620117187,0,0,0.68796
0.3140157890156843,0,0,1.2018892333984375,0,0,0.6115200000000001
0.3171320620167535,0,0,1.3359645263671873,0,0,1.68168
0.32024994600214995,0,0,1.484405029296875,0,0,1.07016
0.32338940401677974,0,0,1.4724340209960938,0,0,1.1465999999999998
0.3265048440080136,0,0,1.2832920898437499,0,0,0.84084
0.3296214690199122,0,0,1.2641384765625,0,0,0.45864
0.3327389820187818,0,0,1.6328455322265625,0,0,0.3822
0.3358869400108233,0,0,1.2713210815429687,0,0,0.53508
0.3390040649974253,0,0,1.5059528442382812,0,0,0.7644
0.34212031902279705,0,0,1.2234370483398436,0,0,0.99372
0.3452361670206301,0,0,1.1061211669921875,0,0,0.99372
0.3483543659967836,0,0,1.149216796875,0,0,1.2230400000000001
0.3514684530091472,0,0,1.3910311645507811,0,0,0.68796
0.3545833560056053,0,0,1.5059528442382812,0,0,0.68796
0.35770566601422615,0,0,1.1540052001953125,0,0,0.0
0.3609445490001235,0,0,1.2665326782226562,0,0,0.7644
0.36407459899783134,0,0,1.43652099609375,0,0,0.68796
0.3672220380103681,0,0,1.3359645263671873,0,0,0.68796
0.37034312600735575,0,0,1.2880804931640624,0,0,0.7644
0.3734619730093982,0,0,1.199495031738281,0,0,-8.943480000000001
0.3765836539969314,0,0,1.1611878051757811,0,0,0.7644
0.37969957501627505,0,0,1.2114660400390624,0,0,0.0
0.3828153290087357,0,0,1.1228805786132812,0,0,0.6115200000000001
0.38593145401682705,0,0,1.0965443603515623,0,0,0.91728
0.389046986005269,0,0,1.2904746948242187,0,0,0.68796
0.3921628710231744,0,0,1.2569558715820313,0,0,0.91728
0.39527658800943755,0,0,1.4939818359375,0,0,0.91728
0.39839041701634414,0,0,1.1156979736328125,0,0,0.91728
0.40150541201001033,0,0,1.4628572143554686,0,0,0.68796
0.4046372590237297,0,0,1.429338391113281,0,0,0.30576000000000003
0.40775162499630824,0,0,1.1109095703125,0,0,0.84084
0.4108691379951779,0,0,1.2952630981445312,0,0,0.91728
0.4139843739976641,0,0,1.1228805786132812,0,0,0.84084
0.41709974000696093,0,0,1.0917559570312498,0,0,1.1465999999999998
0.420216883008834,0,0,1.2976572998046874,0,0,0.99372
0.42333128600148484,0,0,1.3383587280273437,0,0,0.68796
0.4264462440041825,0,0,1.2880804931640624,0,0,0.68796
0.4295604250219185,0,0,1.2617442749023438,0,0,0.22932
0.4326683090184815,0,0,1.5251064575195312,0,0,0.7644
0.4358450070139952,0,0,1.5275006591796874,0,0,0.68796
0.4389775580202695,0,0,1.158793603515625,0,0,-9.172799999999999
0.44209129401133396,0,0,1.2521674682617188,0,0,1.07016
0.4452065479999874,0,0,1.1947066284179686,0,0,0.99372
0.44832365500042215,0,0,1.158793603515625,0,0,0.7644
0.45143731602001935,0,0,1.3144167114257812,0,0,0.0
0.45462262601358816,0,0,1.1348515869140625,0,0,1.07016
0.4577422880101949,0,0,1.2330138549804688,0,0,0.7644
0.4608588940172922,0,0,1.3479355346679687,0,0,1.1465999999999998
0.46402468500309624,0,0,1.4796166259765624,0,0,0.91728
0.4671458280063234,0,0,1.5083470458984374,0,0,0.91728
0.4702633419947233,0,0,1.1611878051757811,0,0,0.45864
0.47338176300399937,0,0,1.37906015625,0,0,0.30576000000000003
0.4764982210181188,0,0,1.5035586425781249,0,0,0.45864
0.47963908599922433,0,0,1.0893617553710937,0,0,0.68796
0.4827602110162843,0,0,1.2378022583007813,0,0,0.68796
0.4858744840021245,0,0,1.120486376953125,0,0,1.1465999999999998
0.48899375699693337,0,0,1.1875240234375,0,0,0.68796
0.49211001201183535,0,0,1.2497732666015624,0,0,1.2230400000000001
0.49522422900190577,0,0,1.419761584472656,0,0,0.68796
0.4983405950188171,0,0,1.2928688964843749,0,0,0.91728
0.5014562940050382,0,0,1.1540052001953125,0,0,0.3822
0.513336561009055,0,0,1.35990654296875,0,0,0.68796
0.5166305530001409,0,0,1.3670891479492187,0,0,1.07016
0.5198159550200216,0,0,1.180341418457031,0,0,1.07016
0.5229176910070237,0,0,1.3000515014648437,0,0,0.91728
0.5260186310042627,0,0,1.4604630126953124,0,0,0.3822
0.5291302010009531,0,0,1.3575123413085937,0,0,0.53508
0.5325812100199983,0,0,1.1540052001953125,0,0,0.84084
0.5357819820055738,0,0,1.426944189453125,0,0,0.91728
0.5388834400218911,0,0,1.6304513305664061,0,0,1.1465999999999998
0.5419857689994387,0,0,1.1180921752929687,0,0,0.68796
0.5450833200011402,0,0,1.2737152832031249,0,0,0.68796
0.5481820560235064,0,0,1.0726023437499999,0,0,0.3822
0.5512772000220139,0,0,1.0749965454101562,0,0,0.7644
0.5561840410227887,0,0,1.4724340209960938,0,0,1.07016
0.5599257879948709,0,0,1.369483349609375,0,0,0.91728
0.5631300040113274,0,0,1.1109095703125,0,0,0.68796
0.5660804270009976,0,0,1.3455413330078123,0,0,0.84084
0.5688656310085207,0,0,1.5155296508789062,0,0,0.3822
0.5716589450021274,0,0,1.3407529296874998,0,0,0.99372
0.5744711480219848,0,0,1.3383587280273437,0,0,1.37592
0.577282999001909,0,0,1.4413093994140624,0,0,0.91728
0.5800922210037243,0,0,1.438915197753906,0,0,0.91728
0.5830002190195955,0,0,1.1635820068359375,0,0,0.30576000000000003
0.5863663220079616,0,0,1.426944189453125,0,0,0.91728
0.5891702290100511,0,0,1.1372457885742187,0,0,0.99372
0.5919638390187174,0,0,1.254561669921875,0,0,0.7644
0.5947732090135105,0,0,1.3192051147460937,0,0,1.2994800000000002
0.5976199670112692,0,0,1.5634136840820312,0,0,0.99372
0.6005737050145399,0,0,1.2282254516601563,0,0,0.22932
0.6043598579999525,0,0,1.3000515014648437,0,0,0.45864
0.6071752099960577,0,0,1.2593500732421874,0,0,0.45864
0.6099720050115138,0,0,1.5155296508789062,0,0,0.45864
0.6127656160097104,0,0,1.3024457031249999,0,0,1.07016
0.6156795959977899,0,0,1.2952630981445312,0,0,1.2230400000000001
0.618545297998935,0,0,1.2401964599609374,0,0,0.6115200000000001
0.621350927016465,0,0,1.2282254516601563,0,0,1.2994800000000002
0.6241490190150216,0,0,1.2593500732421874,0,0,0.53508
0.6269445000216365,0,0,1.369483349609375,0,0,0.91728
0.6297434250009246,0,0,1.13006318359375,0,0,0.91728
0.6326051280193496,0,0,1.2018892333984375,0,0,0.6115200000000001
0.6353999610000756,0,0,1.2593500732421874,0,0,0.30576000000000003
0.6381955530086998,0,0,1.4796166259765624,0,0,0.3822
0.6409949230146594,0,0,1.5083470458984374,0,0,0.3822
0.643792440998368,0,0,1.3407529296874998,0,0,0.68796
0.6465871630061883,0,0,1.3168109130859373,0,0,0.91728
0.6493845689983573,0,0,1.3383587280273437,0,0,0.68796
0.6521802910137922,0,0,1.5131354492187499,0,0,0.91728
0.6549738830071874,0,0,1.180341418457031,0,0,0.91728
0.6577965120086446,0,0,1.3215993164062498,0,0,1.1465999999999998
0.6606181410024874,0,0,1.0941501586914062,0,0,0.84084
0.6634775290149264,0,0,1.3120225097656248,0,0,2.06388
0.6662759729952086,0,0,1.2617442749023438,0,0,0.45864
0.6690716570010409,0,0,1.235408056640625,0,0,0.7644
0.6718673050054349,0,0,1.4891934326171874,0,0,0.6115200000000001
0.6746604710060637,0,0,1.2569558715820313,0,0,0.6115200000000001
0.6774553600116633,0,0,1.2808978881835937,0,0,0.0
0.6802452109986916,0,0,1.3335703247070312,0,0,0.84084
0.6830569140147418,0,0,1.47482822265625,0,0,1.2994800000000002
0.685855691001052,0,0,1.2521674682617188,0,0,0.22932
0.6886555610108189,0,0,1.3455413330078123,0,0,0.91728
0.691452802013373,0,0,1.2880804931640624,0,0,0.91728
0.6942473940143827,0,0,1.2880804931640624,0,0,0.53508
0.6970719300152268,0,0,1.2737152832031249,0,0,0.53508
0.6998763550072908,0,0,1.4604630126953124,0,0,0.68796
0.7026794470148161,0,0,1.4053963745117186,0,0,0.30576000000000003
0.705470854009036,0,0,1.3000515014648437,0,0,1.07016
0.7087773660023231,0,0,1.2282254516601563,0,0,0.07644000000000001
0.7115569949964993,0,0,1.235408056640625,0,0,0.99372
0.7143611799983773,0,0,1.20667763671875,0,0,0.7644
0.7171458270167932,0,0,1.189918225097656,0,0,0.68796
0.7199386050051544,0,0,1.3168109130859373,0,0,0.68796
0.7227375119982753,0,0,1.2737152832031249,0,0,0.84084
0.7255619180214126,0,0,1.3718775512695311,0,0,0.84084
0.7283581770025194,0,0,1.2473790649414063,0,0,1.07016
0.7311557689972688,0,0,1.3814543579101561,0,0,0.84084
0.7339511760219466,0,0,1.455674609375,0,0,0.84084
0.7367454720078968,0,0,1.1563994018554686,0,0,0.84084
0.7395396570209414,0,0,1.3168109130859373,0,0,0.68796
0.7423344900016673,0,0,1.3623007446289062,0,0,0.7644
0.7451293040066957,0,0,1.2785036865234374,0,0,0.6115200000000001
0.7479250260221306,0,0,1.0965443603515623,0,0,0.45864
0.7507184510177467,0,0,1.369483349609375,0,0,0.53508
0.7535305620112922,0,0,1.4125789794921875,0,0,0.68796
0.7563249689992517,0,0,1.2569558715820313,0,0,0.7644
0.7591138940188102,0,0,1.2928688964843749,0,0,1.2994800000000002
0.7619361710094381,0,0,1.4796166259765624,0,0,0.91728
0.7665289430005942,0,0,1.24498486328125,0,0,0.91728
0.7697473629959859,0,0,1.2138602416992186,0,0,0.0
0.7728629689954687,0,0,1.5083470458984374,0,0,0.6115200000000001
0.7759817610203754,0,0,1.2401964599609374,0,0,0.07644000000000001
0.7790947740140837,0,0,1.3215993164062498,0,0,1.07016
0.7824150630040094,0,0,1.388636962890625,0,0,0.84084
0.7865151190198958,0,0,1.209071838378906,0,0,0.6115200000000001
0.7896789100195747,0,0,1.2497732666015624,0,0,1.60524
0.7928026650042739,0,0,1.5275006591796874,0,0,0.84084
0.7959209750115406,0,0,1.4891934326171874,0,0,0.91728
0.7990335810172837,0,0,1.3263877197265623,0,0,0.68796
0.8021464100165758,0,0,1.484405029296875,0,0,0.45864
0.8052603130054194,0,0,1.3934253662109375,0,0,0.7644
0.8083745299954899,0,0,1.3575123413085937,0,0,0.84084
0.8114944139961153,0,0,1.254561669921875,0,0,0.99372
0.8146062980231363,0,0,1.3742717529296875,0,0,0.84084
0.817719237995334,0,0,1.189918225097656,0,0,0.91728
0.8208353070076555,0,0,1.3575123413085937,0,0,0.3822
0.8239470060216263,0,0,1.4173673828125,0,0,0.6115200000000001
0.8270591130130924,0,0,1.0845733520507812,0,0,0.53508
0.8301705339981709,0,0,1.3407529296874998,0,0,0.3822
0.8332830290019047,0,0,1.5179238525390624,0,0,0.84084
0.8363952840154525,0,0,1.4915876342773438,0,0,1.37592
0.839506242016796,0,0,1.1324573852539062,0,0,0.7644
0.8426232369965874,0,0,1.2641384765625,0,0,0.99372
0.8457394360157195,0,0,1.0821791503906248,0,0,0.84084
0.8488546349981334,0,0,1.1133037719726562,0,0,0.7644
0.8519688710221089,0,0,1.235408056640625,0,0,0.0
0.8550812370085623,0,0,1.2976572998046874,0,0,0.68796
0.8581943990138825,0,0,1.1372457885742187,0,0,0.53508
0.8613067280093674,0,0,1.1827356201171875,0,0,1.83456
0.8644592960190494,0,0,1.4987702392578124,0,0,0.7644
0.8675741990155075,0,0,1.37906015625,0,0,0.91728
0.8706896390067413,0,0,1.2808978881835937,0,0,0.53508
0.8738045600184705,0,0,1.2042834350585936,0,0,0.84084
0.8769212590123061,0,0,2.195482922363281,0,0,2.14032
0.8801613819960039,0,0,2.0542250244140625,0,0,1.68168
0.8832780070079025,0,0,2.73896669921875,0,0,1.2994800000000002
0.8865570740017574,0,0,2.0973206542968748,0,0,0.91728
0.8897242910170462,0,0,1.3359645263671873,0,0,1.07016
0.8928664160193875,0,0,1.3718775512695311,0,0,0.68796
0.8959660780092236,0,0,1.6424223388671875,0,0,1.60524
0.8991041650006082,0,0,2.109291662597656,0,0,1.1465999999999998
0.9022043459990527,0,0,1.9033903198242186,0,0,1.75812
0.9053270260046702,0,0,1.7118541870117185,0,0,1.37592
0.9084456880227663,0,0,2.0470424194335934,0,0,1.5288
0.9115413319959771,0,0,1.6256629272460936,0,0,1.2230400000000001
0.9146386420179624,0,0,1.695094775390625,0,0,1.68168
0.9177565450081602,0,0,1.8148048583984373,0,0,1.07016
0.9208755950094201,0,0,1.5514426757812498,0,0,1.2230400000000001
0.9239909800235182,0,0,2.319981408691406,0,0,1.1465999999999998
0.9271011230011936,0,0,1.62805712890625,0,0,0.84084
0.9302150440053083,0,0,1.6136919189453125,0,0,0.91728
0.9333288730122149,0,0,1.7741034301757812,0,0,1.5288
0.936443776008673,0,0,1.4413093994140624,0,0,1.75812
0.9395569930202328,0,0,2.166752502441406,0,0,1.60524
0.9426697660237551,0,0,2.231395947265625,0,0,1.2230400000000001
0.9457814280176535,0,0,2.1021090576171875,0,0,0.99372
0.9488961269962601,0,0,2.2361843505859373,0,0,0.45864
0.9520111590099987,0,0,1.3263877197265623,0,0,0.22932
0.9551216550171375,0,0,1.2689268798828124,0,0,1.5288
0.9582364830130246,0,0,2.5857377929687497,0,0,2.6754
0.9613490710034966,0,0,1.7908628417968748,0,0,0.99372
0.9644988439977169,0,0,1.5945383056640625,0,0,1.2994800000000002
0.9676459309994243,0,0,2.6862942626953124,0,0,2.06388
0.970760408003116,0,0,0.679953271484375,0,0,0.15288000000000002
0.9738727920048404,0,0,1.8507178833007811,0,0,1.2994800000000002
0.97698606501217,0,0,2.7174188842773437,0,0,1.5288
0.9801027640060056,0,0,1.3096283081054687,0,0,1.2994800000000002
0.9832135559991002,0,0,2.291250988769531,0,0,1.1465999999999998
0.9863277550030034,0,0,1.2138602416992186,0,0,1.2994800000000002
0.9894408240215853,0,0,1.2114660400390624,0,0,2.2931999999999997
0.9925558569957502,0,0,2.2290017456054687,0,0,1.83456
0.9956669819948729,0,0,1.936909143066406,0,0,0.91728
0.9987808840232901,0,0,1.5442600708007812,0,0,0.91728
1.0041528489964548,0,0,1.9608511596679685,0,0,1.37592
1.0074902299966197,0,0,2.032677209472656,0,0,1.98744
1.0107516680145636,0,0,1.4724340209960938,0,0,1.45236
1.013940459000878,0,0,1.7477672119140624,0,0,0.91728
1.018173290998675,0,0,1.5466542724609373,0,0,1.37592
1.0215739120030776,0,0,1.9847931762695312,0,0,1.37592
1.0247925910225604,0,0,2.683900061035156,0,0,20
1.0279990480048582,0,0,2.243366955566406,0,0,5.50368
1.0311535240034573,0,0,1.9297265380859374,0,0,2.14032
1.0343061120074708,0,0,1.9608511596679685,0,0,1.98744
1.0374211810121778,0,0,1.5945383056640625,0,0,0.0
1.040526269003749,0,0,0.8810662109374999,0,0,1.2994800000000002
1.0436533940082882,0,0,1.9800047729492187,0,0,2.75184
1.046749611996347,0,0,2.4660277099609376,0,0,1.68168
1.049858848011354,0,0,0.2346317626953125,0,0,-0.45864
1.0530124910001177,0,0,1.5753846923828123,0,0,2.14032
1.0561419860168826,0,0,2.901772412109375,0,0,2.2931999999999997
1.059262907016091,0,0,0.28730419921875,0,0,-1.07016
1.0623919200152159,0,0,3.0310593017578125,0,0,3.51624
1.0656361920118798,0,0,1.9680337646484374,0,0,1.2994800000000002
1.067932475998532,0,0,-0.5506663818359374,0,0,-0.15288000000000002
1.0701870940101799,0,0,1.1707646118164061,0,0,0.45864
1.0724401000188664,0,0,2.932897033691406,0,0,1.75812
1.074710551998578,0,0,0.5602431884765625,0,0,0.91728
1.0769751320185605,0,0,-1.1468225952148436,0,0,0.0
1.079230343020754,0,0,1.3479355346679687,0,0,0.99372
1.0814703310024925,0,0,2.8107927490234372,0,0,1.2230400000000001
1.0838497250224464,0,0,0.35194764404296874,0,0,0.0
1.0860964540042914,0,0,0.4860229370117187,0,0,0.84084
1.0883834609994665,0,0,2.5043349365234375,0,0,2.14032
1.0906364120019134,0,0,1.216254443359375,0,0,0.7644
1.09288199301227,0,0,-0.6536170532226562,0,0,0.53508
1.095145778002916,0,0,1.4245499877929686,0,0,1.60524
1.097419247002108,0,0,2.877830395507812,0,0,1.45236
1.0997425310197286,0,0,0.20829554443359374,0,0,-0.7644
1.10199735200149,0,0,0.19632453613281248,0,0,0.6115200000000001
1.1043152660131454,0,0,2.5617957763671875,0,0,2.14032
1.1065720500191674,0,0,2.518700146484375,0,0,1.45236
1.1088477980229072,0,0,-0.9624690673828125,0,0,0.30576000000000003
1.1110263240116183,0,0,1.2641384765625,0,0,1.1465999999999998
1.113159277010709,0,0,2.4109610717773435,0,0,1.1465999999999998
1.1152866000193171,0,0,1.189918225097656,0,0,0.84084
1.1174152010062244,0,0,-0.29927520751953124,0,0,1.2994800000000002
1.1195413950190414,0,0,2.114080065917969,0,0,2.2931999999999997
1.1216715150221717,0,0,2.4564509033203126,0,0,0.84084
1.1240344459947664,0,0,0.8403647827148437,0,0,-0.45864
1.1261636770213954,0,0,0.5482721801757812,0,0,0.6115200000000001
1.128291592001915,0,0,2.003946789550781,0,0,1.2994800000000002
1.1304150460055098,0,0,1.5418658691406248,0,0,-0.30576000000000003
1.1325448320130818,0,0,-0.03591302490234375,0,0,-0.22932
1.1346717849955894,0,0,1.6424223388671875,0,0,1.37592
1.1367989600112196,0,0,2.389413256835937,0,0,2.2167600000000003
1.1389223760052118,0,0,1.37906015625,0,0,1.68168
1.1410501250065863,0,0,-0.062249243164062495,0,0,0.30576000000000003
1.143175725999754,0,0,2.051830822753906,0,0,1.37592
1.1453019760083407,0,0,3.124433166503906,0,0,1.1465999999999998
1.1474263170093764,0,0,1.5753846923828123,0,0,0.22932
1.149570344015956,0,0,-0.47165772705078124,0,0,-0.6115200000000001
1.151714408013504,0,0,1.5921441040039062,0,0,0.53508
1.1538535279978532,0,0,2.020706201171875,0,0,0.99372
1.1559948140056804,0,0,0.6775590698242188,0,0,0.45864
1.1581337290117517,0,0,0.5434837768554687,0,0,0.91728
1.160272848996101,0,0,1.8291700683593748,0,0,1.1465999999999998
1.162410617020214,0,0,2.2194249389648437,0,0,0.91728
1.1651906160113867,0,0,0.679953271484375,0,0,0.3822
1.1675254180154298,0,0,1.455674609375,0,0,0.91728
1.1698347210185602,0,0,1.0749965454101562,0,0,0.0
1.172142634022748,0,0,0.42377369384765623,0,0,9.24924
1.174447751021944,0,0,0.7302315063476562,0,0,1.75812
1.1767552579985932,0,0,2.269703173828125,0,0,2.06388
1.1790600790118333,0,0,1.35990654296875,0,0,0.53508
1.1813829550228547,0,0,-0.13646949462890623,0,0,0.22932
1.183707404998131,0,0,2.370259643554687,0,0,1.07016
1.1860268370073754,0,0,1.9393033447265624,0,0,0.6115200000000001
1.188347880000947,0,0,0.42377369384765623,0,0,0.0
1.190665293019265,0,0,1.4820108276367188,0,0,0.6115200000000001
1.1929851880122442,0,0,1.7860744384765623,0,0,0.6115200000000001
1.1953037500206847,0,0,1.0295067138671874,0,0,0.91728
1.1976239409996197,0,0,1.2497732666015624,0,0,1.68168
1.1999432989978231,0,0,2.3439234252929686,0,0,1.2230400000000001
1.2022621190117206,0,0,1.2904746948242187,0,0,-0.30576000000000003
1.2045872360176872,0,0,0.4213794921875,0,0,0.45864
1.2069103530084249,0,0,2.722207287597656,0,0,2.2167600000000003
1.2092298589996062,0,0,1.7860744384765623,0,0,0.30576000000000003
1.2115481060172897,0,0,-0.565031591796875,0,0,-1.5288
1.2138699820206966,0,0,1.2210428466796874,0,0,0.7644
1.2161935619951691,0,0,2.9544448486328125,0,0,1.45236
1.2185121240036096,0,0,1.2856862915039062,0,0,1.5288
1.2208304630185012,0,0,-0.6919242797851562,0,0,0.22932
1.2231510989950038,0,0,1.9728221679687499,0,0,1.2230400000000001
1.2254584380134474,0,0,2.003946789550781,0,0,0.45864
1.2277981100196484,0,0,0.258573779296875,0,0,-0.84084
1.23011939402204,0,0,0.38307226562499996,0,0,1.2994800000000002
1.2324413809983525,0,0,2.4779987182617185,0,0,1.75812
1.234758591017453,0,0,1.1180921752929687,0,0,0.6115200000000001
1.2370771710120607,0,0,0.33758243408203126,0,0,1.60524
1.239396270015277,0,0,2.5953145996093747,0,0,1.911
1.2417149050161242,0,0,0.9816226806640624,0,0,0.0
1.2440336889994796,0,0,-0.3854664672851562,0,0,-0.99372
1.2463541949982755,0,0,1.22583125,0,0,1.83456
1.2486743860063143,0,0,2.798821740722656,0,0,2.06388
1.25099359601154,0,0,0.15083470458984374,0,0,-9.555
1.2533125090121757,0,0,-1.3335703247070312,0,0,0.22932
1.2556344589975197,0,0,3.622427111816406,0,0,2.5989600000000004
1.2579537060228176,0,0,2.528276953125,0,0,1.60524
1.260273453022819,0,0,-0.41419688720703124,0,0,-0.68796
1.2625942919985391,0,0,1.915361328125,0,0,0.99372
1.2649779640196357,0,0,3.5984850952148437,0,0,1.07016
1.2680788669968024,0,0,-0.031124621582031248,0,0,0.3822
1.271264102018904,0,0,1.6424223388671875,0,0,1.1465999999999998
1.2743834860157222,0,0,1.3431471313476562,0,0,0.7644
1.2774991850019433,0,0,0.6440402465820312,0,0,1.2230400000000001
1.2806176989979576,0,0,2.89219560546875,0,0,0.99372
1.2837697860086337,0,0,0.229843359375,0,0,-0.22932
1.2868888550146949,0,0,1.8339584716796873,0,0,1.5288
1.2900151840003673,0,0,2.288856787109375,0,0,0.6115200000000001
1.2931340310024098,0,0,-1.4245499877929686,0,0,0.53508
1.2962459890113678,0,0,2.4396914916992185,0,0,1.68168
1.299344466009643,0,0,0.8571241943359375,0,0,0.0
1.3028621230041608,0,0,0.679953271484375,0,0,0.7644
1.30598152501625,0,0,2.6599580444335937,0,0,1.37592
1.3091004460002296,0,0,-0.5698199951171875,0,0,0.0
1.3122120710031595,0,0,1.6927005737304686,0,0,0.99372
1.315307233016938,0,0,0.4955997436523437,0,0,-0.53508
1.3184249690093566,0,0,1.659181750488281,0,0,2.14032
1.3215397979947738,0,0,1.8507178833007811,0,0,1.45236
1.3246825520182028,0,0,-0.4285620971679687,0,0,0.15288000000000002
1.3277995469979942,0,0,2.3870190551757813,0,0,1.2994800000000002
1.3309169690182898,0,0,1.6735469604492186,0,0,-0.84084
1.3340339080023114,0,0,-0.011971008300781249,0,0,1.1465999999999998
1.337147737009218,0,0,2.7940333374023436,0,0,1.60524
1.340262398996856,0,0,1.2713210815429687,0,0,-0.45864
1.3433737650047988,0,0,1.5873557006835937,0,0,0.84084
1.3464853159966879,0,0,2.703053674316406,0,0,1.60524
1.3495990890078247,0,0,-0.5961562133789062,0,0,0.53508
1.3527138990175445,0,0,1.8267758666992187,0,0,0.7644
1.355829320003977,0,0,1.1875240234375,0,0,1.75812
1.3600829479983076,0,0,2.2194249389648437,0,0,1.60524
1.3632305730134249,0,0,0.8547299926757812,0,0,-1.2994800000000002
1.3663974000082817,0,0,2.2840683837890623,0,0,1.5288
1.3695187290140893,0,0,1.9656395629882812,0,0,1.5288
1.3726355760009028,0,0,-0.8499415893554687,0,0,-0.15288000000000002
1.3757615710201208,0,0,2.1787235107421874,0,0,1.37592
1.3788783630006947,0,0,2.2673089721679687,0,0,0.0
1.3819946730218362,0,0,0.23702596435546874,0,0,1.37592
1.3851197049953043,0,0,2.04943662109375,0,0,0.7644
1.388242070999695,0,0,0.469263525390625,0,0,0.6115200000000001
1.391356195003027,0,0,1.898601916503906,0,0,0.53508
1.3944736540142912,0,0,1.0869675537109373,0,0,1.07016
1.3975881120131817,0,0,0.9720458740234375,0,0,1.911
1.4007036260154564,0,0,2.118868469238281,0,0,-9.784320000000001
1.4038278990192339,0,0,0.15322890625,0,0,0.7644
1.406941282999469,0,0,1.8650830932617186,0,0,1.98744
1.4100556670164224,0,0,1.5897499023437498,0,0,0.6115200000000001
1.413169347011717,0,0,-0.15322890625,0,0,0.7644
1.4162868980201893,0,0,3.392583752441406,0,0,1.98744
1.4193984490120783,0,0,-0.11731588134765625,0,0,-1.2230400000000001
1.422514685022179,0,0,1.8195932617187498,0,0,1.45236
1.4256306250172202,0,0,2.2457611572265623,0,0,1.1465999999999998
1.4287466940004379,0,0,-0.3495534423828125,0,0,0.99372
1.431892485008575,0,0,1.917755529785156,0,0,1.60524
1.4350076660048217,0,0,1.659181750488281,0,0,0.0
1.4381220130017027,0,0,0.7541735229492187,0,0,2.98116
1.4412352300132625,0,0,1.5083470458984374,0,0,-0.22932
1.4443523740046658,0,0,-0.4955997436523437,0,0,0.30576000000000003
1.4474678690021392,0,0,3.0047230834960934,0,0,1.07016
1.4505914010223933,0,0,1.0127473022460938,0,0,-0.6115200000000001
1.4537063040188514,0,0,0.24660277099609373,0,0,2.36964
1.4568800580163952,0,0,3.8953661010742184,0,0,2.14032
1.46001992301899,0,0,-0.15562310791015624,0,0,-0.6115200000000001
1.463150121999206,0,0,3.143586779785156,0,0,0.84084
1.4663016539998353,0,0,1.8052280517578123,0,0,-8.867040000000001
1.46942029701313,0,0,-0.8571241943359375,0,0,-0.45864
1.4725425520155113,0,0,3.1268273681640624,0,0,1.98744
1.4756614910147619,0,0,0.9792284790039062,0,0,-0.07644000000000001
1.478778782999143,0,0,1.1851298217773436,0,0,1.5288
1.4818950740154833,0,0,2.5450363647460934,0,0,1.1465999999999998
1.4850106810044963,0,0,0.277727392578125,0,0,0.84084
1.4881331020151265,0,0,2.849099975585937,0,0,2.52252
1.4912518560013268,0,0,0.5602431884765625,0,0,-1.5288
1.4943688890198246,0,0,1.467645617675781,0,0,1.5288
1.4974874580220785,0,0,2.81558115234375,0,0,2.2167600000000003
1.5006089530070312,0,0,-0.6200982299804687,0,0,-1.1465999999999998
1.5037668180011678,0,0,2.5234885498046875,0,0,2.14032
1.5068841470056213,0,0,2.4205378784179685,0,0,-0.45864
1.510001326998463,0,0,-1.9728221679687499,0,0,0.99372
1.5131191000109538,0,0,2.7940333374023436,0,0,1.68168
1.5162352250190452,0,0,0.17238251953125,0,0,0.7644
1.5194347010110505,0,0,1.7669208251953124,0,0,0.99372
1.522647528006928,0,0,2.2673089721679687,0,0,0.0
1.5257975780114066,0,0,-0.00239420166015625,0,0,1.60524
1.528918074007379,0,0,2.3367408203125,0,0,1.2230400000000001
1.532030680013122,0,0,0.7230489013671875,0,0,0.6115200000000001
1.535123398003634,0,0,2.29843359375,0,0,0.91728
1.5382437450170983,0,0,2.370259643554687,0,0,1.98744
1.541361333016539,0,0,-0.9576806640625,0,0,0.22932
1.5444821980199777,0,0,2.9185318237304685,0,0,1.83456
1.5476365450012963,0,0,1.1635820068359375,0,0,-0.30576000000000003
1.5507348740065936,0,0,0.4525041137695312,0,0,1.45236
1.5539093500119634,0,0,2.829946362304687,0,0,0.30576000000000003
1.5581289230030961,0,0,0.3591302490234375,0,0,0.91728
1.5613724529976025,0,0,1.9009961181640624,0,0,0.99372
1.5645481700194068,0,0,0.8068459594726562,0,0,1.2230400000000001
1.5677783300052397,0,0,1.0869675537109373,0,0,1.2994800000000002
1.5707281430077273,0,0,1.0989385620117187,0,0,0.68796
1.5735580490145367,0,0,0.7158662963867187,0,0,1.60524
1.5763566970126703,0,0,2.8107927490234372,0,0,1.911
1.579153196013067,0,0,0.18435352783203124,0,0,-1.07016
1.5819520660152193,0,0,-0.5530605834960938,0,0,2.06388
1.5847533250052948,0,0,3.181894006347656,0,0,0.99372
1.5875587500049733,0,0,0.5985504150390625,0,0,-0.6115200000000001
1.5903588790097274,0,0,1.388636962890625,0,0,1.5288
1.593157212017104,0,0,2.020706201171875,0,0,0.22932
1.5959544159995858,0,0,-0.10295067138671875,0,0,0.07644000000000001
1.5987519890186377,0,0,1.7262193969726563,0,0,1.1465999999999998
1.6015515809995122,0,0,1.8602946899414061,0,0,0.99372
1.6045419120055158,0,0,0.2346317626953125,0,0,1.2230400000000001
1.6073405780189205,0,0,2.437297290039062,0,0,0.7644
1.6101394850120414,0,0,0.9600748657226562,0,0,1.2230400000000001
1.612936929013813,0,0,0.10295067138671875,0,0,1.83456
1.6157335210009478,0,0,2.77727392578125,0,0,1.68168
1.618512020999333,0,0,1.458068811035156,0,0,0.0
1.6213102980109397,0,0,-0.7541735229492187,0,0,-0.45864
1.624110371019924,0,0,3.5194764404296874,0,0,1.911
1.6269043149950448,0,0,0.3687070556640625,0,0,-9.784320000000001
1.6297005560190883,0,0,-0.5746083984375,0,0,0.15288000000000002
1.632516518002376,0,0,3.0933085449218747,0,0,0.84084
1.6353122029977385,0,0,0.7876923461914062,0,0,-1.07016
1.638109017017996,0,0,1.66636435546875,0,0,1.60524
1.6409048500063363,0,0,2.051830822753906,0,0,2.4460800000000003
1.6437276079959702,0,0,-0.2346317626953125,0,0,0.0
1.6465243860147893,0,0,2.1404162841796874,0,0,2.52252
1.6493181819969323,0,0,2.8371289672851563,0,0,1.37592
1.6521144400176127,0,0,-1.446097802734375,0,0,-0.15288000000000002
1.6549106070015114,0,0,2.703053674316406,0,0,0.84084
1.6577007540035993,0,0,2.9951462768554684,0,0,1.83456
1.6605162720079534,0,0,-0.6248866333007812,0,0,0.0
1.6633130310219713,0,0,1.7669208251953124,0,0,0.30576000000000003
1.6661077900207601,0,0,2.35589443359375,0,0,1.60524
1.6689022710197605,0,0,-0.8643067993164062,0,0,-9.784320000000001
1.6718879899999592,0,0,2.4396914916992185,0,0,0.99372
1.6749990039970726,0,0,1.7094599853515624,0,0,-0.99372
1.6781118510116357,0,0,0.9074024291992187,0,0,2.06388
1.681219660997158,0,0,2.39420166015625,0,0,1.60524
1.6844707840064075,0,0,-0.21787235107421873,0,0,0.0
1.6876217420212924,0,0,1.7836802368164062,0,0,0.30576000000000003
1.690741922997404,0,0,2.3630770385742186,0,0,-0.45864
1.6938601590227336,0,0,0.16519991455078123,0,0,1.68168
1.6969723580114078,0,0,3.208230224609375,0,0,2.06388
1.7000884270237293,0,0,-0.07422025146484375,0,0,-0.30576000000000003
1.7032039040059317,0,0,1.1252747802734375,0,0,0.0
1.7064433970081154,0,0,2.528276953125,0,0,2.06388
1.7095745590049773,0,0,-0.9696516723632812,0,0,0.6115200000000001
1.712692536006216,0,0,2.480392919921875,0,0,1.1465999999999998
1.7158079940127209,0,0,0.34237083740234375,0,0,9.555
1.718920508021256,0,0,1.5298948608398437,0,0,0.68796
1.722032855002908,0,0,2.3415292236328122,0,0,2.4460800000000003
1.7251455539953895,0,0,-1.0031704956054688,0,0,-0.7644
1.728262179007288,0,0,2.288856787109375,0,0,1.75812
1.7313727480068337,0,0,2.1068974609374997,0,0,9.32568
1.7344848360226024,0,0,0.1771709228515625,0,0,1.68168
1.7375971650180873,0,0,2.3151930053710936,0,0,1.83456
1.7407097709947266,0,0,0.3327940307617187,0,0,-0.68796
1.7438237300084438,0,0,2.427720483398437,0,0,1.60524
1.7469366140139755,0,0,1.5394716674804687,0,0,-0.68796
1.7500481090100948,0,0,-0.4381389038085937,0,0,2.14032
1.7531619560031686,0,0,3.105279553222656,0,0,1.2230400000000001
1.7562724140007049,0,0,0.6871358764648438,0,0,0.99372
1.7593773360131308,0,0,0.8978256225585937,0,0,0.45864
1.76251825701911,0,0,2.839523168945312,0,0,2.14032
1.76562915899558,0,0,-0.5674257934570313,0,0,1.07016
1.7690700580133125,0,0,2.403778466796875,0,0,0.68796
1.7723116250126623,0,0,1.0869675537109373,0,0,1.37592
1.7754422690195497,0,0,1.8267758666992187,0,0,1.2994800000000002
1.7785615970205981,0,0,1.6519991455078125,0,0,-0.45864
1.781669944000896,0,0,-0.6871358764648438,0,0,0.91728
1.7847868660173845,0,0,2.157175695800781,0,0,1.2994800000000002
1.7879055649973452,0,0,-0.05746083984375,0,0,0.22932
1.791024689009646,0,0,2.437297290039062,0,0,1.1465999999999998
1.7941410740022548,0,0,2.01112939453125,0,0,2.14032
1.797246661997633,0,0,-0.7326257080078125,0,0,9.40212
1.8003607490099967,0,0,2.81558115234375,0,0,2.06388
1.803475448017707,0,0,1.3910311645507811,0,0,0.0
1.806589536019601,0,0,0.08858546142578125,0,0,1.45236
1.8097043650050182,0,0,1.886630908203125,0,0,2.06388
1.8128451380180195,0,0,0.22266075439453123,0,0,0.53508
1.8159763180010486,0,0,2.9089550170898435,0,0,1.60524
1.819086294999579,0,0,0.46208092041015625,0,0,-2.4460800000000003
1.8224870820122305,0,0,0.5602431884765625,0,0,2.4460800000000003
1.8256047810136806,0,0,3.0262708984374997,0,0,2.2931999999999997
1.8287222770159133,0,0,-1.7190367919921874,0,0,-1.2230400000000001
1.8318685310077854,0,0,3.7014357666015623,0,0,2.2931999999999997
1.8349640080123208,0,0,1.6448165405273436,0,0,-1.2994800000000002
1.8380831330141518,0,0,-1.0917559570312498,0,0,0.7644
1.8412021650001407,0,0,3.7421371948242186,0,0,0.7644
1.84432180802105,0,0,0.0909796630859375,0,0,0.68796
1.8474377660022583,0,0,1.4700398193359374,0,0,1.1465999999999998
1.8505393360101152,0,0,2.1883003173828124,0,0,0.30576000000000003
1.853653183003189,0,0,0.24181436767578124,0,0,9.47856
1.8567711969953962,0,0,3.897760302734375,0,0,0.99372
1.859885377023602,0,0,-1.4030021728515625,0,0,-2.14032
1.8630039840063546,0,0,2.032677209472656,0,0,1.2230400000000001
1.8661193310108501,0,0,2.806004345703125,0,0,2.52252
1.8692691400065087,0,0,-2.4061726684570313,0,0,-2.4460800000000003
1.8723885620129295,0,0,3.1459809814453124,0,0,2.2167600000000003
1.8755021679971833,0,0,2.1906945190429687,0,0,-20
1.8786173300177325,0,0,-0.5602431884765625,0,0,0.6115200000000001
1.8817351580073591,0,0,2.906560815429687,0,0,0.07644000000000001
1.8848503940098453,0,0,-0.63206923828125,0,0,9.40212
1.8880870730208699,0,0,0.9959878906249999,0,0,0.84084
1.891222161008045,0,0,1.9608511596679685,0,0,0.99372
1.8943411380168982,0,0,-0.8259995727539062,0,0,0.45864
1.8974630960146897,0,0,2.6001030029296874,0,0,-0.53508
1.9005844240018632,0,0,0.8667010009765624,0,0,-1.45236
1.903762011002982,0,0,-2.1499930908203124,0,0,1.2230400000000001
1.906879636022495,0,0,2.262520568847656,0,0,2.6754
1.9099974459968507,0,0,0.15562310791015624,0,0,-1.5288
1.913114997005323,0,0,-0.6272808349609375,0,0,0.84084
1.916234363015974,0,0,4.8506525634765625,0,0,4.8921600000000005
1.9193491540208925,0,0,0.8379705810546875,0,0,-0.45864
1.9224683720094617,0,0,-2.1691467041015624,0,0,-2.36964
1.9255875890085008,0,0,3.545812658691406,0,0,1.60524
1.9287055470049381,0,0,-0.2609679809570312,0,0,-0.22932
1.931991392018972,0,0,-0.21308394775390624,0,0,0.0
1.9351320170098916,0,0,2.3295582153320313,0,0,0.91728
1.938252290012315,0,0,1.3527239379882812,0,0,0.0
1.9413691000081599,0,0,-0.9792284790039062,0,0,8.25552
1.944487854023464,0,0,1.618480322265625,0,0,0.91728
1.9476311080215964,0,0,0.2753331909179687,0,0,0.22932
1.950749881012598,0,0,1.2138602416992186,0,0,1.45236
1.9538680990226567,0,0,1.5011644409179687,0,0,0.53508
1.956985797995003,0,0,0.8068459594726562,0,0,20
1.9601018490211572,0,0,0.74699091796875,0,0,0.0
1.9632171030098107,0,0,1.0582371337890624,0,0,0.22932
1.966333301999839,0,0,-0.4525041137695312,0,0,0.07644000000000001
1.969486815010896,0,0,1.3287819213867187,0,0,0.84084
1.9726057180087082,0,0,1.5562310791015623,0,0,0.0
1.9757823050022125,0,0,-0.02154781494140625,0,0,20
1.9789331700012553,0,0,1.0821791503906248,0,0,1.5288
1.9820507030235603,0,0,0.34237083740234375,0,0,-9.32568
1.985178013012046,0,0,0.055066638183593745,0,0,-0.3822
1.988295397022739,0,0,1.659181750488281,0,0,0.91728
1.9914077070134226,0,0,0.3280056274414062,0,0,-20
1.9945247390132863,0,0,0.5147533569335937,0,0,20
1.997639770997921,0,0,1.2832920898437499,0,0,0.84084
2.00075493301847,0,0,0.59376201171875,0,0,0.0
2.003900836018147,0,0,0.15322890625,0,0,0.22932
2.007059145020321,0,0,1.7597382202148437,0,0,0.53508
2.0102140470116865,0,0,0.5698199951171875,0,0,20
2.0133323760237545,0,0,0.9217676391601562,0,0,0.0
2.016445537999971,0,0,0.3806780639648437,0,0,0.22932
2.019669995002914,0,0,0.6368576416015624,0,0,0.6115200000000001
2.022903822013177,0,0,0.023942016601562498,0,0,0.0
2.0260277060151566,0,0,0.8020575561523438,0,0,0.68796
2.029147590015782,0,0,1.419761584472656,0,0,0.6115200000000001
2.032268456008751,0,0,0.19393033447265623,0,0,-0.53508
2.035362710012123,0,0,1.6017209106445311,0,0,0.53508
2.038484946009703,0,0,1.0917559570312498,0,0,0.30576000000000003
2.0416025900049135,0,0,-0.20829554443359374,0,0,-20
2.0447270850127097,0,0,1.1827356201171875,0,0,0.45864
2.0478639130014926,0,0,1.0390835205078124,0,0,0.07644000000000001
2.0509613160102163,0,0,0.5219359619140624,0,0,0.07644000000000001
2.0541098290123045,0,0,1.1611878051757811,0,0,0.07644000000000001
2.0572254360013176,0,0,0.93852705078125,0,0,0.15288000000000002
2.0603401529951952,0,0,0.7661445312499999,0,0,0.30576000000000003
2.063453426002525,0,0,0.3447650390625,0,0,0.7644
2.066568718000781,0,0,1.4006079711914061,0,0,0.91728
2.0697203050076496,0,0,0.3184288208007812,0,0,0.3822
2.0728527260071132,0,0,1.3431471313476562,0,0,0.84084
2.0759724990057293,0,0,1.3718775512695311,0,0,0.91728
2.079084735014476,0,0,1.3335703247070312,0,0,0.53508
2.0822214710060507,0,0,1.7214309936523438,0,0,0.68796
2.0853387630195357,0,0,0.967257470703125,0,0,0.53508
2.0884608140040655,0,0,1.438915197753906,0,0,0.99372
2.0915772530133836,0,0,1.4053963745117186,0,0,0.7644
2.094726784998784,0,0,0.9983820922851562,0,0,0.0
2.0978268920152914,0,0,1.4317325927734375,0,0,0.84084
2.10092905399506,0,0,1.1707646118164061,0,0,0.53508
2.104039827012457,0,0,1.1037269653320312,0,0,0.45864
2.107155525998678,0,0,1.3910311645507811,0,0,0.84084
2.1102916689997073,0,0,1.2665326782226562,0,0,0.99372
2.1135280890157446,0,0,1.2521674682617188,0,0,0.68796
2.1167285639967304,0,0,1.3670891479492187,0,0,0.30576000000000003
2.119967243022984,0,0,1.5849614990234373,0,0,0.6115200000000001
2.1231519780121744,0,0,1.3718775512695311,0,0,0.6115200000000001
2.1263569169968832,0,0,1.1731588134765625,0,0,0.91728
2.129560744011542,0,0,1.419761584472656,0,0,0.6115200000000001
2.133162084996002,0,0,1.3383587280273437,0,0,0.7644
2.1378496150136925,0,0,1.2593500732421874,0,0,0.7644
2.1417763580102473,0,0,1.3766659545898436,0,0,0.68796
2.144988315005321,0,0,1.0893617553710937,0,0,1.60524
2.1481797349988483,0,0,1.369483349609375,0,0,0.7644
2.151480339001864,0,0,1.2976572998046874,0,0,0.84084
2.1546952040225733,0,0,1.3192051147460937,0,0,0.22932
2.15786686501815,0,0,1.3551181396484375,0,0,0.53508
2.160970120021375,0,0,1.3814543579101561,0,0,0.91728
2.1640726150071714,0,0,1.5203180541992187,0,0,1.07016
2.16716888800147,0,0,1.16837041015625,0,0,0.6115200000000001
2.170369475003099,0,0,1.5873557006835937,0,0,0.7644
2.173166938009672,0,0,1.2593500732421874,0,0,0.68796
2.1757475140038878,0,0,1.1085153686523437,0,0,0.30576000000000003
2.1782767580007203,0,0,1.3551181396484375,0,0,0.91728
2.1808227240107954,0,0,1.4125789794921875,0,0,0.99372
2.183365300996229,0,0,1.2976572998046874,0,0,0.53508
2.1858961370016914,0,0,1.3407529296874998,0,0,0.45864
2.188435844000196,0,0,1.2425906616210938,0,0,0.84084
2.1909767540055327,0,0,1.35990654296875,0,0,0.84084
2.193506145995343,0,0,1.2928688964843749,0,0,0.45864
2.19604300102219,0,0,1.1516109985351561,0,0,0.6115200000000001
2.198582801007433,0,0,1.4628572143554686,0,0,0.6115200000000001
2.2011241920117754,0,0,1.5562310791015623,0,0,0.91728
2.203677288023755,0,0,1.149216796875,0,0,0.7644
2.2062185870017856,0,0,1.1731588134765625,0,0,0.45864
2.208758257009322,0,0,1.3000515014648437,0,0,1.07016
2.2112983890110627,0,0,1.5873557006835937,0,0,0.84084
2.213838633004343,0,0,1.1420341918945311,0,0,0.6115200000000001
2.2163793579966296,0,0,1.3766659545898436,0,0,0.3822
2.2189178240078036,0,0,1.2689268798828124,0,0,0.91728
2.2214578459970653,0,0,1.3814543579101561,0,0,0.84084
2.2240000900055747,0,0,1.1348515869140625,0,0,0.68796
2.226539277995471,0,0,1.2737152832031249,0,0,0.6115200000000001
2.2290805960074067,0,0,1.4125789794921875,0,0,0.91728
2.231622838997282,0,0,1.407790576171875,0,0,0.99372
2.2341629530128557,0,0,1.1659762084960936,0,0,0.3822
2.236728086019866,0,0,1.3024457031249999,0,0,0.53508
2.239280181005597,0,0,1.2785036865234374,0,0,0.84084
2.241821166011505,0,0,1.2689268798828124,0,0,0.84084
2.244361780001782,0,0,1.2641384765625,0,0,0.84084
2.2469010050117504,0,0,1.120486376953125,0,0,0.7644
2.2494407670164946,0,0,1.2761094848632812,0,0,1.2230400000000001
2.2519813810067717,0,0,1.2880804931640624,0,0,0.99372
2.254519940004684,0,0,1.1827356201171875,0,0,0.53508
2.2570611459959764,0,0,1.0821791503906248,0,0,0.91728
2.2596307049971074,0,0,1.2497732666015624,0,0,1.1465999999999998
2.2621728560188785,0,0,1.4532804077148436,0,0,0.91728
2.264713970012963,0,0,1.2569558715820313,0,0,0.6115200000000001
2.2672539170016535,0,0,1.3718775512695311,0,0,0.68796
2.269851920020301,0,0,1.3479355346679687,0,0,0.68796
2.272591975022806,0,0,1.2306196533203124,0,0,0.6115200000000001
2.27574402600294,0,0,1.3623007446289062,0,0,0.30576000000000003
2.2788611139985733,0,0,1.2018892333984375,0,0,20
2.281979979015887,0,0,1.2856862915039062,0,0,0.7644
2.2851088080205955,0,0,1.218648645019531,0,0,0.7644
2.288543410017155,0,0,1.2138602416992186,0,0,1.1465999999999998
2.2917055530124344,0,0,1.3862427612304686,0,0,0.68796
2.294807010999648,0,0,1.43652099609375,0,0,0.84084
2.297940913005732,0,0,1.3048399047851562,0,0,0.30576000000000003
2.3010768340027425,0,0,1.3838485595703125,0,0,0.6115200000000001
2.3041784040105995,0,0,1.37906015625,0,0,0.7644
2.3072741770010907,0,0,1.1851298217773436,0,0,0.68796
2.3103735250188038,0,0,1.3742717529296875,0,0,0.91728
2.3134727050201036,0,0,1.3718775512695311,0,0,0.45864
2.316573329997482,0,0,1.158793603515625,0,0,0.68796
2.3196795110125095,0,0,1.1348515869140625,0,0,0.22932
2.3227952099987306,0,0,1.4149731811523436,0,0,0.84084
2.325913186999969,0,0,1.3742717529296875,0,0,0.68796
2.3290284970134962,0,0,1.0821791503906248,0,0,1.37592
2.332172251015436,0,0,1.3910311645507811,0,0,0.68796
2.335285080014728,0,0,1.3646949462890625,0,0,1.1465999999999998
2.338398871012032,0,0,1.1755530151367186,0,0,0.30576000000000003
2.3415127740008757,0,0,1.2737152832031249,0,0,0.53508
2.3446271950087976,0,0,1.5275006591796874,0,0,0.7644
2.3477663939993363,0,0,1.3551181396484375,0,0,0.84084
2.3508793890068773,0,0,1.1540052001953125,0,0,0.99372
2.3539942920033354,0,0,1.5083470458984374,0,0,0.68796
2.3571067500161007,0,0,1.2904746948242187,0,0,0.7644
2.3602850410097744,0,0,1.0869675537109373,0,0,0.07644000000000001
2.3634704800206237,0,0,1.467645617675781,0,0,0.7644
2.3665750860236585,0,0,1.3670891479492187,0,0,0.6115200000000001
2.3696913410094567,0,0,1.149216796875,0,0,0.84084
2.372826225007884,0,0,1.4437036010742186,0,0,1.07016
2.375942701008171,0,0,1.2378022583007813,0,0,0.91728
2.379053771001054,0,0,1.1851298217773436,0,0,0.91728
2.38216717299656,0,0,1.2976572998046874,0,0,0.7644
2.385279409994837,0,0,1.5658078857421873,0,0,0.7644
2.3883927749993745,0,0,1.1372457885742187,0,0,0.45864
2.3915044559980743,0,0,1.350329736328125,0,0,1.07016
2.3946226730186027,0,0,1.3096283081054687,0,0,0.7644
2.397740150016034,0,0,1.3072341064453123,0,0,0.68796
2.400854349019937,0,0,1.1324573852539062,0,0,-8.71416
2.4039782700128853,0,0,1.2593500732421874,0,0,0.6115200000000001
2.4070938020013273,0,0,1.2713210815429687,0,0,0.53508
2.410208205023082,0,0,1.2401964599609374,0,0,0.30576000000000003
2.413322237000102,0,0,1.4820108276367188,0,0,0.45864
2.4164365850156173,0,0,1.5658078857421873,0,0,0.84084
2.4195487100223545,0,0,1.235408056640625,0,0,0.91728
2.4226618530228734,0,0,1.369483349609375,0,0,0.91728
2.425778311007889,0,0,1.3024457031249999,0,0,0.7644
2.4289147689996753,0,0,1.1851298217773436,0,0,0.6115200000000001
2.4320312830095645,0,0,1.0965443603515623,0,0,0.0
2.435155573999509,0,0,1.369483349609375,0,0,0.99372
2.4382837360026315,0,0,1.2880804931640624,0,0,0.84084
2.441397009009961,0,0,1.1755530151367186,0,0,1.07016
2.4445130600070115,0,0,1.4700398193359374,0,0,0.68796
2.447626389010111,0,0,1.465251416015625,0,0,1.07016
2.4507399950234685,0,0,1.197100830078125,0,0,0.6115200000000001
2.4538523240189534,0,0,1.388636962890625,0,0,0.99372
2.4569669119955506,0,0,1.465251416015625,0,0,0.84084
2.4600807030219585,0,0,1.1707646118164061,0,0,0.7644
2.4631941800180357,0,0,1.3144167114257812,0,0,0.99372
2.4663068240042776,0,0,1.3311761230468748,0,0,0.91728
2.4694185410044156,0,0,1.2018892333984375,0,0,0.84084
2.4725632769986987,0,0,1.0965443603515623,0,0,0.07644000000000001
2.475675994006451,0,0,1.4317325927734375,0,0,0.7644
2.4787891379965004,0,0,1.3120225097656248,0,0,0.68796
2.4819023000018205,0,0,1.1707646118164061,0,0,0.3822
2.4850195909966715,0,0,1.4101847778320311,0,0,0.6115200000000001
2.488581729005091,0,0,1.37906015625,0,0,0.99372
2.4917402980208863,0,0,1.1420341918945311,0,0,0.45864
2.4948413300153334,0,0,1.5227122558593749,0,0,0.6115200000000001
2.4979759360139724,0,0,1.656787548828125,0,0,0.91728
2.5011150049977005,0,0,1.1228805786132812,0,0,0.84084
2.5042287780088373,0,0,1.3335703247070312,0,0,0.7644
2.507324589008931,0,0,1.3742717529296875,0,0,0.6115200000000001
2.51042369499919,0,0,1.0726023437499999,0,0,0.53508
2.5135225980193354,0,0,1.1013327636718748,0,0,0.3822
2.516620779002551,0,0,1.4508862060546874,0,0,0.91728
2.519775088003371,0,0,1.2665326782226562,0,0,0.68796
2.52300326700788,0,0,1.1635820068359375,0,0,1.07016
2.5261515770107508,0,0,1.426944189453125,0,0,0.7644
2.529299515997991,0,0,1.4221557861328125,0,0,0.84084
2.5324143080215435,0,0,1.0965443603515623,0,0,0.6115200000000001
2.5355265810212586,0,0,1.158793603515625,0,0,0.84084
2.5386409840139095,0,0,1.5298948608398437,0,0,0.7644
2.5420430680096615,0,0,1.1085153686523437,0,0,0.91728
2.5451855809951667,0,0,1.3024457031249999,0,0,0.91728
2.5483048540190794,0,0,1.2904746948242187,0,0,0.53508
2.5514207200030796,0,0,1.2808978881835937,0,0,0.53508
2.554561585013289,0,0,1.20667763671875,0,0,1.2994800000000002
2.558133111015195,0,0,1.3096283081054687,0,0,0.68796
2.5613866970234085,0,0,1.1348515869140625,0,0,0.7644
2.564608839020366,0,0,1.3120225097656248,0,0,0.84084
2.567807334009558,0,0,1.2761094848632812,0,0,0.91728
2.5710271610005293,0,0,1.2928688964843749,0,0,1.2230400000000001
2.5741400080150925,0,0,1.1420341918945311,0,0,0.84084
2.576939432998188,0,0,1.4221557861328125,0,0,0.45864
2.5797383030003402,0,0,1.6711527587890624,0,0,0.7644
2.5825893210130744,0,0,1.2114660400390624,0,0,0.68796
2.5854368200234603,0,0,1.1611878051757811,0,0,0.0
2.5882374120119493,0,0,1.467645617675781,0,0,0.91728
2.5910352260107175,0,0,1.2737152832031249,0,0,0.68796
2.5938358739949763,0,0,1.1468225952148436,0,0,0.7644
2.5966321140003856,0,0,1.3359645263671873,0,0,0.7644
2.5994285580236465,0,0,1.3718775512695311,0,0,0.6115200000000001
2.6023892399971373,0,0,1.3192051147460937,0,0,0.68796
2.605189740017522,0,0,1.0821791503906248,0,0,1.45236
2.6079868510132656,0,0,1.4820108276367188,0,0,0.84084
2.610781424009474,0,0,1.448492004394531,0,0,1.07016
2.613577942014672,0,0,1.1875240234375,0,0,0.53508
2.616373757016845,0,0,1.1540052001953125,0,0,0.30576000000000003
2.619198441010667,0,0,1.3670891479492187,0,0,0.91728
2.622011700004805,0,0,1.1420341918945311,0,0,0.91728
2.6248084590188228,0,0,1.1755530151367186,0,0,0.3822
2.627645124011906,0,0,1.350329736328125,0,0,0.68796
2.6304430680174846,0,0,1.3742717529296875,0,0,0.45864
2.6332689190167002,0,0,1.189918225097656,0,0,0.91728
2.6360704000107944,0,0,1.1061211669921875,0,0,0.91728
2.6388665109989233,0,0,1.4532804077148436,0,0,0.68796
2.641650344012305,0,0,1.3359645263671873,0,0,1.2230400000000001
2.6444444180233404,0,0,1.3766659545898436,0,0,0.99372
2.647239547019126,0,0,1.13006318359375,0,0,0.15288000000000002
2.6500350650167093,0,0,1.2330138549804688,0,0,1.1465999999999998
2.6528318420168944,0,0,1.0726023437499999,0,0,0.91728
2.655628953012638,0,0,1.0821791503906248,0,0,0.45864
2.658449581998866,0,0,1.3048399047851562,0,0,0.53508
2.6612729330081493,0,0,1.4987702392578124,0,0,0.53508
2.6640708400227595,0,0,1.189918225097656,0,0,0.68796
2.666863969003316,0,0,1.1252747802734375,0,0,0.68796
2.6696598200069275,0,0,1.4053963745117186,0,0,0.45864
2.672551245021168,0,0,1.1516109985351561,0,0,0.84084
2.6755227970134,0,0,1.197100830078125,0,0,0.53508
2.678637589007849,0,0,1.2904746948242187,0,0,0.53508
2.6818067870044615,0,0,1.70467158203125,0,0,0.99372
2.684982097009197,0,0,1.2521674682617188,0,0,0.6115200000000001
2.6881014440150466,0,0,1.2306196533203124,0,0,0.68796
2.6912154760211706,0,0,1.2497732666015624,0,0,0.45864
2.6943294900120236,0,0,1.2210428466796874,0,0,0.68796
2.6974429300171323,0,0,1.16837041015625,0,0,0.07644000000000001
2.7005604059959296,0,0,1.3670891479492187,0,0,0.68796
2.703672642004676,0,0,1.189918225097656,0,0,0.68796
2.706783138011815,0,0,1.1013327636718748,0,0,0.53508
2.7104899210098665,0,0,1.4317325927734375,0,0,0.6115200000000001
2.713592232001247,0,0,1.199495031738281,0,0,0.45864
2.7167175790236797,0,0,1.3120225097656248,0,0,0.7644
2.7198122960107867,0,0,1.446097802734375,0,0,0.7644
2.722906217997661,0,0,1.6519991455078125,0,0,0.7644
2.72600102800061,0,0,1.3335703247070312,0,0,0.6115200000000001
2.7291162830078974,0,0,1.2689268798828124,0,0,1.1465999999999998
2.732233852002537,0,0,1.235408056640625,0,0,0.53508
2.7353469030058477,0,0,1.1468225952148436,0,0,0.84084
2.73844563899911,0,0,1.0797849487304687,0,0,0.22932
2.7415441350021865,0,0,1.3311761230468748,0,0,0.91728
2.7446622230054345,0,0,1.2234370483398436,0,0,0.3822
2.7477760699985083,0,0,1.2569558715820313,0,0,0.84084
2.750871010008268,0,0,1.5011644409179687,0,0,0.84084
2.753966135001974,0,0,1.5322890624999999,0,0,0.84084
2.7570761120005045,0,0,1.189918225097656,0,0,0.68796
2.760215403017355,0,0,1.254561669921875,0,0,0.68796
2.763331324007595,0,0,1.649604943847656,0,0,0.53508
2.766444246022729,0,0,1.0797849487304687,0,0,0.53508
2.769553721998818,0,0,1.1037269653320312,0,0,0.68796
2.7740239770209882,0,0,1.5562310791015623,0,0,0.7644
2.777156138996361,0,0,1.24498486328125,0,0,1.07016
2.780274468008429,0,0,1.3072341064453123,0,0,1.2994800000000002
2.783393463003449,0,0,1.4221557861328125,0,0,0.53508
2.7865086990059353,0,0,1.3527239379882812,0,0,0.6115200000000001
2.7896238790126517,0,0,1.1180921752929687,0,0,-20
2.7927436150202993,0,0,1.3575123413085937,0,0,0.99372
2.795900054014055,0,0,1.1252747802734375,0,0,0.6115200000000001
2.7990153830032796,0,0,1.120486376953125,0,0,1.2230400000000001
2.8021321750129573,0,0,1.2425906616210938,0,0,0.45864
2.8052676880033687,0,0,1.3048399047851562,0,0,1.37592
2.8083855170116294,0,0,1.16837041015625,0,0,0.6115200000000001
2.811496308015194,0,0,1.4604630126953124,0,0,1.45236
2.8146421920100693,0,0,1.4437036010742186,0,0,0.6115200000000001
2.81779798300704,0,0,1.16837041015625,0,0,0.91728
2.8209122930129524,0,0,1.1947066284179686,0,0,0.99372
2.824027807015227,0,0,1.1324573852539062,0,0,0.68796
2.8271412100002635,0,0,1.3359645263671873,0,0,0.7644
2.8302543720055837,0,0,1.2138602416992186,0,0,1.07016
2.8333737369976006,0,0,1.2952630981445312,0,0,0.6115200000000001
2.8364917330036405,0,0,1.2210428466796874,0,0,0.7644
2.8396343940112274,0,0,1.158793603515625,0,0,0.3822
2.842752427008236,0,0,1.407790576171875,0,0,1.07016
2.845866329007549,0,0,1.5897499023437498,0,0,1.2994800000000002
2.8489808620070107,0,0,1.120486376953125,0,0,0.91728
2.8520953010011,0,0,1.149216796875,0,0,0.68796
2.855207426007837,0,0,1.5514426757812498,0,0,0.91728
2.8583203660091385,0,0,1.2856862915039062,0,0,0.45864
2.8614357500046026,0,0,1.16837041015625,0,0,0.30576000000000003
2.8645509310008492,0,0,1.2689268798828124,0,0,1.1465999999999998
2.867913997004507,0,0,1.0821791503906248,0,0,1.07016
2.87103727000067,0,0,1.0797849487304687,0,0,-8.7906
2.8741741540143266,0,0,1.678335363769531,0,0,0.84084
2.877290445001563,0,0,1.1851298217773436,0,0,0.7644
2.880439255008241,0,0,1.1827356201171875,0,0,0.6115200000000001
2.883559880021494,0,0,1.4604630126953124,0,0,0.6115200000000001
2.886674708017381,0,0,1.419761584472656,0,0,1.2230400000000001
2.88982581399614,0,0,1.2569558715820313,0,0,0.99372
2.8929290320083965,0,0,1.1180921752929687,0,0,1.07016
2.8960277500154916,0,0,1.2521674682617188,0,0,0.68796
2.8991618739964906,0,0,1.2210428466796874,0,0,0.68796
2.9022964060131926,0,0,1.35990654296875,0,0,0.30576000000000003
2.905402864998905,0,0,1.0893617553710937,0,0,0.7644
2.908506211999338,0,0,1.0989385620117187,0,0,0.6115200000000001
2.9116348920215387,0,0,1.2138602416992186,0,0,1.07016
2.914832923008362,0,0,1.5969325073242187,0,0,0.6115200000000001
2.9179334930086043,0,0,1.5131354492187499,0,0,0.68796
2.9210491359990556,0,0,1.1755530151367186,0,0,0.53508
2.924165113014169,0,0,1.3335703247070312,0,0,0.45864
2.927276664006058,0,0,1.4006079711914061,0,0,0.6115200000000001
2.9303907330031507,0,0,1.3120225097656248,0,0,0.6115200000000001
2.933506210014457,0,0,1.2856862915039062,0,0,0.84084
2.9366254650230985,0,0,1.2928688964843749,0,0,0.68796
2.939762960013468,0,0,1.0821791503906248,0,0,0.7644
2.9428752880194224,0,0,1.0438719238281249,0,0,0.07644000000000001
2.9459886730182916,0,0,1.4915876342773438,0,0,0.91728
2.949101205012994,0,0,1.2138602416992186,0,0,0.68796
2.952216774021508,0,0,1.0869675537109373,0,0,0.45864
2.955328770010965,0,0,1.4221557861328125,0,0,0.99372
2.958442875999026,0,0,1.4724340209960938,0,0,0.91728
2.9615646860038396,0,0,1.1875240234375,0,0,0.6115200000000001
2.964681922021555,0,0,1.1875240234375,0,0,0.84084
2.967796380020445,0,0,1.22583125,0,0,0.68796
2.9709097090235446,0,0,1.1707646118164061,0,0,0.53508
2.974059482017765,0,0,1.3814543579101561,0,0,0.15288000000000002
2.9771739400166553,0,0,1.2425906616210938,0,0,0.6115200000000001
2.980287787009729,0,0,1.3120225097656248,0,0,0.53508
2.9833993930078577,0,0,1.0726023437499999,0,0,1.1465999999999998
2.9865114810236264,0,0,1.4963760375976562,0,0,0.91728
2.9896243660186883,0,0,1.4437036010742186,0,0,0.91728
2.9927400830201805,0,0,1.2234370483398436,0,0,0.53508
2.995883004012285,0,0,1.2282254516601563,0,0,0.6115200000000001
2.998997851012973,0,0,1.2808978881835937,0,0,0.6115200000000001
3.002112328016665,0,0,1.1755530151367186,0,0,0.7644
3.0052240829973016,0,0,1.1611878051757811,0,0,0.91728
3.0083933919959236,0,0,1.3024457031249999,0,0,0.6115200000000001
3.011563367996132,0,0,1.3575123413085937,0,0,0.7644
3.014690381998662,0,0,1.0941501586914062,0,0,0.30576000000000003
3.017806673015002,0,0,1.5298948608398437,0,0,0.99372
3.020934576023137,0,0,1.2497732666015624,0,0,0.99372
3.024149107019184,0,0,1.0797849487304687,0,0,0.6115200000000001
3.0272953050152864,0,0,1.2832920898437499,0,0,0.99372
3.0304164859990124,0,0,1.5251064575195312,0,0,1.2994800000000002
3.0335314810217824,0,0,1.16837041015625,0,0,0.68796
3.03664760600077,0,0,1.2569558715820313,0,0,0.22932
3.0397621750016697,0,0,1.35990654296875,0,0,0.3822
3.0428763189993333,0,0,1.1156979736328125,0,0,0.30576000000000003
3.0459898700064514,0,0,1.2569558715820313,0,0,0.84084
3.0491043090005405,0,0,1.2904746948242187,0,0,0.91728
3.0522207120084204,0,0,1.1085153686523437,0,0,0.53508
3.0553332999988925,0,0,1.180341418457031,0,0,1.2230400000000001
3.058447757997783,0,0,1.4437036010742186,0,0,0.7644
3.0615683649957646,0,0,1.4867992309570313,0,0,1.07016
3.064685064018704,0,0,1.1228805786132812,0,0,0.6115200000000001
3.0677993920107838,0,0,1.3048399047851562,0,0,0.6115200000000001
3.0709119620150886,0,0,1.3239935180664062,0,0,1.2994800000000002
3.0740620309952646,0,0,1.0965443603515623,0,0,0.6115200000000001
3.077177452010801,0,0,1.2378022583007813,0,0,1.1465999999999998
3.0802932060032617,0,0,1.2665326782226562,0,0,0.6115200000000001
3.083405812998535,0,0,1.2497732666015624,0,0,0.68796
3.0865233640070073,0,0,1.0893617553710937,0,0,0.07644000000000001
3.0896789690013975,0,0,1.4915876342773438,0,0,0.84084
3.0927839089999907,0,0,1.2856862915039062,0,0,0.53508
3.0958961640135385,0,0,1.1516109985351561,0,0,1.2230400000000001
3.0990274740033783,0,0,1.4532804077148436,0,0,0.84084
3.102320096018957,0,0,1.43652099609375,0,0,1.07016
3.1054313330096193,0,0,1.1516109985351561,0,0,0.45864
3.108532828016905,0,0,1.2904746948242187,0,0,0.7644
3.111661268019816,0,0,1.484405029296875,0,0,0.53508
3.114757282019127,0,0,1.3575123413085937,0,0,0.68796
3.1178627210028935,0,0,1.2713210815429687,0,0,0.15288000000000002
3.120958106010221,0,0,1.3024457031249999,0,0,0.99372
3.1240565460175276,0,0,1.0941501586914062,0,0,0.45864
3.1271489300124813,0,0,1.1540052001953125,0,0,1.2994800000000002
3.1302497959986795,0,0,1.5490484741210937,0,0,0.99372
3.133347347000381,0,0,1.3000515014648437,0,0,1.2230400000000001
3.1364578799984884,0,0,1.139639990234375,0,0,0.53508
3.1396387820132077,0,0,1.2808978881835937,0,0,0.45864
3.1427572030224837,0,0,1.4772224243164063,0,0,0.6115200000000001
3.1458714570035227,0,0,1.2569558715820313,0,0,2.2931999999999997
3.148985489999177,0,0,1.3263877197265623,0,0,0.91728
3.1520999479980674,0,0,1.4820108276367188,0,0,0.53508
3.1552112030040007,0,0,1.3144167114257812,0,0,0.68796
3.158324365009321,0,0,1.1085153686523437,0,0,0.30576000000000003
3.1614385270222556,0,0,1.5059528442382812,0,0,2.4460800000000003
3.1645530960231554,0,0,1.0965443603515623,0,0,0.68796
3.167665479995776,0,0,1.1659762084960936,0,0,0.7644
3.1707793830137234,0,0,1.2330138549804688,0,0,0.84084
3.1739290069963317,0,0,1.4915876342773438,0,0,1.1465999999999998
3.1770431690092664,0,0,1.1252747802734375,0,0,0.91728
3.1801592569972854,0,0,1.3072341064453123,0,0,1.07016
3.1833149190060794,0,0,1.4101847778320311,0,0,0.53508
3.1864260809961706,0,0,1.24498486328125,0,0,0.45864
3.1895405940013006,0,0,1.2593500732421874,0,0,0.07644000000000001
3.1926553120138124,0,0,1.3958195678710936,0,0,0.91728
3.1957682890060823,0,0,1.218648645019531,0,0,0.68796
3.198879580013454,0,0,1.0869675537109373,0,0,1.2994800000000002
3.2019924280175474,0,0,1.4437036010742186,0,0,20
3.2051050900190603,0,0,1.3335703247070312,0,0,0.0
3.2082400290237274,0,0,1.180341418457031,0,0,0.3822
3.2113535800017416,0,0,1.2761094848632812,0,0,0.6115200000000001
3.2144678530166857,0,0,1.4891934326171874,0,0,0.6115200000000001
3.217579663003562,0,0,1.3407529296874998,0,0,0.7644
3.220695046999026,0,0,1.2114660400390624,0,0,0.53508
3.2238081720133778,0,0,1.4053963745117186,0,0,0.7644
3.226920037996024,0,0,1.350329736328125,0,0,0.84084
3.2300336440093815,0,0,1.2210428466796874,0,0,0.6115200000000001
3.2331457690161187,0,0,1.3910311645507811,0,0,0.84084
3.236259635013994,0,0,1.3120225097656248,0,0,0.68796
3.2393708339950535,0,0,1.1468225952148436,0,0,0.30576000000000003
3.2424835890124086,0,0,1.4891934326171874,0,0,0.84084
3.245598288020119,0,0,1.656787548828125,0,0,0.91728
3.248712227999931,0,0,1.1276689819335937,0,0,1.07016
3.251826741005061,0,0,1.2785036865234374,0,0,-8.7906
3.2549419770075474,0,0,1.235408056640625,0,0,0.53508
3.258055787999183,0,0,1.2617442749023438,0,0,0.91728
3.261169338016771,0,0,1.158793603515625,0,0,0.0
3.264289334008936,0,0,1.43652099609375,0,0,0.99372
3.2673990510229487,0,0,1.2401964599609374,0,0,0.68796
3.2705113060073927,0,0,1.3239935180664062,0,0,0.84084
3.2737306890194304,0,0,1.5275006591796874,0,0,0.7644
3.276987089018803,0,0,1.2521674682617188,0,0,0.7644
3.280104047997156,0,0,1.1252747802734375,0,0,0.6115200000000001
3.2832163020211738,0,0,1.4053963745117186,0,0,0.6115200000000001
3.2863313900015783,0,0,1.43652099609375,0,0,0.91728
3.289784751017578,0,0,1.2234370483398436,0,0,0.68796
3.292889099015156,0,0,1.369483349609375,0,0,0.84084
3.2959867420140654,0,0,1.3670891479492187,0,0,0.7644
3.299121311021736,0,0,1.3144167114257812,0,0,0.99372
3.3023196200083476,0,0,1.1037269653320312,0,0,20
3.3054248010157607,0,0,1.39821376953125,0,0,0.91728
3.3085540180036332,0,0,1.3335703247070312,0,0,0.6115200000000001
3.3116528289974667,0,0,1.209071838378906,0,0,0.99372
3.314749658020446,0,0,1.3958195678710936,0,0,0.68796
3.3178479860071093,0,0,1.5131354492187499,0,0,1.07016
3.320962130004773,0,0,1.2210428466796874,0,0,0.53508
3.3240782920038328,0,0,1.2330138549804688,0,0,0.68796
3.327190434996737,0,0,1.446097802734375,0,0,0.7644
3.330304041999625,0,0,1.3048399047851562,0,0,0.45864
3.3334175189957023,0,0,1.1228805786132812,0,0,0.30576000000000003
3.3365387550147716,0,0,1.4341267944335936,0,0,0.6115200000000001
3.3396507680008654,0,0,1.24498486328125,0,0,0.7644
3.342765153007349,0,0,1.2114660400390624,0,0,1.2994800000000002
3.3458785920229275,0,0,1.3862427612304686,0,0,-8.943480000000001
3.3489953280077316,0,0,1.3575123413085937,0,0,1.07016
3.3521103610110004,0,0,1.1348515869140625,0,0,0.6115200000000001
3.355221781996079,0,0,1.3120225097656248,0,0,0.30576000000000003
3.35833631400601,0,0,1.4437036010742186,0,0,0.99372
3.3617104360018857,0,0,1.1037269653320312,0,0,0.99372
3.364882319001481,0,0,1.3287819213867187,0,0,1.2994800000000002
3.367982407013187,0,0,1.2689268798828124,0,0,0.91728
3.3710787919990253,0,0,1.3431471313476562,0,0,0.53508
3.3741757690149825,0,0,1.1611878051757811,0,0,0.6115200000000001
3.377290394011652,0,0,1.5298948608398437,0,0,0.6115200000000001
3.3804059450048953,0,0,1.3383587280273437,0,0,0.7644
3.3835167180222925,0,0,1.1420341918945311,0,0,0.68796
3.3866294720210135,0,0,1.5083470458984374,0,0,0.91728
3.389744875021279,0,0,1.2976572998046874,0,0,0.99372
3.392858167004306,0,0,1.0726023437499999,0,0,0.68796
3.395971421006834,0,0,1.3144167114257812,0,0,0.68796
3.3990812500123866,0,0,1.3838485595703125,0,0,0.45864
3.4022291710134596,0,0,1.3263877197265623,0,0,0.30576000000000003
3.4054417200095486,0,0,1.1228805786132812,0,0,0.22932
3.408558345021447,0,0,1.3239935180664062,0,0,0.91728
3.4116698590223677,0,0,1.2018892333984375,0,0,0.6115200000000001
3.414782762003597,0,0,1.16837041015625,0,0,1.45236
3.417890423996141,0,0,1.3862427612304686,0,0,0.68796
3.4210515300219413,0,0,1.39821376953125,0,0,1.1465999999999998
3.4243221890064888,0,0,1.2114660400390624,0,0,0.3822
3.4274348890176043,0,0,1.2880804931640624,0,0,0.68796
3.4305482729978394,0,0,1.6328455322265625,0,0,0.91728
3.4336603050178383,0,0,1.216254443359375,0,0,0.91728
3.4367738000000827,0,0,1.2641384765625,0,0,0.68796
3.439885518018855,0,0,1.3120225097656248,0,0,0.7644
3.442995699006133,0,0,1.2641384765625,0,0,0.84084
3.44610758300405,0,0,1.1468225952148436,0,0,0.7644
3.4492185410053935,0,0,1.4125789794921875,0,0,0.68796
3.452331740001682,0,0,1.24498486328125,0,0,0.91728
3.455441605998203,0,0,1.1109095703125,0,0,0.53508
3.4586023230222054,0,0,1.5251064575195312,0,0,0.99372
3.4617437070119195,0,0,1.6735469604492186,0,0,0.99372
3.4648601460212376,0,0,1.1372457885742187,0,0,0.7644
3.467976253014058,0,0,1.2617442749023438,0,0,0.68796
3.471088988997508,0,0,1.0989385620117187,0,0,0.53508
3.4742034840164706,0,0,1.1156979736328125,0,0,0.53508
3.4773512380197644,0,0,1.1085153686523437,0,0,0.0
3.4804674740007613,0,0,1.2378022583007813,0,0,1.2230400000000001
3.483763208001619,0,0,1.1109095703125,0,0,0.91728
3.4868807030143216,0,0,1.209071838378906,0,0,1.37592
3.490008309017867,0,0,1.5131354492187499,0,0,0.6115200000000001
3.493136675009737,0,0,1.5179238525390624,0,0,0.84084
3.4966484800097533,0,0,1.0797849487304687,0,0,0.53508
3.499782919010613,0,0,1.4173673828125,0,0,0.91728
3.502900913998019,0,0,1.6352397338867186,0,0,0.99372
3.5060264470230322,0,0,1.2330138549804688,0,0,0.99372
3.512210771004902,0,0,1.0965443603515623,0,0,0.45864
3.5153232480224688,0,0,1.24498486328125,0,0,0.45864
3.51843594701495,0,0,1.3192051147460937,0,0,0.07644000000000001
3.5215469610120635,0,0,1.3455413330078123,0,0,0.68796
3.5259819010098,0,0,1.1516109985351561,0,0,0.53508
3.529110989009496,0,0,1.3766659545898436,0,0,0.68796
3.532208929012995,0,0,1.4891934326171874,0,0,0.84084
3.5353029429970775,0,0,1.1372457885742187,0,0,0.91728
3.538424364000093,0,0,1.3048399047851562,0,0,1.2994800000000002
3.541575859009754,0,0,1.4724340209960938,0,0,0.7644
3.5446952620113734,0,0,1.235408056640625,0,0,1.07016
3.5478170530113857,0,0,1.158793603515625,0,0,0.3822
3.551000825013034,0,0,1.369483349609375,0,0,0.53508
3.5550659190048464,0,0,1.4317325927734375,0,0,0.91728
3.5584759850171395,0,0,1.1563994018554686,0,0,0.30576000000000003
3.561706941021839,0,0,1.37906015625,0,0,0.6115200000000001
3.565035452018492,0,0,1.599326708984375,0,0,0.99372
3.5684500920178834,0,0,1.0845733520507812,0,0,0.45864
3.5715501430095173,0,0,1.5155296508789062,0,0,0.22932
3.5746510830067564,0,0,1.6543933471679686,0,0,0.6115200000000001
3.577818374003982,0,0,1.2306196533203124,0,0,0.68796
3.5809386650216766,0,0,1.3215993164062498,0,0,1.1465999999999998
3.5840598460054025,0,0,1.3215993164062498,0,0,0.7644
3.587181563023478,0,0,1.0989385620117187,0,0,0.84084
3.5902984290150926,0,0,1.218648645019531,0,0,0.6115200000000001
3.5934022389992606,0,0,1.388636962890625,0,0,0.68796
3.596512401010841,0,0,1.1228805786132812,0,0,0.84084
3.5996304520231206,0,0,1.218648645019531,0,0,0.7644
3.6027445399959106,0,0,1.3383587280273437,0,0,0.84084
3.605862813012209,0,0,1.599326708984375,0,0,0.6115200000000001
3.6090091780060902,0,0,1.1085153686523437,0,0,0.68796
3.6121261730149854,0,0,1.3072341064453123,0,0,0.99372
3.6152380570129026,0,0,1.4891934326171874,0,0,0.84084
3.6183547010004986,0,0,1.199495031738281,0,0,0.6115200000000001
3.62146899200161,0,0,1.1037269653320312,0,0,0.0
3.6245850800187327,0,0,1.3311761230468748,0,0,0.99372
3.627699186996324,0,0,1.199495031738281,0,0,0.7644
3.6308139040193055,0,0,1.1875240234375,0,0,0.7644
3.633927788003348,0,0,1.2689268798828124,0,0,0.84084
3.6370423210028093,0,0,1.5370774658203123,0,0,1.07016
3.640156575012952,0,0,1.3742717529296875,0,0,0.68796
3.6432685519976076,0,0,1.4891934326171874,0,0,0.6115200000000001
3.646382603008533,0,0,1.5346832641601562,0,0,0.53508
3.649497358012013,0,0,1.2880804931640624,0,0,0.53508
3.6526125940144993,0,0,1.3215993164062498,0,0,0.22932
3.655755126004806,0,0,1.2378022583007813,0,0,0.68796
3.6588694360107183,0,0,1.1109095703125,0,0,0.7644
3.6619838010228705,0,0,1.1085153686523437,0,0,1.2230400000000001
3.6650981490092818,0,0,1.5059528442382812,0,0,0.91728
3.668211865995545,0,0,1.24498486328125,0,0,1.1465999999999998
3.6713246760191396,0,0,1.1420341918945311,0,0,0.22932
3.6744592640025076,0,0,1.3814543579101561,0,0,0.6115200000000001
3.6775899630156346,0,0,1.5490484741210937,0,0,0.68796
3.6807015320227947,0,0,1.197100830078125,0,0,0.6115200000000001
3.683819083002163,0,0,1.2952630981445312,0,0,-8.943480000000001
3.6869361709977966,0,0,1.3431471313476562,0,0,0.7644
3.690265459008515,0,0,1.3192051147460937,0,0,0.7644
3.6933965100033674,0,0,1.0821791503906248,0,0,0.0
3.6965131540200673,0,0,1.3958195678710936,0,0,0.6115200000000001
3.6996380380005576,0,0,1.2641384765625,0,0,0.7644
3.702795902994694,0,0,1.1013327636718748,0,0,0.68796
3.705916934995912,0,0,1.3287819213867187,0,0,1.1465999999999998
3.7090633740008343,0,0,1.5370774658203123,0,0,1.45236
3.712181740003871,0,0,1.1851298217773436,0,0,0.68796
3.7152986240107566,0,0,1.4700398193359374,0,0,1.07016
3.7184017859981395,0,0,1.3838485595703125,0,0,0.68796
3.721516985009657,0,0,1.1731588134765625,0,0,0.45864
3.724634332000278,0,0,1.0965443603515623,0,0,0.0
3.7277497540053446,0,0,1.5203180541992187,0,0,0.99372
3.7308646379970014,0,0,1.3144167114257812,0,0,0.6115200000000001
3.7339792260027025,0,0,1.1947066284179686,0,0,0.99372
3.737093036004808,0,0,1.4030021728515625,0,0,0.6115200000000001
3.740208513016114,0,0,1.3120225097656248,0,0,0.91728
3.743320470995968,0,0,1.3263877197265623,0,0,0.68796
3.746436151006492,0,0,1.369483349609375,0,0,0.45864
3.7495506280101836,0,0,1.5322890624999999,0,0,0.6115200000000001
3.752668846020242,0,0,1.3048399047851562,0,0,0.6115200000000001
3.7557823590177577,0,0,1.2665326782226562,0,0,0.22932
3.7588962070003618,0,0,1.458068811035156,0,0,1.07016
3.761994535016129,0,0,1.2497732666015624,0,0,0.7644
3.765094438014785,0,0,1.216254443359375,0,0,1.2230400000000001
3.768193063995568,0,0,1.5251064575195312,0,0,0.53508
3.771285818016622,0,0,1.2713210815429687,0,0,1.07016
3.7744060910190456,0,0,1.1444283935546875,0,0,0.53508
3.777633196004899,0,0,1.4437036010742186,0,0,0.84084
3.780800098000327,0,0,1.4508862060546874,0,0,1.1465999999999998
3.7839355190226343,0,0,1.2593500732421874,0,0,0.6115200000000001
3.78704744100105,0,0,1.3766659545898436,0,0,0.84084
3.7901453990198206,0,0,1.4006079711914061,0,0,0.68796
3.79326437599957,0,0,1.2473790649414063,0,0,0.68796
3.796379778010305,0,0,1.1061211669921875,0,0,0.84084
3.799491403013235,0,0,1.455674609375,0,0,0.84084
3.8026054360088892,0,0,1.2785036865234374,0,0,0.6115200000000001
3.8057574490085244,0,0,1.1180921752929687,0,0,0.45864
3.8089451660052873,0,0,1.4604630126953124,0,0,0.91728
3.81206236500293,0,0,1.3144167114257812,0,0,1.07016
3.815173675015103,0,0,1.0989385620117187,0,0,0.99372
3.8182860590168275,0,0,1.3024457031249999,0,0,0.7644
3.8213978510175366,0,0,1.419761584472656,0,0,0.45864
3.824511272017844,0,0,1.199495031738281,0,0,0.3822
3.8276227860187646,0,0,1.254561669921875,0,0,0.15288000000000002
3.8309751299966592,0,0,1.1085153686523437,0,0,1.07016
3.8340933470171876,0,0,1.3000515014648437,0,0,0.91728
3.8372081569978036,0,0,1.2018892333984375,0,0,1.45236
3.8403177639993373,0,0,1.4173673828125,0,0,0.53508
3.8434097960125655,0,0,1.4413093994140624,0,0,0.84084
3.8465265319973696,0,0,1.120486376953125,0,0,0.68796
3.8496411200030707,0,0,1.2569558715820313,0,0,0.6115200000000001
3.8527562450035475,0,0,1.4173673828125,0,0,0.84084
3.8558851850102656,0,0,1.1659762084960936,0,0,0.68796
3.8590203470084816,0,0,1.2689268798828124,0,0,0.3822
3.8621423600125127,0,0,1.467645617675781,0,0,0.7644
3.865258078003535,0,0,1.0797849487304687,0,0,0.84084
3.8683727770112455,0,0,1.0989385620117187,0,0,0.99372
3.8714848830131814,0,0,1.438915197753906,0,0,0.6115200000000001
3.8746013970230706,0,0,1.4915876342773438,0,0,0.68796
3.8777150780078955,0,0,1.369483349609375,0,0,0.3822
3.880833554023411,0,0,1.3072341064453123,0,0,0.91728
3.8839492720144335,0,0,1.448492004394531,0,0,0.91728
3.887061989022186,0,0,1.3192051147460937,0,0,0.6115200000000001
3.8901832069968805,0,0,1.3024457031249999,0,0,0.84084
3.8932993870112114,0,0,1.2641384765625,0,0,0.99372
3.8964133270201273,0,0,1.120486376953125,0,0,0.84084
3.8995277479989454,0,0,1.1875240234375,0,0,0.99372
3.9026450400124304,0,0,1.5035586425781249,0,0,0.99372
3.9058280530152842,0,0,1.2234370483398436,0,0,0.68796
3.908946028997889,0,0,1.1013327636718748,0,0,0.45864
3.912060303002363,0,0,1.4867992309570313,0,0,1.07016
3.915173446002882,0,0,1.6208745239257811,0,0,1.1465999999999998
3.9182874970138073,0,0,1.2210428466796874,0,0,0.7644
3.921401029016124,0,0,1.3192051147460937,0,0,0.84084
3.924517691018991,0,0,1.2282254516601563,0,0,0.68796
3.9276304640225135,0,0,1.158793603515625,0,0,0.30576000000000003
3.930743089003954,0,0,1.2042834350585936,0,0,0.15288000000000002
3.9338572880078573,0,0,1.1276689819335937,0,0,0.99372
3.9369938940217253,0,0,1.1827356201171875,0,0,0.7644
3.9401099820097443,0,0,1.20667763671875,0,0,0.7644
3.9432213850086555,0,0,1.465251416015625,0,0,0.6115200000000001
3.946335768996505,0,0,1.5227122558593749,0,0,1.07016
3.949449209001614,0,0,1.1731588134765625,0,0,0.6115200000000001
3.952564778010128,0,0,1.3623007446289062,0,0,0.6115200000000001
3.9556777180114295,0,0,1.2713210815429687,0,0,0.99372
3.958792657998856,0,0,1.1923124267578125,0,0,0.68796
3.961909005010966,0,0,1.2473790649414063,0,0,0.7644
3.965023482014658,0,0,1.2641384765625,0,0,0.99372
3.9681393290229607,0,0,1.2018892333984375,0,0,0.99372
3.9712513429985847,0,0,1.180341418457031,0,0,1.37592
3.9743652640026994,0,0,1.4006079711914061,0,0,0.68796
3.977479241002584,0,0,1.4628572143554686,0,0,1.1465999999999998
3.9806256430165377,0,0,1.1707646118164061,0,0,0.53508
3.983773749001557,0,0,1.455674609375,0,0,0.53508
3.9868906150222756,0,0,1.5346832641601562,0,0,0.84084
3.990005555009702,0,0,1.369483349609375,0,0,0.6115200000000001
3.9931193460070062,0,0,1.1947066284179686,0,0,0.6115200000000001
3.9962800450157374,0,0,1.3000515014648437,0,0,0.68796
3.9993879469984677,0,0,1.0917559570312498,0,0,0.7644
4.002535905019613,0,0,1.0821791503906248,0,0,0.30576000000000003
4.005651308019878,0,0,1.5155296508789062,0,0,0.84084
4.008875875995727,0,0,1.1659762084960936,0,0,0.6115200000000001
4.0120432960102335,0,0,1.1516109985351561,0,0,-9.40212
4.015163495001616,0,0,1.4508862060546874,0,0,0.6115200000000001
4.018278657022165,0,0,1.656787548828125,0,0,1.07016
4.021396505006123,0,0,1.2282254516601563,0,0,0.68796
4.024513537005987,0,0,1.2569558715820313,0,0,0.53508
4.0278096410038415,0,0,1.656787548828125,0,0,0.7644
4.030999561015051,0,0,1.1851298217773436,0,0,0.68796
4.034122092998587,0,0,1.1420341918945311,0,0,0.3822
4.037238589022309,0,0,1.2761094848632812,0,0,1.07016
4.0403478990192525,0,0,1.1061211669921875,0,0,0.6115200000000001
4.043438635009807,0,0,1.13006318359375,0,0,1.07016
4.046557705005398,0,0,1.5227122558593749,0,0,0.6115200000000001
4.04967336601112,0,0,1.2234370483398436,0,0,1.1465999999999998
4.0527908250223845,0,0,1.1611878051757811,0,0,0.45864
4.0559001350193284,0,0,1.4317325927734375,0,0,0.53508
4.058990315999836,0,0,1.5442600708007812,0,0,0.7644
4.062109552003676,0,0,1.2593500732421874,0,0,0.7644
4.0652260100177955,0,0,1.3479355346679687,0,0,0.68796
4.068378690019017,0,0,1.1516109985351561,0,0,0.53508
4.071493611001642,0,0,1.3120225097656248,0,0,0.3822
4.0746089949971065,0,0,1.1635820068359375,0,0,0.6115200000000001
4.077725843002554,0,0,1.2521674682617188,0,0,0.7644
4.080886873998679,0,0,1.2138602416992186,0,0,0.68796
4.08402027701959,0,0,1.180341418457031,0,0,0.3822
4.087136735004606,0,0,1.3934253662109375,0,0,0.68796
4.090240064018872,0,0,1.649604943847656,0,0,0.99372
4.093357928999467,0,0,1.1109095703125,0,0,0.7644
4.096475054015173,0,0,1.3646949462890625,0,0,0.6115200000000001
4.099627179006347,0,0,1.6208745239257811,0,0,1.1465999999999998
4.1027739139972255,0,0,1.1563994018554686,0,0,0.30576000000000003
4.105873095017159,0,0,1.3479355346679687,0,0,0.07644000000000001
4.108988868014421,0,0,1.2282254516601563,0,0,0.99372
4.112103955994826,0,0,1.1611878051757811,0,0,0.99372
4.115218321996508,0,0,1.16837041015625,0,0,1.07016
4.118333317019278,0,0,1.4604630126953124,0,0,0.68796
4.121446961013135,0,0,1.4987702392578124,0,0,1.07016
4.124563863006188,0,0,1.1444283935546875,0,0,-9.09636
4.127680710022105,0,0,1.2306196533203124,0,0,0.53508
4.130798576021334,0,0,1.5610194824218748,0,0,0.7644
4.133914145000745,0,0,1.254561669921875,0,0,0.68796
4.137029456003802,0,0,1.16837041015625,0,0,0.84084
4.1401458400068805,0,0,1.2976572998046874,0,0,1.07016
4.143258243013406,0,0,1.216254443359375,0,0,0.7644
4.146372996998252,0,0,1.1755530151367186,0,0,1.37592
4.149489474017173,0,0,1.2713210815429687,0,0,0.45864
4.15260430300259,0,0,1.0869675537109373,0,0,0.6115200000000001
4.155751704995055,0,0,1.2832920898437499,0,0,0.45864
4.158868607017212,0,0,1.2880804931640624,0,0,0.7644
4.16198499200982,0,0,1.5897499023437498,0,0,0.53508
4.165100487007294,0,0,1.158793603515625,0,0,0.6115200000000001
4.16821553799673,0,0,1.0941501586914062,0,0,1.07016
4.171328144002473,0,0,1.0726023437499999,0,0,0.84084
4.174441751005361,0,0,1.2210428466796874,0,0,0.68796
4.177557542017894,0,0,1.1444283935546875,0,0,1.68168
4.1806724820053205,0,0,1.3431471313476562,0,0,0.84084
4.18381034702179,0,0,1.2665326782226562,0,0,0.7644
4.186939954000991,0,0,1.2138602416992186,0,0,0.45864
4.190054764010711,0,0,1.5035586425781249,0,0,0.91728
4.193170870014001,0,0,1.5442600708007812,0,0,0.84084
4.196286884020083,0,0,1.1324573852539062,0,0,0.7644
4.199437860021135,0,0,1.2737152832031249,0,0,1.07016
4.202554745017551,0,0,1.4963760375976562,0,0,0.84084
4.2056694620114285,0,0,1.20667763671875,0,0,0.45864
4.208787439012667,0,0,1.1827356201171875,0,0,0.0
4.2119030080211814,0,0,1.4317325927734375,0,0,0.7644
4.215015522000613,0,0,1.218648645019531,0,0,0.6115200000000001
4.218129017011961,0,0,1.1061211669921875,0,0,1.2994800000000002
4.221243105013855,0,0,1.455674609375,0,0,0.91728
4.224361044995021,0,0,1.5514426757812498,0,0,1.2230400000000001
4.227473577018827,0,0,1.3359645263671873,0,0,0.91728
4.23058759100968,0,0,1.3263877197265623,0,0,0.7644
4.233701179007767,0,0,1.62805712890625,0,0,0.91728
4.236841803998686,0,0,1.3024457031249999,0,0,0.3822
4.239958744001342,0,0,1.3646949462890625,0,0,0.22932
4.243069090996869,0,0,1.4341267944335936,0,0,0.91728
4.246183364011813,0,0,1.1827356201171875,0,0,1.07016
4.249298359005479,0,0,1.3431471313476562,0,0,1.68168
4.252412836009171,0,0,1.446097802734375,0,0,0.68796
4.255525331012905,0,0,1.4604630126953124,0,0,0.99372
4.258641160005936,0,0,1.1420341918945311,0,0,0.84084
4.261779303022195,0,0,1.2713210815429687,0,0,0.91728
4.264892891020281,0,0,1.5203180541992187,0,0,1.1465999999999998
4.268007979000686,0,0,1.2976572998046874,0,0,0.53508
4.2711204740044195,0,0,1.1444283935546875,0,0,0.84084
4.274234451004304,0,0,1.2689268798828124,0,0,0.7644
4.277402242005337,0,0,1.2928688964843749,0,0,0.68796
4.280671828018967,0,0,1.2042834350585936,0,0,0.7644
4.283787563996157,0,0,1.4341267944335936,0,0,0.68796
4.286904225999024,0,0,1.0749965454101562,0,0,0.3822
4.290008369018324,0,0,1.1228805786132812,0,0,0.15288000000000002
4.293135142012034,0,0,1.2832920898437499,0,0,0.91728
4.29625032300828,0,0,1.6232687255859375,0,0,1.07016
4.299393577006413,0,0,1.1133037719726562,0,0,0.68796
4.302528794010868,0,0,1.3239935180664062,0,0,0.68796
4.305639327008976,0,0,1.4724340209960938,0,0,0.84084
4.308753378019901,0,0,1.3646949462890625,0,0,0.3822
4.311901761015179,0,0,1.35990654296875,0,0,0.3822
4.315017090004403,0,0,1.4724340209960938,0,0,0.84084
4.318132030020934,0,0,1.1755530151367186,0,0,0.7644
4.321246803010581,0,0,1.2952630981445312,0,0,1.1465999999999998
4.324362112995004,0,0,1.3862427612304686,0,0,0.7644
4.327476367994677,0,0,1.4939818359375,0,0,0.7644
4.330696860997705,0,0,1.2425906616210938,0,0,0.7644
4.333813283010386,0,0,1.3335703247070312,0,0,0.22932
4.336929222015897,0,0,1.4891934326171874,0,0,0.6115200000000001
4.340036866022274,0,0,1.1635820068359375,0,0,0.7644
4.343128102016635,0,0,1.180341418457031,0,0,0.84084
4.346246672008419,0,0,1.2952630981445312,0,0,0.91728
4.349362260021735,0,0,1.180341418457031,0,0,0.7644
4.352480996021768,0,0,1.216254443359375,0,0,0.91728
4.355620083020767,0,0,1.448492004394531,0,0,0.45864
4.3587156900030095,0,0,1.3024457031249999,0,0,1.07016
4.361924054013798,0,0,1.1731588134765625,0,0,0.6115200000000001
4.3650582160044,0,0,1.2808978881835937,0,0,0.91728
4.368174063012702,0,0,1.4413093994140624,0,0,0.91728
4.371288318012375,0,0,1.1156979736328125,0,0,0.91728
4.374404554022476,0,0,1.2976572998046874,0,0,0.84084
4.377519734000089,0,0,1.43652099609375,0,0,0.7644
4.380670618003933,0,0,1.1156979736328125,0,0,0.68796
4.383791835018201,0,0,1.0582371337890624,0,0,0.53508
4.386906533996807,0,0,1.43652099609375,0,0,1.07016
4.39002114100731,0,0,1.1875240234375,0,0,0.68796
4.393136210012017,0,0,1.3742717529296875,0,0,0.3822
4.396300020016497,0,0,1.4245499877929686,0,0,0.7644
4.399413645005552,0,0,1.4772224243164063,0,0,1.1465999999999998
4.402527362020919,0,0,1.1180921752929687,0,0,0.91728
4.405649913009256,0,0,1.2425906616210938,0,0,0.53508
4.408773149014451,0,0,1.4963760375976562,0,0,0.53508
4.411885589011945,0,0,1.3192051147460937,0,0,0.68796
4.414999214001,0,0,1.180341418457031,0,0,0.53508
4.418115189997479,0,0,1.4173673828125,0,0,0.91728
4.421230203995947,0,0,1.2234370483398436,0,0,0.7644
4.4243474770046305,0,0,1.2138602416992186,0,0,1.2230400000000001
4.427459788013948,0,0,1.5035586425781249,0,0,0.68796
4.430574746016646,0,0,1.3934253662109375,0,0,0.99372
4.433689019002486,0,0,1.218648645019531,0,0,0.45864
4.436843236006098,0,0,1.2952630981445312,0,0,0.45864
4.4399589899985585,0,0,1.467645617675781,0,0,0.68796
4.4430714120098855,0,0,1.2234370483398436,0,0,0.68796
4.44618674000958,0,0,1.2425906616210938,0,0,0.7644
4.449301884014858,0,0,1.2330138549804688,0,0,1.07016
4.452416935004294,0,0,1.0941501586914062,0,0,0.91728
4.455530171020655,0,0,1.2042834350585936,0,0,0.68796
4.458644758997252,0,0,1.484405029296875,0,0,0.68796
4.461808846011991,0,0,1.2306196533203124,0,0,0.7644
4.464925563021097,0,0,1.0941501586914062,0,0,0.15288000000000002
4.468043040018529,0,0,1.3168109130859373,0,0,0.68796
4.471156201994745,0,0,1.4915876342773438,0,0,0.91728
4.474270383012481,0,0,1.1923124267578125,0,0,0.7644
4.477384674013592,0,0,1.2832920898437499,0,0,0.68796
4.4805012620054185,0,0,1.2401964599609374,0,0,0.7644
4.483648331020959,0,0,1.254561669921875,0,0,0.7644
4.486764326022239,0,0,1.218648645019531,0,0,0.30576000000000003
4.489879469998414,0,0,1.438915197753906,0,0,0.99372
4.493002354021883,0,0,1.3455413330078123,0,0,0.7644
4.496138108021114,0,0,1.3072341064453123,0,0,0.84084
4.499252196023008,0,0,1.5346832641601562,0,0,0.91728
