Time,AccelX1,AccelY1,AccelZ1,AccelX2,AccelY2,AccelZ2
4.703993909060955e-06,0,0,1.1372457885742187,0,0,0.6115200000000001
0.0037106449890416116,0,0,1.235408056640625,0,0,0.6115200000000001
0.007323493977310136,0,0,1.5179238525390624,0,0,0.84084
0.010947749979095533,0,0,1.2210428466796874,0,0,0.68796
0.01447443399229087,0,0,1.3263877197265623,0,0,0.22932
0.017996635986492038,0,0,1.2210428466796874,0,0,1.07016
0.021510244987439364,0,0,1.1156979736328125,0,0,0.6115200000000001
0.025090797978919,0,0,1.3024457031249999,0,0,0.84084
0.028747479984303936,0,0,1.0941501586914062,0,0,0.53508
0.03227279300335795,0,0,1.2497732666015624,0,0,0.7644
0.035787550994427875,0,0,1.3646949462890625,0,0,0.7644
0.03929943797993474,0,0,1.1324573852539062,0,0,0.53508
0.04281930698198266,0,0,1.3383587280273437,0,0,0.45864
0.0459395689831581,0,0,1.2282254516601563,0,0,0.30576000000000003
0.04905371999484487,0,0,1.3192051147460937,0,0,1.07016
0.05216883399407379,0,0,1.20667763671875,0,0,0.6115200000000001
0.055280539992963895,0,0,1.2521674682617188,0,0,1.07016
0.05839876498794183,0,0,1.465251416015625,0,0,0.7644
0.06151532399235293,0,0,1.5586252807617187,0,0,0.91728
0.06462797400308773,0,0,1.2665326782226562,0,0,0.7644
0.06808139898930676,0,0,1.3215993164062498,0,0,1.07016
0.0712827899842523,0,0,1.5777788940429687,0,0,1.1465999999999998
0.07441219998872839,0,0,1.1923124267578125,0,0,0.99372
0.07754036897676997,0,0,1.3383587280273437,0,0,0.91728
0.08066650197724812,0,0,1.4413093994140624,0,0,0.53508
0.08378902298863977,0,0,1.350329736328125,0,0,0.6115200000000001
0.08690619198023342,0,0,1.2928688964843749,0,0,0.3822
0.09002262097783387,0,0,1.2593500732421874,0,0,0.68796
0.09313790200394578,0,0,1.1947066284179686,0,0,0.6115200000000001
0.09631783000077121,0,0,1.2425906616210938,0,0,1.5288
0.09970920000341721,0,0,1.4030021728515625,0,0,0.7644
0.10287212798721157,0,0,1.2976572998046874,0,0,0.7644
0.10598790799849667,0,0,1.2569558715820313,0,0,0.22932
0.10910639297799207,0,0,1.2473790649414063,0,0,-9.172799999999999
0.11222439497942105,0,0,1.4939818359375,0,0,0.3822
0.11538021199521609,0,0,1.3407529296874998,0,0,0.45864
0.11849645597976632,0,0,1.350329736328125,0,0,0.53508
0.12160962499910966,0,0,1.3000515014648437,0,0,0.91728
0.12472177599556744,0,0,1.3144167114257812,0,0,0.84084
0.12783514900365844,0,0,1.2976572998046874,0,0,1.37592
0.1309493369772099,0,0,1.4939818359375,0,0,0.68796
0.13406569199287333,0,0,1.158793603515625,0,0,0.68796
0.1371792499849107,0,0,1.1061211669921875,0,0,0.53508
0.14029284598655067,0,0,1.2880804931640624,0,0,0.68796
0.14341418197727762,0,0,1.3263877197265623,0,0,0.6115200000000001
0.14652714799740352,0,0,1.0965443603515623,0,0,0.84084
0.1496396689908579,0,0,1.24498486328125,0,0,0.68796
0.15275176399154589,0,0,1.3766659545898436,0,0,1.07016
0.1558646189805586,0,0,1.0821791503906248,0,0,1.1465999999999998
0.15897580698947422,0,0,1.0965443603515623,0,0,0.99372
0.16208803199697286,0,0,1.5179238525390624,0,0,0.6115200000000001
0.16520220099482685,0,0,1.35990654296875,0,0,0.84084
0.16831675998400897,0,0,1.1420341918945311,0,0,0.6115200000000001
0.17148768799961545,0,0,1.438915197753906,0,0,0.7644
0.17460328299785033,0,0,1.4700398193359374,0,0,0.99372
0.17797450500074774,0,0,1.16837041015625,0,0,0.99372
0.18116982199717313,0,0,1.3000515014648437,0,0,0.53508
0.18429852797999047,0,0,1.24498486328125,0,0,0.3822
0.18741167898406275,0,0,1.3383587280273437,0,0,0.3822
0.19056356998044066,0,0,1.2976572998046874,0,0,0.3822
0.19369286898290738,0,0,1.350329736328125,0,0,0.91728
0.19681055698310956,0,0,1.2234370483398436,0,0,0.99372
0.19992826398811303,0,0,1.2808978881835937,0,0,1.37592
0.20304222899721935,0,0,1.4341267944335936,0,0,0.99372
0.2061574359831866,0,0,1.4245499877929686,0,0,0.7644
0.2092850309854839,0,0,1.1228805786132812,0,0,0.45864
0.2124105519906152,0,0,1.426944189453125,0,0,0.68796
0.2155265369801782,0,0,1.4532804077148436,0,0,0.45864
0.2186412430019118,0,0,1.1540052001953125,0,0,0.53508
0.22175783797865734,0,0,1.2689268798828124,0,0,0.7644
0.22487382299732417,0,0,1.0797849487304687,0,0,0.99372
0.22800404697773047,0,0,1.2306196533203124,0,0,0.7644
0.2311167169827968,0,0,1.4221557861328125,0,0,1.2994800000000002
0.23423092300072312,0,0,1.3862427612304686,0,0,0.45864
0.23735370399663225,0,0,1.4030021728515625,0,0,0.7644
0.2404731510032434,0,0,1.24498486328125,0,0,0.6115200000000001
0.24364218997652642,0,0,1.3862427612304686,0,0,0.68796
0.2467655999935232,0,0,1.5897499023437498,0,0,0.84084
0.24988171400036663,0,0,1.2952630981445312,0,0,0.53508
0.2529987540037837,0,0,1.254561669921875,0,0,0.84084
0.2561177379975561,0,0,1.197100830078125,0,0,0.15288000000000002
0.25923188898013905,0,0,1.254561669921875,0,0,0.68796
0.26234833599301055,0,0,1.350329736328125,0,0,0.30576000000000003
0.26546420899103396,0,0,1.2473790649414063,0,0,0.68796
0.2686059529951308,0,0,1.1013327636718748,0,0,0.68796
0.2717373259947635,0,0,1.3239935180664062,0,0,1.1465999999999998
0.2748510880046524,0,0,1.5945383056640625,0,0,0.84084
0.27796660899184644,0,0,1.3934253662109375,0,0,0.91728
0.2810827969806269,0,0,1.2856862915039062,0,0,0.6115200000000001
0.28419841098366305,0,0,1.2521674682617188,0,0,0.53508
0.28731296898331493,0,0,1.5729904907226562,0,0,0.6115200000000001
0.2904312500031665,0,0,1.3527239379882812,0,0,0.53508
0.29354884498752654,0,0,1.1827356201171875,0,0,0.15288000000000002
0.2968013829959091,0,0,1.1635820068359375,0,0,0.91728
0.2999766449793242,0,0,1.1348515869140625,0,0,0.68796
0.30307377700228244,0,0,1.3239935180664062,0,0,1.5288
0.30617039097705856,0,0,1.484405029296875,0,0,0.7644
0.3092685790034011,0,0,1.5227122558593749,0,0,0.7644
0.3123806189978495,0,0,1.2330138549804688,0,0,0.53508
0.3154989739996381,0,0,1.4915876342773438,0,0,0.68796
0.31861453197780065,0,0,1.4006079711914061,0,0,0.6115200000000001
0.3217535720032174,0,0,1.1013327636718748,0,0,0.68796
0.3248706479789689,0,0,1.3000515014648437,0,0,2.06388
0.32798909599659964,0,0,1.2473790649414063,0,0,1.07016
0.3311029500036966,0,0,1.1061211669921875,0,0,0.7644
0.33421789697604254,0,0,1.407790576171875,0,0,1.2994800000000002
0.33733367797685787,0,0,1.2713210815429687,0,0,0.45864
0.3404903099872172,0,0,1.235408056640625,0,0,0.68796
0.343634367978666,0,0,1.2401964599609374,0,0,0.3822
0.34675240798969753,0,0,1.467645617675781,0,0,0.7644
0.3498682069766801,0,0,1.6400281372070311,0,0,1.2994800000000002
0.35298524698009714,0,0,1.3000515014648437,0,0,0.68796
0.35610412000096403,0,0,1.458068811035156,0,0,0.91728
0.3592181589920074,0,0,1.1228805786132812,0,0,0.91728
0.3623341810016427,0,0,1.2473790649414063,0,0,0.53508
0.3654489609762095,0,0,1.3527239379882812,0,0,0.22932
0.36860401899321005,0,0,1.1827356201171875,0,0,0.45864
0.37171976300305687,0,0,1.0989385620117187,0,0,0.68796
0.3748327280045487,0,0,1.4867992309570313,0,0,0.91728
0.3779474719776772,0,0,1.5107412475585937,0,0,0.91728
0.381061937980121,0,0,1.3838485595703125,0,0,1.1465999999999998
0.38417782899341546,0,0,1.1875240234375,0,0,0.6115200000000001
0.3872915729880333,0,0,1.2737152832031249,0,0,0.7644
0.3904068349802401,0,0,1.419761584472656,0,0,0.45864
0.39352144897566177,0,0,1.2593500732421874,0,0,0.53508
0.3966366919921711,0,0,1.2521674682617188,0,0,0.3822
0.39975232500000857,0,0,1.3407529296874998,0,0,0.53508
0.40286597597878426,0,0,1.0845733520507812,0,0,0.30576000000000003
0.405980848998297,0,0,1.3024457031249999,0,0,1.07016
0.4091016659804154,0,0,1.4053963745117186,0,0,0.99372
0.41222085399203934,0,0,1.2425906616210938,0,0,1.1465999999999998
0.4153751529811416,0,0,1.3335703247070312,0,0,0.53508
0.4184924330038484,0,0,1.3934253662109375,0,0,0.84084
0.4216069179819897,0,0,1.6160861206054686,0,0,0.45864
0.4247219759854488,0,0,1.2928688964843749,0,0,0.45864
0.42787064498406835,0,0,1.4317325927734375,0,0,0.45864
0.431053868989693,0,0,1.2880804931640624,0,0,1.2230400000000001
0.43417200198746286,0,0,1.3455413330078123,0,0,1.07016
0.4372878930007573,0,0,1.2832920898437499,0,0,0.91728
0.44040422898251563,0,0,1.419761584472656,0,0,0.6115200000000001
0.4435640089795925,0,0,1.2282254516601563,0,0,0.84084
0.44668184500187635,0,0,1.2737152832031249,0,0,0.53508
0.44979749599588104,0,0,1.4820108276367188,0,0,0.7644
0.45294877598644234,0,0,1.5059528442382812,0,0,0.84084
0.45606490899808705,0,0,1.3096283081054687,0,0,0.7644
0.4591782259813044,0,0,1.3192051147460937,0,0,1.07016
0.4622944699949585,0,0,1.3862427612304686,0,0,0.6115200000000001
0.46542408398818225,0,0,1.2473790649414063,0,0,0.84084
0.4685745860042516,0,0,1.3670891479492187,0,0,0.0
0.47169403298175894,0,0,1.4700398193359374,0,0,-9.09636
0.4748113509849645,0,0,1.1037269653320312,0,0,0.6115200000000001
0.4779329650045838,0,0,1.3575123413085937,0,0,0.53508
0.4810485779889859,0,0,1.369483349609375,0,0,0.68796
0.48416637699119747,0,0,1.3383587280273437,0,0,1.2230400000000001
0.4872790469962638,0,0,1.1875240234375,0,0,0.6115200000000001
0.49039380898466334,0,0,1.3000515014648437,0,0,0.7644
0.4935249970003497,0,0,1.5155296508789062,0,0,0.22932
0.49664103699615225,0,0,1.2952630981445312,0,0,0.53508
0.49975737297791056,0,0,1.2952630981445312,0,0,0.15288000000000002
0.5028702459821943,0,0,1.3120225097656248,0,0,0.91728
0.5155411059968174,0,0,1.3335703247070312,0,0,0.7644
0.5187738300010096,0,0,1.2593500732421874,0,0,0.30576000000000003
0.5218942769861314,0,0,1.3407529296874998,0,0,0.84084
0.5250004279951099,0,0,1.2497732666015624,0,0,0.91728
0.5282330409972928,0,0,0.9313444458007812,0,0,0.84084
0.5316465029900428,0,0,1.3215993164062498,0,0,0.53508
0.5347569509758614,0,0,1.2832920898437499,0,0,0.45864
0.5378600090043619,0,0,1.1348515869140625,0,0,0.3822
0.5409638269920833,0,0,1.3551181396484375,0,0,0.0
0.5441163849900477,0,0,1.2042834350585936,0,0,1.2994800000000002
0.5472348869952839,0,0,1.2114660400390624,0,0,0.68796
0.5503385379852261,0,0,1.3120225097656248,0,0,1.2230400000000001
0.5534557259816211,0,0,1.4604630126953124,0,0,0.84084
0.5565645069873426,0,0,1.2473790649414063,0,0,1.2230400000000001
0.5597722859820351,0,0,1.1013327636718748,0,0,0.84084
0.5628858999989461,0,0,1.2593500732421874,0,0,0.45864
0.5659789219789673,0,0,1.3311761230468748,0,0,0.45864
0.5690740539866965,0,0,1.1540052001953125,0,0,0.3822
0.5722805009863805,0,0,1.369483349609375,0,0,0.22932
0.5756013350037392,0,0,1.1348515869140625,0,0,0.53508
0.5787288369901944,0,0,1.2138602416992186,0,0,0.7644
0.5818383029836696,0,0,1.3527239379882812,0,0,0.84084
0.5849460279860068,0,0,1.419761584472656,0,0,0.45864
0.588054456980899,0,0,1.1085153686523437,0,0,0.53508
0.5911803299968597,0,0,1.2306196533203124,0,0,0.45864
0.5943151660030708,0,0,1.4700398193359374,0,0,0.68796
0.5974248169804923,0,0,1.43652099609375,0,0,0.91728
0.6005520409962628,0,0,1.16837041015625,0,0,0.68796
0.6036598779901396,0,0,1.0989385620117187,0,0,0.91728
0.6067642139969394,0,0,1.0941501586914062,0,0,0.68796
0.6098787539813202,0,0,1.2378022583007813,0,0,0.91728
0.6130021080025472,0,0,1.3575123413085937,0,0,0.07644000000000001
0.6161012959782965,0,0,1.0773907470703123,0,0,0.68796
0.6195135549933184,0,0,1.1324573852539062,0,0,0.68796
0.6234547149797436,0,0,1.2928688964843749,0,0,0.53508
0.6268529189983383,0,0,1.4437036010742186,0,0,1.2230400000000001
0.630084567994345,0,0,1.2521674682617188,0,0,0.84084
0.6332075529790018,0,0,1.3670891479492187,0,0,1.2994800000000002
0.636308832996292,0,0,1.4820108276367188,0,0,0.6115200000000001
0.6394143920042552,0,0,1.158793603515625,0,0,0.53508
0.642678096977761,0,0,1.3670891479492187,0,0,0.53508
0.6457186369807459,0,0,1.2497732666015624,0,0,0.53508
0.6485168660001364,0,0,1.6208745239257811,0,0,0.3822
0.6513134650012944,0,0,1.3431471313476562,0,0,0.7644
0.6541123600036371,0,0,1.2761094848632812,0,0,0.91728
0.6569106619863305,0,0,1.254561669921875,0,0,0.91728
0.6597095939796418,0,0,1.4700398193359374,0,0,1.2994800000000002
0.6625052119779866,0,0,1.120486376953125,0,0,0.7644
0.665302328998223,0,0,1.2569558715820313,0,0,0.45864
0.6680990759923588,0,0,1.13006318359375,0,0,0.91728
0.6709196559968404,0,0,1.3718775512695311,0,0,0.53508
0.6737179219780955,0,0,1.0989385620117187,0,0,0.53508
0.6765483719937038,0,0,1.2473790649414063,0,0,0.84084
0.6806390309939161,0,0,1.3072341064453123,0,0,1.07016
0.6848365399928298,0,0,1.2282254516601563,0,0,1.07016
0.6879017469764221,0,0,1.3168109130859373,0,0,0.84084
0.6906769939814694,0,0,1.4772224243164063,0,0,1.07016
0.6934503339871299,0,0,1.16837041015625,0,0,0.68796
0.6964057459845208,0,0,1.3048399047851562,0,0,0.53508
0.6991803269775119,0,0,1.2497732666015624,0,0,1.1465999999999998
0.7019761659903452,0,0,1.2138602416992186,0,0,0.6115200000000001
0.704756079998333,0,0,1.2928688964843749,0,0,0.45864
0.7075370309758,0,0,1.3239935180664062,0,0,0.68796
0.7103272230015136,0,0,1.4030021728515625,0,0,0.3822
0.7131184879981447,0,0,1.3431471313476562,0,0,0.45864
0.7159147539932746,0,0,1.2856862915039062,0,0,1.75812
0.7187035379756708,0,0,1.5131354492187499,0,0,0.68796
0.7215092479891609,0,0,1.5346832641601562,0,0,1.2994800000000002
0.7242968649952672,0,0,1.3072341064453123,0,0,0.91728
0.7270857979892753,0,0,1.254561669921875,0,0,0.68796
0.7298758959805127,0,0,1.2952630981445312,0,0,0.91728
0.7326666809967719,0,0,1.2617442749023438,0,0,0.68796
0.7354811679979321,0,0,1.35990654296875,0,0,0.6115200000000001
0.7382781929918565,0,0,1.2808978881835937,0,0,0.68796
0.7410703289788216,0,0,1.3838485595703125,0,0,0.45864
0.7439565929817036,0,0,1.3670891479492187,0,0,0.84084
0.7469133939885069,0,0,1.3287819213867187,0,0,0.6115200000000001
0.750022786000045,0,0,1.2330138549804688,0,0,0.68796
0.753130010998575,0,0,1.1516109985351561,0,0,0.84084
0.7562390319944825,0,0,1.2976572998046874,0,0,1.37592
0.7593741279852111,0,0,1.4700398193359374,0,0,0.84084
0.7624829639971722,0,0,1.4867992309570313,0,0,0.7644
0.7656143739877734,0,0,1.180341418457031,0,0,0.91728
0.7687225989939179,0,0,1.2425906616210938,0,0,0.45864
0.7718320089916233,0,0,1.37906015625,0,0,0.68796
0.7749359189765528,0,0,1.20667763671875,0,0,0.6115200000000001
0.7780427550023887,0,0,1.2665326782226562,0,0,0.22932
0.78115086897742,0,0,1.2785036865234374,0,0,0.84084
0.7842804459796753,0,0,1.1827356201171875,0,0,0.84084
0.7873917079996318,0,0,1.2713210815429687,0,0,1.2230400000000001
0.7904980809835251,0,0,1.4245499877929686,0,0,0.84084
0.7944232969894074,0,0,1.1085153686523437,0,0,0.6115200000000001
0.7975715590000618,0,0,1.2521674682617188,0,0,0.91728
0.8006806919875089,0,0,1.2761094848632812,0,0,0.84084
0.8037908609840088,0,0,1.1133037719726562,0,0,0.99372
0.8068948269938119,0,0,1.3407529296874998,0,0,0.3822
0.8100091069936752,0,0,1.4508862060546874,0,0,0.53508
0.8131226469995454,0,0,1.4820108276367188,0,0,0.45864
0.8162294089852367,0,0,1.24498486328125,0,0,1.75812
0.819371930003399,0,0,1.22583125,0,0,0.0
0.8224809519888368,0,0,1.3479355346679687,0,0,0.99372
0.8255859359924216,0,0,1.1109095703125,0,0,0.45864
0.828680753998924,0,0,1.2378022583007813,0,0,1.07016
0.8318037749850191,0,0,1.3527239379882812,0,0,0.7644
0.8349102590000257,0,0,1.2401964599609374,0,0,0.91728
0.8380156699859072,0,0,1.2330138549804688,0,0,0.45864
0.8411100619996432,0,0,1.3551181396484375,0,0,0.7644
0.8442464349791408,0,0,1.5466542724609373,0,0,0.53508
0.8473668259975966,0,0,1.3024457031249999,0,0,0.84084
0.8504733289883006,0,0,1.369483349609375,0,0,0.7644
0.8535776469798293,0,0,1.3407529296874998,0,0,0.91728
0.8566828159964643,0,0,1.2401964599609374,0,0,0.91728
0.8597888560034335,0,0,1.2761094848632812,0,0,1.07016
0.8628895629954059,0,0,1.419761584472656,0,0,0.91728
0.8659942689992022,0,0,1.3048399047851562,0,0,0.68796
0.8694350459845737,0,0,1.2330138549804688,0,0,0.99372
0.8726114739838522,0,0,1.4173673828125,0,0,1.07016
0.8757219219987746,0,0,1.1827356201171875,0,0,1.2230400000000001
0.8788242019945756,0,0,1.898601916503906,0,0,2.36964
0.881929612980457,0,0,2.3151930053710936,0,0,1.83456
0.885035966988653,0,0,2.645592834472656,0,0,1.37592
0.8881435630028136,0,0,2.3487118286132813,0,0,0.53508
0.8912459729763214,0,0,1.4413093994140624,0,0,0.3822
0.8943498829903547,0,0,1.5634136840820312,0,0,1.37592
0.897453385987319,0,0,1.4006079711914061,0,0,1.5288
0.9005590559972916,0,0,1.9919757812499999,0,0,2.14032
0.903664409997873,0,0,2.2194249389648437,0,0,2.06388
0.9067659319844097,0,0,1.668758557128906,0,0,1.68168
0.9098727869859431,0,0,1.7980454467773437,0,0,1.07016
0.9129776599875186,0,0,1.7477672119140624,0,0,1.2230400000000001
0.9160826629959047,0,0,1.7549498168945312,0,0,1.5288
0.9191840549756307,0,0,1.936909143066406,0,0,1.1465999999999998
0.9223291679809336,0,0,1.5753846923828123,0,0,0.99372
0.92543730098987,0,0,2.094926452636719,0,0,1.911
0.9304013939981814,0,0,1.3766659545898436,0,0,0.68796
0.9337401719822083,0,0,2.0374656127929685,0,0,0.84084
0.9368675079895183,0,0,1.5203180541992187,0,0,2.5989600000000004
0.9399866029853001,0,0,1.5729904907226562,0,0,1.911
0.9431886609818321,0,0,1.9680337646484374,0,0,1.75812
0.9463758289930411,0,0,2.3774422485351563,0,0,0.53508
0.9503103229799308,0,0,1.8124106567382812,0,0,0.7644
0.9535648059973028,0,0,1.4149731811523436,0,0,0.68796
0.9566861979837995,0,0,1.2617442749023438,0,0,0.7644
0.9598043109872378,0,0,2.446874096679687,0,0,2.6754
0.962920239981031,0,0,2.0374656127929685,0,0,1.2994800000000002
0.9660387240001,0,0,1.8028338500976562,0,0,0.7644
0.9691552459844388,0,0,2.5354595581054684,0,0,1.2230400000000001
0.972270395985106,0,0,1.6615759521484375,0,0,0.6115200000000001
0.9753835290030111,0,0,1.218648645019531,0,0,1.75812
0.9785047909826972,0,0,2.6479870361328124,0,0,2.06388
0.9816210339777172,0,0,0.8571241943359375,0,0,0.84084
0.9847542219795287,0,0,2.5378537597656248,0,0,1.83456
0.987870743003441,0,0,1.5825672973632812,0,0,1.07016
0.990983375988435,0,0,1.3431471313476562,0,0,1.1465999999999998
0.9940960819949396,0,0,2.2960393920898436,0,0,0.84084
0.9972109369991813,0,0,2.1356278808593747,0,0,1.45236
1.0003351990017109,0,0,2.597708801269531,0,0,0.68796
1.003564088983694,0,0,1.0965443603515623,0,0,1.83456
1.0067860349954572,0,0,1.7645266235351562,0,0,2.4460800000000003
1.0100550359929912,0,0,1.8650830932617186,0,0,2.06388
1.0132686680008192,0,0,1.2282254516601563,0,0,-9.01992
1.016548354004044,0,0,2.530671154785156,0,0,1.07016
1.019780725997407,0,0,1.668758557128906,0,0,0.99372
1.0230112089775503,0,0,1.8555062866210936,0,0,1.83456
1.0261902659840416,0,0,1.8363526733398436,0,0,2.14032
1.0293817129859235,0,0,2.185906115722656,0,0,0.07644000000000001
1.0325754740042612,0,0,1.5322890624999999,0,0,0.53508
1.0357019949879032,0,0,2.042254016113281,0,0,2.90472
1.0388383120007347,0,0,2.1021090576171875,0,0,1.60524
1.042020684981253,0,0,0.5674257934570313,0,0,-0.3822
1.0451688169850968,0,0,1.4101847778320311,0,0,1.98744
1.0478819349955302,0,0,3.679887951660156,0,0,3.4398000000000004
1.0504233139799908,0,0,2.0566192260742184,0,0,0.45864
1.0529977859987412,0,0,-0.3950432739257812,0,0,-0.99372
1.055634978984017,0,0,3.1220389648437497,0,0,2.2167600000000003
1.0582029880024493,0,0,3.189076611328125,0,0,2.6754
1.0607926999800839,0,0,0.584185205078125,0,0,-9.555
1.0635317809937987,0,0,1.7932570434570312,0,0,1.83456
1.0661746230034623,0,0,3.8690298828125,0,0,3.36336
1.0688103529973887,0,0,1.429338391113281,0,0,0.45864
1.0714878599974327,0,0,0.5506663818359374,0,0,9.24924
1.0741663869994227,0,0,2.786850732421875,0,0,1.45236
1.0768233760027215,0,0,0.9648632690429687,0,0,0.0
1.079493345983792,0,0,-0.5339069702148437,0,0,1.5288
1.0831681760028005,0,0,2.664746447753906,0,0,1.5288
1.0857915359956678,0,0,0.4908113403320312,0,0,0.45864
1.0896101059915964,0,0,2.7581203125,0,0,1.911
1.0927033679909073,0,0,1.438915197753906,0,0,-1.1465999999999998
1.0963311980012804,0,0,-0.5051765502929687,0,0,2.2931999999999997
1.099789381987648,0,0,2.6096798095703124,0,0,1.5288
1.1024446490046103,0,0,-0.6057330200195312,0,0,0.45864
1.105065953976009,0,0,1.407790576171875,0,0,1.45236
1.1076653139898553,0,0,2.7916391357421872,0,0,1.5288
1.1101967119902838,0,0,0.8188169677734375,0,0,9.01992
1.1127324620028958,0,0,1.1827356201171875,0,0,1.07016
1.1152584709925577,0,0,2.4444798950195312,0,0,0.7644
1.1177878879825585,0,0,0.41898529052734373,0,0,0.0
1.1203370449948125,0,0,0.277727392578125,0,0,2.36964
1.122869240003638,0,0,3.0502129150390624,0,0,1.68168
1.1253980079782195,0,0,0.7541735229492187,0,0,-0.3822
1.127930054004537,0,0,0.28969840087890625,0,0,1.1465999999999998
1.1304567299957853,0,0,2.4301146850585935,0,0,1.2230400000000001
1.1329876469972078,0,0,1.3575123413085937,0,0,-9.784320000000001
1.1355479699850548,0,0,-0.24899697265624998,0,0,0.53508
1.1381403119885363,0,0,1.7286135986328124,0,0,2.4460800000000003
1.1406941549794283,0,0,2.1212626708984375,0,0,2.36964
1.143239052995341,0,0,0.2753331909179687,0,0,-0.3822
1.1457607839838602,0,0,2.2744915771484373,0,0,1.911
1.1480857959832065,0,0,2.7844565307617186,0,0,0.68796
1.1504123249906115,0,0,-0.316034619140625,0,0,-9.784320000000001
1.152744206978241,0,0,0.6631938598632812,0,0,1.45236
1.1550714779878035,0,0,1.8746598999023436,0,0,1.2994800000000002
1.157398507988546,0,0,1.1085153686523437,0,0,1.07016
1.159725648991298,0,0,0.39983167724609375,0,0,0.15288000000000002
1.1620506049948744,0,0,1.6998831787109374,0,0,1.07016
1.164378115994623,0,0,1.8195932617187498,0,0,1.98744
1.1667192569875624,0,0,0.5985504150390625,0,0,0.15288000000000002
1.1691878779965919,0,0,1.5059528442382812,0,0,1.83456
1.1715665369993076,0,0,1.6328455322265625,0,0,0.6115200000000001
1.173896103980951,0,0,0.9002198242187499,0,0,-0.6115200000000001
1.1762268749880604,0,0,0.076614453125,0,0,1.07016
1.1785540529817808,0,0,2.3056161987304686,0,0,0.99372
1.1823487329820637,0,0,0.1867477294921875,0,0,0.0
1.1846874670009129,0,0,2.1499930908203124,0,0,0.99372
1.1870243119774386,0,0,2.4157494750976563,0,0,1.2994800000000002
1.189352471003076,0,0,0.45968671875,0,0,-9.784320000000001
1.1916821310005616,0,0,0.258573779296875,0,0,0.0
1.1940069199772552,0,0,1.5322890624999999,0,0,0.99372
1.1963316909968853,0,0,0.9888052856445312,0,0,0.84084
1.1986571279994678,0,0,0.27293898925781246,0,0,1.07016
1.2009841769759078,0,0,2.185906115722656,0,0,1.911
1.2033094099897426,0,0,2.849099975585937,0,0,1.1465999999999998
1.2056372179940809,0,0,0.5578489868164063,0,0,-0.91728
1.2079633219982497,0,0,1.0319009155273438,0,0,0.91728
1.2103504069964401,0,0,2.0829554443359375,0,0,1.37592
1.2127237879903987,0,0,0.565031591796875,0,0,0.45864
1.2150611879769713,0,0,-0.19153613281249998,0,0,1.1465999999999998
1.21738121798262,0,0,2.3343466186523436,0,0,2.14032
1.2196967109921388,0,0,1.8028338500976562,0,0,0.84084
1.2220088899775874,0,0,0.45968671875,0,0,-1.07016
1.224325882998528,0,0,1.7884686401367187,0,0,0.6115200000000001
1.226639301981777,0,0,2.6623522460937497,0,0,1.83456
1.2289654240012169,0,0,1.0558429321289062,0,0,0.07644000000000001
1.2313042499881703,0,0,0.16041151123046873,0,0,1.37592
1.2336407429829706,0,0,2.3439234252929686,0,0,1.1465999999999998
1.235968476976268,0,0,2.2960393920898436,0,0,0.30576000000000003
1.238292450987501,0,0,-0.24660277099609373,0,0,9.631440000000001
1.2406203699938487,0,0,2.47081611328125,0,0,1.83456
1.2429449369956274,0,0,2.7198130859375,0,0,1.2994800000000002
1.2453525220043957,0,0,0.03591302490234375,0,0,-0.91728
1.2480984169815201,0,0,0.5027823486328125,0,0,2.4460800000000003
1.251212086994201,0,0,3.105279553222656,0,0,2.06388
1.254325460002292,0,0,-0.9816226806640624,0,0,0.3822
1.2574414629780222,0,0,2.7054478759765623,0,0,1.68168
1.2605888730031438,0,0,1.4508862060546874,0,0,-0.07644000000000001
1.2637074310041498,0,0,-0.4285620971679687,0,0,1.1465999999999998
1.2668219890038017,0,0,3.7325603881835936,0,0,1.45236
1.2699352329946123,0,0,0.26336218261718747,0,0,0.0
1.2730484759958927,0,0,1.5155296508789062,0,0,1.2994800000000002
1.2761624609993305,0,0,2.157175695800781,0,0,1.1465999999999998
1.279273797001224,0,0,0.076614453125,0,0,1.37592
1.2824115029943641,0,0,3.0119056884765625,0,0,2.06388
1.285529079992557,0,0,0.6560112548828124,0,0,-0.91728
1.2886457489803433,0,0,1.5705962890624998,0,0,1.60524
1.2917611959856004,0,0,2.3918074584960936,0,0,0.68796
1.2948732919758186,0,0,-1.5107412475585937,0,0,-0.3822
1.2981014779943507,0,0,2.6958710693359373,0,0,2.36964
1.3012301659910008,0,0,0.9265560424804687,0,0,-0.6115200000000001
1.304350316990167,0,0,0.59376201171875,0,0,1.5288
1.307513245003065,0,0,3.5338416503906247,0,0,1.83456
1.3106295259785838,0,0,-0.3280056274414062,0,0,-0.15288000000000002
1.3137492690002546,0,0,1.1563994018554686,0,0,0.30576000000000003
1.3168655869958457,0,0,2.0638018310546875,0,0,0.30576000000000003
1.3199810340011027,0,0,-0.1388636962890625,0,0,2.14032
1.3230973519966938,0,0,2.4301146850585935,0,0,2.06388
1.3262120019935537,0,0,0.15083470458984374,0,0,0.45864
1.3293292459857184,0,0,2.2098481323242187,0,0,1.37592
1.3324459519935772,0,0,1.5634136840820312,0,0,-0.3822
1.3355628629797138,0,0,-0.239420166015625,0,0,0.07644000000000001
1.3386802729801275,0,0,2.923320227050781,0,0,1.911
1.3417967379791662,0,0,1.2617442749023438,0,0,0.07644000000000001
1.3449485189921688,0,0,0.20829554443359374,0,0,0.30576000000000003
1.3480660769855604,0,0,2.999934680175781,0,0,2.2167600000000003
1.35118107998278,0,0,-0.718260498046875,0,0,0.0
1.3543000639765523,0,0,1.5466542724609373,0,0,1.45236
1.3574164180026855,0,0,1.4772224243164063,0,0,-0.22932
1.3605374769831542,0,0,1.3215993164062498,0,0,1.98744
1.363653701992007,0,0,1.8531120849609375,0,0,0.84084
1.3667696669872385,0,0,0.41419688720703124,0,0,0.22932
1.3698926149809267,0,0,2.607285607910156,0,0,2.14032
1.3730144319997635,0,0,1.1563994018554686,0,0,-0.84084
1.3761326379899401,0,0,1.2569558715820313,0,0,1.911
1.3792481779819354,0,0,2.4899697265625,0,0,1.1465999999999998
1.3823636999877635,0,0,0.603338818359375,0,0,0.15288000000000002
1.3854671650042292,0,0,1.5466542724609373,0,0,0.3822
1.388592631003121,0,0,1.9129671264648436,0,0,0.6115200000000001
1.3917168740008492,0,0,-0.016759411621093748,0,0,0.53508
1.394835469982354,0,0,1.838746875,0,0,0.99372
1.3979489729972556,0,0,1.3239935180664062,0,0,1.60524
1.4010706050030421,0,0,1.867477294921875,0,0,0.6115200000000001
1.4043944759760052,0,0,1.1372457885742187,0,0,-9.09636
1.4075270149915013,0,0,1.01514150390625,0,0,1.98744
1.410894014989026,0,0,2.6288334228515624,0,0,0.45864
1.4140874430013355,0,0,-0.6248866333007812,0,0,0.30576000000000003
1.4171919649816118,0,0,2.913743420410156,0,0,1.911
1.4202904120029416,0,0,1.9129671264648436,0,0,1.60524
1.4233993779926095,0,0,-0.93852705078125,0,0,0.30576000000000003
1.426499472989235,0,0,3.0071172851562498,0,0,0.22932
1.4296037719759624,0,0,0.7733271362304687,0,0,1.75812
1.4349770099797752,0,0,2.308010400390625,0,0,0.84084
1.4380976230022497,0,0,0.076614453125,0,0,1.1465999999999998
1.441216273989994,0,0,2.9855694702148434,0,0,0.6115200000000001
1.444333221996203,0,0,0.6943184814453125,0,0,-0.7644
1.4474952979944646,0,0,-0.22744915771484372,0,0,0.0
1.4506124299950898,0,0,3.1028853515624997,0,0,1.83456
1.4537278399802744,0,0,-0.2825157958984375,0,0,0.0
1.4568447879864834,0,0,1.5490484741210937,0,0,2.14032
1.4599609569995664,0,0,3.2632968627929686,0,0,1.2230400000000001
1.463072607992217,0,0,-0.9457096557617187,0,0,0.0
1.4661912029841915,0,0,2.923320227050781,0,0,1.68168
1.4693042429862544,0,0,0.7422025146484375,0,0,-0.84084
1.472433208982693,0,0,1.0223241088867188,0,0,1.75812
1.4755496739817318,0,0,2.4875755249023435,0,0,1.07016
1.478663047979353,0,0,-0.011971008300781249,0,0,0.53508
1.4817785689956509,0,0,2.123656872558594,0,0,1.911
1.4849112569936551,0,0,1.9895815795898437,0,0,-0.6115200000000001
1.4880329629813787,0,0,0.7398083129882812,0,0,2.2167600000000003
1.4911437069822568,0,0,2.920926025390625,0,0,0.68796
1.4942576909961645,0,0,-0.9816226806640624,0,0,9.40212
1.4973741009889636,0,0,1.85790048828125,0,0,0.6115200000000001
1.5004909559793305,0,0,2.8993782104492185,0,0,1.37592
1.503650975995697,0,0,-1.4700398193359374,0,0,9.555
1.5067665719834622,0,0,3.6152445068359373,0,0,1.911
1.5098791859927587,0,0,1.1540052001953125,0,0,0.0
1.5130180769774597,0,0,0.9983820922851562,0,0,0.68796
1.5161382279766258,0,0,2.7629087158203123,0,0,2.90472
1.51924969398533,0,0,-0.8978256225585937,0,0,9.47856
1.5223661409982014,0,0,2.834734765625,0,0,1.98744
1.5254832359787542,0,0,1.6424223388671875,0,0,-0.7644
1.5285978689789772,0,0,0.39264907226562495,0,0,1.07016
1.5317141309787985,0,0,2.3319524169921872,0,0,1.75812
1.5348231520038098,0,0,0.076614453125,0,0,0.68796
1.537936376989819,0,0,1.8004396484374998,0,0,2.2931999999999997
1.5410500089928973,0,0,1.889025109863281,0,0,-0.99372
1.5441672899760306,0,0,0.6344634399414062,0,0,1.2230400000000001
1.5473106440040283,0,0,2.6312276245117188,0,0,0.7644
1.5504265909839887,0,0,-0.1292868896484375,0,0,-0.3822
1.55354333500145,0,0,1.465251416015625,0,0,1.60524
1.556656540982658,0,0,2.4349030883789062,0,0,1.45236
1.5597708220011555,0,0,-0.373495458984375,0,0,0.7644
1.5628840650024358,0,0,1.8124106567382812,0,0,0.0
1.5659969759872183,0,0,1.0319009155273438,0,0,2.4460800000000003
1.569111033983063,0,0,1.0558429321289062,0,0,0.91728
1.5722245369979646,0,0,1.6831237670898436,0,0,1.2994800000000002
1.5754005199996755,0,0,0.7541735229492187,0,0,1.68168
1.578518392983824,0,0,2.4684219116210935,0,0,1.75812
1.5816298039862886,0,0,0.40940848388671874,0,0,0.0
1.5847431579895783,0,0,1.0941501586914062,0,0,1.83456
1.5878568280022591,0,0,2.1715409057617188,0,0,2.06388
1.5909675899893045,0,0,-0.584185205078125,0,0,-8.943480000000001
1.594082444004016,0,0,2.7820623291015623,0,0,1.60524
1.5971971319813747,0,0,0.8762778076171874,0,0,-0.99372
1.600311079993844,0,0,1.3623007446289062,0,0,1.60524
1.603422692976892,0,0,2.2266075439453124,0,0,1.1465999999999998
1.6065351220022421,0,0,0.40940848388671874,0,0,1.1465999999999998
1.6097534199943766,0,0,2.023100402832031,0,0,1.45236
1.613106142001925,0,0,0.7829039428710937,0,0,-1.45236
1.6162164970010053,0,0,1.7549498168945312,0,0,1.98744
1.619314277981175,0,0,2.212242333984375,0,0,0.3822
1.6224164470040705,0,0,-0.7062894897460937,0,0,0.0
1.6255395059997682,0,0,2.626439221191406,0,0,1.68168
1.6286366199783515,0,0,1.419761584472656,0,0,-0.68796
1.6317492709786166,0,0,-1.0534487304687499,0,0,1.45236
1.634866754990071,0,0,2.8730419921875,0,0,0.6115200000000001
1.637965109985089,0,0,-0.6847416748046875,0,0,0.6115200000000001
1.6410799830046017,0,0,2.252943762207031,0,0,1.1465999999999998
1.6441970969899558,0,0,1.3239935180664062,0,0,0.84084
1.6473681539937388,0,0,-0.3136404174804687,0,0,0.3822
1.6504863789887168,0,0,3.3303345092773435,0,0,1.911
1.6536016229947563,0,0,0.5243301635742187,0,0,-1.07016
1.6567181629943661,0,0,1.2138602416992186,0,0,2.14032
1.6598347389954142,0,0,2.310404602050781,0,0,2.2931999999999997
1.6629466869926546,0,0,-1.7525556152343749,0,0,-0.91728
1.6660652449936606,0,0,3.303998291015625,0,0,1.83456
1.6691796179802623,0,0,1.0821791503906248,0,0,-0.7644
1.6722885099879932,0,0,0.031124621582031248,0,0,1.1465999999999998
1.6753969389828853,0,0,2.8467057739257813,0,0,1.98744
1.6790497500041965,0,0,-0.7541735229492187,0,0,-0.68796
1.6824536939966492,0,0,2.7748797241210936,0,0,0.99372
1.6857962689828128,0,0,0.33758243408203126,0,0,0.6115200000000001
1.689064880978549,0,0,1.5083470458984374,0,0,0.68796
1.692250697989948,0,0,2.214636535644531,0,0,1.1465999999999998
1.6954062930017244,0,0,-1.197100830078125,0,0,0.0
1.6985171659907792,0,0,3.303998291015625,0,0,2.2167600000000003
1.7016158170008566,0,0,1.5514426757812498,0,0,-0.68796
1.7047325049934443,0,0,-1.1252747802734375,0,0,0.6115200000000001
1.7078520630020648,0,0,2.8036101440429686,0,0,2.6754
1.710963917983463,0,0,-0.9169792358398436,0,0,-0.3822
1.7140833829762414,0,0,2.2194249389648437,0,0,2.36964
1.7172019419958815,0,0,2.3487118286132813,0,0,-1.2230400000000001
1.7203195559850428,0,0,-0.028730419921875,0,0,1.5288
1.723435261985287,0,0,2.645592834472656,0,0,1.07016
1.7265493759769015,0,0,0.6440402465820312,0,0,-9.784320000000001
1.7296661750006024,0,0,1.2521674682617188,0,0,1.1465999999999998
1.7327788260008674,0,0,1.7956512451171873,0,0,-0.91728
1.7358921989798546,0,0,0.076614453125,0,0,1.07016
1.7389980719890445,0,0,2.6623522460937497,0,0,1.37592
1.7421444079955108,0,0,0.3184288208007812,0,0,0.22932
1.7452619480027352,0,0,0.9026140258789062,0,0,-9.40212
1.7484919679991435,0,0,2.7820623291015623,0,0,2.52252
1.7513686399906874,0,0,-0.5291185668945312,0,0,-0.7644
1.7541704979958013,0,0,2.3487118286132813,0,0,2.2167600000000003
1.7569580230046995,0,0,2.5953145996093747,0,0,-0.68796
1.762491183995735,0,0,1.5179238525390624,0,0,1.45236
1.7652925979928114,0,0,2.023100402832031,0,0,-0.30576000000000003
1.7680903819855303,0,0,0.258573779296875,0,0,1.1465999999999998
1.7708829619805329,0,0,2.492363928222656,0,0,1.75812
1.7737198749964591,0,0,0.5363011718749999,0,0,-1.1465999999999998
1.776518288999796,0,0,0.26815058593749996,0,0,1.37592
1.7793130359787028,0,0,2.480392919921875,0,0,0.6115200000000001
1.7821118199790362,0,0,-0.24181436767578124,0,0,0.0
1.7849103079934139,0,0,2.0925322509765625,0,0,2.2167600000000003
1.7877067219815217,0,0,1.7741034301757812,0,0,1.2230400000000001
1.7904998949961737,0,0,-0.22026655273437498,0,0,1.2230400000000001
1.793296752992319,0,0,2.061407629394531,0,0,1.45236
1.7960924629878718,0,0,2.250549560546875,0,0,1.911
1.7988864689832553,0,0,-0.21787235107421873,0,0,-0.15288000000000002
1.801684085978195,0,0,2.5641899780273434,0,0,9.01992
1.8044793699809816,0,0,1.7334020019531249,0,0,1.60524
1.8072737469919957,0,0,-0.5913678100585937,0,0,-9.32568
1.8100771419994999,0,0,2.104503259277344,0,0,0.91728
1.812876221985789,0,0,1.656787548828125,0,0,1.2230400000000001
1.815672024997184,0,0,0.6464344482421874,0,0,9.631440000000001
1.818485530995531,0,0,2.8371289672851563,0,0,2.14032
1.821308943995973,0,0,1.209071838378906,0,0,-1.75812
1.8241072469973005,0,0,-0.0430956298828125,0,0,0.07644000000000001
1.8269017720012926,0,0,3.0166940917968748,0,0,1.5288
1.8296973889810033,0,0,-0.39743747558593745,0,0,-1.37592
1.8325025619997177,0,0,-0.3064578125,0,0,1.68168
1.8352987719990779,0,0,3.9624037475585934,0,0,1.68168
1.83808962997864,0,0,-0.373495458984375,0,0,-0.99372
1.8409155620029196,0,0,1.5011644409179687,0,0,1.37592
1.8437152349797543,0,0,2.50912333984375,0,0,1.2230400000000001
1.8465913889813237,0,0,-0.3806780639648437,0,0,0.15288000000000002
1.8494685979967471,0,0,1.5155296508789062,0,0,1.1465999999999998
1.8525814339809585,0,0,2.1787235107421874,0,0,1.37592
1.8556959919806104,0,0,-0.4836287353515625,0,0,0.0
1.858810846984852,0,0,4.280832568359375,0,0,1.45236
1.86192294198554,0,0,-0.622492431640625,0,0,-0.68796
1.8650379999889992,0,0,1.3479355346679687,0,0,1.1465999999999998
1.8681530029862188,0,0,2.6886884643554687,0,0,3.36336
1.8712639499863144,0,0,-2.0183119995117185,0,0,-1.75812
1.874378398002591,0,0,3.066972326660156,0,0,2.82828
1.8775236039946321,0,0,2.205059729003906,0,0,-2.14032
1.8806627729791217,0,0,-0.02154781494140625,0,0,1.2230400000000001
1.8837814609869383,0,0,2.5450363647460934,0,0,-0.15288000000000002
1.8868942599801812,0,0,-1.6711527587890624,0,0,-0.6115200000000001
1.8900102999759838,0,0,1.120486376953125,0,0,1.45236
1.8931230989983305,0,0,1.946485949707031,0,0,0.3822
1.8962431389954872,0,0,-0.9744400756835937,0,0,1.45236
1.8993857890018262,0,0,2.5067291381835934,0,0,-8.71416
1.9025014769867994,0,0,2.068590234375,0,0,-1.1465999999999998
1.9056144429778215,0,0,-2.437297290039062,0,0,0.99372
1.9087290379975457,0,0,2.4444798950195312,0,0,3.13404
1.9118416149867699,0,0,0.36152445068359373,0,0,-2.2931999999999997
1.9149535989854485,0,0,-0.4740519287109375,0,0,7.72044
1.918066046986496,0,0,4.584896179199219,0,0,4.12776
1.9211775119765662,0,0,0.9504980590820312,0,0,2.06388
1.924289829999907,0,0,-2.123656872558594,0,0,-2.14032
1.9274033879919443,0,0,1.24498486328125,0,0,1.07016
1.9305159649811685,0,0,-0.13168109130859373,0,0,-9.47856
1.9337118929834105,0,0,0.0718260498046875,0,0,-0.45864
1.9368714139855001,0,0,2.1356278808593747,0,0,0.22932
1.9400173049943987,0,0,1.2234370483398436,0,0,0.45864
1.9431325490004383,0,0,-0.30406361083984373,0,0,-0.84084
1.9462492739839945,0,0,1.3192051147460937,0,0,0.84084
1.9493648869975004,0,0,0.21308394775390624,0,0,0.6115200000000001
1.9524787789850961,0,0,1.8602946899414061,0,0,1.60524
1.9556310779880732,0,0,1.2952630981445312,0,0,0.53508
1.9587704509904142,0,0,0.41898529052734373,0,0,-0.99372
1.961887156998273,0,0,1.0845733520507812,0,0,-0.68796
1.9650029749900568,0,0,0.4955997436523437,0,0,0.22932
1.9681144770001993,0,0,-0.201112939453125,0,0,0.68796
1.9712288509763312,0,0,0.59376201171875,0,0,1.2994800000000002
1.9743438349978533,0,0,2.27927998046875,0,0,0.68796
1.9774555229814723,0,0,0.20829554443359374,0,0,-1.98744
1.9805727289931383,0,0,0.8188169677734375,0,0,0.53508
1.9836867319827434,0,0,0.8954314208984374,0,0,1.2230400000000001
1.9867960309784394,0,0,0.19871873779296872,0,0,20
1.9899087009835057,0,0,1.3383587280273437,0,0,1.37592
1.9931004249956459,0,0,1.5131354492187499,0,0,0.7644
1.9962231499957852,0,0,0.10295067138671875,0,0,-0.53508
1.9993679109902587,0,0,0.7398083129882812,0,0,0.45864
2.002482969983248,0,0,0.6440402465820312,0,0,-0.6115200000000001
2.0055976579897106,0,0,-0.14125789794921875,0,0,0.07644000000000001
2.0087149199971464,0,0,1.5610194824218748,0,0,0.91728
2.011835755984066,0,0,0.47644613037109373,0,0,0.30576000000000003
2.014950887998566,0,0,1.2018892333984375,0,0,0.15288000000000002
2.018112983001629,0,0,0.9959878906249999,0,0,0.30576000000000003
2.021224448981229,0,0,0.6488286499023437,0,0,0.30576000000000003
2.024338766001165,0,0,0.5722141967773438,0,0,-0.84084
2.0274860839999747,0,0,0.8786720092773437,0,0,0.53508
2.0306019379931968,0,0,1.2856862915039062,0,0,1.07016
2.033715144993039,0,0,0.17477672119140625,0,0,-0.99372
2.0368259069800843,0,0,0.8307879760742187,0,0,0.45864
2.0399685939773917,0,0,1.1707646118164061,0,0,0.91728
2.0430838750035036,0,0,-0.143652099609375,0,0,0.22932
2.0462054520030506,0,0,1.0702081420898437,0,0,0.7644
2.0494034540024586,0,0,0.6631938598632812,0,0,0.53508
2.052521640987834,0,0,0.3184288208007812,0,0,0.0
2.0556332179985475,0,0,1.3215993164062498,0,0,0.45864
2.058744146983372,0,0,1.0726023437499999,0,0,0.45864
2.0618565199838486,0,0,0.5291185668945312,0,0,0.53508
2.0649723749957047,0,0,0.4908113403320312,0,0,0.15288000000000002
2.0680879149877,0,0,1.2282254516601563,0,0,0.91728
2.07155496897758,0,0,0.39264907226562495,0,0,0.0
2.0746788419783115,0,0,1.2330138549804688,0,0,0.53508
2.077793048985768,0,0,1.2378022583007813,0,0,1.2994800000000002
2.080906495975796,0,0,0.9026140258789062,0,0,0.68796
2.0840200359816663,0,0,1.6735469604492186,0,0,1.1465999999999998
2.087130112980958,0,0,1.4173673828125,0,0,0.6115200000000001
2.0902403929794673,0,0,1.4341267944335936,0,0,0.84084
2.093353025993565,0,0,1.2713210815429687,0,0,0.84084
2.09649326899671,0,0,1.2976572998046874,0,0,0.7644
2.099631844990654,0,0,1.6424223388671875,0,0,0.99372
2.1027435699943453,0,0,1.0941501586914062,0,0,0.45864
2.1058501660008915,0,0,1.2042834350585936,0,0,0.68796
2.1090693709847983,0,0,1.5275006591796874,0,0,0.6115200000000001
2.11223959599738,0,0,1.189918225097656,0,0,0.84084
2.115430431003915,0,0,1.235408056640625,0,0,0.0
2.11862561799353,0,0,1.4604630126953124,0,0,0.84084
2.121816785976989,0,0,1.2425906616210938,0,0,0.99372
2.125049139984185,0,0,1.3670891479492187,0,0,1.1465999999999998
2.1282522160036024,0,0,1.429338391113281,0,0,0.45864
2.131438846990932,0,0,1.3239935180664062,0,0,0.6115200000000001
2.1346307749918196,0,0,1.0726023437499999,0,0,0.45864
2.1378513319941703,0,0,1.2521674682617188,0,0,0.84084
2.1411002409877256,0,0,1.707065783691406,0,0,1.37592
2.1443156129971612,0,0,0.9361328491210937,0,0,0.6115200000000001
2.1475556879886426,0,0,1.2282254516601563,0,0,0.91728
2.150909595977282,0,0,1.5610194824218748,0,0,0.6115200000000001
2.1536927690031007,0,0,1.2761094848632812,0,0,0.91728
2.156235685979482,0,0,1.2856862915039062,0,0,1.2994800000000002
2.1587768610042986,0,0,1.6208745239257811,0,0,0.6115200000000001
2.1613198699778877,0,0,1.458068811035156,0,0,0.22932
2.1638617499847896,0,0,1.2306196533203124,0,0,1.2230400000000001
2.1664013889967464,0,0,1.1085153686523437,0,0,1.07016
2.168947878992185,0,0,1.5179238525390624,0,0,0.84084
2.171488572988892,0,0,1.5777788940429687,0,0,0.45864
2.17401400898234,0,0,1.235408056640625,0,0,0.91728
2.1765505179937463,0,0,1.3718775512695311,0,0,1.07016
2.17924506199779,0,0,1.3646949462890625,0,0,0.53508
2.1834091089840513,0,0,1.3024457031249999,0,0,0.53508
2.186033449979732,0,0,1.2138602416992186,0,0,0.91728
2.1885619039821904,0,0,1.3766659545898436,0,0,0.45864
2.191110690997448,0,0,1.2737152832031249,0,0,0.7644
2.193634569994174,0,0,1.3383587280273437,0,0,0.53508
2.196157005993882,0,0,1.1635820068359375,0,0,0.84084
2.1986762559972703,0,0,1.2306196533203124,0,0,0.22932
2.2011979689996224,0,0,1.3479355346679687,0,0,0.3822
2.2048281320021488,0,0,1.3766659545898436,0,0,1.1465999999999998
2.207418029982364,0,0,1.1085153686523437,0,0,0.6115200000000001
2.2099714829819277,0,0,1.2473790649414063,0,0,0.84084
2.2125126219762024,0,0,1.7405846069335937,0,0,0.53508
2.215049686987186,0,0,1.2928688964843749,0,0,0.91728
2.2175723440013826,0,0,1.180341418457031,0,0,0.84084
2.2201044269895647,0,0,1.2665326782226562,0,0,0.68796
2.222638769977493,0,0,1.5586252807617187,0,0,0.91728
2.2251734089804813,0,0,1.218648645019531,0,0,0.91728
2.2277076589816716,0,0,1.1635820068359375,0,0,0.45864
2.230242038000142,0,0,1.35990654296875,0,0,0.53508
2.2327664549811743,0,0,1.2665326782226562,0,0,0.84084
2.2352854459895752,0,0,1.2617442749023438,0,0,0.6115200000000001
2.2378413249971345,0,0,1.1133037719726562,0,0,0.45864
2.2403770559758414,0,0,1.2330138549804688,0,0,1.07016
2.242910379980458,0,0,1.3120225097656248,0,0,1.07016
2.2454419449786656,0,0,1.3862427612304686,0,0,0.84084
2.2482317480025813,0,0,1.0702081420898437,0,0,0.45864
2.250850199983688,0,0,1.4724340209960938,0,0,0.84084
2.2535075600026175,0,0,1.618480322265625,0,0,0.84084
2.2566037479846273,0,0,1.2737152832031249,0,0,0.53508
2.259706009994261,0,0,1.1516109985351561,0,0,0.30576000000000003
2.2628416609950364,0,0,1.2904746948242187,0,0,1.07016
2.2659497929853387,0,0,1.1659762084960936,0,0,0.91728
2.2690562589850742,0,0,1.2234370483398436,0,0,1.2994800000000002
2.2721567249973305,0,0,1.3168109130859373,0,0,0.45864
2.275258654000936,0,0,1.3718775512695311,0,0,0.91728
2.278366600978188,0,0,1.1923124267578125,0,0,0.3822
2.2814733629929833,0,0,1.4413093994140624,0,0,0.45864
2.2845771069987677,0,0,1.7238251953125,0,0,0.91728
2.287682979978854,0,0,1.1827356201171875,0,0,0.3822
2.2907832239870913,0,0,1.2210428466796874,0,0,0.7644
2.293924892990617,0,0,1.3072341064453123,0,0,0.6115200000000001
2.2970659139973577,0,0,1.216254443359375,0,0,0.7644
2.3001832320005633,0,0,1.1085153686523437,0,0,0.30576000000000003
2.3032880679820664,0,0,1.3335703247070312,0,0,0.68796
2.3063916259852704,0,0,1.0941501586914062,0,0,0.45864
2.3095292770012747,0,0,1.2976572998046874,0,0,0.68796
2.3126317799906246,0,0,1.4963760375976562,0,0,0.68796
2.3157349489920307,0,0,1.4006079711914061,0,0,1.2994800000000002
2.318836285994621,0,0,1.149216796875,0,0,0.91728
2.321942862996366,0,0,1.2617442749023438,0,0,0.68796
2.325046679994557,0,0,1.68551796875,0,0,0.7644
2.328152682981454,0,0,1.2497732666015624,0,0,-8.867040000000001
2.331256259989459,0,0,1.1372457885742187,0,0,0.22932
2.3343607260030694,0,0,1.3455413330078123,0,0,0.99372
2.3374678769905586,0,0,1.2808978881835937,0,0,0.84084
2.3405838799953926,0,0,1.3311761230468748,0,0,1.1465999999999998
2.343689937988529,0,0,1.407790576171875,0,0,0.45864
2.346790310984943,0,0,1.6232687255859375,0,0,0.99372
2.3498934249801096,0,0,1.1707646118164061,0,0,0.84084
2.3530350950022694,0,0,1.465251416015625,0,0,0.68796
2.3561425789957866,0,0,1.484405029296875,0,0,1.911
2.3592430999851786,0,0,1.20667763671875,0,0,0.3822
2.3623463620024268,0,0,1.0821791503906248,0,0,0.53508
2.365449124976294,0,0,1.3168109130859373,0,0,1.2230400000000001
2.368575793982018,0,0,1.0797849487304687,0,0,1.2994800000000002
2.37171812998713,0,0,1.3623007446289062,0,0,0.91728
2.3748636879900005,0,0,1.465251416015625,0,0,0.68796
2.3779686719935853,0,0,1.1085153686523437,0,0,0.6115200000000001
2.3810727309901267,0,0,1.0989385620117187,0,0,0.6115200000000001
2.3841765300021507,0,0,1.4101847778320311,0,0,0.7644
2.3872766619897448,0,0,1.5394716674804687,0,0,2.5989600000000004
2.3903803499997593,0,0,1.254561669921875,0,0,-9.09636
2.3935278529825155,0,0,1.2114660400390624,0,0,0.7644
2.396630356000969,0,0,1.3527239379882812,0,0,0.68796
2.3997357100015506,0,0,1.3670891479492187,0,0,0.7644
2.4028356389899272,0,0,1.1851298217773436,0,0,-0.07644000000000001
2.4059382529812865,0,0,1.3144167114257812,0,0,0.91728
2.4090406079776585,0,0,1.3359645263671873,0,0,0.6115200000000001
2.412150832999032,0,0,1.3335703247070312,0,0,-9.47856
2.4152565209951717,0,0,1.4700398193359374,0,0,1.07016
2.418358245980926,0,0,1.4053963745117186,0,0,1.1465999999999998
2.421463100996334,0,0,1.0127473022460938,0,0,1.07016
2.424565695982892,0,0,1.3192051147460937,0,0,1.1465999999999998
2.4276662359770853,0,0,1.1563994018554686,0,0,0.6115200000000001
2.430767775978893,0,0,1.3646949462890625,0,0,0.3822
2.435708832985256,0,0,1.2641384765625,0,0,0.84084
2.4390167969977483,0,0,1.3096283081054687,0,0,1.07016
2.4423450009780936,0,0,1.199495031738281,0,0,0.91728
2.4454590039968025,0,0,1.2497732666015624,0,0,0.7644
2.448630394996144,0,0,1.6735469604492186,0,0,0.84084
2.451744341989979,0,0,1.2521674682617188,0,0,0.3822
2.4547790119831916,0,0,1.2210428466796874,0,0,0.22932
2.457555370987393,0,0,1.4053963745117186,0,0,0.99372
2.46034287699149,0,0,1.2904746948242187,0,0,0.91728
2.463132567994762,0,0,1.1228805786132812,0,0,2.06388
2.465922111994587,0,0,1.458068811035156,0,0,0.91728
2.4687102850002702,0,0,1.3192051147460937,0,0,0.6115200000000001
2.4715227719862014,0,0,1.2234370483398436,0,0,0.7644
2.474295797001105,0,0,1.189918225097656,0,0,1.2230400000000001
2.477086099999724,0,0,1.5275006591796874,0,0,0.84084
2.479874420998385,0,0,1.3958195678710936,0,0,0.84084
2.4826580389926676,0,0,1.158793603515625,0,0,0.07644000000000001
2.485445322992746,0,0,1.1611878051757811,0,0,0.0
2.488233976997435,0,0,1.3359645263671873,0,0,0.7644
2.491017631982686,0,0,1.1707646118164061,0,0,0.68796
2.4938044529990293,0,0,1.189918225097656,0,0,0.53508
2.496925436978927,0,0,1.4101847778320311,0,0,0.7644
2.4997264069970697,0,0,1.3024457031249999,0,0,0.68796
2.5025105239765253,0,0,1.2378022583007813,0,0,1.07016
2.5052986049850006,0,0,1.158793603515625,0,0,1.2994800000000002
2.508088462986052,0,0,1.4221557861328125,0,0,0.6115200000000001
2.510872764978558,0,0,1.3742717529296875,0,0,0.99372
2.513660030992469,0,0,1.158793603515625,0,0,0.3822
2.51644816697808,0,0,1.216254443359375,0,0,0.22932
2.519254839979112,0,0,1.3239935180664062,0,0,0.68796
2.5220427169988398,0,0,1.0989385620117187,0,0,0.53508
2.5248302039981354,0,0,1.2593500732421874,0,0,0.30576000000000003
2.5281121129810344,0,0,1.2593500732421874,0,0,0.68796
2.530910340981791,0,0,1.6136919189453125,0,0,0.68796
2.533700903004501,0,0,1.2856862915039062,0,0,0.68796
2.5364902979927137,0,0,1.0965443603515623,0,0,0.30576000000000003
2.5392794339859392,0,0,1.5203180541992187,0,0,0.45864
2.542054866993567,0,0,1.2306196533203124,0,0,0.84084
2.544845409982372,0,0,1.350329736328125,0,0,0.91728
2.5479520059889182,0,0,1.3455413330078123,0,0,0.91728
2.5507392339932267,0,0,1.5753846923828123,0,0,0.68796
2.5536204619857017,0,0,1.3144167114257812,0,0,0.84084
2.5566699100018013,0,0,1.3359645263671873,0,0,0.6115200000000001
2.5597804129938595,0,0,1.2641384765625,0,0,0.99372
2.5629067669797223,0,0,1.254561669921875,0,0,0.7644
2.5660105659917463,0,0,1.139639990234375,0,0,0.68796
2.5693989360006526,0,0,1.4508862060546874,0,0,0.91728
2.5725126799952704,0,0,1.4963760375976562,0,0,0.99372
2.57562131198938,0,0,1.0965443603515623,0,0,0.45864
2.5787273710011505,0,0,1.39821376953125,0,0,0.7644
2.5818171149876434,0,0,1.6519991455078125,0,0,0.6115200000000001
2.584924080001656,0,0,1.3479355346679687,0,0,0.45864
2.588024027994834,0,0,1.189918225097656,0,0,0.0
2.5914389529789332,0,0,1.3646949462890625,0,0,0.91728
2.59456236299593,0,0,1.209071838378906,0,0,0.68796
2.597654051001882,0,0,1.149216796875,0,0,1.07016
2.600763720984105,0,0,1.3527239379882812,0,0,0.6115200000000001
2.603871278988663,0,0,1.2497732666015624,0,0,0.53508
2.606973133981228,0,0,1.0893617553710937,0,0,0.30576000000000003
2.6100775439990684,0,0,1.4700398193359374,0,0,0.45864
2.6131903619971126,0,0,1.4987702392578124,0,0,0.84084
2.616294753999682,0,0,1.189918225097656,0,0,0.99372
2.619399978982983,0,0,1.2569558715820313,0,0,0.91728
2.622503536986187,0,0,1.3120225097656248,0,0,0.3822
2.6256120769830886,0,0,1.254561669921875,0,0,0.91728
2.6287155989848543,0,0,1.1444283935546875,0,0,0.3822
2.631819378992077,0,0,1.3215993164062498,0,0,2.82828
2.6349236779788043,0,0,1.3646949462890625,0,0,0.7644
2.638027365988819,0,0,1.2306196533203124,0,0,0.91728
2.641130942996824,0,0,1.4891934326171874,0,0,0.84084
2.6442347429983784,0,0,1.429338391113281,0,0,1.07016
2.6473697449837346,0,0,1.1109095703125,0,0,0.84084
2.650473414978478,0,0,1.0845733520507812,0,0,0.45864
2.654162819002522,0,0,1.599326708984375,0,0,1.2994800000000002
2.6573374689905904,0,0,1.3263877197265623,0,0,0.68796
2.6604766749951523,0,0,1.139639990234375,0,0,0.91728
2.663627510977676,0,0,1.6065093139648436,0,0,0.7644
2.6667127730033826,0,0,1.216254443359375,0,0,0.91728
2.669818108988693,0,0,1.3144167114257812,0,0,0.07644000000000001
2.6729667600011453,0,0,1.2785036865234374,0,0,0.7644
2.6760766149964184,0,0,1.1540052001953125,0,0,0.53508
2.6792025250033475,0,0,1.3718775512695311,0,0,1.07016
2.6849258129950613,0,0,1.678335363769531,0,0,1.1465999999999998
2.688294424995547,0,0,1.0103531005859374,0,0,1.2230400000000001
2.6915751849883236,0,0,1.4867992309570313,0,0,0.68796
2.6947066689899657,0,0,1.6735469604492186,0,0,0.3822
2.6978477819939144,0,0,1.35990654296875,0,0,-9.32568
2.7009600259771105,0,0,1.13006318359375,0,0,0.3822
2.7040744919795543,0,0,1.3287819213867187,0,0,1.07016
2.7071936059801374,0,0,1.1516109985351561,0,0,0.99372
2.7103111269825604,0,0,1.2952630981445312,0,0,1.2994800000000002
2.7134344069927465,0,0,1.426944189453125,0,0,0.6115200000000001
2.716584483976476,0,0,1.2569558715820313,0,0,0.68796
2.7197032459953334,0,0,1.2904746948242187,0,0,1.75812
2.722817359986948,0,0,1.5131354492187499,0,0,-9.172799999999999
2.725918140000431,0,0,1.5490484741210937,0,0,1.1465999999999998
2.729033494979376,0,0,1.0797849487304687,0,0,0.84084
2.73215133100166,0,0,1.1276689819335937,0,0,1.07016
2.735265425988473,0,0,1.3263877197265623,0,0,0.0
2.7383817989903037,0,0,1.1923124267578125,0,0,0.99372
2.7415267280011903,0,0,1.22583125,0,0,0.30576000000000003
2.7446431559801567,0,0,1.2330138549804688,0,0,0.53508
2.747761566977715,0,0,1.1252747802734375,0,0,0.68796
2.7508755319868214,0,0,1.0965443603515623,0,0,0.99372
2.754095496988157,0,0,1.43652099609375,0,0,0.6115200000000001
2.7570378159871325,0,0,1.5729904907226562,0,0,1.07016
2.7598380999988876,0,0,1.120486376953125,0,0,0.15288000000000002
2.7626650689926464,0,0,1.3646949462890625,0,0,0.07644000000000001
2.765464575990336,0,0,1.2330138549804688,0,0,0.7644
2.7682634519878775,0,0,1.158793603515625,0,0,0.7644
2.7710597919940483,0,0,1.3551181396484375,0,0,0.84084
2.7738435759965796,0,0,1.3144167114257812,0,0,0.91728
2.776638601004379,0,0,1.608903515625,0,0,0.84084
2.7794698659854475,0,0,1.2808978881835937,0,0,1.07016
2.7822665569838136,0,0,1.3311761230468748,0,0,1.1465999999999998
2.785068377997959,0,0,1.5322890624999999,0,0,0.68796
2.7878678849956486,0,0,1.3910311645507811,0,0,0.84084
2.7906627799966373,0,0,1.1444283935546875,0,0,0.22932
2.793457267980557,0,0,1.2976572998046874,0,0,-0.22932
2.796257143985713,0,0,1.4125789794921875,0,0,0.91728
2.7990518909937236,0,0,1.3383587280273437,0,0,0.7644
2.8018475089920685,0,0,1.3168109130859373,0,0,0.7644
2.804642940987833,0,0,1.2689268798828124,0,0,0.91728
2.807465075980872,0,0,1.6352397338867186,0,0,0.7644
2.8108354839787353,0,0,1.0845733520507812,0,0,0.22932
2.813656322978204,0,0,1.1372457885742187,0,0,0.99372
2.8164496069948655,0,0,1.3359645263671873,0,0,0.68796
2.8192295210028533,0,0,1.4820108276367188,0,0,1.07016
2.8220128789835144,0,0,1.0893617553710937,0,0,1.2994800000000002
2.8247953669924755,0,0,1.254561669921875,0,0,0.91728
2.827598392002983,0,0,1.5059528442382812,0,0,1.07016
2.8303778799891006,0,0,1.2138602416992186,0,0,0.91728
2.8331759229768068,0,0,1.2904746948242187,0,0,1.37592
2.835975725989556,0,0,1.4101847778320311,0,0,0.53508
2.838772342976881,0,0,1.62805712890625,0,0,0.91728
2.841569719981635,0,0,1.0941501586914062,0,0,0.7644
2.8443704299861565,0,0,1.2018892333984375,0,0,0.22932
2.84716626899899,0,0,1.4101847778320311,0,0,0.7644
2.849985774984816,0,0,1.2928688964843749,0,0,1.07016
2.8527854300045874,0,0,1.209071838378906,0,0,1.2994800000000002
2.8556762310035992,0,0,1.2713210815429687,0,0,1.1465999999999998
2.858746270998381,0,0,1.599326708984375,0,0,0.53508
2.861863069992978,0,0,1.2904746948242187,0,0,0.22932
2.864966683991952,0,0,1.0917559570312498,0,0,9.47856
2.8680752429936547,0,0,1.22583125,0,0,1.1465999999999998
2.871189022989711,0,0,1.2114660400390624,0,0,1.2994800000000002
2.874302322976291,0,0,1.0941501586914062,0,0,1.2994800000000002
2.8774170099932235,0,0,1.4101847778320311,0,0,0.84084
2.880537271994399,0,0,1.3742717529296875,0,0,1.2230400000000001
2.8836526459781453,0,0,1.0773907470703123,0,0,0.3822
2.886763036978664,0,0,1.3910311645507811,0,0,0.68796
2.889876984991133,0,0,1.5921441040039062,0,0,0.6115200000000001
2.8930064869928174,0,0,1.1755530151367186,0,0,0.91728
2.8961225819948595,0,0,1.1731588134765625,0,0,1.83456
2.8995210449793376,0,0,1.446097802734375,0,0,0.6115200000000001
2.9026730289915577,0,0,1.2928688964843749,0,0,0.6115200000000001
2.9057878089952283,0,0,1.1348515869140625,0,0,0.15288000000000002
2.9089026269793976,0,0,1.3359645263671873,0,0,0.99372
2.912018240982434,0,0,1.149216796875,0,0,1.07016
2.915128836000804,0,0,1.2521674682617188,0,0,1.1465999999999998
2.918241468985798,0,0,1.369483349609375,0,0,0.68796
2.9213553970039356,0,0,1.3168109130859373,0,0,1.1465999999999998
2.924479844979942,0,0,1.197100830078125,0,0,0.07644000000000001
2.927862769982312,0,0,1.2569558715820313,0,0,0.84084
2.931530710979132,0,0,1.35990654296875,0,0,1.07016
2.9346574919763952,0,0,1.1133037719726562,0,0,0.91728
2.9393998839950655,0,0,1.369483349609375,0,0,0.7644
2.9425304609758314,0,0,1.1659762084960936,0,0,0.68796
2.9456567599845584,0,0,1.2952630981445312,0,0,0.91728
2.9487738919851836,0,0,1.2569558715820313,0,0,0.99372
2.9519844859896693,0,0,1.5275006591796874,0,0,1.45236
2.955142822000198,0,0,1.3742717529296875,0,0,1.911
2.9582600650028326,0,0,1.3335703247070312,0,0,0.84084
2.9613768269773573,0,0,1.5394716674804687,0,0,0.53508
2.9644938120036386,0,0,1.1037269653320312,0,0,0.30576000000000003
2.9676386849896517,0,0,1.2114660400390624,0,0,0.53508
2.970758686977206,0,0,1.1324573852539062,0,0,0.91728
2.9738871899899095,0,0,1.2689268798828124,0,0,0.99372
2.9769915450015105,0,0,1.189918225097656,0,0,1.07016
2.980117935978342,0,0,1.4101847778320311,0,0,0.84084
2.9832339199783746,0,0,1.0989385620117187,0,0,0.53508
2.9863490159914363,0,0,1.3239935180664062,0,0,0.22932
2.9894632039940916,0,0,1.4700398193359374,0,0,0.6115200000000001
2.9925811139983125,0,0,1.66636435546875,0,0,1.2230400000000001
2.9957020609872416,0,0,1.2521674682617188,0,0,0.99372
2.998813322978094,0,0,1.22583125,0,0,1.07016
3.001927067001816,0,0,1.3263877197265623,0,0,0.3822
3.0050428099930286,0,0,1.1013327636718748,0,0,0.6115200000000001
3.0081548129965086,0,0,1.2497732666015624,0,0,0.68796
3.0117917729949113,0,0,1.2210428466796874,0,0,0.99372
3.014969590003602,0,0,1.13006318359375,0,0,1.1465999999999998
3.0182279799773823,0,0,1.177947216796875,0,0,0.15288000000000002
3.021332315984182,0,0,1.3168109130859373,0,0,0.99372
3.0244312629802153,0,0,1.0797849487304687,0,0,0.53508
3.027528339996934,0,0,1.2306196533203124,0,0,0.6115200000000001
3.03063450998161,0,0,1.5059528442382812,0,0,0.6115200000000001
3.0337595869787037,0,0,1.66636435546875,0,0,1.45236
3.036909681977704,0,0,1.0797849487304687,0,0,1.07016
3.0400269249803387,0,0,1.197100830078125,0,0,0.7644
3.0431425199785735,0,0,1.6256629272460936,0,0,0.6115200000000001
3.0462582829932217,0,0,1.0821791503906248,0,0,0.53508
3.049390266998671,0,0,1.20667763671875,0,0,0.15288000000000002
3.0525077689962927,0,0,1.2521674682617188,0,0,0.91728
3.0556585309968796,0,0,1.189918225097656,0,0,0.84084
3.0587722929776646,0,0,1.3168109130859373,0,0,0.91728
3.0618877399829216,0,0,1.4700398193359374,0,0,0.68796
3.065002335992176,0,0,1.4245499877929686,0,0,0.99372
3.0681218569807243,0,0,1.2497732666015624,0,0,0.30576000000000003
3.0712358969904017,0,0,1.47482822265625,0,0,0.84084
3.0743508439918514,0,0,1.5921441040039062,0,0,0.91728
3.0774670869868714,0,0,0.9648632690429687,0,0,0.53508
3.080581700982293,0,0,1.2569558715820313,0,0,0.84084
3.083698425994953,0,0,1.1516109985351561,0,0,0.6115200000000001
3.086812169989571,0,0,1.2689268798828124,0,0,0.0
3.0899279129807837,0,0,1.218648645019531,0,0,0.07644000000000001
3.0930435089976527,0,0,1.3814543579101561,0,0,0.91728
3.0961593999818433,0,0,1.2282254516601563,0,0,0.3822
3.0992734399915207,0,0,1.2138602416992186,0,0,1.1465999999999998
3.102390905987704,0,0,1.4006079711914061,0,0,0.6115200000000001
3.1055087790009566,0,0,1.5179238525390624,0,0,1.1465999999999998
3.1086246149789076,0,0,1.0845733520507812,0,0,1.1465999999999998
3.1117407839919906,0,0,1.2330138549804688,0,0,0.84084
3.114853842998855,0,0,1.2928688964843749,0,0,0.6115200000000001
3.1179680489876773,0,0,1.2976572998046874,0,0,0.30576000000000003
3.121082755998941,0,0,1.1540052001953125,0,0,0.07644000000000001
3.1241987029789016,0,0,1.2617442749023438,0,0,1.1465999999999998
3.1273115939984564,0,0,1.3311761230468748,0,0,1.07016
3.1304720229818486,0,0,1.177947216796875,0,0,1.37592
3.133590358978836,0,0,1.446097802734375,0,0,0.45864
3.136705027980497,0,0,1.22583125,0,0,0.91728
3.139810900989687,0,0,1.1707646118164061,0,0,0.45864
3.1429024229873903,0,0,1.3575123413085937,0,0,0.6115200000000001
3.146019370004069,0,0,1.426944189453125,0,0,0.99372
3.1491519839910325,0,0,1.1133037719726562,0,0,0.84084
3.1522702270012815,0,0,1.3024457031249999,0,0,0.91728
3.1554092669975944,0,0,1.4053963745117186,0,0,0.6115200000000001
3.1585235099773854,0,0,1.3718775512695311,0,0,0.45864
3.1616400869970676,0,0,1.1085153686523437,0,0,0.0
3.1647729789838195,0,0,1.465251416015625,0,0,1.07016
3.167898296000203,0,0,1.22583125,0,0,1.07016
3.171009872981813,0,0,1.0869675537109373,0,0,0.91728
3.1741072649892885,0,0,1.465251416015625,0,0,0.68796
3.177219081990188,0,0,1.3455413330078123,0,0,1.1465999999999998
3.180332695977995,0,0,1.1611878051757811,0,0,0.91728
3.183471105992794,0,0,1.3215993164062498,0,0,0.68796
3.186618126987014,0,0,1.6711527587890624,0,0,1.2230400000000001
3.191958604991669,0,0,1.1563994018554686,0,0,0.6115200000000001
3.1950792009884026,0,0,1.446097802734375,0,0,0.45864
3.1981972779904027,0,0,1.1109095703125,0,0,0.45864
3.201312261982821,0,0,1.3263877197265623,0,0,0.6115200000000001
3.204426689975662,0,0,1.4101847778320311,0,0,1.1465999999999998
3.2075398599845357,0,0,1.5490484741210937,0,0,1.07016
3.210835360980127,0,0,1.1611878051757811,0,0,1.07016
3.214023880980676,0,0,1.5227122558593749,0,0,0.84084
3.2171257360023446,0,0,1.6807295654296874,0,0,0.6115200000000001
3.220225256984122,0,0,1.1013327636718748,0,0,0.45864
3.22331955700065,0,0,1.3359645263671873,0,0,0.0
3.2264369299809914,0,0,1.1085153686523437,0,0,1.2230400000000001
3.2295311369816773,0,0,1.2210428466796874,0,0,1.2994800000000002
3.232628639001632,0,0,1.1563994018554686,0,0,1.2994800000000002
3.235724197991658,0,0,1.3958195678710936,0,0,0.6115200000000001
3.238826237997273,0,0,1.5275006591796874,0,0,1.2230400000000001
3.241945517977001,0,0,1.3527239379882812,0,0,0.53508
3.245059020991903,0,0,1.438915197753906,0,0,0.7644
3.2482035239809193,0,0,1.6807295654296874,0,0,0.91728
3.251315674977377,0,0,1.1659762084960936,0,0,0.6115200000000001
3.2544551960017998,0,0,1.3048399047851562,0,0,0.99372
3.257602086989209,0,0,1.3263877197265623,0,0,0.84084
3.2607168669928797,0,0,1.2569558715820313,0,0,0.68796
3.2638298329839017,0,0,1.3623007446289062,0,0,0.45864
3.266939798981184,0,0,1.24498486328125,0,0,0.7644
3.2700566349958535,0,0,1.2785036865234374,0,0,0.53508
3.2731795820000116,0,0,1.254561669921875,0,0,0.6115200000000001
3.276295121992007,0,0,1.4437036010742186,0,0,0.53508
3.2794071619864553,0,0,1.6639701538085936,0,0,1.1465999999999998
3.282517941988772,0,0,1.1755530151367186,0,0,0.6115200000000001
3.2856295009842142,0,0,1.3359645263671873,0,0,0.53508
3.2887418000027537,0,0,1.3551181396484375,0,0,0.6115200000000001
3.291855599003611,0,0,1.199495031738281,0,0,0.22932
3.2949647679924965,0,0,1.3455413330078123,0,0,1.1465999999999998
3.298567617981462,0,0,1.1707646118164061,0,0,0.7644
3.3016806389787234,0,0,1.1228805786132812,0,0,0.99372
3.304783920000773,0,0,1.177947216796875,0,0,0.07644000000000001
3.307887385977665,0,0,1.3623007446289062,0,0,0.91728
3.310984332987573,0,0,1.1755530151367186,0,0,0.30576000000000003
3.314105131983524,0,0,1.2401964599609374,0,0,0.45864
3.3172232270007953,0,0,1.465251416015625,0,0,0.84084
3.3203436369949486,0,0,1.429338391113281,0,0,0.84084
3.323502732004272,0,0,1.197100830078125,0,0,0.91728
3.326620976004051,0,0,1.3646949462890625,0,0,0.68796
3.3297355709946714,0,0,1.4508862060546874,0,0,0.68796
3.332850517996121,0,0,1.0175357055664063,0,0,-9.32568
3.335970150976209,0,0,1.120486376953125,0,0,0.3822
3.339083912986098,0,0,1.3287819213867187,0,0,1.1465999999999998
3.342200396989938,0,0,1.3048399047851562,0,0,1.07016
3.345315065991599,0,0,1.1659762084960936,0,0,0.3822
3.348449810000602,0,0,1.4604630126953124,0,0,0.53508
3.3515651829948183,0,0,1.3910311645507811,0,0,0.7644
3.3546817409805954,0,0,1.0917559570312498,0,0,0.22932
3.357835854985751,0,0,1.4604630126953124,0,0,0.68796
3.360950431000674,0,0,1.5203180541992187,0,0,0.99372
3.3640657489886507,0,0,1.0917559570312498,0,0,0.68796
3.367180584988091,0,0,1.3048399047851562,0,0,1.2994800000000002
3.370295125001576,0,0,1.2952630981445312,0,0,0.7644
3.37341359097627,0,0,1.1420341918945311,0,0,0.91728
3.3765293159813154,0,0,1.20667763671875,0,0,0.0
3.3796452439855784,0,0,1.4891934326171874,0,0,0.6115200000000001
3.382759690983221,0,0,1.0965443603515623,0,0,0.30576000000000003
3.385874731000513,0,0,1.2114660400390624,0,0,1.07016
3.3889903639792465,0,0,1.4700398193359374,0,0,1.07016
3.3921062919835094,0,0,1.5179238525390624,0,0,0.91728
3.3952191839925945,0,0,1.0821791503906248,0,0,0.99372
3.3983333350042813,0,0,1.3239935180664062,0,0,0.84084
3.401447077980265,0,0,1.4724340209960938,0,0,0.7644
3.404563877003966,0,0,1.2378022583007813,0,0,0.0
3.4076799360045698,0,0,1.0773907470703123,0,0,0.30576000000000003
3.4107942529954016,0,0,1.3024457031249999,0,0,1.1465999999999998
3.4139140709885396,0,0,1.2904746948242187,0,0,0.91728
3.4170184069953393,0,0,0.9600748657226562,0,0,1.2230400000000001
3.4201303359877784,0,0,1.5275006591796874,0,0,0.91728
3.4232472089934163,0,0,1.3072341064453123,0,0,0.84084
3.4263471009908244,0,0,1.2138602416992186,0,0,0.45864
3.4294831959996372,0,0,1.3431471313476562,0,0,0.6115200000000001
3.4325995129765943,0,0,1.5801730957031248,0,0,0.99372
3.435716701002093,0,0,1.0630255371093749,0,0,0.53508
3.4388864259817638,0,0,1.2785036865234374,0,0,0.99372
3.4420675939763896,0,0,1.2401964599609374,0,0,0.53508
3.4452136709878687,0,0,1.3144167114257812,0,0,0.30576000000000003
3.4483331549854483,0,0,1.0726023437499999,0,0,0.15288000000000002
3.451485731988214,0,0,1.3814543579101561,0,0,1.07016
3.4546040860004723,0,0,1.2880804931640624,0,0,0.99372
3.4577532739785966,0,0,1.2138602416992186,0,0,1.5288
3.460872424999252,0,0,1.4317325927734375,0,0,0.7644
3.463988130999496,0,0,1.350329736328125,0,0,0.7644
3.4670997450011782,0,0,1.1875240234375,0,0,0.6115200000000001
3.4702144699986093,0,0,1.2282254516601563,0,0,0.53508
3.4733287319832016,0,0,1.5634136840820312,0,0,0.6115200000000001
3.476444845990045,0,0,1.2904746948242187,0,0,0.99372
3.479559589002747,0,0,1.1180921752929687,0,0,0.84084
3.482699906977359,0,0,1.4245499877929686,0,0,0.7644
3.4858268719981425,0,0,1.3551181396484375,0,0,0.84084
3.4889415049983654,0,0,1.216254443359375,0,0,0.7644
3.4920662849908695,0,0,1.2330138549804688,0,0,0.68796
3.4951808429905213,0,0,1.1659762084960936,0,0,0.53508
3.4982957169995643,0,0,1.35990654296875,0,0,0.30576000000000003
3.5014092559868004,0,0,1.4437036010742186,0,0,0.68796
3.504526629985776,0,0,1.5682020874023437,0,0,0.3822
3.5076430769986473,0,0,1.3455413330078123,0,0,0.91728
3.510756504983874,0,0,1.3024457031249999,0,0,0.68796
3.513870285998564,0,0,1.465251416015625,0,0,0.53508
3.516986584989354,0,0,1.2928688964843749,0,0,0.30576000000000003
3.520102031994611,0,0,1.0845733520507812,0,0,0.15288000000000002
3.523321792978095,0,0,1.5107412475585937,0,0,1.07016
3.526470609998796,0,0,1.0726023437499999,0,0,0.68796
3.52956153897685,0,0,1.16837041015625,0,0,1.2230400000000001
3.5326527089928277,0,0,1.3718775512695311,0,0,0.68796
3.5357581930002198,0,0,1.1013327636718748,0,0,0.68796
3.5388658070005476,0,0,1.177947216796875,0,0,0.68796
3.5419734029856045,0,0,1.5227122558593749,0,0,0.6115200000000001
3.5451102389779408,0,0,1.66636435546875,0,0,0.84084
3.5482131299795583,0,0,1.1755530151367186,0,0,0.6115200000000001
3.551296021993039,0,0,1.0917559570312498,0,0,0.91728
3.554405061993748,0,0,1.2928688964843749,0,0,0.91728
3.5575426569848787,0,0,1.1827356201171875,0,0,0.99372
3.56066841899883,0,0,1.1324573852539062,0,0,0.0
3.56378018099349,0,0,1.2330138549804688,0,0,0.7644
3.566884054976981,0,0,1.2832920898437499,0,0,0.53508
3.569989686977351,0,0,1.2808978881835937,0,0,0.84084
3.573376575979637,0,0,1.5035586425781249,0,0,0.7644
3.5764897449989803,0,0,1.5849614990234373,0,0,1.2230400000000001
3.579625080979895,0,0,1.1156979736328125,0,0,1.2230400000000001
3.5827334909990896,0,0,1.24498486328125,0,0,0.68796
3.5858398459968157,0,0,1.6328455322265625,0,0,0.53508
3.588946367002791,0,0,1.189918225097656,0,0,0.22932
3.5920541109808255,0,0,1.3144167114257812,0,0,0.0
3.59515626198845,0,0,1.3431471313476562,0,0,1.1465999999999998
3.5982637089909986,0,0,1.189918225097656,0,0,1.5288
3.6013701199844945,0,0,1.2378022583007813,0,0,1.45236
3.6044771779852454,0,0,1.369483349609375,0,0,0.99372
3.607654179999372,0,0,1.1156979736328125,0,0,0.6115200000000001
3.610766960977344,0,0,1.3168109130859373,0,0,0.53508
3.613860315992497,0,0,1.4341267944335936,0,0,0.91728
3.616949595976621,0,0,1.6424223388671875,0,0,0.91728
3.6200491919880733,0,0,1.0845733520507812,0,0,0.68796
3.6231493239756674,0,0,1.20667763671875,0,0,1.1465999999999998
3.6262526419886854,0,0,1.149216796875,0,0,0.68796
3.6293538860045373,0,0,1.1851298217773436,0,0,0.91728
3.632456128980266,0,0,1.2306196533203124,0,0,0.07644000000000001
3.635559909977019,0,0,1.2569558715820313,0,0,2.2931999999999997
3.638661727978615,0,0,1.2210428466796874,0,0,0.45864
3.64178841598914,0,0,1.0773907470703123,0,0,0.91728
3.6448932329949457,0,0,1.419761584472656,0,0,0.99372
3.6479981250013225,0,0,1.5370774658203123,0,0,1.2230400000000001
3.6510985719796736,0,0,1.0749965454101562,0,0,0.91728
3.6542008349788375,0,0,1.2401964599609374,0,0,0.68796
3.6573036889894865,0,0,1.3024457031249999,0,0,0.68796
3.660435914003756,0,0,1.2042834350585936,0,0,0.30576000000000003
3.6635416019998956,0,0,1.3359645263671873,0,0,0.0
3.666643586999271,0,0,1.0989385620117187,0,0,0.99372
3.6697458119888324,0,0,1.209071838378906,0,0,0.91728
3.6728400549909566,0,0,1.0749965454101562,0,0,1.1465999999999998
3.6759391139785293,0,0,1.5131354492187499,0,0,0.68796
3.679041208990384,0,0,1.4317325927734375,0,0,1.07016
3.683782379986951,0,0,1.1061211669921875,0,0,1.07016
3.6877995949762408,0,0,1.2808978881835937,0,0,0.6115200000000001
3.6910377809836064,0,0,1.3407529296874998,0,0,0.30576000000000003
3.6942302279931027,0,0,1.0031704956054688,0,0,0.30576000000000003
3.6973481009772513,0,0,1.3192051147460937,0,0,0.91728
3.7004461959877517,0,0,1.149216796875,0,0,1.1465999999999998
3.703554161998909,0,0,1.180341418457031,0,0,1.5288
3.7066700540017337,0,0,1.5083470458984374,0,0,0.53508
3.7097645569883753,0,0,1.3215993164062498,0,0,1.37592
3.712877671001479,0,0,1.1851298217773436,0,0,0.53508
3.7159928399778437,0,0,1.369483349609375,0,0,0.68796
3.719106231990736,0,0,1.5107412475585937,0,0,0.7644
3.722218326991424,0,0,1.24498486328125,0,0,0.6115200000000001
3.725332570989849,0,0,1.2138602416992186,0,0,0.7644
3.728448406996904,0,0,1.369483349609375,0,0,0.84084
3.7315623909817077,0,0,1.2425906616210938,0,0,0.84084
3.7346741709916387,0,0,1.120486376953125,0,0,-9.24924
3.7377863409928977,0,0,1.5155296508789062,0,0,0.84084
3.740936342976056,0,0,1.3718775512695311,0,0,0.84084
3.744075623981189,0,0,1.13006318359375,0,0,0.3822
3.747189162997529,0,0,1.3335703247070312,0,0,1.1465999999999998
3.7503050550003536,0,0,1.4030021728515625,0,0,0.91728
3.7534195949847344,0,0,1.1109095703125,0,0,0.99372
3.756568190001417,0,0,1.39821376953125,0,0,0.45864
3.759785190981347,0,0,1.429338391113281,0,0,0.91728
3.762733102979837,0,0,1.2617442749023438,0,0,0.68796
3.7655295729928184,0,0,1.2114660400390624,0,0,1.60524
3.768328134989133,0,0,1.3335703247070312,0,0,0.84084
3.77112195600057,0,0,1.6256629272460936,0,0,1.1465999999999998
3.7739173139852937,0,0,1.1228805786132812,0,0,0.7644
3.776712338993093,0,0,1.3024457031249999,0,0,0.7644
3.7795099189970642,0,0,1.3766659545898436,0,0,2.14032
3.7823054989858065,0,0,1.1252747802734375,0,0,0.53508
3.785100634995615,0,0,1.2210428466796874,0,0,0.30576000000000003
3.787899289978668,0,0,1.4341267944335936,0,0,0.84084
3.7906934630009346,0,0,1.6735469604492186,0,0,0.3822
3.7935366529854946,0,0,1.2689268798828124,0,0,0.6115200000000001
3.7963402890018187,0,0,1.1635820068359375,0,0,0.84084
3.7991356469865423,0,0,1.5203180541992187,0,0,0.6115200000000001
3.8019303570035845,0,0,1.458068811035156,0,0,0.84084
3.804715326987207,0,0,1.1563994018554686,0,0,0.7644
3.810461838002084,0,0,1.4820108276367188,0,0,0.99372
3.8133183799800463,0,0,1.2138602416992186,0,0,1.07016
3.816113904991653,0,0,1.3431471313476562,0,0,0.53508
3.8189080040028784,0,0,1.467645617675781,0,0,0.68796
3.821729305986082,0,0,1.5801730957031248,0,0,0.84084
3.8245246459846385,0,0,1.0773907470703123,0,0,0.45864
3.827317855990259,0,0,1.3359645263671873,0,0,0.22932
3.830140398989897,0,0,1.455674609375,0,0,0.68796
3.832934423990082,0,0,1.35990654296875,0,0,-9.01992
3.835743634001119,0,0,1.216254443359375,0,0,0.7644
3.838535121001769,0,0,1.3168109130859373,0,0,0.84084
3.84145344098215,0,0,1.3144167114257812,0,0,2.36964
3.8442501509853173,0,0,1.3455413330078123,0,0,1.1465999999999998
3.847042175999377,0,0,1.0869675537109373,0,0,1.5288
3.8498378669901285,0,0,1.426944189453125,0,0,0.99372
3.8526318179792725,0,0,1.6519991455078125,0,0,0.68796
3.8554269169981126,0,0,1.1085153686523437,0,0,0.53508
3.8582214969792403,0,0,1.0749965454101562,0,0,0.3822
3.861108779994538,0,0,1.4413093994140624,0,0,0.91728
3.8641764689818956,0,0,1.5011644409179687,0,0,0.84084
3.8672884159896057,0,0,1.0726023437499999,0,0,1.37592
3.870398473984096,0,0,1.4053963745117186,0,0,0.68796
3.8736363829812035,0,0,1.3168109130859373,0,0,0.7644
3.8767582009895705,0,0,1.1372457885742187,0,0,0.45864
3.8798763520026114,0,0,1.3144167114257812,0,0,0.53508
3.882991299004061,0,0,1.5059528442382812,0,0,0.7644
3.8861070050043054,0,0,1.2330138549804688,0,0,0.68796
3.8892225819872692,0,0,1.3168109130859373,0,0,0.91728
3.8923401219944935,0,0,1.458068811035156,0,0,1.07016
3.895485032000579,0,0,1.3383587280273437,0,0,0.84084
3.898581163986819,0,0,1.177947216796875,0,0,0.22932
3.9016967229836155,0,0,1.4508862060546874,0,0,0.6115200000000001
3.9048103370005265,0,0,1.2617442749023438,0,0,0.53508
3.9079239509883337,0,0,1.1923124267578125,0,0,0.45864
3.9110328419774305,0,0,1.3000515014648437,0,0,0.68796
3.914145307993749,0,0,1.3048399047851562,0,0,1.2994800000000002
3.91725714399945,0,0,1.3766659545898436,0,0,-8.7906
3.920373535976978,0,0,1.2138602416992186,0,0,0.99372
3.923487686988665,0,0,1.5298948608398437,0,0,0.6115200000000001
3.9265996890026145,0,0,1.3383587280273437,0,0,0.6115200000000001
3.929711395991035,0,0,1.3670891479492187,0,0,0.07644000000000001
3.9328474909998477,0,0,1.3359645263671873,0,0,0.99372
3.9359614010027144,0,0,1.180341418457031,0,0,0.6115200000000001
3.939097125985427,0,0,1.1635820068359375,0,0,1.07016
3.9437523709784728,0,0,1.3646949462890625,0,0,0.68796
3.9468710589862894,0,0,1.1468225952148436,0,0,1.2230400000000001
3.950013098976342,0,0,1.1444283935546875,0,0,0.22932
3.953109545982443,0,0,1.2473790649414063,0,0,0.7644
3.956213659985224,0,0,1.2210428466796874,0,0,0.6115200000000001
3.959352254983969,0,0,1.1013327636718748,0,0,0.7644
3.96246433199849,0,0,1.43652099609375,0,0,2.06388
3.965569408988813,0,0,1.675941162109375,0,0,1.07016
3.9686619119893294,0,0,1.139639990234375,0,0,0.91728
3.9717638589791022,0,0,1.2306196533203124,0,0,0.68796
3.974864935997175,0,0,1.3742717529296875,0,0,0.30576000000000003
3.977967216982506,0,0,1.1540052001953125,0,0,0.68796
3.981069941975875,0,0,1.3646949462890625,0,0,0.45864
3.984174092998728,0,0,1.2785036865234374,0,0,1.07016
3.987428464984987,0,0,1.0773907470703123,0,0,1.1465999999999998
3.9905354859947693,0,0,1.2234370483398436,0,0,1.07016
3.993643247988075,0,0,1.4149731811523436,0,0,0.7644
3.996736583998427,0,0,1.5825672973632812,0,0,1.07016
3.9998369019886013,0,0,1.2521674682617188,0,0,0.22932
4.002939553000033,0,0,1.2904746948242187,0,0,0.45864
4.006043037981726,0,0,1.5897499023437498,0,0,0.45864
4.009146225987934,0,0,1.0797849487304687,0,0,0.99372
4.012252432003152,0,0,1.2952630981445312,0,0,0.6115200000000001
4.015449637983693,0,0,1.3000515014648437,0,0,0.7644
4.018593713990413,0,0,1.2928688964843749,0,0,0.7644
4.021706253988668,0,0,1.1516109985351561,0,0,0.53508
4.024817034980515,0,0,1.4149731811523436,0,0,0.7644
4.0280928509891964,0,0,1.1252747802734375,0,0,0.6115200000000001
4.0312256119796075,0,0,1.3742717529296875,0,0,1.1465999999999998
4.034499927976867,0,0,1.5011644409179687,0,0,0.68796
4.0376019869872835,0,0,1.438915197753906,0,0,0.84084
4.040720174991293,0,0,1.0965443603515623,0,0,0.0
4.043836825992912,0,0,1.3455413330078123,0,0,0.68796
4.046949957992183,0,0,1.5011644409179687,0,0,0.53508
4.05006351598422,0,0,1.216254443359375,0,0,0.6115200000000001
4.053179501002887,0,0,1.3263877197265623,0,0,0.68796
4.056295725982636,0,0,1.2617442749023438,0,0,0.84084
4.05940983898472,0,0,1.3168109130859373,0,0,0.91728
4.062527360976674,0,0,1.1372457885742187,0,0,0.7644
4.065642289002426,0,0,1.4341267944335936,0,0,0.84084
4.068755496002268,0,0,1.3120225097656248,0,0,0.3822
4.071870664978633,0,0,1.1923124267578125,0,0,0.07644000000000001
4.074982130987337,0,0,1.4030021728515625,0,0,0.7644
4.078095799981384,0,0,1.4628572143554686,0,0,1.37592
4.081248357979348,0,0,1.1827356201171875,0,0,0.84084
4.0843681569967885,0,0,1.3742717529296875,0,0,0.99372
4.087516011990374,0,0,1.2952630981445312,0,0,0.68796
4.090631773986388,0,0,1.1947066284179686,0,0,0.07644000000000001
4.09376320199226,0,0,1.1228805786132812,0,0,0.07644000000000001
4.096879222983262,0,0,1.2665326782226562,0,0,0.99372
4.099995818978641,0,0,1.1923124267578125,0,0,0.7644
4.10311117299716,0,0,1.20667763671875,0,0,1.37592
4.1062256949953735,0,0,1.4030021728515625,0,0,0.68796
4.109339771996019,0,0,1.4724340209960938,0,0,1.07016
4.112454107991653,0,0,0.9888052856445312,0,0,0.7644
4.115599276992725,0,0,1.2593500732421874,0,0,0.68796
4.118712797993794,0,0,1.4915876342773438,0,0,0.68796
4.121826485992642,0,0,1.0749965454101562,0,0,0.53508
4.124942006979836,0,0,1.3455413330078123,0,0,0.53508
4.128057177003939,0,0,1.3407529296874998,0,0,0.91728
4.131192900997121,0,0,1.3383587280273437,0,0,1.2230400000000001
4.134306737978477,0,0,1.1133037719726562,0,0,1.2994800000000002
4.137419462989783,0,0,1.3814543579101561,0,0,0.53508
4.1405602429877035,0,0,1.4939818359375,0,0,0.53508
4.143666745978408,0,0,1.1659762084960936,0,0,0.0
4.146756359987194,0,0,1.3479355346679687,0,0,0.84084
4.149872326001059,0,0,1.4700398193359374,0,0,0.99372
4.152985438995529,0,0,1.0462661254882812,0,0,0.91728
4.15610199799994,0,0,1.3120225097656248,0,0,0.99372
4.159213612001622,0,0,1.5107412475585937,0,0,0.6115200000000001
4.162359835987445,0,0,1.2761094848632812,0,0,0.68796
4.165476042981027,0,0,1.1659762084960936,0,0,-0.3822
4.16859693400329,0,0,1.455674609375,0,0,0.7644
4.171723937004572,0,0,1.2306196533203124,0,0,0.84084
4.174833420984214,0,0,1.216254443359375,0,0,0.68796
4.177930831996491,0,0,1.4053963745117186,0,0,0.68796
4.181051259976812,0,0,1.3192051147460937,0,0,1.1465999999999998
4.184166410996113,0,0,1.189918225097656,0,0,0.84084
4.187275320990011,0,0,1.2737152832031249,0,0,0.68796
4.190436139004305,0,0,1.5083470458984374,0,0,1.45236
4.19552980500157,0,0,1.3048399047851562,0,0,1.2230400000000001
4.198648066987516,0,0,1.4173673828125,0,0,0.68796
4.2017616069933865,0,0,1.2928688964843749,0,0,1.07016
4.204876720003085,0,0,1.120486376953125,0,0,0.7644
4.20798894498148,0,0,1.5203180541992187,0,0,0.30576000000000003
4.211135243996978,0,0,1.6543933471679686,0,0,0.68796
4.214316486992175,0,0,1.3192051147460937,0,0,0.6115200000000001
4.217419044987764,0,0,1.2210428466796874,0,0,1.1465999999999998
4.220518825983163,0,0,1.2378022583007813,0,0,1.2230400000000001
4.223640718002571,0,0,1.199495031738281,0,0,1.1465999999999998
4.226728960988112,0,0,1.158793603515625,0,0,0.99372
4.229841778986156,0,0,1.369483349609375,0,0,0.53508
4.232989077980164,0,0,1.1013327636718748,0,0,0.15288000000000002
4.236108561977744,0,0,1.3192051147460937,0,0,0.45864
4.239224342978559,0,0,1.5059528442382812,0,0,1.07016
4.24234065998462,0,0,1.5610194824218748,0,0,0.68796
4.245453180978075,0,0,1.1037269653320312,0,0,0.91728
4.248570369003573,0,0,1.3527239379882812,0,0,0.6115200000000001
4.251692538993666,0,0,1.5203180541992187,0,0,0.53508
4.254806726996321,0,0,1.2904746948242187,0,0,0.53508
4.257920228992589,0,0,1.1324573852539062,0,0,-0.15288000000000002
4.261072453984525,0,0,1.2425906616210938,0,0,0.91728
4.264188622997608,0,0,1.189918225097656,0,0,0.68796
4.267301996995229,0,0,1.3335703247070312,0,0,0.68796
4.270399943983648,0,0,1.39821376953125,0,0,0.84084
4.273534464999102,0,0,1.5729904907226562,0,0,1.07016
4.276650541985873,0,0,1.1923124267578125,0,0,0.84084
4.279765081999358,0,0,1.467645617675781,0,0,0.7644
4.282878454978345,0,0,1.6065093139648436,0,0,0.91728
4.285977697989438,0,0,1.1635820068359375,0,0,0.45864
4.289091589977033,0,0,1.1037269653320312,0,0,0.53508
4.292205685982481,0,0,1.2976572998046874,0,0,0.99372
4.295316559000639,0,0,1.0749965454101562,0,0,0.45864
4.298981351981638,0,0,1.3192051147460937,0,0,0.15288000000000002
4.302109427982941,0,0,1.2761094848632812,0,0,1.07016
4.305223893985385,0,0,1.197100830078125,0,0,0.6115200000000001
4.308338545000879,0,0,1.1516109985351561,0,0,0.91728
4.311491843982367,0,0,1.4030021728515625,0,0,0.6115200000000001
4.31460671700188,0,0,1.2330138549804688,0,0,0.99372
4.317723460000707,0,0,1.1276689819335937,0,0,0.7644
4.320842351997271,0,0,1.2617442749023438,0,0,0.84084
4.323957631975645,0,0,1.6304513305664061,0,0,0.45864
4.327070597995771,0,0,1.158793603515625,0,0,0.30576000000000003
4.330207785998937,0,0,1.254561669921875,0,0,0.6115200000000001
4.333322140999371,0,0,1.2785036865234374,0,0,0.91728
4.336437272984767,0,0,1.1420341918945311,0,0,0.91728
4.339552497986006,0,0,1.1516109985351561,0,0,1.1465999999999998
4.342666444979841,0,0,1.5227122558593749,0,0,0.3822
4.345797576999757,0,0,1.189918225097656,0,0,1.911
4.348914042988326,0,0,1.3670891479492187,0,0,0.45864
4.3520293239853345,0,0,1.4700398193359374,0,0,0.7644
4.355142677988624,0,0,1.668758557128906,0,0,0.53508
4.358258310996462,0,0,1.3623007446289062,0,0,0.3822
4.361407702002907,0,0,1.218648645019531,0,0,0.91728
4.364524667995283,0,0,1.5035586425781249,0,0,0.99372
4.367641429998912,0,0,1.3239935180664062,0,0,1.07016
4.370753506984329,0,0,1.199495031738281,0,0,0.91728
4.373868712980766,0,0,1.2425906616210938,0,0,0.6115200000000001
4.37698171599186,0,0,1.3048399047851562,0,0,0.7644
4.380097532994114,0,0,1.1085153686523437,0,0,0.30576000000000003
4.383209628984332,0,0,1.4030021728515625,0,0,0.84084
4.386323519982398,0,0,1.5921441040039062,0,0,1.1465999999999998
4.38943667098647,0,0,1.0917559570312498,0,0,0.91728
4.392600099003175,0,0,1.2497732666015624,0,0,0.53508
4.395712027995614,0,0,1.5394716674804687,0,0,0.3822
4.398801493982319,0,0,1.3431471313476562,0,0,0.3822
4.4019162750046235,0,0,1.1851298217773436,0,0,0.0
4.4050274069886655,0,0,1.4867992309570313,0,0,1.07016
4.408139206003398,0,0,1.209071838378906,0,0,0.84084
4.4112843009934295,0,0,1.2593500732421874,0,0,0.91728
4.414440506981919,0,0,1.4724340209960938,0,0,0.91728
4.417539880989352,0,0,1.235408056640625,0,0,0.7644
4.420638605981367,0,0,1.3407529296874998,0,0,0.7644
4.423735552991275,0,0,1.426944189453125,0,0,0.68796
4.426853166980436,0,0,1.6424223388671875,0,0,0.6115200000000001
4.429948502976913,0,0,1.2785036865234374,0,0,0.7644
4.4330448399996385,0,0,1.2138602416992186,0,0,0.45864
4.4361520649981685,0,0,1.2593500732421874,0,0,0.99372
4.439264938002452,0,0,1.2904746948242187,0,0,0.7644
4.4440544589888304,0,0,1.2713210815429687,0,0,0.91728
4.447189258004073,0,0,1.4317325927734375,0,0,0.6115200000000001
4.450303408986656,0,0,1.139639990234375,0,0,0.0
4.453415744996164,0,0,1.0869675537109373,0,0,0.07644000000000001
4.456532062991755,0,0,1.2401964599609374,0,0,0.99372
4.459713305986952,0,0,1.2952630981445312,0,0,0.68796
4.462861751992023,0,0,1.1133037719726562,0,0,1.2994800000000002
4.466021254978841,0,0,1.419761584472656,0,0,1.07016
4.469142312998883,0,0,1.47482822265625,0,0,1.1465999999999998
4.472421999002108,0,0,1.2521674682617188,0,0,0.22932
4.475566389999585,0,0,1.4891934326171874,0,0,1.07016
4.478742243984016,0,0,1.4891934326171874,0,0,0.6115200000000001
4.481850839976687,0,0,1.1085153686523437,0,0,0.84084
4.484957916982239,0,0,1.254561669921875,0,0,0.99372
4.488064844976179,0,0,1.3263877197265623,0,0,0.6115200000000001
4.491167051979573,0,0,1.2952630981445312,0,0,0.3822
4.494271387986373,0,0,1.1707646118164061,0,0,0.3822
4.497398001985857,0,0,1.235408056640625,0,0,0.99372
