Time,AccelX1,AccelY1,AccelZ1,AccelX2,AccelY2,AccelZ2
4.8140063881874084e-06,0,0,1.35990654296875,0,0,0.99372
0.0036631329858209938,0,0,1.139639990234375,0,0,0.7644
0.007254230993567035,0,0,1.5059528442382812,0,0,0.91728
0.010883587005082518,0,0,1.2210428466796874,0,0,0.91728
0.014418815000681207,0,0,1.1947066284179686,0,0,0.6115200000000001
0.017935951007530093,0,0,1.3934253662109375,0,0,1.1465999999999998
0.021449586987728253,0,0,1.5155296508789062,0,0,0.84084
0.025051128992345184,0,0,1.1875240234375,0,0,0.68796
0.0286575409991201,0,0,1.4939818359375,0,0,0.84084
0.032187120988965034,0,0,1.254561669921875,0,0,0.22932
0.03569757199147716,0,0,1.1635820068359375,0,0,0.91728
0.03925878100562841,0,0,1.4173673828125,0,0,0.68796
0.04277347199968062,0,0,1.2617442749023438,0,0,0.68796
0.04628257098374888,0,0,1.1324573852539062,0,0,0.6115200000000001
0.049794874008512124,0,0,1.5155296508789062,0,0,0.53508
0.053303064982173964,0,0,1.2617442749023438,0,0,0.84084
0.05685914499917999,0,0,1.2018892333984375,0,0,0.7644
0.06017876500845887,0,0,1.2761094848632812,0,0,0.91728
0.06333442399045452,0,0,1.3623007446289062,0,0,0.45864
0.06645004698657431,0,0,1.2713210815429687,0,0,0.68796
0.06956455900217406,0,0,1.3742717529296875,0,0,0.99372
0.07275021699024364,0,0,1.3742717529296875,0,0,0.99372
0.07594559798599221,0,0,1.3742717529296875,0,0,0.7644
0.07909412798471749,0,0,1.3718775512695311,0,0,0.53508
0.0822095469920896,0,0,1.3120225097656248,0,0,0.68796
0.08532515200204216,0,0,1.2665326782226562,0,0,0.53508
0.08844549700734206,0,0,1.235408056640625,0,0,0.91728
0.09156963799614459,0,0,1.3431471313476562,0,0,1.1465999999999998
0.09468164999270812,0,0,1.4101847778320311,0,0,0.68796
0.09779643898946233,0,0,1.2018892333984375,0,0,0.68796
0.10091080298298039,0,0,1.2976572998046874,0,0,0.30576000000000003
0.10402505600359291,0,0,1.4891934326171874,0,0,0.91728
0.10722888098098338,0,0,1.4820108276367188,0,0,0.6115200000000001
0.11040194699307904,0,0,1.1420341918945311,0,0,0.6115200000000001
0.1135179589909967,0,0,1.3623007446289062,0,0,0.84084
0.11663195199798793,0,0,1.448492004394531,0,0,0.68796
0.11985903698951006,0,0,1.0726023437499999,0,0,0.84084
0.1229761409922503,0,0,1.3192051147460937,0,0,0.68796
0.1260883009817917,0,0,1.2282254516601563,0,0,0.68796
0.12923127500107512,0,0,1.5251064575195312,0,0,0.6115200000000001
0.1323289719875902,0,0,1.2306196533203124,0,0,0.91728
0.13543578100507148,0,0,1.3431471313476562,0,0,0.22932
0.13854264398105443,0,0,1.2641384765625,0,0,0.91728
0.141649730008794,0,0,1.2952630981445312,0,0,0.84084
0.14475755699095316,0,0,1.2210428466796874,0,0,0.91728
0.14785842099809088,0,0,1.5107412475585937,0,0,0.68796
0.15094202500768006,0,0,1.446097802734375,0,0,1.07016
0.15404994500568137,0,0,1.3670891479492187,0,0,0.6115200000000001
0.1571882150019519,0,0,1.2880804931640624,0,0,0.6115200000000001
0.16029372700722888,0,0,1.2282254516601563,0,0,0.84084
0.16339881299063563,0,0,1.20667763671875,0,0,0.6115200000000001
0.16666452700155787,0,0,1.2569558715820313,0,0,0.91728
0.16977516800398007,0,0,1.43652099609375,0,0,0.84084
0.17291795698110946,0,0,1.3646949462890625,0,0,0.7644
0.17601995100267231,0,0,1.2521674682617188,0,0,0.68796
0.17911781399743631,0,0,1.3024457031249999,0,0,0.3822
0.1822256970044691,0,0,1.2593500732421874,0,0,0.84084
0.18533257898525335,0,0,1.2737152832031249,0,0,0.53508
0.18843888700939715,0,0,1.0797849487304687,0,0,0.91728
0.19156119498074986,0,0,1.2378022583007813,0,0,1.07016
0.1946465960063506,0,0,1.199495031738281,0,0,0.91728
0.19785010698251426,0,0,1.1348515869140625,0,0,0.53508
0.20096561798709445,0,0,1.3766659545898436,0,0,0.99372
0.20409070400637574,0,0,1.2976572998046874,0,0,0.99372
0.20720275299390778,0,0,1.3527239379882812,0,0,0.7644
0.2103171719936654,0,0,1.2976572998046874,0,0,0.91728
0.21341996200499125,0,0,1.429338391113281,0,0,0.99372
0.21652228900347836,0,0,1.2761094848632812,0,0,0.45864
0.21962552299373783,0,0,1.1276689819335937,0,0,0.7644
0.2227287199930288,0,0,1.4053963745117186,0,0,0.7644
0.225830584007781,0,0,1.4724340209960938,0,0,0.99372
0.2289327069884166,0,0,1.3383587280273437,0,0,0.7644
0.23203942200052552,0,0,1.2641384765625,0,0,1.1465999999999998
0.235142655990785,0,0,1.4891934326171874,0,0,0.99372
0.2382475019840058,0,0,1.3192051147460937,0,0,0.68796
0.24135086499154568,0,0,1.139639990234375,0,0,0.68796
0.2444541000004392,0,0,1.2761094848632812,0,0,0.53508
0.24756264800089411,0,0,1.4963760375976562,0,0,0.68796
0.25066223499015905,0,0,1.3455413330078123,0,0,0.68796
0.2537648209836334,0,0,1.2282254516601563,0,0,0.7644
0.25690399899031036,0,0,1.3455413330078123,0,0,0.7644
0.26001012200140394,0,0,1.2904746948242187,0,0,0.7644
0.2631118560093455,0,0,1.1228805786132812,0,0,0.7644
0.26621279399842024,0,0,1.448492004394531,0,0,0.6115200000000001
0.26934121298836544,0,0,1.2282254516601563,0,0,0.6115200000000001
0.2724453909904696,0,0,1.2952630981445312,0,0,0.91728
0.2755472179851495,0,0,1.0869675537109373,0,0,0.6115200000000001
0.27868180398945697,0,0,1.4030021728515625,0,0,0.6115200000000001
0.28184455598238856,0,0,1.218648645019531,0,0,0.7644
0.2849424190062564,0,0,1.2521674682617188,0,0,0.7644
0.28804770900751464,0,0,1.4987702392578124,0,0,0.68796
0.2911766649922356,0,0,1.22583125,0,0,0.84084
0.2942842699994799,0,0,1.2761094848632812,0,0,0.84084
0.2973962999822106,0,0,1.2808978881835937,0,0,0.45864
0.30050394099089317,0,0,1.3239935180664062,0,0,0.6115200000000001
0.30361297199851833,0,0,1.0773907470703123,0,0,0.99372
0.306716391001828,0,0,1.209071838378906,0,0,0.7644
0.30982308799866587,0,0,1.4341267944335936,0,0,0.6115200000000001
0.3129304150061216,0,0,1.4700398193359374,0,0,0.84084
0.31603685300797224,0,0,1.2641384765625,0,0,0.6115200000000001
0.31914567900821567,0,0,1.1085153686523437,0,0,0.68796
0.3222808020072989,0,0,1.3862427612304686,0,0,0.6115200000000001
0.3253877949900925,0,0,1.2497732666015624,0,0,0.7644
0.32849517799331807,0,0,1.2617442749023438,0,0,0.6115200000000001
0.3316041890066117,0,0,1.3120225097656248,0,0,0.6115200000000001
0.3347080899984576,0,0,1.3263877197265623,0,0,1.1465999999999998
0.33781547300168313,0,0,1.1516109985351561,0,0,0.68796
0.3409247990057338,0,0,1.3215993164062498,0,0,0.3822
0.3440321439993568,0,0,1.2473790649414063,0,0,0.68796
0.3471409530029632,0,0,1.149216796875,0,0,1.37592
0.3502475389977917,0,0,1.1635820068359375,0,0,0.68796
0.3533559209899977,0,0,1.5251064575195312,0,0,0.68796
0.3564700989809353,0,0,1.3623007446289062,0,0,0.6115200000000001
0.35965290598687716,0,0,1.2976572998046874,0,0,0.84084
0.36279675099649467,0,0,1.2617442749023438,0,0,0.7644
0.3659046149987262,0,0,1.2665326782226562,0,0,0.7644
0.36904379300540313,0,0,1.3766659545898436,0,0,0.68796
0.3721450089942664,0,0,1.2904746948242187,0,0,0.99372
0.37525727998581715,0,0,1.3910311645507811,0,0,0.99372
0.3783648289972916,0,0,1.1228805786132812,0,0,0.84084
0.3814725069969427,0,0,1.3359645263671873,0,0,0.7644
0.38458290800917894,0,0,1.3575123413085937,0,0,0.7644
0.3876838639844209,0,0,1.2521674682617188,0,0,0.84084
0.3907664509897586,0,0,1.3742717529296875,0,0,0.84084
0.3938777589937672,0,0,1.3718775512695311,0,0,1.2230400000000001
0.3969874189933762,0,0,1.4317325927734375,0,0,0.91728
0.40009685599943623,0,0,1.4939818359375,0,0,0.99372
0.4032110160042066,0,0,1.209071838378906,0,0,0.53508
0.406319269008236,0,0,1.3168109130859373,0,0,0.91728
0.4094325029873289,0,0,1.3575123413085937,0,0,0.99372
0.41254186700098217,0,0,1.3168109130859373,0,0,0.84084
0.4156999519909732,0,0,1.3287819213867187,0,0,1.2230400000000001
0.4188130749971606,0,0,1.419761584472656,0,0,0.99372
0.4219202529930044,0,0,1.429338391113281,0,0,0.84084
0.4250153019966092,0,0,1.2473790649414063,0,0,0.84084
0.42811855499166995,0,0,1.3144167114257812,0,0,0.84084
0.43122538199531846,0,0,1.4101847778320311,0,0,0.84084
0.4343307270028163,0,0,1.3120225097656248,0,0,0.68796
0.4374376279884018,0,0,1.3144167114257812,0,0,0.7644
0.440531028987607,0,0,1.235408056640625,0,0,0.68796
0.44363418899592943,0,0,1.1947066284179686,0,0,0.68796
0.4467395159881562,0,0,1.0797849487304687,0,0,0.53508
0.4498489160032477,0,0,1.3215993164062498,0,0,0.7644
0.45298427998204716,0,0,1.2665326782226562,0,0,0.68796
0.4560919769864995,0,0,1.3383587280273437,0,0,2.14032
0.4592331179883331,0,0,1.2832920898437499,0,0,0.99372
0.4623392219946254,0,0,1.3551181396484375,0,0,0.91728
0.46546282700728625,0,0,1.0797849487304687,0,0,0.91728
0.46857120899949223,0,0,1.177947216796875,0,0,0.30576000000000003
0.4716830170073081,0,0,1.4700398193359374,0,0,0.53508
0.47478700999636203,0,0,1.3024457031249999,0,0,0.7644
0.4778940219839569,0,0,1.2282254516601563,0,0,0.68796
0.4810018120042514,0,0,1.35990654296875,0,0,0.84084
0.484110878984211,0,0,1.2282254516601563,0,0,0.7644
0.48721783599467017,0,0,1.1875240234375,0,0,0.7644
0.4903228659823071,0,0,1.0869675537109373,0,0,0.7644
0.4934293779951986,0,0,1.3575123413085937,0,0,0.30576000000000003
0.49653570499503985,0,0,1.429338391113281,0,0,0.84084
0.4996446239820216,0,0,1.3646949462890625,0,0,0.68796
0.5027654320001602,0,0,1.2641384765625,0,0,0.6115200000000001
0.5152257010049652,0,0,1.5227122558593749,0,0,0.91728
0.518491544004064,0,0,1.419761584472656,0,0,0.84084
0.5216482779942453,0,0,1.2473790649414063,0,0,0.91728
0.5248071780079044,0,0,1.3742717529296875,0,0,0.53508
0.5279126339883078,0,0,1.3383587280273437,0,0,0.6115200000000001
0.5313225679856259,0,0,1.3072341064453123,0,0,0.84084
0.5345185599871911,0,0,1.3742717529296875,0,0,0.84084
0.537648886005627,0,0,1.465251416015625,0,0,0.91728
0.5407568049849942,0,0,1.3575123413085937,0,0,0.7644
0.5438697059871629,0,0,1.3000515014648437,0,0,0.6115200000000001
0.5469862729951274,0,0,1.4149731811523436,0,0,0.68796
0.5500968220003415,0,0,1.426944189453125,0,0,0.91728
0.5533784980070777,0,0,1.235408056640625,0,0,0.84084
0.5565818609902635,0,0,1.3718775512695311,0,0,0.68796
0.5597921299922746,0,0,1.4413093994140624,0,0,0.7644
0.5627269780088682,0,0,1.2928688964843749,0,0,1.07016
0.5655143089825287,0,0,1.1468225952148436,0,0,0.68796
0.5682989920023829,0,0,1.2904746948242187,0,0,0.45864
0.5711201750091277,0,0,1.3335703247070312,0,0,0.84084
0.5739320429856889,0,0,1.1659762084960936,0,0,0.68796
0.5767340399906971,0,0,1.2856862915039062,0,0,0.07644000000000001
0.5795341490011197,0,0,1.3479355346679687,0,0,-8.867040000000001
0.5823759979975875,0,0,1.3527239379882812,0,0,0.6115200000000001
0.5851835509820376,0,0,1.3168109130859373,0,0,0.3822
0.5880171229946427,0,0,1.3623007446289062,0,0,0.53508
0.5909413409826811,0,0,1.4245499877929686,0,0,0.7644
0.5937472269870341,0,0,1.438915197753906,0,0,0.91728
0.5965469660004601,0,0,1.22583125,0,0,0.68796
0.5993446109932847,0,0,1.3455413330078123,0,0,0.53508
0.6022221269959118,0,0,1.419761584472656,0,0,0.99372
0.605104604997905,0,0,1.3096283081054687,0,0,0.6115200000000001
0.6079406199860387,0,0,1.2473790649414063,0,0,0.84084
0.6108451159961987,0,0,1.2569558715820313,0,0,0.91728
0.6136953359819017,0,0,1.4173673828125,0,0,0.99372
0.6164998519816436,0,0,1.3215993164062498,0,0,0.84084
0.6193453120067716,0,0,1.2617442749023438,0,0,0.53508
0.6221394389867783,0,0,1.3072341064453123,0,0,1.75812
0.6249379369837698,0,0,1.2234370483398436,0,0,0.6115200000000001
0.6277359899831936,0,0,1.3527239379882812,0,0,0.6115200000000001
0.6305298399820458,0,0,1.254561669921875,0,0,0.68796
0.6333258189843036,0,0,1.22583125,0,0,0.53508
0.6361606499995105,0,0,1.3359645263671873,0,0,0.91728
0.6389564989949577,0,0,1.2737152832031249,0,0,0.6115200000000001
0.6417527190060355,0,0,1.3000515014648437,0,0,0.45864
0.6445517909887712,0,0,1.2928688964843749,0,0,0.7644
0.6473505290050525,0,0,1.3168109130859373,0,0,0.68796
0.6501720079977531,0,0,1.2737152832031249,0,0,0.68796
0.6530020049831364,0,0,1.3383587280273437,0,0,0.68796
0.6558249289810192,0,0,1.429338391113281,0,0,0.68796
0.6586244450008962,0,0,1.2808978881835937,0,0,0.99372
0.6615431259851903,0,0,1.2713210815429687,0,0,0.6115200000000001
0.6646229900070466,0,0,1.3168109130859373,0,0,0.91728
0.6677396869927179,0,0,1.458068811035156,0,0,0.84084
0.6708511059987359,0,0,1.2497732666015624,0,0,0.7644
0.673964747984428,0,0,1.3120225097656248,0,0,0.6115200000000001
0.6772711639932822,0,0,1.3000515014648437,0,0,0.53508
0.6805242109985556,0,0,1.35990654296875,0,0,0.84084
0.6837307960086036,0,0,1.1875240234375,0,0,0.6115200000000001
0.686859621986514,0,0,1.2473790649414063,0,0,0.45864
0.6899728009884711,0,0,1.22583125,0,0,0.84084
0.6930868859926704,0,0,1.2593500732421874,0,0,0.68796
0.6962017869809642,0,0,1.2282254516601563,0,0,0.7644
0.6993751499976497,0,0,1.5203180541992187,0,0,1.1465999999999998
0.7024893279885873,0,0,1.4963760375976562,0,0,0.91728
0.7056041739997454,0,0,1.3742717529296875,0,0,0.68796
0.7087176479981281,0,0,1.3000515014648437,0,0,0.45864
0.7118355490092654,0,0,1.2665326782226562,0,0,0.53508
0.7149813380092382,0,0,1.3263877197265623,0,0,0.84084
0.7180960719997529,0,0,1.2808978881835937,0,0,0.7644
0.7212373609945644,0,0,1.2521674682617188,0,0,0.99372
0.7243518909963313,0,0,1.455674609375,0,0,0.91728
0.7274677179811988,0,0,1.158793603515625,0,0,0.53508
0.730580119008664,0,0,1.2785036865234374,0,0,0.68796
0.733696481998777,0,0,1.3215993164062498,0,0,0.6115200000000001
0.7368109939852729,0,0,1.2425906616210938,0,0,0.68796
0.7399264870036859,0,0,1.3575123413085937,0,0,1.1465999999999998
0.7430702949932311,0,0,1.35990654296875,0,0,0.7644
0.7461846399819478,0,0,1.3742717529296875,0,0,1.1465999999999998
0.7492983370029833,0,0,1.1348515869140625,0,0,0.53508
0.7524097379937302,0,0,1.3359645263671873,0,0,0.99372
0.7555616009922232,0,0,1.3192051147460937,0,0,0.7644
0.7586774829833303,0,0,1.2401964599609374,0,0,0.7644
0.7618511419859715,0,0,1.2378022583007813,0,0,0.84084
0.7649662279873155,0,0,1.4604630126953124,0,0,0.84084
0.7680803879920859,0,0,1.2569558715820313,0,0,0.7644
0.7712761760049034,0,0,1.1133037719726562,0,0,1.07016
0.7743928359996062,0,0,1.3072341064453123,0,0,0.7644
0.7775088670023251,0,0,1.197100830078125,0,0,0.6115200000000001
0.7806237670010887,0,0,1.2785036865234374,0,0,0.68796
0.7837390569911804,0,0,1.2330138549804688,0,0,0.53508
0.7868515689915512,0,0,1.3311761230468748,0,0,0.84084
0.7907703279925045,0,0,1.2665326782226562,0,0,0.68796
0.7939243209839333,0,0,1.2282254516601563,0,0,0.91728
0.7970491099986248,0,0,1.4437036010742186,0,0,0.99372
0.8001648999925237,0,0,1.3455413330078123,0,0,0.91728
0.8033366150048096,0,0,1.1731588134765625,0,0,0.84084
0.8064532749995124,0,0,1.2378022583007813,0,0,0.84084
0.8095742489967961,0,0,1.4604630126953124,0,0,0.6115200000000001
0.8126914649910759,0,0,1.2330138549804688,0,0,0.53508
0.8158059020061046,0,0,1.3263877197265623,0,0,1.1465999999999998
0.818919654993806,0,0,1.4628572143554686,0,0,0.91728
0.8220337780076079,0,0,1.3048399047851562,0,0,0.7644
0.825149252981646,0,0,1.1252747802734375,0,0,0.68796
0.8283014489861671,0,0,1.2282254516601563,0,0,0.7644
0.8314164239855018,0,0,1.3239935180664062,0,0,0.7644
0.834537602000637,0,0,1.3287819213867187,0,0,0.7644
0.8376515029813163,0,0,1.2713210815429687,0,0,1.07016
0.8407661439850926,0,0,1.3311761230468748,0,0,0.99372
0.8438809519866481,0,0,1.0845733520507812,0,0,0.84084
0.8469951679871883,0,0,1.3431471313476562,0,0,0.84084
0.8501098649867345,0,0,1.3192051147460937,0,0,0.7644
0.8532226539973635,0,0,1.5203180541992187,0,0,0.6115200000000001
0.8564572939940263,0,0,1.22583125,0,0,0.7644
0.8596343600074761,0,0,1.2473790649414063,0,0,0.68796
0.8628646479919553,0,0,1.0821791503906248,0,0,0.7644
0.8659805679926649,0,0,1.2282254516601563,0,0,0.84084
0.869097338989377,0,0,1.0869675537109373,0,0,0.53508
0.8722136649885215,0,0,1.4317325927734375,0,0,0.53508
0.875364695006283,0,0,1.5179238525390624,0,0,1.07016
0.8784980769851245,0,0,1.9416975463867185,0,0,2.36964
0.8816229219955858,0,0,2.2074539306640624,0,0,1.45236
0.8847397670033388,0,0,2.511517541503906,0,0,1.60524
0.8878581669996493,0,0,2.003946789550781,0,0,0.53508
0.8909716790076345,0,0,1.2737152832031249,0,0,1.07016
0.8940880979935173,0,0,1.5849614990234373,0,0,1.75812
0.8972413869923912,0,0,1.7549498168945312,0,0,1.60524
0.9003548249893356,0,0,2.104503259277344,0,0,1.37592
0.903469299984863,0,0,1.8459294799804686,0,0,1.2994800000000002
0.906581682007527,0,0,1.687912170410156,0,0,1.2230400000000001
0.9096899349824525,0,0,1.7645266235351562,0,0,0.84084
0.9128434269805439,0,0,1.5418658691406248,0,0,1.07016
0.9159615320095327,0,0,1.6903063720703124,0,0,1.68168
0.9190789139829576,0,0,2.068590234375,0,0,1.45236
0.9221757040068042,0,0,1.5682020874023437,0,0,0.84084
0.925300678005442,0,0,2.0254946044921875,0,0,1.68168
0.9284157269867137,0,0,1.5921441040039062,0,0,0.6115200000000001
0.9315306649950799,0,0,1.6927005737304686,0,0,0.45864
0.9346424730028957,0,0,1.5418658691406248,0,0,1.07016
0.9377572250086814,0,0,1.6400281372070311,0,0,0.84084
0.940873145009391,0,0,1.9105729248046874,0,0,1.37592
0.9439892119844444,0,0,2.252943762207031,0,0,1.1465999999999998
0.9471033719892148,0,0,1.9943699829101562,0,0,0.7644
0.9502169390034396,0,0,2.0877438476562498,0,0,0.99372
0.9533685059868731,0,0,1.6448165405273436,0,0,0.30576000000000003
0.9565146649838425,0,0,1.2832920898437499,0,0,1.2994800000000002
0.9596348619961645,0,0,2.4756045166015626,0,0,2.36964
0.9627833369886503,0,0,1.695094775390625,0,0,0.91728
0.965898644994013,0,0,1.4101847778320311,0,0,1.07016
0.9690136380086187,0,0,2.6384102294921874,0,0,1.68168
0.9721327610022854,0,0,1.3215993164062498,0,0,0.30576000000000003
0.9752469210070558,0,0,1.0989385620117187,0,0,1.75812
0.9783596549823415,0,0,2.35589443359375,0,0,1.2230400000000001
0.9814736109983642,0,0,1.1659762084960936,0,0,1.2994800000000002
0.984587251994526,0,0,2.597708801269531,0,0,1.37592
0.9877029680064879,0,0,0.6967126831054687,0,0,0.99372
0.9908160349878017,0,0,1.407790576171875,0,0,2.14032
0.9939301209815312,0,0,2.2194249389648437,0,0,2.06388
0.9970436139847152,0,0,1.8770541015625,0,0,1.75812
1.0001611629850231,0,0,2.4779987182617185,0,0,1.1465999999999998
1.0033881359850056,0,0,1.2713210815429687,0,0,1.83456
1.0066357019823045,0,0,1.197100830078125,0,0,1.2994800000000002
1.0101865589967929,0,0,2.0877438476562498,0,0,0.0
1.013771600992186,0,0,1.8411410766601561,0,0,1.2994800000000002
1.0170588890032377,0,0,2.5905261962890624,0,0,1.83456
1.0202924539917149,0,0,1.1061211669921875,0,0,1.07016
1.0235238719906192,0,0,1.656787548828125,0,0,0.91728
1.0268380839843303,0,0,2.7581203125,0,0,2.90472
1.0300963159825187,0,0,1.848323681640625,0,0,0.53508
1.0335029540001415,0,0,0.93852705078125,0,0,-0.68796
1.036748518992681,0,0,2.7916391357421872,0,0,2.36964
1.039983973983908,0,0,1.8507178833007811,0,0,0.6115200000000001
1.0432187620026525,0,0,1.1827356201171875,0,0,-0.3822
1.046415012999205,0,0,3.6272155151367187,0,0,3.51624
1.0496144490025472,0,0,1.0558429321289062,0,0,-1.07016
1.0528160899993964,0,0,0.3327940307617187,0,0,1.07016
1.056025525991572,0,0,3.825934252929687,0,0,3.13404
1.0592428139934782,0,0,1.0965443603515623,0,0,0.84084
1.0624774909811094,0,0,0.928950244140625,0,0,1.83456
1.0656957979954313,0,0,3.9983167724609374,0,0,2.90472
1.0678218599932734,0,0,1.6998831787109374,0,0,0.3822
1.0698916639958043,0,0,-0.4477157104492187,0,0,-1.2230400000000001
1.071980671986239,0,0,1.2521674682617188,0,0,0.53508
1.0740464759874158,0,0,2.6862942626953124,0,0,1.68168
1.0761356510047335,0,0,0.3016694091796875,0,0,1.2230400000000001
1.0782035109878052,0,0,-0.9504980590820312,0,0,0.3822
1.0802982400055043,0,0,1.9105729248046874,0,0,1.68168
1.082362896995619,0,0,2.6144682128906247,0,0,2.52252
1.0844813669973519,0,0,1.0845733520507812,0,0,1.2994800000000002
1.0866011150064878,0,0,-0.45010991210937495,0,0,0.6115200000000001
1.0886966779944487,0,0,2.3439234252929686,0,0,1.37592
1.0907758149842266,0,0,2.9664158569335934,0,0,1.45236
1.0928342310071457,0,0,0.6272808349609375,0,0,-0.30576000000000003
1.0949249239929486,0,0,-1.1372457885742187,0,0,-0.3822
1.0970154129900038,0,0,1.70467158203125,0,0,2.90472
1.0991236050031148,0,0,2.4660277099609376,0,0,1.2994800000000002
1.1012157060031313,0,0,-0.16280571289062498,0,0,-0.7644
1.1033529529813677,0,0,0.5123591552734374,0,0,0.30576000000000003
1.1054529240063857,0,0,2.786850732421875,0,0,3.51624
1.1075484309985768,0,0,2.722207287597656,0,0,0.99372
1.1096697159809992,0,0,0.0047884033203125,0,0,-1.07016
1.1118683340027928,0,0,0.22505495605468748,0,0,0.22932
1.113895157002844,0,0,2.0877438476562498,0,0,1.1465999999999998
1.115900332981255,0,0,1.9129671264648436,0,0,1.1465999999999998
1.1178810829878785,0,0,-0.4261678955078125,0,0,0.0
1.11986983200768,0,0,0.7685387329101562,0,0,1.75812
1.1218490449828096,0,0,3.3111808959960936,0,0,2.36964
1.1238324249861762,0,0,2.5163059448242184,0,0,1.1465999999999998
1.1258114899974316,0,0,0.05027823486328125,0,0,-0.7644
1.127793016989017,0,0,0.97683427734375,0,0,0.3822
1.1297714340034872,0,0,2.212242333984375,0,0,1.07016
1.1317560540046543,0,0,1.6304513305664061,0,0,0.15288000000000002
1.1337342119950335,0,0,-0.2537853759765625,0,0,-0.91728
1.135715923999669,0,0,0.5674257934570313,0,0,0.99372
1.137694545002887,0,0,2.2840683837890623,0,0,2.14032
1.139675498008728,0,0,1.9728221679687499,0,0,1.45236
1.1416532669973094,0,0,0.239420166015625,0,0,-1.1465999999999998
1.1436339429928921,0,0,1.1540052001953125,0,0,0.15288000000000002
1.1456123039824888,0,0,3.095702746582031,0,0,1.5288
1.1475924429832958,0,0,2.5522189697265625,0,0,0.84084
1.1495697110076435,0,0,-0.10773907470703124,0,0,-0.6115200000000001
1.151550201990176,0,0,-0.18914193115234373,0,0,9.40212
1.1535292110056616,0,0,1.8267758666992187,0,0,0.45864
1.15551042399602,0,0,2.0973206542968748,0,0,1.2230400000000001
1.1574881179840304,0,0,0.55545478515625,0,0,0.0
1.1594659049878828,0,0,1.0127473022460938,0,0,0.84084
1.1614476369868498,0,0,2.0350714111328125,0,0,1.2230400000000001
1.1635004039853811,0,0,2.1619640991210938,0,0,0.0
1.165563263988588,0,0,1.1468225952148436,0,0,-0.22932
1.1678899539983831,0,0,1.1827356201171875,0,0,1.2230400000000001
1.1702152540092357,0,0,1.465251416015625,0,0,1.07016
1.172540517989546,0,0,0.55545478515625,0,0,0.0
1.174870299990289,0,0,-0.1867477294921875,0,0,0.84084
1.1772011010034475,0,0,2.583343591308594,0,0,1.911
1.1795278459903784,0,0,1.944091748046875,0,0,1.75812
1.1818891459843144,0,0,0.6536170532226562,0,0,0.3822
1.1842216129880399,0,0,2.01112939453125,0,0,1.83456
1.1865480990090873,0,0,2.252943762207031,0,0,-9.09636
1.1888750290090684,0,0,1.0965443603515623,0,0,-0.15288000000000002
1.1912056999863125,0,0,1.0342951171875,0,0,0.3822
1.1935310929839034,0,0,1.5873557006835937,0,0,0.84084
1.1958949489926454,0,0,0.7924807495117187,0,0,0.99372
1.1983450260013342,0,0,0.32561142578124996,0,0,1.5288
1.2006843629933428,0,0,2.7557261108398436,0,0,2.4460800000000003
1.2030120340059511,0,0,1.158793603515625,0,0,-0.30576000000000003
1.2053412240056787,0,0,0.41898529052734373,0,0,-0.99372
1.2076702839985956,0,0,2.068590234375,0,0,1.1465999999999998
1.2099975099845324,0,0,2.0183119995117185,0,0,0.99372
1.2123383480065968,0,0,0.08140285644531249,0,0,-0.3822
1.2146673149836715,0,0,-0.47165772705078124,0,0,0.6115200000000001
1.2169983559870161,0,0,2.8107927490234372,0,0,1.911
1.2193255269958172,0,0,1.7405846069335937,0,0,1.2230400000000001
1.2216524389805272,0,0,0.39264907226562495,0,0,9.47856
1.22397951700259,0,0,1.7118541870117185,0,0,1.45236
1.2263056699885055,0,0,2.6815058593749996,0,0,0.84084
1.228632395999739,0,0,1.0821791503906248,0,0,-0.15288000000000002
1.2309591780067421,0,0,1.0606313354492187,0,0,0.45864
1.2332856270077173,0,0,2.0973206542968748,0,0,1.45236
1.2356116129958536,0,0,1.4987702392578124,0,0,0.6115200000000001
1.2379387469845824,0,0,0.2154781494140625,0,0,1.2230400000000001
1.2402656589983962,0,0,2.518700146484375,0,0,2.14032
1.2425923669943586,0,0,2.0087351928710935,0,0,0.68796
1.2449184819997754,0,0,-0.40222587890625,0,0,-1.45236
1.2472496900008991,0,0,1.5921441040039062,0,0,1.5288
1.2496768779819831,0,0,3.277662072753906,0,0,1.911
1.252014715981204,0,0,0.09816226806640624,0,0,0.45864
1.2543429420038592,0,0,-1.180341418457031,0,0,0.22932
1.256676224002149,0,0,2.626439221191406,0,0,2.5989600000000004
1.2590049509890378,0,0,2.0877438476562498,0,0,1.68168
1.261331974004861,0,0,-0.3112462158203125,0,0,-1.37592
1.2637454209907446,0,0,0.12449848632812499,0,0,0.99372
1.2662354229833,0,0,3.7900212280273435,0,0,1.911
1.2693557679885998,0,0,-0.5793968017578125,0,0,0.07644000000000001
1.2724631140008569,0,0,1.7405846069335937,0,0,1.2994800000000002
1.275574458995834,0,0,2.2194249389648437,0,0,0.7644
1.2786903780070134,0,0,-0.8092401611328125,0,0,1.45236
1.281806704995688,0,0,2.8514941772460936,0,0,1.45236
1.2849241789954249,0,0,0.05027823486328125,0,0,-0.15288000000000002
1.288043895008741,0,0,1.9488801513671874,0,0,2.06388
1.2911902210034896,0,0,1.7166425903320313,0,0,0.99372
1.2943066029984038,0,0,-1.3359645263671873,0,0,0.07644000000000001
1.2974255589942914,0,0,2.9472622436523435,0,0,2.2167600000000003
1.300541885982966,0,0,1.4053963745117186,0,0,-0.7644
1.3036590639967471,0,0,-0.5889736083984375,0,0,1.68168
1.3067750580084976,0,0,3.8379052612304685,0,0,2.2931999999999997
1.3098905319930054,0,0,-0.9720458740234375,0,0,-0.91728
1.3130094509979244,0,0,1.8459294799804686,0,0,1.1465999999999998
1.316126166988397,0,0,1.93451494140625,0,0,0.0
1.3192438269907143,0,0,0.29448680419921874,0,0,1.911
1.3223609869892243,0,0,2.3151930053710936,0,0,1.2994800000000002
1.3254758130060509,0,0,0.5626373901367188,0,0,0.22932
1.3285909179830924,0,0,1.8435352783203125,0,0,1.2230400000000001
1.3317072259960696,0,0,1.8435352783203125,0,0,0.07644000000000001
1.33481979300268,0,0,0.05027823486328125,0,0,2.36964
1.3379340269893873,0,0,2.612074011230469,0,0,1.68168
1.3410488909867126,0,0,0.6775590698242188,0,0,0.15288000000000002
1.3441650139866397,0,0,0.7038952880859375,0,0,0.6115200000000001
1.3473055069916882,0,0,2.6096798095703124,0,0,2.36964
1.3504494809894823,0,0,0.08858546142578125,0,0,0.0
1.3535690669959877,0,0,1.0031704956054688,0,0,0.99372
1.3566849299822934,0,0,1.66636435546875,0,0,-0.53508
1.3598222569853533,0,0,1.9919757812499999,0,0,2.14032
1.363096561981365,0,0,0.967257470703125,0,0,0.7644
1.3662694439990446,0,0,0.1484405029296875,0,0,0.0
1.3693864189845044,0,0,3.0597897216796874,0,0,2.14032
1.3725016340031289,0,0,1.189918225097656,0,0,-0.99372
1.3756206269899849,0,0,-0.10773907470703124,0,0,1.2994800000000002
1.3787381389993243,0,0,2.0254946044921875,0,0,1.2994800000000002
1.3818520949862432,0,0,-0.08379705810546874,0,0,1.37592
1.3849684769811574,0,0,1.936909143066406,0,0,1.07016
1.3880832479917444,0,0,1.5514426757812498,0,0,0.0
1.3911968159954995,0,0,0.5889736083984375,0,0,1.68168
1.3943116049922537,0,0,1.7262193969726563,0,0,0.84084
1.397426395007642,0,0,0.8810662109374999,0,0,1.2994800000000002
1.4005509809940122,0,0,1.85790048828125,0,0,0.7644
1.403937452007085,0,0,1.01514150390625,0,0,0.0
1.4070942410035059,0,0,0.9457096557617187,0,0,1.5288
1.4102610659901984,0,0,2.2481553588867187,0,0,0.7644
1.4134010410052724,0,0,-0.2825157958984375,0,0,0.7644
1.4165229409991298,0,0,2.549824768066406,0,0,1.911
1.4196411939919926,0,0,2.437297290039062,0,0,0.6115200000000001
1.4227567430061754,0,0,-0.3950432739257812,0,0,0.68796
1.4258748840074986,0,0,3.27526787109375,0,0,1.2230400000000001
1.4289917849819176,0,0,0.2442085693359375,0,0,0.6115200000000001
1.4321075739862863,0,0,1.2641384765625,0,0,1.1465999999999998
1.43523067899514,0,0,1.956062756347656,0,0,1.5288
1.4383469309832435,0,0,0.12210428466796874,0,0,1.37592
1.4414691840065643,0,0,2.6096798095703124,0,0,1.83456
1.4445852689968888,0,0,0.38307226562499996,0,0,-1.911
1.447705077007413,0,0,3.086125939941406,0,0,2.4460800000000003
1.450819293007953,0,0,1.6208745239257811,0,0,1.1465999999999998
1.4539368049881887,0,0,-1.5873557006835937,0,0,0.07644000000000001
1.4570556129910983,0,0,4.053383410644531,0,0,2.06388
1.4601746060070582,0,0,1.4939818359375,0,0,-1.37592
1.463334505999228,0,0,-0.9457096557617187,0,0,1.68168
1.4664887389808428,0,0,3.4739866088867184,0,0,0.91728
1.4696044549928047,0,0,0.01915361328125,0,0,0.3822
1.472720374003984,0,0,2.2457611572265623,0,0,1.37592
1.4758374780067243,0,0,1.8626888916015625,0,0,1.07016
1.4789510459813755,0,0,-0.105344873046875,0,0,1.37592
1.4821172980009578,0,0,2.7629087158203123,0,0,0.6115200000000001
1.4852401060052216,0,0,0.6081272216796875,0,0,0.0
1.488357377005741,0,0,1.6232687255859375,0,0,1.45236
1.491477498988388,0,0,2.370259643554687,0,0,0.91728
1.4945926219807006,0,0,-0.9600748657226562,0,0,0.6115200000000001
1.4977120599942282,0,0,3.4524387939453125,0,0,1.911
1.500828163989354,0,0,0.8451531860351562,0,0,-1.37592
1.5039446390001103,0,0,0.9074024291992187,0,0,1.1465999999999998
1.5070990950043779,0,0,3.2249896362304686,0,0,1.83456
1.5102185510040727,0,0,-1.5155296508789062,0,0,-0.68796
1.5133376919839066,0,0,1.5466542724609373,0,0,1.68168
1.5164529260073323,0,0,2.6240450195312497,0,0,0.30576000000000003
1.5195683829952031,0,0,0.9433154541015625,0,0,1.45236
1.5226830419851467,0,0,2.8610709838867185,0,0,1.1465999999999998
1.5257999800087418,0,0,-0.28012159423828126,0,0,-0.3822
1.5289187879825477,0,0,1.9584569580078124,0,0,1.60524
1.532035893003922,0,0,1.675941162109375,0,0,-9.40212
1.5351524410070851,0,0,-0.7493851196289062,0,0,1.75812
1.5382698419853114,0,0,2.93050283203125,0,0,0.91728
1.5413841499830596,0,0,1.2617442749023438,0,0,9.47856
1.5444984209898394,0,0,1.2114660400390624,0,0,0.84084
1.5476148029847536,0,0,1.6424223388671875,0,0,0.6115200000000001
1.5507314630085602,0,0,-1.0582371337890624,0,0,0.30576000000000003
1.55389773400384,0,0,2.9089550170898435,0,0,2.52252
1.557019911997486,0,0,2.059013427734375,0,0,0.84084
1.5601340160064865,0,0,0.488417138671875,0,0,0.0
1.563248343009036,0,0,2.0183119995117185,0,0,1.37592
1.5664025209844112,0,0,0.469263525390625,0,0,0.84084
1.5695185700024012,0,0,1.3024457031249999,0,0,0.91728
1.572632117982721,0,0,1.0917559570312498,0,0,0.15288000000000002
1.5757465749920812,0,0,2.808398547363281,0,0,2.14032
1.5788605120033026,0,0,2.1212626708984375,0,0,1.5288
1.5819754689873662,0,0,-1.1228805786132812,0,0,-0.45864
1.5850941469834652,0,0,2.7269956909179687,0,0,1.98744
1.5882126959913876,0,0,1.1324573852539062,0,0,-0.99372
1.5913319299870636,0,0,-0.33039982910156246,0,0,1.68168
1.5944482010090724,0,0,2.89219560546875,0,0,1.2230400000000001
1.5975636759831104,0,0,-0.1197100830078125,0,0,1.07016
1.6006781320029404,0,0,2.1835119140624997,0,0,1.2230400000000001
1.6037936990032904,0,0,1.0965443603515623,0,0,-0.30576000000000003
1.606907951994799,0,0,0.10773907470703124,0,0,0.84084
1.6100320929836016,0,0,2.5258827514648434,0,0,1.07016
1.613427545002196,0,0,-0.34715924072265625,0,0,0.99372
1.6165749079955276,0,0,2.6671406494140624,0,0,0.6115200000000001
1.6196778829907998,0,0,1.1013327636718748,0,0,-0.6115200000000001
1.622777746990323,0,0,-0.36152445068359373,0,0,0.45864
1.6258767590043135,0,0,3.402160559082031,0,0,1.37592
1.6289931409992278,0,0,0.20350714111328125,0,0,0.15288000000000002
1.6321093940059654,0,0,2.0470424194335934,0,0,0.99372
1.6352246280002873,0,0,2.2577321655273437,0,0,1.60524
1.6383380659972318,0,0,-0.9026140258789062,0,0,0.15288000000000002
1.6414547259919345,0,0,3.366247534179687,0,0,1.5288
1.6445699039904866,0,0,-0.3064578125,0,0,-1.37592
1.6476892679929733,0,0,2.099714855957031,0,0,2.14032
1.6508005939831492,0,0,2.31758720703125,0,0,1.45236
1.653916309995111,0,0,-1.1875240234375,0,0,0.22932
1.657032432995038,0,0,2.7581203125,0,0,1.75812
1.6601488149899524,0,0,1.9967641845703124,0,0,-0.53508
1.6632687890087254,0,0,-1.3455413330078123,0,0,2.14032
1.6664180230000056,0,0,2.5043349365234375,0,0,1.2230400000000001
1.6695332009985577,0,0,-1.2425906616210938,0,0,0.68796
1.6726498609932605,0,0,2.0733786376953125,0,0,1.1465999999999998
1.6757783360080793,0,0,2.4301146850585935,0,0,1.07016
1.679129363008542,0,0,-0.8068459594726562,0,0,1.45236
1.6823815210082103,0,0,2.578555187988281,0,0,1.37592
1.6855626610049512,0,0,-0.21068974609375,0,0,0.15288000000000002
1.68868274698616,0,0,1.3431471313476562,0,0,0.7644
1.6917970000067726,0,0,2.2840683837890623,0,0,0.07644000000000001
1.694911956001306,0,0,-0.9433154541015625,0,0,0.45864
1.698028726998018,0,0,3.450044592285156,0,0,1.75812
1.701144591002958,0,0,1.1707646118164061,0,0,-0.30576000000000003
1.7043175830040127,0,0,1.7190367919921874,0,0,1.07016
1.707466427993495,0,0,2.8802245971679685,0,0,2.2167600000000003
1.7105832539964467,0,0,-1.2114660400390624,0,0,0.0
1.7137062289984897,0,0,2.655169641113281,0,0,2.52252
1.7168230740062427,0,0,1.9656395629882812,0,0,-0.3822
1.719940659997519,0,0,0.11013327636718749,0,0,0.84084
1.7230993929842953,0,0,2.750937707519531,0,0,2.36964
1.7262174790084828,0,0,0.23702596435546874,0,0,-0.7644
1.729333769006189,0,0,2.4349030883789062,0,0,2.2931999999999997
1.7324487619916908,0,0,1.4772224243164063,0,0,-0.91728
1.7355661999899894,0,0,1.0678139404296874,0,0,1.60524
1.7386868220055476,0,0,2.1643583007812497,0,0,1.45236
1.7417997419834137,0,0,-0.023942016601562498,0,0,-0.6115200000000001
1.744918771990342,0,0,1.3838485595703125,0,0,1.75812
1.7480337650049478,0,0,2.6001030029296874,0,0,-0.15288000000000002
1.751552197005367,0,0,0.1005564697265625,0,0,1.83456
1.7546678019862156,0,0,2.9448680419921875,0,0,1.5288
1.757784516987158,0,0,0.46686932373046874,0,0,0.07644000000000001
1.7609001399832778,0,0,1.0438719238281249,0,0,0.45864
1.764015891996678,0,0,2.5665841796874997,0,0,0.3822
1.7671923110028729,0,0,-0.3495534423828125,0,0,1.68168
1.7704717649903614,0,0,2.2385785522460937,0,0,0.68796
1.7737799219903536,0,0,0.5746083984375,0,0,0.53508
1.7769096739939414,0,0,1.889025109863281,0,0,0.7644
1.7800307419965975,0,0,1.5179238525390624,0,0,-1.2230400000000001
1.7832390109833796,0,0,1.2234370483398436,0,0,2.4460800000000003
1.7863717259897385,0,0,2.1835119140624997,0,0,1.2994800000000002
1.7894893309858162,0,0,-0.40462008056640625,0,0,0.30576000000000003
1.7926093800051603,0,0,2.9041666137695312,0,0,0.3822
1.7957270210026763,0,0,2.2864625854492187,0,0,1.75812
1.7988399589958135,0,0,-0.7876923461914062,0,0,0.0
1.801956932991743,0,0,2.6862942626953124,0,0,1.60524
1.805074389994843,0,0,1.1348515869140625,0,0,0.30576000000000003
1.808192030992359,0,0,1.7836802368164062,0,0,0.15288000000000002
1.811340079002548,0,0,1.6927005737304686,0,0,-9.32568
1.815094544988824,0,0,0.1388636962890625,0,0,1.75812
1.8182339830091223,0,0,2.013523596191406,0,0,1.07016
1.821338993991958,0,0,-1.2856862915039062,0,0,0.0
1.8244423209980596,0,0,3.1651345947265623,0,0,0.53508
1.8275557399902027,0,0,1.6807295654296874,0,0,1.911
1.8306717519881204,0,0,-1.5897499023437498,0,0,-0.3822
1.8338043749972712,0,0,4.134786267089844,0,0,1.911
1.8369198679865804,0,0,1.3575123413085937,0,0,-0.99372
1.8400364170083776,0,0,-0.4525041137695312,0,0,0.91728
1.8431535399868153,0,0,2.157175695800781,0,0,1.98744
1.8462701810058206,0,0,-1.3623007446289062,0,0,-0.6115200000000001
1.849386155983666,0,0,3.1794998046874996,0,0,2.6754
1.852501722984016,0,0,0.565031591796875,0,0,-1.45236
1.855617068009451,0,0,0.49320554199218747,0,0,2.2931999999999997
1.8587310430011712,0,0,4.086902233886718,0,0,1.45236
1.8618804989964701,0,0,-1.2737152832031249,0,0,-0.99372
1.8650831209961325,0,0,1.9416975463867185,0,0,1.45236
1.8682559459994081,0,0,1.2617442749023438,0,0,-1.1465999999999998
1.8713686619885266,0,0,-1.5897499023437498,0,0,0.15288000000000002
1.874483877007151,0,0,3.21780703125,0,0,0.45864
1.877600314997835,0,0,-0.2825157958984375,0,0,0.07644000000000001
1.880717307998566,0,0,0.6847416748046875,0,0,0.22932
1.8838336530025117,0,0,2.133233679199219,0,0,1.60524
1.8869475910032634,0,0,-1.426944189453125,0,0,-0.30576000000000003
1.8900658809870947,0,0,3.066972326660156,0,0,0.07644000000000001
1.8931849479849916,0,0,1.1348515869140625,0,0,2.36964
1.8963009039871395,0,0,-1.5442600708007812,0,0,-0.7644
1.8994192679820117,0,0,4.158728283691406,0,0,0.45864
1.9025322799861897,0,0,0.718260498046875,0,0,-9.707880000000001
1.9056476060068235,0,0,-2.3918074584960936,0,0,0.07644000000000001
1.9087718399823643,0,0,2.5665841796874997,0,0,-0.45864
1.9118890179961454,0,0,0.42377369384765623,0,0,8.7906
1.915001585992286,0,0,-0.6775590698242188,0,0,2.6754
1.9181186899950262,0,0,3.172317199707031,0,0,4.2042
1.9212335349875502,0,0,-0.239420166015625,0,0,7.261800000000001
1.924349806009559,0,0,-0.16280571289062498,0,0,-1.45236
1.9274677259963937,0,0,3.1268273681640624,0,0,0.91728
1.9305796999833547,0,0,-0.05027823486328125,0,0,-0.15288000000000002
1.933695933985291,0,0,0.11731588134765625,0,0,-0.15288000000000002
1.9368112419906538,0,0,2.291250988769531,0,0,0.6115200000000001
1.9399265690008178,0,0,1.4891934326171874,0,0,0.0
1.9430735619971529,0,0,-0.06703764648437499,0,0,-0.68796
1.9461934809805825,0,0,1.407790576171875,0,0,0.6115200000000001
1.9493091219919734,0,0,0.086191259765625,0,0,0.30576000000000003
1.9524242639890872,0,0,1.3263877197265623,0,0,0.6115200000000001
1.9555403309932444,0,0,1.1109095703125,0,0,0.84084
1.9586548799998127,0,0,0.4908113403320312,0,0,-0.53508
1.9617705949931405,0,0,0.6153098266601562,0,0,0.7644
1.9648854589904658,0,0,1.16837041015625,0,0,0.22932
1.9680002119857818,0,0,0.2154781494140625,0,0,0.3822
1.9711435379867908,0,0,1.2425906616210938,0,0,0.99372
1.9742608089873102,0,0,1.6256629272460936,0,0,0.22932
1.9774084310047328,0,0,0.1005564697265625,0,0,-1.2994800000000002
1.980527036008425,0,0,1.235408056640625,0,0,1.1465999999999998
1.9836426959955133,0,0,0.3854664672851562,0,0,-9.40212
1.986756873986451,0,0,-0.062249243164062495,0,0,-0.30576000000000003
1.9898746259859763,0,0,2.0757728393554684,0,0,1.45236
1.9929891570063774,0,0,0.29448680419921874,0,0,-9.784320000000001
1.9961053539882414,0,0,0.3591302490234375,0,0,-0.68796
1.9992217359831557,0,0,1.6112977172851561,0,0,0.53508
2.00238600600278,0,0,0.4070142822265625,0,0,0.0
2.005509073002031,0,0,-0.13646949462890623,0,0,0.15288000000000002
2.008628381008748,0,0,1.7597382202148437,0,0,0.53508
2.0117439859895967,0,0,0.469263525390625,0,0,0.30576000000000003
2.0148900159983896,0,0,1.0295067138671874,0,0,0.22932
2.0179972869809717,0,0,0.6631938598632812,0,0,0.0
2.0210972799977753,0,0,1.216254443359375,0,0,0.22932
2.024197180988267,0,0,0.0,0,0,0.22932
2.0273442110046744,0,0,0.7230489013671875,0,0,0.6115200000000001
2.0304939259949606,0,0,1.4030021728515625,0,0,0.6115200000000001
2.0336158080026507,0,0,0.33758243408203126,0,0,-0.45864
2.036734894005349,0,0,0.9002198242187499,0,0,-9.32568
2.0398514429980423,0,0,1.4030021728515625,0,0,0.30576000000000003
2.042965158005245,0,0,-0.07900865478515624,0,0,-0.30576000000000003
2.0460911330010276,0,0,1.1875240234375,0,0,0.84084
2.0492401070077904,0,0,0.8643067993164062,0,0,0.07644000000000001
2.05235578599968,0,0,0.4860229370117187,0,0,0.0
2.055480779003119,0,0,1.2904746948242187,0,0,0.53508
2.0587441030074842,0,0,0.7398083129882812,0,0,-0.30576000000000003
2.0618687079986557,0,0,0.9600748657226562,0,0,0.22932
2.0649855340016074,0,0,0.6296750366210937,0,0,0.6115200000000001
2.0681018049945123,0,0,0.9337386474609375,0,0,0.45864
2.071249353000894,0,0,0.32082302246093747,0,0,0.30576000000000003
2.0743634759855922,0,0,1.6615759521484375,0,0,1.07016
2.077477840008214,0,0,1.1013327636718748,0,0,0.84084
2.0805923699808773,0,0,0.9169792358398436,0,0,0.91728
2.083793676982168,0,0,1.8435352783203125,0,0,0.91728
2.0869110409985296,0,0,1.0582371337890624,0,0,0.53508
2.0900291269936133,0,0,1.0845733520507812,0,0,0.30576000000000003
2.0931437499821186,0,0,1.3862427612304686,0,0,-8.867040000000001
2.096292612986872,0,0,1.3766659545898436,0,0,0.84084
2.099407864996465,0,0,1.3407529296874998,0,0,0.7644
2.102520783984801,0,0,1.218648645019531,0,0,0.68796
2.105634203995578,0,0,1.4125789794921875,0,0,0.7644
2.1087729739956558,0,0,1.2114660400390624,0,0,0.68796
2.1119156519998796,0,0,1.0319009155273438,0,0,0.84084
2.1159448550024536,0,0,1.5346832641601562,0,0,0.84084
2.1191556429839693,0,0,1.254561669921875,0,0,0.6115200000000001
2.1225772989855614,0,0,1.2665326782226562,0,0,0.91728
2.1272092889994383,0,0,1.3096283081054687,0,0,0.84084
2.131465415004641,0,0,1.0726023437499999,0,0,0.68796
2.1362913099874277,0,0,1.2593500732421874,0,0,0.53508
2.139493691007374,0,0,1.5275006591796874,0,0,0.53508
2.145530957990559,0,0,1.1755530151367186,0,0,0.68796
2.148751283006277,0,0,1.484405029296875,0,0,0.7644
2.1525032119825482,0,0,0.9888052856445312,0,0,0.7644
2.1557537769840565,0,0,1.2904746948242187,0,0,0.68796
2.1589195109845605,0,0,1.5251064575195312,0,0,0.91728
2.1620516889961436,0,0,1.4604630126953124,0,0,0.45864
2.165170403983211,0,0,1.3144167114257812,0,0,0.91728
2.1683158229861874,0,0,1.197100830078125,0,0,0.53508
2.1714393160073087,0,0,1.3263877197265623,0,0,0.7644
2.174158018984599,0,0,1.235408056640625,0,0,0.84084
2.176700076000998,0,0,1.1468225952148436,0,0,0.84084
2.179280149983242,0,0,1.199495031738281,0,0,0.45864
2.181823096005246,0,0,1.3814543579101561,0,0,0.84084
2.184366504981881,0,0,1.4604630126953124,0,0,1.1465999999999998
2.186908098985441,0,0,1.1444283935546875,0,0,0.22932
2.1894494709849823,0,0,1.1707646118164061,0,0,0.7644
2.1919933979806956,0,0,1.4173673828125,0,0,0.91728
2.1945337319921236,0,0,1.4245499877929686,0,0,0.99372
2.197141621989431,0,0,1.1707646118164061,0,0,0.53508
2.1996878270001616,0,0,1.2665326782226562,0,0,0.53508
2.202214920980623,0,0,1.3072341064453123,0,0,0.6115200000000001
2.204750606993912,0,0,1.5251064575195312,0,0,0.07644000000000001
2.207283200987149,0,0,1.1540052001953125,0,0,0.6115200000000001
2.2098098139977083,0,0,1.1468225952148436,0,0,0.30576000000000003
2.2123525560018606,0,0,1.3455413330078123,0,0,0.7644
2.2149019459902775,0,0,1.4724340209960938,0,0,0.53508
2.217445169982966,0,0,1.2497732666015624,0,0,0.99372
2.2199873749923427,0,0,1.120486376953125,0,0,0.68796
2.2225298389967065,0,0,1.1085153686523437,0,0,0.68796
2.2250717289862223,0,0,1.5035586425781249,0,0,0.6115200000000001
2.227613859984558,0,0,1.4437036010742186,0,0,0.99372
2.230155436001951,0,0,1.1707646118164061,0,0,0.68796
2.2326973259914666,0,0,1.20667763671875,0,0,0.84084
2.2352931409841403,0,0,1.2641384765625,0,0,0.6115200000000001
2.237838142988039,0,0,1.4173673828125,0,0,1.07016
2.240381014009472,0,0,1.3455413330078123,0,0,0.7644
2.2429217559983954,0,0,1.2042834350585936,0,0,0.53508
2.245464017003542,0,0,1.3192051147460937,0,0,0.7644
2.248020369996084,0,0,1.4796166259765624,0,0,0.91728
2.2505605749902315,0,0,1.254561669921875,0,0,0.7644
2.2531028729863465,0,0,1.120486376953125,0,0,0.68796
2.2556448919931427,0,0,1.5945383056640625,0,0,0.68796
2.2581867830012925,0,0,1.4604630126953124,0,0,0.6115200000000001
2.2607278949872125,0,0,1.3192051147460937,0,0,0.84084
2.2632715450017713,0,0,1.0893617553710937,0,0,0.30576000000000003
2.2658126759924926,0,0,1.350329736328125,0,0,0.6115200000000001
2.268354066007305,0,0,1.4796166259765624,0,0,0.99372
2.2709847509977408,0,0,1.2042834350585936,0,0,1.07016
2.273838285007514,0,0,1.1707646118164061,0,0,0.53508
2.276954537985148,0,0,1.4700398193359374,0,0,0.84084
2.280072605004534,0,0,1.3958195678710936,0,0,0.7644
2.2832281719893217,0,0,1.2856862915039062,0,0,0.99372
2.2863434059836436,0,0,1.1372457885742187,0,0,0.53508
2.289462268992793,0,0,1.3862427612304686,0,0,0.99372
2.292577447980875,0,0,1.3287819213867187,0,0,0.68796
2.295694533997448,0,0,1.1348515869140625,0,0,-0.15288000000000002
2.298809934000019,0,0,1.43652099609375,0,0,0.6115200000000001
2.301967389998026,0,0,1.4867992309570313,0,0,0.45864
2.3050869019934908,0,0,1.1156979736328125,0,0,0.91728
2.308204875997035,0,0,1.1252747802734375,0,0,0.30576000000000003
2.311324665992288,0,0,1.2737152832031249,0,0,0.91728
2.3144405299972277,0,0,1.3646949462890625,0,0,0.7644
2.3175410229887348,0,0,1.1156979736328125,0,0,0.6115200000000001
2.3206560719991103,0,0,1.4101847778320311,0,0,1.1465999999999998
2.3237711580004543,0,0,1.5658078857421873,0,0,0.7644
2.3268836879869923,0,0,1.254561669921875,0,0,0.68796
2.329997773980722,0,0,1.0869675537109373,0,0,0.15288000000000002
2.333110563980881,0,0,1.484405029296875,0,0,0.99372
2.3362252789956983,0,0,1.0917559570312498,0,0,0.84084
2.339339383994229,0,0,1.1228805786132812,0,0,0.7644
2.342476321005961,0,0,1.4532804077148436,0,0,0.53508
2.3455912770004943,0,0,1.4820108276367188,0,0,0.53508
2.348705621989211,0,0,1.1372457885742187,0,0,0.99372
2.3518200049875304,0,0,1.3359645263671873,0,0,0.68796
2.3549318129953463,0,0,1.2306196533203124,0,0,0.7644
2.358060675993329,0,0,1.3287819213867187,0,0,0.68796
2.361174891993869,0,0,1.0797849487304687,0,0,0.91728
2.3644971039902885,0,0,1.4939818359375,0,0,0.84084
2.367726947995834,0,0,1.2689268798828124,0,0,0.7644
2.3708785889903083,0,0,1.3335703247070312,0,0,0.45864
2.373996377980802,0,0,1.2569558715820313,0,0,0.6115200000000001
2.377118242002325,0,0,1.3670891479492187,0,0,0.91728
2.3802399569831323,0,0,1.3239935180664062,0,0,0.53508
2.38341133898939,0,0,1.3096283081054687,0,0,0.53508
2.386526424990734,0,0,1.407790576171875,0,0,0.7644
2.38964276999468,0,0,1.2689268798828124,0,0,-8.943480000000001
2.392760336981155,0,0,1.197100830078125,0,0,0.3822
2.3958764229901135,0,0,1.2425906616210938,0,0,0.45864
2.398989860987058,0,0,1.4221557861328125,0,0,1.07016
2.402104001987027,0,0,1.1468225952148436,0,0,0.99372
2.4052224949991796,0,0,1.1635820068359375,0,0,0.53508
2.4083383769902866,0,0,1.388636962890625,0,0,0.99372
2.411452203989029,0,0,1.3479355346679687,0,0,0.91728
2.4146266219904646,0,0,0.967257470703125,0,0,0.91728
2.4177618559915572,0,0,1.4006079711914061,0,0,0.68796
2.4208660349831916,0,0,1.5777788940429687,0,0,0.99372
2.42397463900852,0,0,1.1755530151367186,0,0,0.7644
2.4271023549954407,0,0,1.1468225952148436,0,0,0.53508
2.430217143992195,0,0,1.47482822265625,0,0,0.84084
2.4333320260047913,0,0,1.1109095703125,0,0,0.6115200000000001
2.4364454640017357,0,0,1.158793603515625,0,0,0.6115200000000001
2.439589198009344,0,0,1.4317325927734375,0,0,0.99372
2.4427037099958397,0,0,1.5131354492187499,0,0,0.7644
2.4458170179859735,0,0,1.2401964599609374,0,0,0.7644
2.4489298810076434,0,0,1.22583125,0,0,0.45864
2.4520449489937164,0,0,1.2976572998046874,0,0,0.68796
2.455188738007564,0,0,1.0821791503906248,0,0,0.7644
2.4583035089890473,0,0,1.1540052001953125,0,0,0.68796
2.461419298982946,0,0,1.4772224243164063,0,0,0.84084
2.464533180987928,0,0,1.419761584472656,0,0,1.07016
2.467648285004543,0,0,1.1635820068359375,0,0,0.53508
2.470760149008129,0,0,1.2282254516601563,0,0,0.84084
2.474195377988508,0,0,1.2808978881835937,0,0,0.91728
2.4773522229806986,0,0,1.2928688964843749,0,0,0.7644
2.4804675309860613,0,0,1.22583125,0,0,0.84084
2.483583080000244,0,0,1.3431471313476562,0,0,0.6115200000000001
2.4866948319831863,0,0,1.1923124267578125,0,0,0.91728
2.489824325981317,0,0,1.1755530151367186,0,0,0.3822
2.4930349290079903,0,0,1.4796166259765624,0,0,0.7644
2.4961596989887767,0,0,1.388636962890625,0,0,0.91728
2.4992794889840297,0,0,1.2306196533203124,0,0,0.6115200000000001
2.502396444993792,0,0,1.2473790649414063,0,0,0.6115200000000001
2.505513512995094,0,0,1.2617442749023438,0,0,0.91728
2.508629413001472,0,0,1.2808978881835937,0,0,0.68796
2.5117457769811153,0,0,1.1133037719726562,0,0,0.3822
2.514859474002151,0,0,1.467645617675781,0,0,0.68796
2.5179739669838455,0,0,1.6615759521484375,0,0,1.07016
2.5210879420046695,0,0,1.3168109130859373,0,0,1.07016
2.5242027869971935,0,0,1.0989385620117187,0,0,0.6115200000000001
2.527338576008333,0,0,1.448492004394531,0,0,0.84084
2.530451124999672,0,0,1.1324573852539062,0,0,0.68796
2.5335665440070443,0,0,1.3335703247070312,0,0,0.91728
2.536731147993123,0,0,1.4891934326171874,0,0,0.68796
2.5398837520042434,0,0,1.5634136840820312,0,0,0.7644
2.542995041992981,0,0,1.2713210815429687,0,0,0.68796
2.546108849986922,0,0,1.1923124267578125,0,0,0.53508
2.5492631389934104,0,0,1.2593500732421874,0,0,0.91728
2.552387668984011,0,0,1.2306196533203124,0,0,0.7644
2.5555836429994088,0,0,1.1563994018554686,0,0,0.99372
2.558707616990432,0,0,1.446097802734375,0,0,0.68796
2.5618095549871214,0,0,1.3168109130859373,0,0,1.07016
2.564930844993796,0,0,1.1755530151367186,0,0,0.3822
2.5680488189973403,0,0,1.3311761230468748,0,0,0.53508
2.571197682991624,0,0,1.6352397338867186,0,0,0.7644
2.5743556570087094,0,0,1.3048399047851562,0,0,0.7644
2.577472928009229,0,0,1.120486376953125,0,0,0.91728
2.5806158839841373,0,0,1.4820108276367188,0,0,0.91728
2.5837337840057444,0,0,1.2808978881835937,0,0,2.4460800000000003
2.5868471669964492,0,0,1.1420341918945311,0,0,0.6115200000000001
2.5899619559932034,0,0,1.2761094848632812,0,0,0.7644
2.5930768749967683,0,0,1.4891934326171874,0,0,0.84084
2.5961918130051345,0,0,1.3024457031249999,0,0,0.6115200000000001
2.599344027985353,0,0,1.3575123413085937,0,0,0.45864
2.602471224992769,0,0,1.2617442749023438,0,0,1.07016
2.605587347992696,0,0,1.216254443359375,0,0,0.45864
2.608702359982999,0,0,1.1228805786132812,0,0,0.30576000000000003
2.611818575009238,0,0,1.2378022583007813,0,0,0.91728
2.6151935829839204,0,0,1.3120225097656248,0,0,0.99372
2.6184034640027676,0,0,1.1324573852539062,0,0,0.68796
2.621544919995358,0,0,1.3742717529296875,0,0,0.84084
2.624646912998287,0,0,1.3359645263671873,0,0,0.45864
2.6277587770018727,0,0,1.1875240234375,0,0,0.7644
2.6308754929923452,0,0,1.199495031738281,0,0,0.99372
2.6339915599965025,0,0,1.6136919189453125,0,0,0.84084
2.6371218120038975,0,0,1.2330138549804688,0,0,0.91728
2.640240139007801,0,0,1.216254443359375,0,0,0.6115200000000001
2.643357353983447,0,0,1.3551181396484375,0,0,0.91728
2.6464711809821893,0,0,1.5203180541992187,0,0,0.6115200000000001
2.649586099985754,0,0,1.2401964599609374,0,0,0.91728
2.652697056008037,0,0,1.24498486328125,0,0,1.07016
2.655844808992697,0,0,1.4508862060546874,0,0,0.84084
2.6589651170070283,0,0,1.3192051147460937,0,0,0.84084
2.6620813320041634,0,0,1.216254443359375,0,0,0.53508
2.6652320099819917,0,0,1.3000515014648437,0,0,0.53508
2.668347133003408,0,0,1.6615759521484375,0,0,0.84084
2.671463348000543,0,0,1.2904746948242187,0,0,0.68796
2.674582175008254,0,0,1.2425906616210938,0,0,0.53508
2.677798407996306,0,0,1.467645617675781,0,0,0.84084
2.6811099349870346,0,0,1.3479355346679687,0,0,0.6115200000000001
2.684527386998525,0,0,1.1923124267578125,0,0,0.91728
2.687718361004954,0,0,1.465251416015625,0,0,0.99372
2.690819946990814,0,0,1.5251064575195312,0,0,1.07016
2.6939449030032847,0,0,1.2665326782226562,0,0,0.91728
2.6970654150063638,0,0,1.37906015625,0,0,0.84084
2.7001851119857747,0,0,1.4891934326171874,0,0,0.6115200000000001
2.7033371409925167,0,0,1.1109095703125,0,0,0.6115200000000001
2.706454319995828,0,0,1.2976572998046874,0,0,1.37592
2.7095722389931325,0,0,1.4030021728515625,0,0,0.53508
2.712689176987624,0,0,1.43652099609375,0,0,0.84084
2.7158057439955883,0,0,1.2761094848632812,0,0,0.53508
2.7189212369848974,0,0,1.0941501586914062,0,0,0.7644
2.7220377860066947,0,0,1.419761584472656,0,0,1.07016
2.725154557003407,0,0,1.2808978881835937,0,0,0.84084
2.7282741429808084,0,0,1.139639990234375,0,0,0.91728
2.731390950997593,0,0,1.3120225097656248,0,0,0.68796
2.734522073995322,0,0,1.2282254516601563,0,0,0.45864
2.7379639699938707,0,0,1.2138602416992186,0,0,0.84084
2.741083889006404,0,0,1.5682020874023437,0,0,0.84084
2.7441954749810975,0,0,1.4149731811523436,0,0,0.91728
2.747340283007361,0,0,1.1156979736328125,0,0,0.68796
2.750429609994171,0,0,1.22583125,0,0,0.22932
2.753563195001334,0,0,1.4796166259765624,0,0,0.53508
2.7566752629936673,0,0,1.1324573852539062,0,0,0.91728
2.759776127000805,0,0,1.216254443359375,0,0,0.6115200000000001
2.762861138995504,0,0,1.438915197753906,0,0,0.84084
2.7659503550094087,0,0,1.3000515014648437,0,0,0.68796
2.7690567369863857,0,0,1.3623007446289062,0,0,0.68796
2.7721663230040576,0,0,1.369483349609375,0,0,0.7644
2.7753290190012194,0,0,1.3287819213867187,0,0,0.53508
2.7784339569916483,0,0,1.2378022583007813,0,0,0.7644
2.7819201489910483,0,0,1.2521674682617188,0,0,0.84084
2.78534952699556,0,0,1.5179238525390624,0,0,0.91728
2.7884634640067816,0,0,1.2114660400390624,0,0,0.22932
2.7915746239887085,0,0,1.1420341918945311,0,0,0.45864
2.7946803770028055,0,0,1.3311761230468748,0,0,0.45864
2.797770351986401,0,0,1.2689268798828124,0,0,0.99372
2.80087884599925,0,0,1.2856862915039062,0,0,0.45864
2.8039891539956443,0,0,1.2210428466796874,0,0,0.6115200000000001
2.807096887991065,0,0,1.4437036010742186,0,0,0.99372
2.81020414098748,0,0,1.0414777221679687,0,0,0.45864
2.8132975040061865,0,0,1.2617442749023438,0,0,0.30576000000000003
2.816431052982807,0,0,1.5083470458984374,0,0,0.7644
2.819530323991785,0,0,1.4149731811523436,0,0,0.7644
2.8231759580085054,0,0,1.180341418457031,0,0,0.53508
2.826292765996186,0,0,1.2378022583007813,0,0,0.53508
2.8294006119831465,0,0,1.3120225097656248,0,0,0.7644
2.832496346003609,0,0,1.1659762084960936,0,0,0.53508
2.835628839005949,0,0,1.1061211669921875,0,0,0.99372
2.838737295009196,0,0,1.5275006591796874,0,0,0.45864
2.8418461039836984,0,0,1.158793603515625,0,0,0.99372
2.844954300991958,0,0,1.1444283935546875,0,0,0.6115200000000001
2.848056071990868,0,0,1.350329736328125,0,0,0.3822
2.8511682499956805,0,0,1.5203180541992187,0,0,0.84084
2.8542760029959027,0,0,1.3215993164062498,0,0,0.99372
2.8573810890084133,0,0,1.1013327636718748,0,0,0.91728
2.8604876750032417,0,0,1.3048399047851562,0,0,0.84084
2.8637030929967295,0,0,1.2904746948242187,0,0,0.53508
2.8675492419861257,0,0,1.2641384765625,0,0,1.37592
2.8707480680022854,0,0,1.419761584472656,0,0,1.1465999999999998
2.8739561149850488,0,0,1.3072341064453123,0,0,0.84084
2.877068497997243,0,0,1.218648645019531,0,0,0.84084
2.879875921003986,0,0,1.3192051147460937,0,0,0.7644
2.8826911409851164,0,0,1.3646949462890625,0,0,0.7644
2.885745893989224,0,0,1.1109095703125,0,0,0.45864
2.888552577001974,0,0,1.1611878051757811,0,0,0.45864
2.891353056009393,0,0,1.3024457031249999,0,0,0.68796
2.8941485169925727,0,0,1.4006079711914061,0,0,0.99372
2.8969452739984263,0,0,1.180341418457031,0,0,0.53508
2.899741308996454,0,0,1.1707646118164061,0,0,0.53508
2.902751432993682,0,0,1.4796166259765624,0,0,0.84084
2.905551653006114,0,0,1.4030021728515625,0,0,0.6115200000000001
2.9083492619975004,0,0,1.2138602416992186,0,0,0.91728
2.911189981008647,0,0,1.2234370483398436,0,0,0.84084
2.9139868869970087,0,0,1.5251064575195312,0,0,0.91728
2.9167827919882257,0,0,1.2497732666015624,0,0,0.84084
2.9195791039965115,0,0,1.2952630981445312,0,0,0.6115200000000001
2.9223812319978606,0,0,1.209071838378906,0,0,0.84084
2.925176377990283,0,0,1.2832920898437499,0,0,0.91728
2.9279727829853073,0,0,1.24498486328125,0,0,0.91728
2.9308404279872775,0,0,1.2138602416992186,0,0,0.84084
2.933638129004976,0,0,1.369483349609375,0,0,0.45864
2.9364338489831425,0,0,1.22583125,0,0,0.84084
2.9392309579998255,0,0,1.3072341064453123,0,0,0.7644
2.942026345001068,0,0,1.0127473022460938,0,0,0.6115200000000001
2.944820749980863,0,0,1.3910311645507811,0,0,0.45864
2.9476209330023266,0,0,1.2521674682617188,0,0,1.07016
2.950414338003611,0,0,1.2617442749023438,0,0,0.53508
2.9532454279833473,0,0,1.2018892333984375,0,0,0.6115200000000001
2.9560459629865363,0,0,1.4939818359375,0,0,0.84084
2.9588424600078724,0,0,1.4628572143554686,0,0,0.68796
2.96163855100167,0,0,1.22583125,0,0,0.30576000000000003
2.964435270987451,0,0,1.13006318359375,0,0,0.30576000000000003
2.967232694005361,0,0,1.4341267944335936,0,0,0.30576000000000003
2.970027395989746,0,0,1.4724340209960938,0,0,0.91728
2.972824133990798,0,0,1.2330138549804688,0,0,0.99372
2.9757108709891327,0,0,1.180341418457031,0,0,1.07016
2.97868007098441,0,0,1.438915197753906,0,0,0.84084
2.9819248209823854,0,0,1.1420341918945311,0,0,1.2230400000000001
2.9850443140021525,0,0,1.1875240234375,0,0,0.53508
2.988161585992202,0,0,1.369483349609375,0,0,0.68796
2.9912778940051794,0,0,1.3455413330078123,0,0,0.68796
2.994393423985457,0,0,1.1731588134765625,0,0,0.91728
2.9975091019878164,0,0,1.2785036865234374,0,0,0.99372
3.0006230029975995,0,0,1.438915197753906,0,0,0.68796
3.0037383849848993,0,0,1.2689268798828124,0,0,0.84084
3.0068756749969907,0,0,1.197100830078125,0,0,0.6115200000000001
3.0100250559917185,0,0,1.3168109130859373,0,0,0.6115200000000001
3.0131437899835873,0,0,1.4413093994140624,0,0,0.7644
3.0163212640036363,0,0,1.1611878051757811,0,0,0.7644
3.019437220005784,0,0,1.2593500732421874,0,0,0.3822
3.0225735470012296,0,0,1.4508862060546874,0,0,0.99372
3.025691207003547,0,0,1.2234370483398436,0,0,0.68796
3.0288091439870186,0,0,1.180341418457031,0,0,0.84084
3.0319247120060027,0,0,1.2401964599609374,0,0,0.99372
3.0350732039951254,0,0,1.5203180541992187,0,0,0.68796
3.038192567997612,0,0,1.2976572998046874,0,0,1.07016
3.0413178759918083,0,0,1.20667763671875,0,0,0.3822
3.0444799799879547,0,0,1.4125789794921875,0,0,0.6115200000000001
3.0476021579816006,0,0,1.2282254516601563,0,0,0.68796
3.050716150988592,0,0,1.22583125,0,0,0.6115200000000001
3.053831719007576,0,0,1.465251416015625,0,0,1.1465999999999998
3.0569492490030825,0,0,1.3527239379882812,0,0,0.7644
3.060070037987316,0,0,1.1540052001953125,0,0,0.68796
3.063217513001291,0,0,1.2904746948242187,0,0,0.7644
3.066334987990558,0,0,1.3551181396484375,0,0,0.84084
3.0694570549821947,0,0,1.2856862915039062,0,0,0.6115200000000001
3.0725747699907515,0,0,1.2114660400390624,0,0,0.99372
3.075690689001931,0,0,1.2832920898437499,0,0,0.68796
3.0788059610058554,0,0,1.2401964599609374,0,0,0.7644
3.0819209720066283,0,0,1.2018892333984375,0,0,0.6115200000000001
3.0850357619929127,0,0,1.458068811035156,0,0,0.84084
3.0881529769976623,0,0,1.3024457031249999,0,0,1.07016
3.091270008007996,0,0,1.1659762084960936,0,0,0.53508
3.094386463984847,0,0,1.2785036865234374,0,0,1.1465999999999998
3.0975033459835686,0,0,1.5298948608398437,0,0,0.91728
3.100619579985505,0,0,1.1061211669921875,0,0,0.84084
3.1037442770029884,0,0,1.1659762084960936,0,0,0.6115200000000001
3.1068585850007366,0,0,1.2856862915039062,0,0,0.7644
3.109973855986027,0,0,1.5562310791015623,0,0,0.7644
3.113089830992976,0,0,1.2976572998046874,0,0,0.53508
3.116255472006742,0,0,1.2497732666015624,0,0,0.3822
3.1197188299847767,0,0,1.3407529296874998,0,0,0.91728
3.122861304989783,0,0,1.2665326782226562,0,0,0.6115200000000001
3.125978945987299,0,0,1.0749965454101562,0,0,0.68796
3.1290922359912656,0,0,1.37906015625,0,0,0.7644
3.1322074139898177,0,0,1.4628572143554686,0,0,1.07016
3.1353229630040005,0,0,1.2401964599609374,0,0,-8.867040000000001
3.138458586006891,0,0,1.139639990234375,0,0,0.68796
3.141573245986365,0,0,1.2880804931640624,0,0,0.53508
3.1446867019985802,0,0,1.3407529296874998,0,0,0.84084
3.1478006769903004,0,0,1.0821791503906248,0,0,0.91728
3.150913744000718,0,0,1.4508862060546874,0,0,0.7644
3.1540262189810164,0,0,1.4006079711914061,0,0,0.7644
3.15714184200624,0,0,1.1875240234375,0,0,0.6115200000000001
3.1603712959913537,0,0,1.254561669921875,0,0,0.68796
3.163489844999276,0,0,1.4700398193359374,0,0,0.91728
3.1666012829809915,0,0,1.3359645263671873,0,0,0.99372
3.169713368988596,0,0,1.2761094848632812,0,0,1.07016
3.1728327510063536,0,0,1.4772224243164063,0,0,0.6115200000000001
3.1759811509982683,0,0,1.2593500732421874,0,0,0.7644
3.179093958984595,0,0,1.1420341918945311,0,0,0.6115200000000001
3.18220593399019,0,0,1.3215993164062498,0,0,0.6115200000000001
3.1853193349961657,0,0,1.3120225097656248,0,0,0.84084
3.188435012998525,0,0,1.3120225097656248,0,0,0.84084
3.1915494879940525,0,0,1.180341418457031,0,0,0.68796
3.1946595560002606,0,0,1.419761584472656,0,0,0.6115200000000001
3.1980204159917776,0,0,1.0917559570312498,0,0,0.84084
3.2012117039994337,0,0,1.1444283935546875,0,0,0.6115200000000001
3.2043821229890455,0,0,1.4532804077148436,0,0,0.53508
3.207500838005217,0,0,1.3910311645507811,0,0,0.68796
3.210613793984521,0,0,1.3575123413085937,0,0,0.7644
3.2137561760027893,0,0,1.2785036865234374,0,0,0.53508
3.216905612993287,0,0,1.139639990234375,0,0,0.68796
3.2200366249890067,0,0,1.197100830078125,0,0,0.84084
3.223138155997731,0,0,1.218648645019531,0,0,0.91728
3.2262374270067085,0,0,1.5298948608398437,0,0,1.07016
3.2293556789809372,0,0,1.2401964599609374,0,0,0.7644
3.232470172981266,0,0,1.0749965454101562,0,0,0.45864
3.2355860919924453,0,0,1.2473790649414063,0,0,-9.01992
3.2387002329924144,0,0,1.254561669921875,0,0,0.6115200000000001
3.2418140409863554,0,0,1.2234370483398436,0,0,0.6115200000000001
3.2449273499951232,0,0,1.3670891479492187,0,0,0.99372
3.2480428429844324,0,0,1.5155296508789062,0,0,0.68796
3.2511853169999085,0,0,1.407790576171875,0,0,0.91728
3.2542979029822163,0,0,1.2138602416992186,0,0,0.7644
3.2574451369873714,0,0,1.2593500732421874,0,0,0.45864
3.2605624819989316,0,0,1.5227122558593749,0,0,0.68796
3.2636794569843914,0,0,1.2330138549804688,0,0,0.45864
3.266793319984572,0,0,1.0797849487304687,0,0,0.7644
3.2699326279980596,0,0,1.4053963745117186,0,0,0.99372
3.2730496400035918,0,0,1.2425906616210938,0,0,0.68796
3.2762044289847836,0,0,1.177947216796875,0,0,0.45864
3.279324254981475,0,0,1.4245499877929686,0,0,0.7644
3.282449082005769,0,0,1.5155296508789062,0,0,0.99372
3.285564649006119,0,0,1.3335703247070312,0,0,0.84084
3.288680845987983,0,0,1.2928688964843749,0,0,0.45864
3.291797988000326,0,0,1.3359645263671873,0,0,1.1465999999999998
3.294911573990248,0,0,1.1635820068359375,0,0,0.91728
3.2980279559851624,0,0,1.1947066284179686,0,0,0.45864
3.3011439309921116,0,0,1.4963760375976562,0,0,0.99372
3.304329164006049,0,0,1.2425906616210938,0,0,0.91728
3.307447915984085,0,0,1.158793603515625,0,0,0.84084
3.3105615210079122,0,0,1.2378022583007813,0,0,0.53508
3.3136773289879784,0,0,1.3623007446289062,0,0,0.84084
3.3167932289943565,0,0,1.3287819213867187,0,0,0.91728
3.3199241849943064,0,0,1.209071838378906,0,0,0.7644
3.323017846007133,0,0,1.438915197753906,0,0,1.07016
3.3261332089896314,0,0,1.3910311645507811,0,0,0.91728
3.329246757988585,0,0,1.177947216796875,0,0,0.7644
3.332360806991346,0,0,1.2330138549804688,0,0,0.99372
3.335474744992098,0,0,1.2665326782226562,0,0,0.6115200000000001
3.338584979006555,0,0,1.0821791503906248,0,0,0.6115200000000001
3.3416972499981057,0,0,1.216254443359375,0,0,0.84084
3.344813242991222,0,0,1.467645617675781,0,0,0.84084
3.3479276440048125,0,0,1.4508862060546874,0,0,0.91728
3.351071173994569,0,0,1.1468225952148436,0,0,0.7644
3.3541822420083918,0,0,1.5203180541992187,0,0,0.91728
3.357363622984849,0,0,1.4125789794921875,0,0,0.91728
3.3604769310040865,0,0,1.1372457885742187,0,0,0.68796
3.3635909800068475,0,0,1.1444283935546875,0,0,0.7644
3.3667281579982955,0,0,1.458068811035156,0,0,0.68796
3.3701814060041215,0,0,1.1635820068359375,0,0,0.53508
3.3732965099916328,0,0,1.2234370483398436,0,0,0.84084
3.3764414099860005,0,0,1.484405029296875,0,0,0.68796
3.3795454780047294,0,0,1.426944189453125,0,0,0.7644
3.3826303980022203,0,0,1.1635820068359375,0,0,0.7644
3.385739797988208,0,0,1.1252747802734375,0,0,-9.24924
3.3888489209930412,0,0,1.3192051147460937,0,0,1.07016
3.391957988991635,0,0,1.209071838378906,0,0,0.7644
3.3950919259805232,0,0,1.2808978881835937,0,0,0.7644
3.3981777529988904,0,0,1.4341267944335936,0,0,0.84084
3.4013336169882677,0,0,1.5203180541992187,0,0,1.1465999999999998
3.404437980003422,0,0,1.180341418457031,0,0,0.68796
3.4075428810028825,0,0,1.0726023437499999,0,0,0.45864
3.4106436709989794,0,0,1.426944189453125,0,0,0.84084
3.4137538869981654,0,0,1.1563994018554686,0,0,0.84084
3.416892231005477,0,0,1.120486376953125,0,0,0.68796
3.4199909289891366,0,0,1.4317325927734375,0,0,1.07016
3.4231731799955014,0,0,1.35990654296875,0,0,0.84084
3.426301783998497,0,0,1.1324573852539062,0,0,0.68796
3.4293933149892837,0,0,1.3311761230468748,0,0,0.7644
3.4324988829903305,0,0,1.35990654296875,0,0,0.30576000000000003
3.435596375988098,0,0,1.3646949462890625,0,0,0.6115200000000001
3.438680924999062,0,0,1.3670891479492187,0,0,0.7644
3.4417889369942714,0,0,1.4987702392578124,0,0,0.68796
3.4448966720083263,0,0,1.467645617675781,0,0,1.1465999999999998
3.448004701989703,0,0,1.1731588134765625,0,0,-9.32568
3.451113121001981,0,0,1.3192051147460937,0,0,0.84084
3.4541981339862105,0,0,1.4628572143554686,0,0,0.53508
3.4573193679971155,0,0,1.2785036865234374,0,0,0.30576000000000003
3.460424749995582,0,0,1.3431471313476562,0,0,0.84084
3.463530520995846,0,0,1.4963760375976562,0,0,0.91728
3.466630051989341,0,0,1.3407529296874998,0,0,1.98744
3.4697337489924394,0,0,1.1444283935546875,0,0,0.45864
3.4728345570038073,0,0,1.3168109130859373,0,0,0.68796
3.475994512991747,0,0,1.0797849487304687,0,0,0.91728
3.479140431009,0,0,1.3239935180664062,0,0,0.7644
3.4822246840049047,0,0,1.1085153686523437,0,0,0.6115200000000001
3.4853308080055285,0,0,1.3239935180664062,0,0,0.68796
3.4884348199993838,0,0,1.2641384765625,0,0,1.07016
3.4915396829892416,0,0,1.2306196533203124,0,0,0.3822
3.494639954995364,0,0,1.4963760375976562,0,0,0.45864
3.4977445589902345,0,0,1.4125789794921875,0,0,0.7644
3.500847237999551,0,0,1.2330138549804688,0,0,1.07016
3.503989138000179,0,0,1.3120225097656248,0,0,0.45864
3.5070945949992165,0,0,1.3407529296874998,0,0,0.91728
3.510200218006503,0,0,1.1037269653320312,0,0,0.53508
3.513303507003002,0,0,1.3383587280273437,0,0,0.45864
3.5164372779836413,0,0,1.2928688964843749,0,0,0.30576000000000003
3.5195438269875012,0,0,1.5083470458984374,0,0,0.91728
3.5226441170088947,0,0,1.3263877197265623,0,0,0.6115200000000001
3.5257458509877324,0,0,1.1228805786132812,0,0,0.53508
3.5288497889996506,0,0,1.458068811035156,0,0,1.07016
3.53197313399869,0,0,1.180341418457031,0,0,0.84084
3.535077090986306,0,0,1.2378022583007813,0,0,0.7644
3.5381803429918364,0,0,1.407790576171875,0,0,0.84084
3.541284465987701,0,0,1.3024457031249999,0,0,0.7644
3.544388218986569,0,0,1.2473790649414063,0,0,0.68796
3.5474917499814183,0,0,1.2282254516601563,0,0,0.68796
3.5505923540040385,0,0,1.2330138549804688,0,0,0.7644
3.5552649179880973,0,0,1.16837041015625,0,0,0.45864
3.5583924670063425,0,0,1.3646949462890625,0,0,0.45864
3.561511034000432,0,0,1.2976572998046874,0,0,0.68796
3.5646281570079736,0,0,1.2880804931640624,0,0,0.91728
3.5677467240020633,0,0,1.0726023437499999,0,0,0.7644
3.5708615699841175,0,0,1.4508862060546874,0,0,0.91728
3.573977506981464,0,0,1.2306196533203124,0,0,0.7644
3.5770921669900417,0,0,1.1947066284179686,0,0,0.30576000000000003
3.580312826001318,0,0,1.1252747802734375,0,0,0.84084
3.583461022004485,0,0,1.3263877197265623,0,0,0.6115200000000001
3.5865729049837682,0,0,1.0989385620117187,0,0,0.7644
3.5896864160022233,0,0,1.1923124267578125,0,0,0.84084
3.5927997249818873,0,0,1.5227122558593749,0,0,0.68796
3.595915698999306,0,0,1.0845733520507812,0,0,1.07016
3.599028119002469,0,0,1.177947216796875,0,0,0.53508
3.6021743519813754,0,0,1.426944189453125,0,0,0.99372
3.6052891419967636,0,0,1.3120225097656248,0,0,0.7644
3.608402727986686,0,0,1.3072341064453123,0,0,0.45864
3.6115178689942695,0,0,1.3096283081054687,0,0,0.7644
3.614661787985824,0,0,1.6352397338867186,0,0,0.7644
3.617849706002744,0,0,1.1516109985351561,0,0,0.68796
3.6210859199927654,0,0,1.1659762084960936,0,0,0.6115200000000001
3.6242068209976424,0,0,1.6256629272460936,0,0,0.6115200000000001
3.6273232949897647,0,0,1.4030021728515625,0,0,0.84084
3.630436028994154,0,0,1.1563994018554686,0,0,0.91728
3.633549282007152,0,0,1.0965443603515623,0,0,0.07644000000000001
3.636662904988043,0,0,1.4508862060546874,0,0,0.68796
3.63977749098558,0,0,1.1420341918945311,0,0,0.6115200000000001
3.642887891997816,0,0,1.2641384765625,0,0,0.53508
3.6460009219881613,0,0,1.5227122558593749,0,0,0.84084
3.6491133779927623,0,0,1.3958195678710936,0,0,0.99372
3.6522279089840595,0,0,1.3096283081054687,0,0,1.07016
3.6553429389896337,0,0,1.24498486328125,0,0,0.3822
3.658455080993008,0,0,1.4437036010742186,0,0,0.6115200000000001
3.6615672039915808,0,0,1.1372457885742187,0,0,0.84084
3.664714807004202,0,0,1.2138602416992186,0,0,0.68796
3.6678330409922637,0,0,1.448492004394531,0,0,1.2230400000000001
3.6709431459894404,0,0,1.3048399047851562,0,0,1.1465999999999998
3.6740640650095884,0,0,1.2306196533203124,0,0,0.7644
3.6771743730059825,0,0,1.35990654296875,0,0,0.91728
3.680536141007906,0,0,1.350329736328125,0,0,0.68796
3.6837790769932326,0,0,1.20667763671875,0,0,0.53508
3.687011069006985,0,0,1.1516109985351561,0,0,0.91728
3.6901365800003987,0,0,1.5203180541992187,0,0,0.6115200000000001
3.6932518139947206,0,0,1.2378022583007813,0,0,0.91728
3.6963637890003156,0,0,1.0917559570312498,0,0,0.45864
3.6994772449834272,0,0,1.24498486328125,0,0,0.7644
3.7025873870006762,0,0,1.5155296508789062,0,0,0.99372
3.7057086949935183,0,0,1.2521674682617188,0,0,0.7644
3.7088196330005303,0,0,1.35990654296875,0,0,0.45864
3.711933958984446,0,0,1.2952630981445312,0,0,0.84084
3.715083841001615,0,0,1.149216796875,0,0,0.45864
3.718196631001774,0,0,1.0965443603515623,0,0,0.45864
3.7213085679977667,0,0,1.4221557861328125,0,0,0.99372
3.724420265003573,0,0,1.426944189453125,0,0,0.84084
3.727532610995695,0,0,1.2378022583007813,0,0,0.7644
3.7306407339929137,0,0,1.0869675537109373,0,0,0.22932
3.7337512639933266,0,0,1.3359645263671873,0,0,0.84084
3.7368703309912235,0,0,1.16837041015625,0,0,0.45864
3.7399911760003306,0,0,1.350329736328125,0,0,0.45864
3.7431020399963018,0,0,1.4820108276367188,0,0,0.99372
3.746215071005281,0,0,1.5035586425781249,0,0,2.4460800000000003
3.749326416000258,0,0,1.16837041015625,0,0,0.84084
3.7524372240004595,0,0,1.3120225097656248,0,0,0.68796
3.755548494984396,0,0,1.254561669921875,0,0,0.45864
3.758660174004035,0,0,1.197100830078125,0,0,0.99372
3.7617716479871888,0,0,1.1085153686523437,0,0,1.2230400000000001
3.7648837709857617,0,0,1.5921441040039062,0,0,0.91728
3.767996079986915,0,0,1.446097802734375,0,0,1.1465999999999998
3.771251255995594,0,0,1.180341418457031,0,0,0.7644
3.774396249005804,0,0,1.2641384765625,0,0,0.68796
3.7776489809912164,0,0,1.6807295654296874,0,0,0.99372
3.7808961760019884,0,0,1.3239935180664062,0,0,0.6115200000000001
3.7840158180042636,0,0,1.3144167114257812,0,0,0.68796
3.787136033002753,0,0,1.4317325927734375,0,0,0.68796
3.7902485259983223,0,0,1.2737152832031249,0,0,0.6115200000000001
3.79336183500709,0,0,1.20667763671875,0,0,0.53508
3.796513993991539,0,0,1.3766659545898436,0,0,0.84084
3.7996286540001165,0,0,1.5155296508789062,0,0,0.7644
3.8027517949813046,0,0,1.254561669921875,0,0,0.84084
3.805867807008326,0,0,1.0726023437499999,0,0,0.30576000000000003
3.8089806149946526,0,0,1.4628572143554686,0,0,0.84084
3.8121175529959146,0,0,1.2234370483398436,0,0,0.84084
3.815245193982264,0,0,1.1276689819335937,0,0,0.68796
3.8183598720061127,0,0,1.2641384765625,0,0,1.07016
3.821472329000244,0,0,1.5203180541992187,0,0,0.91728
3.8245884329953697,0,0,1.3623007446289062,0,0,0.6115200000000001
3.827700908004772,0,0,1.2689268798828124,0,0,0.3822
3.8308117899869103,0,0,1.2425906616210938,0,0,0.91728
3.833924634993309,0,0,1.189918225097656,0,0,0.3822
3.8370385179878213,0,0,1.149216796875,0,0,0.68796
3.8401523439970333,0,0,1.3838485595703125,0,0,0.99372
3.8432668559835292,0,0,1.5298948608398437,0,0,0.53508
3.8463799789897166,0,0,1.3431471313476562,0,0,0.7644
3.8494927499850746,0,0,1.2114660400390624,0,0,0.3822
3.852604891988449,0,0,1.3407529296874998,0,0,0.3822
3.8557174220040906,0,0,1.3144167114257812,0,0,0.84084
3.85882991499966,0,0,1.2497732666015624,0,0,1.07016
3.861941390001448,0,0,1.4796166259765624,0,0,0.91728
3.865053771995008,0,0,1.4125789794921875,0,0,0.68796
3.868196524999803,0,0,1.2473790649414063,0,0,0.68796
3.871550865995232,0,0,1.4437036010742186,0,0,0.7644
3.8747324509895407,0,0,1.5298948608398437,0,0,0.91728
3.8778524629888125,0,0,1.3215993164062498,0,0,0.91728
3.8810100849950686,0,0,1.2617442749023438,0,0,0.84084
3.8841880219988525,0,0,1.467645617675781,0,0,0.6115200000000001
3.8873503479990177,0,0,1.3646949462890625,0,0,0.6115200000000001
3.8904718789854087,0,0,1.1635820068359375,0,0,0.68796
3.893588426988572,0,0,1.5083470458984374,0,0,0.84084
3.896705994993681,0,0,1.4532804077148436,0,0,1.911
3.899825561995385,0,0,1.1324573852539062,0,0,0.7644
3.9029410739894956,0,0,1.2330138549804688,0,0,0.3822
3.9060577339841984,0,0,1.3359645263671873,0,0,0.99372
3.9091751709929667,0,0,1.1037269653320312,0,0,0.68796
3.9123237379826605,0,0,1.216254443359375,0,0,0.6115200000000001
3.915445713006193,0,0,1.5155296508789062,0,0,0.91728
3.918560872989474,0,0,1.4724340209960938,0,0,0.7644
3.921677570004249,0,0,1.35990654296875,0,0,0.3822
3.9247998780047055,0,0,1.2689268798828124,0,0,0.30576000000000003
3.927940444991691,0,0,1.2378022583007813,0,0,0.6115200000000001
3.931092622980941,0,0,1.1180921752929687,0,0,0.84084
3.934212246007519,0,0,1.2737152832031249,0,0,0.6115200000000001
3.9373283319873735,0,0,1.426944189453125,0,0,0.99372
3.9404451579903252,0,0,1.3766659545898436,0,0,0.99372
3.943696056987392,0,0,1.0797849487304687,0,0,0.3822
3.9468153649941087,0,0,1.2976572998046874,0,0,0.84084
3.9499336360022426,0,0,1.4700398193359374,0,0,0.91728
3.953049629984889,0,0,1.2737152832031249,0,0,0.6115200000000001
3.9561701600032393,0,0,1.0941501586914062,0,0,0.99372
3.959319690009579,0,0,1.3335703247070312,0,0,0.45864
3.962437460984802,0,0,1.1372457885742187,0,0,0.6115200000000001
3.9655551759933587,0,0,1.1635820068359375,0,0,0.53508
3.9686738919990603,0,0,1.2306196533203124,0,0,0.68796
3.971791126008611,0,0,1.484405029296875,0,0,0.7644
3.974907397001516,0,0,1.139639990234375,0,0,0.99372
3.9780237969825976,0,0,1.3479355346679687,0,0,0.91728
3.9811755859991536,0,0,1.465251416015625,0,0,0.6115200000000001
3.9842928209982347,0,0,1.3215993164062498,0,0,0.53508
3.9874116469873115,0,0,1.180341418457031,0,0,0.53508
3.9905260849918704,0,0,1.5203180541992187,0,0,0.7644
3.9936427630018443,0,0,1.6041151123046875,0,0,0.68796
3.996758774999762,0,0,1.3335703247070312,0,0,0.6115200000000001
3.9998781199974474,0,0,1.0749965454101562,0,0,0.22932
4.00299183599418,0,0,1.3718775512695311,0,0,0.99372
4.006108328991104,0,0,1.3670891479492187,0,0,0.7644
4.009254414006136,0,0,1.2689268798828124,0,0,0.68796
4.012372110999422,0,0,1.5227122558593749,0,0,0.7644
4.015502992988331,0,0,1.5275006591796874,0,0,0.84084
4.018617394001922,0,0,1.3479355346679687,0,0,0.7644
4.021731554006692,0,0,1.3575123413085937,0,0,0.45864
4.024869510001736,0,0,1.3646949462890625,0,0,0.68796
4.028177907981444,0,0,1.0965443603515623,0,0,0.68796
4.031340807996457,0,0,1.2018892333984375,0,0,0.91728
4.0344582090037875,0,0,1.4532804077148436,0,0,0.91728
4.037575238995487,0,0,1.3359645263671873,0,0,0.91728
4.040691714006243,0,0,1.2114660400390624,0,0,0.6115200000000001
4.0438074109843,0,0,1.350329736328125,0,0,0.84084
4.0469226999848615,0,0,1.3263877197265623,0,0,0.84084
4.050039638008457,0,0,1.35990654296875,0,0,0.84084
4.053157260990702,0,0,1.2641384765625,0,0,1.1465999999999998
4.056274846981978,0,0,1.438915197753906,0,0,0.99372
4.05944428400835,0,0,1.2306196533203124,0,0,1.2230400000000001
4.062558962003095,0,0,1.0917559570312498,0,0,0.6115200000000001
4.065677084989147,0,0,1.5107412475585937,0,0,0.6115200000000001
4.068792781996308,0,0,1.3407529296874998,0,0,0.91728
4.071902812982444,0,0,1.3551181396484375,0,0,0.91728
4.074996009992901,0,0,1.3359645263671873,0,0,0.53508
4.078113188006682,0,0,1.3814543579101561,0,0,0.91728
4.081260884995572,0,0,1.2928688964843749,0,0,1.07016
4.084376618993701,0,0,1.3623007446289062,0,0,0.6115200000000001
4.087491131009301,0,0,1.4149731811523436,0,0,0.53508
4.090602309006499,0,0,1.4173673828125,0,0,0.7644
4.093726913997671,0,0,1.1468225952148436,0,0,0.53508
4.0968467769853305,0,0,1.177947216796875,0,0,0.68796
4.099961936997715,0,0,1.4963760375976562,0,0,0.6115200000000001
4.103123170993058,0,0,1.158793603515625,0,0,0.84084
4.106242070993176,0,0,1.2018892333984375,0,0,0.53508
4.10938941600034,0,0,1.47482822265625,0,0,0.53508
4.1125049279944506,0,0,1.426944189453125,0,0,0.84084
4.115621014003409,0,0,1.1659762084960936,0,0,0.99372
4.118758339987835,0,0,1.2330138549804688,0,0,0.30576000000000003
4.122109088988509,0,0,1.4173673828125,0,0,0.91728
4.1252783779927995,0,0,1.0917559570312498,0,0,0.68796
4.128389222983969,0,0,1.0893617553710937,0,0,0.7644
4.1314917909912765,0,0,1.3958195678710936,0,0,0.7644
4.134575635980582,0,0,1.2904746948242187,0,0,0.99372
4.1376853520050645,0,0,1.2569558715820313,0,0,0.68796
4.140791863988852,0,0,1.0821791503906248,0,0,0.6115200000000001
4.143899005983258,0,0,1.1420341918945311,0,0,0.53508
4.14700222099782,0,0,1.0797849487304687,0,0,0.68796
4.150090826005908,0,0,1.2378022583007813,0,0,0.84084
4.153232634009328,0,0,1.4987702392578124,0,0,0.68796
4.156338386004791,0,0,1.2330138549804688,0,0,0.7644
4.15944504700019,0,0,1.1875240234375,0,0,0.99372
4.162545892002527,0,0,1.2808978881835937,0,0,0.68796
4.16564864499378,0,0,1.3766659545898436,0,0,0.7644
4.1687512309872545,0,0,1.1635820068359375,0,0,0.84084
4.172100720985327,0,0,1.3000515014648437,0,0,0.15288000000000002
4.175205398991238,0,0,1.484405029296875,0,0,0.84084
4.178350336995209,0,0,1.1947066284179686,0,0,0.84084
4.1815663290035445,0,0,1.149216796875,0,0,0.45864
4.184666154993465,0,0,1.3192051147460937,0,0,0.84084
4.1877707229868975,0,0,1.4963760375976562,0,0,0.3822
4.190911307989154,0,0,1.1923124267578125,0,0,1.1465999999999998
4.19402004298172,0,0,1.3144167114257812,0,0,0.7644
4.197112055000616,0,0,1.3623007446289062,0,0,1.07016
4.200436582003022,0,0,1.0917559570312498,0,0,0.3822
4.203558298002463,0,0,1.199495031738281,0,0,0.68796
4.20668608698179,0,0,1.47482822265625,0,0,0.91728
4.209776951000094,0,0,1.2306196533203124,0,0,0.99372
4.212881480983924,0,0,1.254561669921875,0,0,0.68796
4.2160169369890355,0,0,1.2282254516601563,0,0,0.45864
4.219122985989088,0,0,1.2401964599609374,0,0,0.84084
4.2222067389811855,0,0,1.1324573852539062,0,0,0.68796
4.2253156029910315,0,0,1.2210428466796874,0,0,0.84084
4.228409670991823,0,0,1.5083470458984374,0,0,1.1465999999999998
4.23150886798976,0,0,1.4724340209960938,0,0,0.91728
4.23461087999749,0,0,1.1875240234375,0,0,0.6115200000000001
4.237713095993968,0,0,1.0893617553710937,0,0,0.91728
4.240816625999287,0,0,1.2497732666015624,0,0,0.68796
4.243922046007356,0,0,1.1731588134765625,0,0,0.91728
4.247021427989239,0,0,1.2234370483398436,0,0,1.1465999999999998
4.2501258100091945,0,0,1.5107412475585937,0,0,1.2230400000000001
4.253228710993426,0,0,1.3407529296874998,0,0,1.07016
4.256332816003123,0,0,1.1659762084960936,0,0,0.7644
4.259437161003007,0,0,1.3024457031249999,0,0,0.6115200000000001
4.2625369140005205,0,0,1.2617442749023438,0,0,0.53508
4.265639536984963,0,0,1.1468225952148436,0,0,0.7644
4.268742068001302,0,0,1.0773907470703123,0,0,1.2230400000000001
4.2718466719961725,0,0,1.5059528442382812,0,0,0.68796
4.274945387995103,0,0,1.2641384765625,0,0,1.1465999999999998
4.278048492997186,0,0,1.2282254516601563,0,0,0.7644
4.281189041008474,0,0,1.426944189453125,0,0,0.53508
4.2842948859906755,0,0,1.3048399047851562,0,0,0.7644
4.287402046000352,0,0,1.2234370483398436,0,0,0.45864
4.290502650983399,0,0,1.2210428466796874,0,0,1.07016
4.293606107996311,0,0,1.3934253662109375,0,0,0.84084
4.296711433999008,0,0,1.3192051147460937,0,0,0.84084
4.299816760991234,0,0,1.2856862915039062,0,0,0.53508
4.302916829008609,0,0,1.3383587280273437,0,0,0.99372
4.306043229007628,0,0,1.448492004394531,0,0,0.84084
4.3091469449864235,0,0,1.1468225952148436,0,0,0.45864
4.31233669698122,0,0,1.120486376953125,0,0,1.2230400000000001
4.315442578983493,0,0,1.419761584472656,0,0,0.6115200000000001
4.318543442990631,0,0,1.388636962890625,0,0,0.91728
4.321668805991067,0,0,1.1540052001953125,0,0,0.53508
4.32477357800235,0,0,1.2689268798828124,0,0,0.7644
4.3278777379891835,0,0,1.5442600708007812,0,0,0.68796
4.33098036100273,0,0,1.1372457885742187,0,0,0.84084
4.334085039008642,0,0,1.3215993164062498,0,0,0.45864
4.337215809995541,0,0,1.2952630981445312,0,0,0.68796
4.34031939599663,0,0,1.3144167114257812,0,0,0.6115200000000001
4.343425630999263,0,0,1.3670891479492187,0,0,0.53508
4.3465276430069935,0,0,1.5155296508789062,0,0,0.68796
4.349630562006496,0,0,1.429338391113281,0,0,0.7644
4.352736500004539,0,0,1.2378022583007813,0,0,0.91728
4.355840770993382,0,0,1.2713210815429687,0,0,0.7644
4.358943041996099,0,0,1.2880804931640624,0,0,0.84084
4.362048406008398,0,0,1.2018892333984375,0,0,0.45864
4.365152232989203,0,0,1.1013327636718748,0,0,0.6115200000000001
4.368283652001992,0,0,1.2306196533203124,0,0,0.84084
4.373224712006049,0,0,1.1659762084960936,0,0,0.68796
4.376345612981822,0,0,1.1755530151367186,0,0,0.68796
4.379455866001081,0,0,1.4437036010742186,0,0,1.1465999999999998
4.382595322007546,0,0,1.4173673828125,0,0,1.2230400000000001
4.385687462985516,0,0,1.180341418457031,0,0,0.6115200000000001
4.3887946419999935,0,0,1.419761584472656,0,0,0.84084
4.391903801995795,0,0,1.2593500732421874,0,0,0.68796
4.3950073329906445,0,0,1.2593500732421874,0,0,0.68796
4.398105047992431,0,0,1.2282254516601563,0,0,0.6115200000000001
4.4012894479965325,0,0,1.5059528442382812,0,0,1.07016
4.404441810998833,0,0,1.4053963745117186,0,0,0.91728
4.407552249002038,0,0,1.3048399047851562,0,0,0.7644
4.410653261002153,0,0,1.3096283081054687,0,0,0.6115200000000001
4.4137617170054,0,0,1.3383587280273437,0,0,0.84084
4.416876932984451,0,0,1.2282254516601563,0,0,0.84084
4.420403291005641,0,0,1.1827356201171875,0,0,0.99372
4.423526839993428,0,0,1.4963760375976562,0,0,1.07016
4.426642851001816,0,0,1.429338391113281,0,0,0.84084
4.429759436985478,0,0,1.1707646118164061,0,0,0.3822
4.432876670995029,0,0,1.438915197753906,0,0,0.91728
4.43599660898326,0,0,1.4030021728515625,0,0,0.53508
4.439112232008483,0,0,1.3311761230468748,0,0,1.07016
4.442227761988761,0,0,1.3407529296874998,0,0,0.68796
4.445343569997931,0,0,1.43652099609375,0,0,0.91728
4.448459692997858,0,0,1.3407529296874998,0,0,0.53508
4.4515774459869135,0,0,1.120486376953125,0,0,0.7644
4.45472140199854,0,0,1.448492004394531,0,0,0.6115200000000001
4.457838468981208,0,0,1.438915197753906,0,0,0.99372
4.4609701840090565,0,0,1.3431471313476562,0,0,0.68796
4.464087492990075,0,0,1.177947216796875,0,0,0.3822
4.467202337982599,0,0,1.2378022583007813,0,0,0.68796
4.470317441999214,0,0,1.218648645019531,0,0,0.91728
4.473432269005571,0,0,1.0845733520507812,0,0,0.84084
4.4765478360059205,0,0,1.455674609375,0,0,1.07016
4.479663884994807,0,0,1.3048399047851562,0,0,0.99372
4.482783155981451,0,0,1.2641384765625,0,0,0.84084
4.485901909007225,0,0,1.2737152832031249,0,0,0.22932
4.489016976003768,0,0,1.3144167114257812,0,0,0.84084
4.4921339880093,0,0,1.1635820068359375,0,0,0.68796
4.495250888983719,0,0,1.2138602416992186,0,0,0.68796
4.498365251987707,0,0,1.455674609375,0,0,0.84084
