Time,AccelX1,AccelY1,AccelZ1,AccelX2,AccelY2,AccelZ2
5.0000089686363935e-06,0,0,1.4125789794921875,0,0,0.45864
0.003645811986643821,0,0,1.2928688964843749,0,0,1.07016
0.007412751991068944,0,0,1.3072341064453123,0,0,0.84084
0.010984489985276014,0,0,1.1109095703125,0,0,0.99372
0.014506859006360173,0,0,1.2785036865234374,0,0,0.15288000000000002
0.018027431011432782,0,0,1.47482822265625,0,0,1.2230400000000001
0.021589910000329837,0,0,1.1156979736328125,0,0,0.45864
0.025695716991322115,0,0,1.3263877197265623,0,0,1.07016
0.02923704800195992,0,0,1.4437036010742186,0,0,0.30576000000000003
0.03284284198889509,0,0,1.1109095703125,0,0,0.6115200000000001
0.036370210989844054,0,0,1.2832920898437499,0,0,0.68796
0.03988833900075406,0,0,1.4772224243164063,0,0,0.84084
0.04340735499863513,0,0,1.0726023437499999,0,0,0.7644
0.046922817011363804,0,0,1.4820108276367188,0,0,0.91728
0.050440536986570805,0,0,1.5035586425781249,0,0,0.99372
0.05410781200043857,0,0,1.3239935180664062,0,0,0.45864
0.057782807998592034,0,0,1.3575123413085937,0,0,0.91728
0.06138919500517659,0,0,1.1085153686523437,0,0,0.53508
0.06491448899032548,0,0,1.2785036865234374,0,0,1.5288
0.06893166698864661,0,0,1.37906015625,0,0,0.6115200000000001
0.0725239790044725,0,0,1.149216796875,0,0,0.6115200000000001
0.07604588501271792,0,0,1.3407529296874998,0,0,9.47856
0.07989189799991436,0,0,1.4413093994140624,0,0,0.91728
0.08311352899181657,0,0,1.24498486328125,0,0,1.1465999999999998
0.08623006899142638,0,0,1.24498486328125,0,0,0.68796
0.08935040500364266,0,0,1.4915876342773438,0,0,0.6115200000000001
0.09246725999400951,0,0,1.1923124267578125,0,0,0.3822
0.09563481798977591,0,0,1.0941501586914062,0,0,0.3822
0.09882004201062955,0,0,1.446097802734375,0,0,0.91728
0.10195293300785124,0,0,1.599326708984375,0,0,0.99372
0.10506380599690601,0,0,1.20667763671875,0,0,0.99372
0.10816886500106193,0,0,1.3072341064453123,0,0,1.07016
0.11128720099804923,0,0,1.4053963745117186,0,0,0.45864
0.11440498099545948,0,0,1.2138602416992186,0,0,0.45864
0.11755557599826716,0,0,1.1731588134765625,0,0,20
0.1206744119990617,0,0,1.350329736328125,0,0,0.91728
0.12381835898850113,0,0,1.0821791503906248,0,0,0.84084
0.12693900999147445,0,0,1.2641384765625,0,0,1.37592
0.13005679100751877,0,0,1.37906015625,0,0,0.68796
0.13317162700695917,0,0,1.3551181396484375,0,0,1.1465999999999998
0.13628803699975833,0,0,1.3766659545898436,0,0,0.7644
0.13940929900854826,0,0,1.2928688964843749,0,0,0.53508
0.14252645001397468,0,0,1.47482822265625,0,0,0.3822
0.1456443780043628,0,0,1.1827356201171875,0,0,0.7644
0.14875828800722957,0,0,1.3120225097656248,0,0,0.53508
0.1518741059990134,0,0,1.2330138549804688,0,0,1.07016
0.15499223800725304,0,0,1.2401964599609374,0,0,0.7644
0.15810966701246798,0,0,1.2282254516601563,0,0,1.2994800000000002
0.16122296600951813,0,0,1.4245499877929686,0,0,0.45864
0.16433911700733006,0,0,1.1420341918945311,0,0,0.22932
0.1674873600131832,0,0,1.3623007446289062,0,0,0.45864
0.1706197139865253,0,0,1.4173673828125,0,0,1.07016
0.17373929099994712,0,0,1.448492004394531,0,0,1.07016
0.1768566090031527,0,0,1.1133037719726562,0,0,0.84084
0.1800113329954911,0,0,1.3144167114257812,0,0,0.84084
0.18312742898706347,0,0,1.47482822265625,0,0,0.30576000000000003
0.18624483898747712,0,0,1.3623007446289062,0,0,0.3822
0.189360601012595,0,0,1.3144167114257812,0,0,0.22932
0.19247664100839756,0,0,1.1444283935546875,0,0,0.7644
0.19561360598891042,0,0,1.2210428466796874,0,0,0.68796
0.1987308120005764,0,0,1.369483349609375,0,0,1.07016
0.20184768599574454,0,0,1.5035586425781249,0,0,0.84084
0.20496118799201213,0,0,1.1755530151367186,0,0,0.68796
0.20807674698880874,0,0,1.3024457031249999,0,0,0.6115200000000001
0.2111925090139266,0,0,1.5298948608398437,0,0,0.3822
0.21431075199507177,0,0,1.5729904907226562,0,0,0.53508
0.21742764400551096,0,0,1.1252747802734375,0,0,0.68796
0.22056257200893015,0,0,1.350329736328125,0,0,0.91728
0.2236820560065098,0,0,1.0893617553710937,0,0,0.99372
0.22679866998805664,0,0,1.139639990234375,0,0,0.84084
0.22991589500452392,0,0,1.2737152832031249,0,0,0.22932
0.23302934199455194,0,0,1.2569558715820313,0,0,0.45864
0.23614510399056599,0,0,1.177947216796875,0,0,0.53508
0.23926088499138132,0,0,1.2473790649414063,0,0,0.45864
0.24237846198957413,0,0,1.388636962890625,0,0,1.07016
0.24549594600102864,0,0,1.446097802734375,0,0,0.99372
0.24861246699583717,0,0,1.1228805786132812,0,0,0.7644
0.2517351919959765,0,0,1.3575123413085937,0,0,0.7644
0.2548524909943808,0,0,1.5705962890624998,0,0,0.68796
0.2579698830086272,0,0,1.2617442749023438,0,0,-9.172799999999999
0.2610859219857957,0,0,1.369483349609375,0,0,0.22932
0.26422298001125455,0,0,1.2856862915039062,0,0,1.07016
0.26734009399660863,0,0,1.1516109985351561,0,0,0.68796
0.27046665200032294,0,0,1.3646949462890625,0,0,1.45236
0.2735796739871148,0,0,1.5059528442382812,0,0,1.1465999999999998
0.27667212099186145,0,0,1.5155296508789062,0,0,0.53508
0.27981840100255795,0,0,1.2641384765625,0,0,0.45864
0.2829352369881235,0,0,1.5490484741210937,0,0,0.30576000000000003
0.2860513330087997,0,0,1.6065093139648436,0,0,0.7644
0.28916674299398437,0,0,1.1563994018554686,0,0,0.84084
0.2922813750046771,0,0,1.2521674682617188,0,0,0.7644
0.295398321992252,0,0,1.1731588134765625,0,0,0.91728
0.2985128989967052,0,0,1.2234370483398436,0,0,0.6115200000000001
0.30168753099860623,0,0,1.3455413330078123,0,0,0.07644000000000001
0.30481055201380514,0,0,1.2306196533203124,0,0,1.98744
0.3079280180099886,0,0,1.1348515869140625,0,0,0.53508
0.3110512800049037,0,0,1.3287819213867187,0,0,0.91728
0.31416194900521077,0,0,1.4987702392578124,0,0,0.99372
0.31730009999591857,0,0,1.4987702392578124,0,0,1.1465999999999998
0.320418046991108,0,0,1.149216796875,0,0,0.91728
0.3235325129935518,0,0,1.3407529296874998,0,0,0.6115200000000001
0.32667455199407414,0,0,1.0869675537109373,0,0,0.68796
0.32979218498803675,0,0,1.1731588134765625,0,0,1.83456
0.33290324299014173,0,0,1.4939818359375,0,0,0.07644000000000001
0.3360178199945949,0,0,1.2306196533203124,0,0,1.07016
0.3391318600042723,0,0,1.199495031738281,0,0,0.6115200000000001
0.3422460849978961,0,0,1.2832920898437499,0,0,0.99372
0.34536340201157145,0,0,1.4604630126953124,0,0,0.6115200000000001
0.3485672739916481,0,0,1.3407529296874998,0,0,0.6115200000000001
0.3517112029949203,0,0,1.3263877197265623,0,0,0.53508
0.35482559399679303,0,0,1.4221557861328125,0,0,1.07016
0.35794283798895776,0,0,1.3934253662109375,0,0,0.84084
0.3610537660133559,0,0,1.13006318359375,0,0,0.99372
0.36424906499451026,0,0,1.3479355346679687,0,0,0.6115200000000001
0.367367603990715,0,0,1.216254443359375,0,0,0.91728
0.37054147699382156,0,0,1.3742717529296875,0,0,0.7644
0.3736605540034361,0,0,1.3144167114257812,0,0,0.07644000000000001
0.37677457500831224,0,0,1.1372457885742187,0,0,0.91728
0.37993020701105706,0,0,1.0965443603515623,0,0,0.3822
0.38304750600946136,0,0,1.16837041015625,0,0,1.5288
0.3861664159921929,0,0,1.43652099609375,0,0,0.91728
0.38930989999789745,0,0,1.455674609375,0,0,0.99372
0.3924282540101558,0,0,1.1516109985351561,0,0,0.6115200000000001
0.3955661829968449,0,0,1.3718775512695311,0,0,0.53508
0.3986859630094841,0,0,1.5155296508789062,0,0,0.53508
0.4018070029851515,0,0,1.2665326782226562,0,0,0.7644
0.40492298698518425,0,0,1.2761094848632812,0,0,0.91728
0.40804289700463414,0,0,1.2378022583007813,0,0,0.91728
0.4111613070126623,0,0,1.1707646118164061,0,0,0.91728
0.4142801619891543,0,0,1.3215993164062498,0,0,0.53508
0.4174375529983081,0,0,1.43652099609375,0,0,0.68796
0.4205551299965009,0,0,1.3215993164062498,0,0,0.45864
0.42367122499854304,0,0,1.2114660400390624,0,0,0.45864
0.4267868020106107,0,0,1.4820108276367188,0,0,0.91728
0.4307536839914974,0,0,1.3742717529296875,0,0,0.68796
0.43390385300153866,0,0,1.0821791503906248,0,0,0.84084
0.4370157819939777,0,0,1.3910311645507811,0,0,0.91728
0.4401317659940105,0,0,1.6160861206054686,0,0,0.7644
0.4432486580044497,0,0,1.2018892333984375,0,0,0.68796
0.44636606800486334,0,0,1.2593500732421874,0,0,0.91728
0.4494831819902174,0,0,1.1085153686523437,0,0,0.15288000000000002
0.45259922198602,0,0,1.2234370483398436,0,0,0.6115200000000001
0.4557150579930749,0,0,1.3383587280273437,0,0,0.07644000000000001
0.4588525790022686,0,0,1.3192051147460937,0,0,0.68796
0.4619862480030861,0,0,1.2617442749023438,0,0,0.6115200000000001
0.4651006580097601,0,0,1.369483349609375,0,0,1.60524
0.468217604997335,0,0,1.6328455322265625,0,0,0.84084
0.47132147900993004,0,0,1.4700398193359374,0,0,1.07016
0.4744557219964918,0,0,1.1156979736328125,0,0,0.6115200000000001
0.4775790020066779,0,0,1.4053963745117186,0,0,0.68796
0.4807233010069467,0,0,1.5442600708007812,0,0,0.7644
0.48384067398728803,0,0,1.1109095703125,0,0,0.6115200000000001
0.48695541798952036,0,0,1.3551181396484375,0,0,0.7644
0.49007082800380886,0,0,1.3766659545898436,0,0,1.1465999999999998
0.49318607099121436,0,0,1.2138602416992186,0,0,0.84084
0.4963007220067084,0,0,1.3479355346679687,0,0,0.91728
0.4994508730014786,0,0,1.5011644409179687,0,0,0.53508
0.5025666900037322,0,0,0.9241618408203125,0,0,0.68796
0.5146977420081384,0,0,1.2521674682617188,0,0,0.68796
0.517951705987798,0,0,1.2737152832031249,0,0,0.99372
0.5211065789917484,0,0,1.149216796875,0,0,0.68796
0.524385208991589,0,0,1.2114660400390624,0,0,0.53508
0.5275031570054125,0,0,1.24498486328125,0,0,0.15288000000000002
0.530599808000261,0,0,1.3359645263671873,0,0,0.91728
0.5337194209860172,0,0,1.1348515869140625,0,0,0.7644
0.5376849329913966,0,0,1.3527239379882812,0,0,0.45864
0.5407799179956783,0,0,1.2689268798828124,0,0,0.6115200000000001
0.5438733840128407,0,0,1.1923124267578125,0,0,0.68796
0.5474531959916931,0,0,1.3024457031249999,0,0,0.99372
0.5506513649888802,0,0,1.3670891479492187,0,0,0.84084
0.5537665709853172,0,0,1.1755530151367186,0,0,0.53508
0.556876815011492,0,0,1.22583125,0,0,0.53508
0.5599868730059825,0,0,1.4724340209960938,0,0,-9.172799999999999
0.5631028760108165,0,0,1.4532804077148436,0,0,0.91728
0.5662052489933558,0,0,1.2952630981445312,0,0,0.53508
0.5693854549899697,0,0,1.1827356201171875,0,0,1.1465999999999998
0.5725480499968398,0,0,1.3910311645507811,0,0,0.6115200000000001
0.5756553859973792,0,0,1.350329736328125,0,0,0.45864
0.5787681110086851,0,0,1.3407529296874998,0,0,0.68796
0.582392960001016,0,0,1.2761094848632812,0,0,2.4460800000000003
0.5855730909970589,0,0,1.1516109985351561,0,0,0.7644
0.5883684679865837,0,0,1.1109095703125,0,0,0.6115200000000001
0.5911576969956513,0,0,1.4508862060546874,0,0,0.7644
0.5939452770107891,0,0,1.649604943847656,0,0,0.91728
0.598568282002816,0,0,1.2904746948242187,0,0,1.07016
0.6014983610075433,0,0,1.3934253662109375,0,0,1.1465999999999998
0.6043031819863245,0,0,1.4532804077148436,0,0,0.3822
0.6071064280113205,0,0,1.235408056640625,0,0,0.45864
0.6099094900127966,0,0,1.3263877197265623,0,0,-0.15288000000000002
0.6127094409894198,0,0,1.3623007446289062,0,0,0.6115200000000001
0.6155176880129147,0,0,1.2569558715820313,0,0,0.6115200000000001
0.6183559340133797,0,0,1.3024457031249999,0,0,0.84084
0.6211589399899822,0,0,1.2306196533203124,0,0,0.53508
0.623973075998947,0,0,1.1875240234375,0,0,0.99372
0.6267945269937627,0,0,1.180341418457031,0,0,0.7644
0.6296185700048227,0,0,1.2497732666015624,0,0,0.84084
0.6324173909961246,0,0,1.4125789794921875,0,0,0.84084
0.6352201749978121,0,0,1.448492004394531,0,0,0.53508
0.6380214210075792,0,0,1.2952630981445312,0,0,0.45864
0.6408251679968089,0,0,1.3000515014648437,0,0,0.0
0.6436274709994905,0,0,1.2713210815429687,0,0,0.53508
0.6464319959923159,0,0,1.1755530151367186,0,0,0.53508
0.6493643519934267,0,0,1.2713210815429687,0,0,0.7644
0.6521520809910726,0,0,1.47482822265625,0,0,0.7644
0.6549370499851648,0,0,1.4006079711914061,0,0,0.91728
0.6577262229984626,0,0,1.3263877197265623,0,0,1.07016
0.6605076550040394,0,0,1.2378022583007813,0,0,1.37592
0.6633291429898236,0,0,1.407790576171875,0,0,1.1465999999999998
0.6661325379973277,0,0,1.3814543579101561,0,0,1.07016
0.6689297289995011,0,0,1.177947216796875,0,0,0.6115200000000001
0.6717284579935949,0,0,1.3383587280273437,0,0,0.0
0.6745285379874986,0,0,1.2785036865234374,0,0,1.2230400000000001
0.6773279889894184,0,0,1.2234370483398436,0,0,0.68796
0.6801284209941514,0,0,1.2641384765625,0,0,0.6115200000000001
0.6830264450109098,0,0,1.2425906616210938,0,0,0.45864
0.6860994109883904,0,0,1.2856862915039062,0,0,0.22932
0.6892166360048577,0,0,1.189918225097656,0,0,0.6115200000000001
0.6923341570072807,0,0,1.197100830078125,0,0,0.7644
0.6954503819870297,0,0,1.3383587280273437,0,0,1.07016
0.6985665140091442,0,0,1.2952630981445312,0,0,0.84084
0.7016841279983055,0,0,1.2904746948242187,0,0,1.5288
0.7048003530071583,0,0,1.4724340209960938,0,0,0.7644
0.7079176149854902,0,0,1.2497732666015624,0,0,0.84084
0.7110358029894996,0,0,1.2569558715820313,0,0,0.3822
0.714154694986064,0,0,1.254561669921875,0,0,1.07016
0.7173004189971834,0,0,1.4030021728515625,0,0,0.6115200000000001
0.7204199219995644,0,0,1.216254443359375,0,0,0.6115200000000001
0.723559423990082,0,0,1.3407529296874998,0,0,0.68796
0.7266777050099336,0,0,1.2952630981445312,0,0,0.53508
0.7297952630033251,0,0,1.2617442749023438,0,0,0.68796
0.7329112470033579,0,0,1.3670891479492187,0,0,0.45864
0.7360284909955226,0,0,1.47482822265625,0,0,0.68796
0.7391453819873277,0,0,1.35990654296875,0,0,0.53508
0.7422682550095487,0,0,1.3192051147460937,0,0,0.45864
0.7454139800101984,0,0,1.5969325073242187,0,0,1.07016
0.7485307049937546,0,0,1.467645617675781,0,0,1.1465999999999998
0.7516478739853483,0,0,1.0845733520507812,0,0,0.84084
0.7547636179951951,0,0,1.1659762084960936,0,0,0.91728
0.7578811759885866,0,0,1.2808978881835937,0,0,0.68796
0.7610119199962355,0,0,1.235408056640625,0,0,0.53508
0.7641342369897757,0,0,1.1228805786132812,0,0,0.53508
0.7672520359919872,0,0,1.22583125,0,0,0.7644
0.770382390008308,0,0,1.3575123413085937,0,0,0.7644
0.7735425959981512,0,0,1.3359645263671873,0,0,1.37592
0.7766613579879049,0,0,1.438915197753906,0,0,0.91728
0.7797787130111828,0,0,1.2282254516601563,0,0,0.7644
0.7828953079879284,0,0,1.2114660400390624,0,0,0.45864
0.7860133670037612,0,0,1.3455413330078123,0,0,0.53508
0.7891289989929646,0,0,1.2713210815429687,0,0,0.53508
0.7922456680098549,0,0,1.1252747802734375,0,0,0.22932
0.7953618380124681,0,0,1.1923124267578125,0,0,0.84084
0.7992759429907892,0,0,1.407790576171875,0,0,0.53508
0.802437000995269,0,0,1.3000515014648437,0,0,0.68796
0.8055550960125402,0,0,1.3120225097656248,0,0,0.30576000000000003
0.8086705250025261,0,0,1.3383587280273437,0,0,0.68796
0.8117886380059645,0,0,1.0726023437499999,0,0,0.7644
0.8149057709961198,0,0,1.3048399047851562,0,0,1.2994800000000002
0.8180225509859156,0,0,1.4508862060546874,0,0,0.53508
0.8211496089934371,0,0,1.2306196533203124,0,0,1.1465999999999998
0.824263279006118,0,0,1.2880804931640624,0,0,0.30576000000000003
0.8273799479939044,0,0,1.3910311645507811,0,0,0.84084
0.8305002099950798,0,0,1.3934253662109375,0,0,0.7644
0.8336197499884292,0,0,1.35990654296875,0,0,0.7644
0.8367335489892866,0,0,1.2401964599609374,0,0,0.99372
0.8398517369932961,0,0,1.3383587280273437,0,0,0.7644
0.8429681099951267,0,0,1.1923124267578125,0,0,0.84084
0.8460867239919025,0,0,1.2138602416992186,0,0,0.22932
0.8493278549867682,0,0,1.3000515014648437,0,0,0.53508
0.852495450002607,0,0,0.9624690673828125,0,0,0.53508
0.8556168969953433,0,0,1.2976572998046874,0,0,1.2230400000000001
0.8587447699974291,0,0,1.5227122558593749,0,0,0.84084
0.8618638649932109,0,0,1.5035586425781249,0,0,0.84084
0.8649782749998849,0,0,1.2928688964843749,0,0,0.22932
0.8680962589860428,0,0,1.448492004394531,0,0,0.6115200000000001
0.8712157249974553,0,0,1.4820108276367188,0,0,0.7644
0.8743333389866166,0,0,1.158793603515625,0,0,0.7644
0.8774498229904566,0,0,1.7860744384765623,0,0,1.45236
0.8805657890043221,0,0,2.3151930053710936,0,0,1.98744
0.8836902540060692,0,0,2.3582886352539063,0,0,1.45236
0.8868073869962245,0,0,2.5043349365234375,0,0,0.68796
0.8899287600070238,0,0,1.5825672973632812,0,0,0.68796
0.8930451509950217,0,0,1.426944189453125,0,0,1.5288
0.8961611539998557,0,0,1.426944189453125,0,0,1.2994800000000002
0.8992775089864153,0,0,2.2649147705078123,0,0,1.68168
0.9024105480057187,0,0,2.3151930053710936,0,0,1.2994800000000002
0.9055713280104101,0,0,1.4437036010742186,0,0,1.2230400000000001
0.9086922940041404,0,0,1.908178723144531,0,0,1.37592
0.9118087230017409,0,0,1.7573440185546874,0,0,1.1465999999999998
0.9149259290134069,0,0,1.5370774658203123,0,0,1.5288
0.918042653996963,0,0,1.908178723144531,0,0,1.45236
0.9211567679885775,0,0,1.668758557128906,0,0,1.1465999999999998
0.924270826013526,0,0,1.7932570434570312,0,0,1.83456
0.9273962549923453,0,0,1.8531120849609375,0,0,0.3822
0.9305164430115838,0,0,1.5083470458984374,0,0,1.07016
0.9336343900067732,0,0,2.243366955566406,0,0,1.2994800000000002
0.9367473559977952,0,0,1.0319009155273438,0,0,1.5288
0.9398633950040676,0,0,1.908178723144531,0,0,1.83456
0.9429810279980302,0,0,2.5905261962890624,0,0,1.2230400000000001
0.9460991410014685,0,0,1.9895815795898437,0,0,0.6115200000000001
0.9492136999906506,0,0,2.0638018310546875,0,0,0.84084
0.9523293880047277,0,0,1.4628572143554686,0,0,0.91728
0.9554462420055643,0,0,1.0462661254882812,0,0,0.6115200000000001
0.9585628749919124,0,0,2.1404162841796874,0,0,2.4460800000000003
0.9616801920055877,0,0,2.0278888061523435,0,0,1.68168
0.964793083985569,0,0,1.956062756347656,0,0,1.37592
0.967910845996812,0,0,2.4779987182617185,0,0,1.60524
0.9710416450107004,0,0,1.4125789794921875,0,0,0.22932
0.9741596470121294,0,0,1.5251064575195312,0,0,1.2994800000000002
0.9773087239882443,0,0,2.176329309082031,0,0,1.5288
0.9804301149852108,0,0,1.0702081420898437,0,0,0.7644
0.9835800070140976,0,0,2.47081611328125,0,0,1.60524
0.986696101987036,0,0,1.8100164550781248,0,0,1.2230400000000001
0.9898117159900721,0,0,0.9361328491210937,0,0,1.60524
0.9929309219878633,0,0,2.346317626953125,0,0,1.60524
0.9960466840129811,0,0,1.7788918334960937,0,0,1.5288
0.9991653540055268,0,0,2.157175695800781,0,0,0.6115200000000001
1.0023584479931742,0,0,1.5251064575195312,0,0,1.98744
1.0056539670040365,0,0,2.1212626708984375,0,0,2.4460800000000003
1.008927301998483,0,0,1.9105729248046874,0,0,1.2994800000000002
1.0121819330088329,0,0,1.2042834350585936,0,0,0.3822
1.0154096749902237,0,0,2.221819140625,0,0,1.07016
1.0186475279915612,0,0,1.1372457885742187,0,0,0.91728
1.0219143810099922,0,0,1.5969325073242187,0,0,1.68168
1.025142605009023,0,0,1.9416975463867185,0,0,1.2994800000000002
1.0283446990069933,0,0,1.7549498168945312,0,0,-9.784320000000001
1.0315796640061308,0,0,1.6112977172851561,0,0,1.60524
1.035168086993508,0,0,1.5562310791015623,0,0,2.90472
1.0383460150042083,0,0,1.5155296508789062,0,0,0.22932
1.041479055013042,0,0,0.8595183959960937,0,0,1.45236
1.0446125569869764,0,0,2.4013842651367185,0,0,3.21048
1.0477529109921306,0,0,3.1268273681640624,0,0,0.99372
1.050884803000372,0,0,-0.2059013427734375,0,0,-0.84084
1.0548054079990834,0,0,2.461239306640625,0,0,3.59268
1.058132612000918,0,0,1.438915197753906,0,0,-1.1465999999999998
1.0632000190089457,0,0,3.574543078613281,0,0,3.51624
1.0663996690127533,0,0,3.2130186279296873,0,0,0.22932
1.0697764469950926,0,0,-0.8283937744140625,0,0,-0.53508
1.0729213379963767,0,0,2.990357873535156,0,0,1.1465999999999998
1.0761608209868427,0,0,-0.11731588134765625,0,0,-0.45864
1.0794027480005752,0,0,0.19871873779296872,0,0,1.5288
1.082698674988933,0,0,2.6910826660156246,0,0,3.51624
1.0856796980078798,0,0,0.1149216796875,0,0,0.15288000000000002
1.087745471013477,0,0,1.2808978881835937,0,0,1.37592
1.089840706990799,0,0,2.798821740722656,0,0,1.60524
1.0919594249862712,0,0,0.5913678100585937,0,0,0.68796
1.0940564569900744,0,0,-1.0773907470703123,0,0,0.45864
1.0961651930119842,0,0,2.023100402832031,0,0,1.98744
1.0982992810022552,0,0,3.1699229980468746,0,0,1.68168
1.1005404600000475,0,0,0.8547299926757812,0,0,-0.22932
1.1026644549856428,0,0,-0.8307879760742187,0,0,0.30576000000000003
1.1047398769878782,0,0,2.2481553588867187,0,0,1.1465999999999998
1.1067954099853523,0,0,2.375048046875,0,0,1.2230400000000001
1.1088829050131608,0,0,-0.16280571289062498,0,0,-1.45236
1.1110036410100292,0,0,0.5195417602539062,0,0,-0.6115200000000001
1.1130849700130057,0,0,2.243366955566406,0,0,0.91728
1.1151699660113081,0,0,2.04943662109375,0,0,0.15288000000000002
1.1171506849932484,0,0,0.07422025146484375,0,0,-0.22932
1.1191368479921948,0,0,1.3168109130859373,0,0,0.84084
1.1211246039893012,0,0,2.748543505859375,0,0,1.83456
1.1231056379911024,0,0,1.8315642700195311,0,0,0.7644
1.1250839119893499,0,0,0.09816226806640624,0,0,-0.68796
1.1270687610085588,0,0,1.5083470458984374,0,0,0.0
1.1290475350106135,0,0,2.4301146850585935,0,0,1.2994800000000002
1.1310273279959802,0,0,1.2617442749023438,0,0,0.3822
1.1330073990102392,0,0,-0.4525041137695312,0,0,-1.75812
1.134995339991292,0,0,0.8259995727539062,0,0,0.30576000000000003
1.1369733180035837,0,0,2.588131994628906,0,0,1.75812
1.138952999986941,0,0,2.114080065917969,0,0,1.60524
1.1409299779916182,0,0,0.1197100830078125,0,0,-0.45864
1.1429109569871798,0,0,0.9792284790039062,0,0,-0.53508
1.1448894900095183,0,0,2.583343591308594,0,0,0.91728
1.1468686719890684,0,0,2.5258827514648434,0,0,0.84084
1.1488459469983354,0,0,0.02154781494140625,0,0,0.7644
1.1508263509895187,0,0,0.0526724365234375,0,0,-0.53508
1.1528046439925674,0,0,1.5346832641601562,0,0,0.45864
1.154796491988236,0,0,1.9129671264648436,0,0,1.07016
1.1567860259965528,0,0,0.7278373046875,0,0,0.0
1.1587756339868065,0,0,1.2976572998046874,0,0,0.99372
1.1607647420023568,0,0,1.8435352783203125,0,0,0.99372
1.1627536639862228,0,0,1.8004396484374998,0,0,0.0
1.1647427160060033,0,0,1.0366893188476562,0,0,-0.3822
1.1667298800020944,0,0,1.2832920898437499,0,0,-0.15288000000000002
1.1687238950107712,0,0,1.5945383056640625,0,0,0.99372
1.1708007979905233,0,0,1.2832920898437499,0,0,0.45864
1.172793609002838,0,0,0.023942016601562498,0,0,-0.53508
1.1747758470010012,0,0,1.2210428466796874,0,0,0.84084
1.1767535659892019,0,0,2.2744915771484373,0,0,1.45236
1.178763005998917,0,0,2.085349645996094,0,0,1.37592
1.1807531139929779,0,0,0.9528922607421875,0,0,0.22932
1.1827338889997918,0,0,1.3168109130859373,0,0,0.6115200000000001
1.1847824029973708,0,0,2.214636535644531,0,0,0.53508
1.1872479309968185,0,0,1.2401964599609374,0,0,0.7644
1.18978532901383,0,0,-0.30406361083984373,0,0,0.91728
1.192313172010472,0,0,1.419761584472656,0,0,1.45236
1.1948554030095693,0,0,0.8858546142578124,0,0,0.7644
1.197396227013087,0,0,0.6560112548828124,0,0,0.6115200000000001
1.199938681005733,0,0,2.882618798828125,0,0,1.98744
1.2024890600005165,0,0,2.389413256835937,0,0,0.45864
1.2050299209950026,0,0,0.1484405029296875,0,0,9.09636
1.2075716709950939,0,0,1.62805712890625,0,0,1.60524
1.2101141980092507,0,0,2.039859814453125,0,0,0.22932
1.2126571699918713,0,0,-0.3591302490234375,0,0,-0.45864
1.215203013009159,0,0,1.4149731811523436,0,0,1.5288
1.2177456509962212,0,0,2.559401574707031,0,0,0.0
1.2202854570059571,0,0,1.2378022583007813,0,0,-0.68796
1.2228282619907986,0,0,0.8906430175781249,0,0,0.6115200000000001
1.225398012000369,0,0,2.152387292480469,0,0,0.6115200000000001
1.2279392239870504,0,0,0.7565677246093749,0,0,0.07644000000000001
1.2304822889855132,0,0,-0.42377369384765623,0,0,0.99372
1.2330248719954398,0,0,2.6982652709960937,0,0,1.45236
1.2355668070085812,0,0,1.5179238525390624,0,0,-9.01992
1.2381098349869717,0,0,-0.1005564697265625,0,0,1.83456
1.240651288011577,0,0,2.7461493041992187,0,0,1.5288
1.2431950560130645,0,0,1.35990654296875,0,0,0.07644000000000001
1.2457359360123519,0,0,-0.26815058593749996,0,0,0.53508
1.2482772970106453,0,0,2.6527754394531247,0,0,2.4460800000000003
1.2508184539910872,0,0,1.218648645019531,0,0,0.3822
1.2533842039993033,0,0,-0.679953271484375,0,0,9.47856
1.2559263609873597,0,0,2.5570073730468748,0,0,2.4460800000000003
1.258465351013001,0,0,3.1459809814453124,0,0,2.06388
1.2610698780044913,0,0,-0.30885201416015623,0,0,-0.68796
1.2636433870065957,0,0,2.4349030883789062,0,0,1.5288
1.2661858770006802,0,0,3.1172505615234374,0,0,1.68168
1.2687221830128692,0,0,-0.7062894897460937,0,0,-0.7644
1.271289728989359,0,0,0.565031591796875,0,0,1.37592
1.2738340520008933,0,0,3.1938650146484373,0,0,1.45236
1.2763741360104177,0,0,1.1324573852539062,0,0,-9.784320000000001
1.2789217369863763,0,0,0.8451531860351562,0,0,0.7644
1.2814967459999025,0,0,2.9568390502929685,0,0,0.91728
1.2841229760088027,0,0,1.4245499877929686,0,0,-0.68796
1.2867992430110462,0,0,0.612915625,0,0,2.14032
1.290128299006028,0,0,2.8227637573242186,0,0,0.30576000000000003
1.293300690012984,0,0,-0.28969840087890625,0,0,-9.784320000000001
1.2964325259963516,0,0,1.467645617675781,0,0,1.83456
1.2995538059913088,0,0,1.6448165405273436,0,0,-8.943480000000001
1.3026606609928422,0,0,-0.00239420166015625,0,0,0.84084
1.305773071013391,0,0,3.1172505615234374,0,0,1.5288
1.3088887780031655,0,0,0.5817910034179687,0,0,0.07644000000000001
1.3120050209981855,0,0,1.1540052001953125,0,0,0.68796
1.3151205609901808,0,0,2.0470424194335934,0,0,0.45864
1.3182362299994566,0,0,-0.44053310546874996,0,0,1.07016
1.3213527890038677,0,0,2.3511060302734372,0,0,1.2230400000000001
1.3244686060061213,0,0,0.2537853759765625,0,0,-9.784320000000001
1.3275863869930618,0,0,1.7717092285156248,0,0,1.75812
1.3307015929894987,0,0,1.9632453613281249,0,0,1.911
1.3338183920131996,0,0,-0.612915625,0,0,-0.53508
1.3369355619943235,0,0,2.3870190551757813,0,0,1.5288
1.3400511940126307,0,0,2.090138049316406,0,0,-0.3822
1.343171271000756,0,0,-0.34715924072265625,0,0,0.6115200000000001
1.346290847985074,0,0,2.6048914062499997,0,0,2.06388
1.3521966899861582,0,0,0.5195417602539062,0,0,0.45864
1.355371173005551,0,0,1.8435352783203125,0,0,0.68796
1.3584958059946075,0,0,0.8667010009765624,0,0,2.14032
1.3616080860083457,0,0,1.8507178833007811,0,0,1.07016
1.3647399779874831,0,0,0.16759411621093748,0,0,9.631440000000001
1.3678598139958922,0,0,2.4205378784179685,0,0,1.37592
1.3710454080137424,0,0,1.484405029296875,0,0,0.15288000000000002
1.3741865399933886,0,0,-0.7661445312499999,0,0,0.0
1.3773128020111471,0,0,2.849099975585937,0,0,1.911
1.3804606570047326,0,0,0.8259995727539062,0,0,0.0
1.3835628629894927,0,0,1.1420341918945311,0,0,1.1465999999999998
1.3866976989957038,0,0,2.1068974609374997,0,0,1.45236
1.3898129049921408,0,0,0.02633621826171875,0,0,0.68796
1.392929389985511,0,0,1.5849614990234373,0,0,1.1465999999999998
1.3960476889915299,0,0,1.6448165405273436,0,0,0.0
1.3991639690066222,0,0,1.2808978881835937,0,0,1.1465999999999998
1.4022816389915533,0,0,1.6065093139648436,0,0,9.40212
1.4054198079975322,0,0,0.7517793212890624,0,0,0.84084
1.4085390330001246,0,0,2.4947581298828125,0,0,2.2167600000000003
1.4116577389941085,0,0,0.28490999755859375,0,0,-0.22932
1.4148839070112444,0,0,0.6679822631835937,0,0,1.75812
1.417999539989978,0,0,3.8283284545898435,0,0,1.1465999999999998
1.4211570789921097,0,0,-0.3758896606445312,0,0,-0.3822
1.424285858985968,0,0,1.4891934326171874,0,0,0.22932
1.4274077320005745,0,0,1.3766659545898436,0,0,0.3822
1.4305131059954874,0,0,0.22266075439453123,0,0,1.45236
1.433625405014027,0,0,2.418143676757812,0,0,1.2230400000000001
1.4367419999907725,0,0,0.488417138671875,0,0,0.15288000000000002
1.4398578729887959,0,0,2.959233251953125,0,0,1.45236
1.4429737459868193,0,0,0.814028564453125,0,0,-0.07644000000000001
1.4460903420113027,0,0,-0.7685387329101562,0,0,0.6115200000000001
1.449205418000929,0,0,3.375824340820312,0,0,1.911
1.4523208659957163,0,0,-1.0630255371093749,0,0,-1.60524
1.4554444609966595,0,0,2.327164013671875,0,0,1.1465999999999998
1.4585595930111594,0,0,2.616862414550781,0,0,2.06388
1.4616756509931292,0,0,-1.6400281372070311,0,0,-9.784320000000001
1.464791876001982,0,0,2.6216508178710938,0,0,2.06388
1.4680070450122003,0,0,1.637633935546875,0,0,-0.6115200000000001
1.4711604169860948,0,0,0.10773907470703124,0,0,1.5288
1.474283049989026,0,0,2.0757728393554684,0,0,1.07016
1.4774397560104262,0,0,-0.10295067138671875,0,0,0.6115200000000001
1.4805385729996487,0,0,2.5737667846679684,0,0,1.45236
1.483659594989149,0,0,1.678335363769531,0,0,-0.68796
1.4868142640043516,0,0,0.04548983154296875,0,0,1.83456
1.4899343219876755,0,0,2.920926025390625,0,0,1.68168
1.4930506020027678,0,0,-0.28012159423828126,0,0,-0.22932
1.4961550130101386,0,0,1.235408056640625,0,0,1.2230400000000001
1.4993109040078707,0,0,2.583343591308594,0,0,1.98744
1.5024662209907547,0,0,-1.5107412475585937,0,0,-0.15288000000000002
1.5055735390051268,0,0,4.185064501953125,0,0,1.68168
1.5086705969879404,0,0,0.45010991210937495,0,0,0.30576000000000003
1.5117682669952046,0,0,0.6584054565429687,0,0,0.84084
1.514887972996803,0,0,2.5163059448242184,0,0,3.13404
1.5180110310029704,0,0,-0.09816226806640624,0,0,0.68796
1.521126589999767,0,0,2.1595698974609374,0,0,2.82828
1.5242436660046224,0,0,0.9361328491210937,0,0,-0.99372
1.5276040919998195,0,0,1.0749965454101562,0,0,0.0
1.5307259279943537,0,0,2.1212626708984375,0,0,2.2167600000000003
1.5338455979945138,0,0,-0.8595183959960937,0,0,0.68796
1.5369638970005326,0,0,2.042254016113281,0,0,2.36964
1.5400654370023403,0,0,2.482787121582031,0,0,-0.7644
1.543183494999539,0,0,0.9911994873046874,0,0,1.83456
1.5463046829972882,0,0,2.375048046875,0,0,1.68168
1.5494238150131423,0,0,-0.4525041137695312,0,0,-0.22932
1.55254344799323,0,0,1.7525556152343749,0,0,1.1465999999999998
1.5556465619883966,0,0,2.4779987182617185,0,0,0.30576000000000003
1.5587618610006757,0,0,-0.45010991210937495,0,0,0.0
1.5618790489970706,0,0,1.9656395629882812,0,0,0.30576000000000003
1.5649909960047808,0,0,1.618480322265625,0,0,1.37592
1.5681013129942585,0,0,1.35990654296875,0,0,1.60524
1.5714389990025666,0,0,1.24498486328125,0,0,0.7644
1.5745501870114822,0,0,1.1013327636718748,0,0,1.45236
1.577650782011915,0,0,2.6312276245117188,0,0,0.6115200000000001
1.580748025997309,0,0,0.3232172241210937,0,0,9.555
1.5838478810037486,0,0,2.221819140625,0,0,1.07016
1.5869799939973745,0,0,1.956062756347656,0,0,2.06388
1.590128718991764,0,0,0.023942016601562498,0,0,0.22932
1.5932472400018014,0,0,3.0238766967773434,0,0,1.2230400000000001
1.5964000759995542,0,0,0.5363011718749999,0,0,9.24924
1.5995533000095747,0,0,1.917755529785156,0,0,1.45236
1.6036685330036562,0,0,1.3239935180664062,0,0,-0.84084
1.6067950729920994,0,0,0.4333505004882812,0,0,1.68168
1.6099164269980974,0,0,2.3822306518554686,0,0,0.07644000000000001
1.6130298739881255,0,0,0.41419688720703124,0,0,1.37592
1.6161453030072153,0,0,2.4205378784179685,0,0,0.53508
1.619262397987768,0,0,0.9624690673828125,0,0,0.07644000000000001
1.6223800859879702,0,0,0.04548983154296875,0,0,0.99372
1.6254976259951945,0,0,3.526659045410156,0,0,1.68168
1.6286133140092716,0,0,-0.1580173095703125,0,0,0.3822
1.6317321870010346,0,0,1.714248388671875,0,0,1.1465999999999998
1.6348490419914015,0,0,2.3487118286132813,0,0,1.45236
1.6379662299877964,0,0,-0.9265560424804687,0,0,0.0
1.6410808429936878,0,0,3.337517114257812,0,0,1.07016
1.6441952349850908,0,0,-0.35673604736328124,0,0,-0.30576000000000003
1.6473132190003525,0,0,2.0661960327148434,0,0,1.83456
1.6504854439990595,0,0,2.437297290039062,0,0,1.83456
1.6536600569961593,0,0,-1.3623007446289062,0,0,-0.22932
1.656785300001502,0,0,2.920926025390625,0,0,1.911
1.6598867469874676,0,0,2.042254016113281,0,0,-1.07016
1.6630042690085247,0,0,-1.2521674682617188,0,0,1.37592
1.6661183639953379,0,0,2.7269956909179687,0,0,1.2994800000000002
1.6692281819996424,0,0,-1.3455413330078123,0,0,-0.15288000000000002
1.6723829800030217,0,0,1.956062756347656,0,0,1.60524
1.6755010389897507,0,0,2.559401574707031,0,0,1.60524
1.678606227011187,0,0,-0.7876923461914062,0,0,1.5288
1.681717358995229,0,0,3.1483751831054687,0,0,1.37592
1.6848348249914125,0,0,1.3527239379882812,0,0,-9.01992
1.6879902340006083,0,0,0.9864110839843749,0,0,0.45864
1.6911086080071982,0,0,2.3223756103515623,0,0,1.75812
1.6942269619903527,0,0,-0.7709329345703124,0,0,0.07644000000000001
1.697342519997619,0,0,3.7038299682617186,0,0,2.5989600000000004
1.7004588010022417,0,0,0.8092401611328125,0,0,-1.07016
1.7035761179868132,0,0,0.016759411621093748,0,0,0.84084
1.7066919920034707,0,0,3.0071172851562498,0,0,2.2167600000000003
1.7098008650064003,0,0,-0.2920926025390625,0,0,-0.6115200000000001
1.712895553006092,0,0,1.4796166259765624,0,0,1.75812
1.7160131669952534,0,0,1.4341267944335936,0,0,-0.68796
1.7191299840051215,0,0,0.17477672119140625,0,0,1.5288
1.7222596349893138,0,0,2.3343466186523436,0,0,0.45864
1.7254055450030137,0,0,0.21308394775390624,0,0,-0.30576000000000003
1.7285213810100686,0,0,1.7741034301757812,0,0,1.5288
1.7316389759944286,0,0,2.1883003173828124,0,0,-9.172799999999999
1.734757163998438,0,0,-0.5219359619140624,0,0,1.68168
1.737876981991576,0,0,2.597708801269531,0,0,1.2230400000000001
1.740991631988436,0,0,-0.16280571289062498,0,0,-0.22932
1.7441091169894207,0,0,1.1851298217773436,0,0,-0.30576000000000003
1.7472241559880786,0,0,2.5953145996093747,0,0,2.36964
1.7503398630069569,0,0,-1.0654197387695312,0,0,-0.68796
1.7534575320023578,0,0,3.201047619628906,0,0,2.4460800000000003
1.7565715170057956,0,0,1.8650830932617186,0,0,-0.22932
1.759687075013062,0,0,0.02633621826171875,0,0,0.22932
1.7628029659972526,0,0,2.281674182128906,0,0,2.2931999999999997
1.7659224689996336,0,0,-0.25139117431640623,0,0,0.0
1.7690308789897244,0,0,2.3151930053710936,0,0,1.68168
1.7721891039982438,0,0,1.43652099609375,0,0,-1.2230400000000001
1.7753118099935818,0,0,0.967257470703125,0,0,1.5288
1.7784215910069179,0,0,1.8531120849609375,0,0,1.83456
1.781600056012394,0,0,-0.6057330200195312,0,0,0.30576000000000003
1.7846983920026105,0,0,2.398990063476562,0,0,-9.555
1.7908416209975258,0,0,-0.3902548706054687,0,0,1.83456
1.7939631050103344,0,0,2.499546533203125,0,0,1.07016
1.7970774229906965,0,0,0.28969840087890625,0,0,-9.40212
1.800192258990137,0,0,2.4779987182617185,0,0,-0.22932
1.8033210760040674,0,0,1.5753846923828123,0,0,1.2994800000000002
1.8064370230131317,0,0,-0.74699091796875,0,0,0.53508
1.8095549329882488,0,0,2.4492682983398435,0,0,0.99372
1.8126667879987508,0,0,1.0606313354492187,0,0,0.0
1.8158007349993568,0,0,1.695094775390625,0,0,0.91728
1.8189224039961118,0,0,1.5490484741210937,0,0,1.2230400000000001
1.8220415000105277,0,0,-1.2617442749023438,0,0,-1.07016
1.8251575760077685,0,0,3.404554760742187,0,0,1.45236
1.8282743750023656,0,0,0.6560112548828124,0,0,-1.911
1.8313893970043864,0,0,0.8475473876953125,0,0,2.4460800000000003
1.8345023620058782,0,0,3.4620156005859375,0,0,3.2869200000000003
1.8376180870109238,0,0,-1.1635820068359375,0,0,-0.68796
1.8407339229888748,0,0,2.549824768066406,0,0,1.68168
1.8438502229982987,0,0,0.5698199951171875,0,0,-9.784320000000001
1.8469644660071936,0,0,-0.2705447875976562,0,0,0.45864
1.8501110239885747,0,0,3.239354846191406,0,0,1.60524
1.853309452009853,0,0,-0.7852981445312499,0,0,0.15288000000000002
1.8564402509946376,0,0,2.319981408691406,0,0,1.07016
1.8595560870016925,0,0,2.722207287597656,0,0,-0.53508
1.8626733490091283,0,0,-1.8004396484374998,0,0,0.3822
1.865788444003556,0,0,3.347093920898437,0,0,1.68168
1.8688975579862017,0,0,-0.9337386474609375,0,0,-0.6115200000000001
1.8720468569954392,0,0,1.2641384765625,0,0,0.0
1.8751649520127103,0,0,2.7724855224609373,0,0,2.4460800000000003
1.8782821770000737,0,0,-2.0973206542968748,0,0,6.80316
1.8814766420109663,0,0,2.5163059448242184,0,0,1.83456
1.8845934410055634,0,0,1.0965443603515623,0,0,-2.4460800000000003
1.8877055550110526,0,0,-2.3774422485351563,0,0,1.5288
1.890853408986004,0,0,2.4947581298828125,0,0,2.75184
1.893972040998051,0,0,-1.1085153686523437,0,0,6.497400000000001
1.89708850698662,0,0,2.1021090576171875,0,0,0.68796
1.9002051019924693,0,0,3.2154128295898436,0,0,1.911
1.9033177719975356,0,0,-1.8459294799804686,0,0,-4.0513200000000005
1.9064367369865067,0,0,1.0007762939453124,0,0,0.0
1.909549814008642,0,0,2.212242333984375,0,0,4.12776
1.9126727799884975,0,0,-0.5865794067382812,0,0,-1.98744
1.9157964309852105,0,0,3.284844677734375,0,0,-0.15288000000000002
1.9189108409918845,0,0,2.252943762207031,0,0,-0.6115200000000001
1.9220281580055598,0,0,-1.1061211669921875,0,0,-1.45236
1.9251426419941708,0,0,0.9265560424804687,0,0,1.60524
1.928256182000041,0,0,1.8938135131835936,0,0,1.60524
1.9313712780131027,0,0,-1.1516109985351561,0,0,-9.784320000000001
1.9344912619853858,0,0,1.0989385620117187,0,0,1.45236
1.9376067649864126,0,0,2.023100402832031,0,0,1.37592
1.940717933990527,0,0,-0.373495458984375,0,0,-0.30576000000000003
1.9438321400084533,0,0,0.9002198242187499,0,0,-0.07644000000000001
1.9469454950012732,0,0,0.5793968017578125,0,0,0.30576000000000003
1.9500598500017077,0,0,0.5698199951171875,0,0,0.15288000000000002
1.9531698339851573,0,0,1.6232687255859375,0,0,0.91728
1.9562838739948347,0,0,0.6751648681640625,0,0,-0.53508
1.9594008020067122,0,0,0.603338818359375,0,0,0.0
1.9625148240011185,0,0,0.6703764648437499,0,0,0.22932
1.9656260299962014,0,0,0.8667010009765624,0,0,1.2230400000000001
1.9687319590011612,0,0,0.3447650390625,0,0,0.15288000000000002
1.9718884429894388,0,0,2.3965958618164063,0,0,0.91728
1.975005815998884,0,0,1.120486376953125,0,0,0.84084
1.9781153369985987,0,0,-0.5458779785156249,0,0,-0.53508
1.981214044004446,0,0,1.7764976318359373,0,0,-0.53508
1.9843292690056842,0,0,0.12449848632812499,0,0,0.0
1.987445253005717,0,0,0.28969840087890625,0,0,1.07016
1.9905947000079323,0,0,2.2936451904296873,0,0,1.2994800000000002
1.9937088139995467,0,0,0.24660277099609373,0,0,-0.7644
1.996820612985175,0,0,0.6943184814453125,0,0,0.22932
1.9999340230133384,0,0,1.4508862060546874,0,0,0.07644000000000001
2.0030476179963443,0,0,-0.16280571289062498,0,0,9.172799999999999
2.0061926580092404,0,0,1.5418658691406248,0,0,0.99372
2.0093050680006854,0,0,1.1851298217773436,0,0,0.3822
2.0124174779921304,0,0,0.5674257934570313,0,0,0.45864
2.0155292399867903,0,0,0.9433154541015625,0,0,0.0
2.0186481130076572,0,0,0.5315127685546874,0,0,-9.555
2.021769596991362,0,0,0.7948749511718749,0,0,0.22932
2.0248798780085053,0,0,0.0430956298828125,0,0,0.22932
2.0279919549939223,0,0,1.3646949462890625,0,0,0.7644
2.0311110870097764,0,0,1.0797849487304687,0,0,0.07644000000000001
2.0342957559914794,0,0,0.17956512451171874,0,0,-0.15288000000000002
2.0374262949917465,0,0,1.8148048583984373,0,0,0.91728
2.0405219650128856,0,0,0.8212111694335937,0,0,0.0
2.0436401159968227,0,0,0.411802685546875,0,0,0.6115200000000001
2.04675685899565,0,0,1.5538368774414062,0,0,0.6115200000000001
2.0498782320064493,0,0,0.5530605834960938,0,0,0.0
2.052998272003606,0,0,0.6464344482421874,0,0,-0.15288000000000002
2.0563555129920132,0,0,1.3287819213867187,0,0,0.68796
2.0596036440110765,0,0,0.5243301635742187,0,0,0.22932
2.062779256986687,0,0,0.4836287353515625,0,0,-9.01992
2.0658955189865083,0,0,0.9504980590820312,0,0,0.30576000000000003
2.0690066700044554,0,0,0.689530078125,0,0,1.2994800000000002
2.0721371730032843,0,0,0.612915625,0,0,0.3822
2.0752852490113582,0,0,1.6017209106445311,0,0,0.91728
2.0784033260133583,0,0,1.180341418457031,0,0,0.91728
2.0815482730104122,0,0,1.4317325927734375,0,0,0.84084
2.084663034998812,0,0,1.5131354492187499,0,0,0.99372
2.0877775739936624,0,0,1.22583125,0,0,0.45864
2.090928318008082,0,0,1.4604630126953124,0,0,0.68796
2.0940449310000986,0,0,1.20667763671875,0,0,0.0
2.097158155986108,0,0,1.4317325927734375,0,0,0.7644
2.1003005109960213,0,0,1.2808978881835937,0,0,0.6115200000000001
2.103632178012049,0,0,1.0438719238281249,0,0,1.37592
2.1067899579938967,0,0,1.22583125,0,0,0.6115200000000001
2.10990766400937,0,0,1.2856862915039062,0,0,0.91728
2.1130197779857554,0,0,1.2617442749023438,0,0,0.68796
2.1161895770055708,0,0,1.5083470458984374,0,0,0.53508
2.1194412439945154,0,0,1.5394716674804687,0,0,0.99372
2.1226159500074573,0,0,1.0989385620117187,0,0,0.84084
2.125794952007709,0,0,1.2330138549804688,0,0,0.91728
2.128968139993958,0,0,1.1252747802734375,0,0,0.53508
2.132195418991614,0,0,1.2928688964843749,0,0,0.3822
2.135405846987851,0,0,1.1061211669921875,0,0,0.3822
2.1387058469990734,0,0,1.407790576171875,0,0,0.99372
2.1419167190033477,0,0,1.0749965454101562,0,0,1.1465999999999998
2.1451230169914197,0,0,1.0007762939453124,0,0,1.2994800000000002
2.1483130929991603,0,0,1.3527239379882812,0,0,0.45864
2.151540502003627,0,0,1.3144167114257812,0,0,0.6115200000000001
2.1547660589858424,0,0,1.1755530151367186,0,0,0.68796
2.1579627089959104,0,0,1.3527239379882812,0,0,0.6115200000000001
2.161060101003386,0,0,1.707065783691406,0,0,1.2230400000000001
2.164182640990475,0,0,1.0462661254882812,0,0,0.68796
2.167300458007958,0,0,1.2641384765625,0,0,0.7644
2.1704480350017548,0,0,1.599326708984375,0,0,0.22932
2.1735809450037777,0,0,1.158793603515625,0,0,0.45864
2.1766990030009765,0,0,1.1133037719726562,0,0,2.06388
2.179819579992909,0,0,1.24498486328125,0,0,0.84084
2.1829254899930675,0,0,1.2306196533203124,0,0,0.7644
2.1860376039985567,0,0,1.158793603515625,0,0,1.68168
2.189155144005781,0,0,1.4939818359375,0,0,0.53508
2.192354719998548,0,0,1.3096283081054687,0,0,1.1465999999999998
2.1949900049949065,0,0,1.2330138549804688,0,0,0.7644
2.197527237003669,0,0,1.235408056640625,0,0,0.22932
2.2000520240108017,0,0,1.438915197753906,0,0,0.68796
2.202595050999662,0,0,1.3192051147460937,0,0,1.07016
2.205136931006564,0,0,1.197100830078125,0,0,0.68796
2.2076661990140565,0,0,1.235408056640625,0,0,0.6115200000000001
2.2102029859961476,0,0,1.407790576171875,0,0,0.7644
2.212744032003684,0,0,1.350329736328125,0,0,0.84084
2.215284578007413,0,0,1.3934253662109375,0,0,0.53508
2.2178266610135324,0,0,1.0965443603515623,0,0,0.0
2.220364429987967,0,0,1.3407529296874998,0,0,1.75812
2.222906253999099,0,0,1.668758557128906,0,0,1.37592
2.22547376199509,0,0,1.1875240234375,0,0,0.3822
2.2280137719935738,0,0,1.1252747802734375,0,0,0.68796
2.230555354995886,0,0,1.2473790649414063,0,0,0.53508
2.2330944009881932,0,0,1.668758557128906,0,0,0.6115200000000001
2.2356339099933393,0,0,1.149216796875,0,0,0.45864
2.2381751780048944,0,0,1.1252747802734375,0,0,1.1465999999999998
2.240712947008433,0,0,1.3359645263671873,0,0,0.30576000000000003
2.243253177992301,0,0,1.5586252807617187,0,0,0.68796
2.245793798007071,0,0,1.2737152832031249,0,0,0.7644
2.248332899995148,0,0,1.24498486328125,0,0,1.1465999999999998
2.2508728349930607,0,0,1.5011644409179687,0,0,0.99372
2.2534146220132243,0,0,1.5155296508789062,0,0,0.6115200000000001
2.255971575010335,0,0,1.3096283081054687,0,0,0.84084
2.2585240839980543,0,0,1.1133037719726562,0,0,1.1465999999999998
2.261065408005379,0,0,1.3479355346679687,0,0,0.45864
2.263604582985863,0,0,1.6160861206054686,0,0,0.68796
2.266144055989571,0,0,1.350329736328125,0,0,1.07016
2.2686786570120603,0,0,0.9457096557617187,0,0,1.2230400000000001
2.2712444989883807,0,0,1.3215993164062498,0,0,0.7644
2.2737909340066835,0,0,1.6807295654296874,0,0,0.53508
2.276331887987908,0,0,1.1947066284179686,0,0,0.84084
2.2788743040000554,0,0,0.9911994873046874,0,0,1.2230400000000001
2.2814171469944995,0,0,1.4125789794921875,0,0,0.53508
2.2839575819962192,0,0,1.438915197753906,0,0,0.3822
2.2865020720055327,0,0,1.3718775512695311,0,0,0.7644
2.289043839991791,0,0,1.3168109130859373,0,0,0.3822
2.291648496990092,0,0,1.3527239379882812,0,0,0.68796
2.2944994290010072,0,0,1.618480322265625,0,0,0.99372
2.297597764991224,0,0,1.2880804931640624,0,0,0.91728
2.300690748990746,0,0,1.13006318359375,0,0,0.84084
2.3037925859971438,0,0,1.2880804931640624,0,0,0.53508
2.3068943849939387,0,0,1.3192051147460937,0,0,0.53508
2.309992388007231,0,0,1.1180921752929687,0,0,0.0
2.3130959830014035,0,0,1.467645617675781,0,0,0.45864
2.316190930985613,0,0,1.2042834350585936,0,0,0.7644
2.319292044994654,0,0,1.1635820068359375,0,0,0.3822
2.322416492010234,0,0,1.2401964599609374,0,0,0.68796
2.3255537349905353,0,0,1.5921441040039062,0,0,0.91728
2.3286680899909697,0,0,1.3359645263671873,0,0,1.1465999999999998
2.3318199990026187,0,0,1.0965443603515623,0,0,0.68796
2.334939224005211,0,0,1.407790576171875,0,0,0.7644
2.338055708009051,0,0,1.2593500732421874,0,0,0.53508
2.3411690820066724,0,0,1.2234370483398436,0,0,-0.15288000000000002
2.3442851210129447,0,0,1.120486376953125,0,0,0.84084
2.3474028460041154,0,0,1.1827356201171875,0,0,0.45864
2.352034054987598,0,0,1.1851298217773436,0,0,1.1465999999999998
2.35528540800442,0,0,1.3910311645507811,0,0,0.84084
2.358409706997918,0,0,1.3407529296874998,0,0,0.6115200000000001
2.3615630980057176,0,0,1.1851298217773436,0,0,9.47856
2.3648949500056915,0,0,1.446097802734375,0,0,1.2230400000000001
2.368010415986646,0,0,1.1851298217773436,0,0,0.84084
2.3711547139973845,0,0,1.0366893188476562,0,0,1.2230400000000001
2.3742821060004644,0,0,1.4820108276367188,0,0,0.68796
2.377432996989228,0,0,1.2617442749023438,0,0,0.91728
2.3805592409917153,0,0,1.2976572998046874,0,0,0.6115200000000001
2.383678724989295,0,0,1.350329736328125,0,0,0.6115200000000001
2.386795616010204,0,0,1.484405029296875,0,0,0.7644
2.3899151560035534,0,0,1.35990654296875,0,0,0.45864
2.3931363800074905,0,0,1.197100830078125,0,0,0.22932
2.395985885988921,0,0,1.4772224243164063,0,0,0.84084
2.3987843730137683,0,0,1.1755530151367186,0,0,0.91728
2.4016056199907325,0,0,1.2976572998046874,0,0,0.53508
2.4043980890128296,0,0,1.4317325927734375,0,0,0.45864
2.407229150994681,0,0,1.5538368774414062,0,0,0.6115200000000001
2.410027434991207,0,0,1.3263877197265623,0,0,1.07016
2.4128255329851527,0,0,1.1133037719726562,0,0,1.2230400000000001
2.415624243003549,0,0,1.446097802734375,0,0,0.99372
2.4184212870022748,0,0,1.4915876342773438,0,0,0.91728
2.421216718998039,0,0,1.1851298217773436,0,0,0.99372
2.424012836010661,0,0,1.1156979736328125,0,0,0.0
2.4268094720027875,0,0,1.3575123413085937,0,0,0.99372
2.42960688599851,0,0,1.20667763671875,0,0,0.84084
2.4324016330065206,0,0,1.3527239379882812,0,0,0.53508
2.4352218240092043,0,0,1.3239935180664062,0,0,0.53508
2.438019366993103,0,0,1.3120225097656248,0,0,0.7644
2.4408147250069305,0,0,1.3335703247070312,0,0,1.1465999999999998
2.4436328609881457,0,0,1.1635820068359375,0,0,1.2994800000000002
2.446431496995501,0,0,1.5059528442382812,0,0,0.91728
2.4492280219856184,0,0,1.5227122558593749,0,0,0.91728
2.4520243800070602,0,0,1.1420341918945311,0,0,0.53508
2.454819848993793,0,0,1.3670891479492187,0,0,0.0
2.457616984989727,0,0,1.467645617675781,0,0,0.68796
2.460412713000551,0,0,1.1707646118164061,0,0,0.84084
2.463211090012919,0,0,1.1755530151367186,0,0,0.6115200000000001
2.466006929986179,0,0,1.3934253662109375,0,0,0.84084
2.4687961029994767,0,0,1.2689268798828124,0,0,0.99372
2.471619385993108,0,0,1.235408056640625,0,0,0.68796
2.4744184110022616,0,0,1.1109095703125,0,0,1.1465999999999998
2.477215046994388,0,0,1.2401964599609374,0,0,0.3822
2.4800129790091887,0,0,1.43652099609375,0,0,0.84084
2.48281331898761,0,0,1.1252747802734375,0,0,0.45864
2.4856112510024104,0,0,1.1923124267578125,0,0,-0.3822
2.488408534991322,0,0,1.2497732666015624,0,0,0.7644
2.4913055769866332,0,0,1.20667763671875,0,0,0.7644
2.494182749011088,0,0,1.3670891479492187,0,0,0.45864
2.497299993003253,0,0,1.465251416015625,0,0,0.7644
2.500446791003924,0,0,1.5849614990234373,0,0,1.2230400000000001
2.5035623679868877,0,0,1.0869675537109373,0,0,0.84084
2.50667575999978,0,0,1.1013327636718748,0,0,0.91728
2.5097897440136876,0,0,1.3048399047851562,0,0,0.0
2.5129044500063173,0,0,1.1659762084960936,0,0,0.91728
2.5160184529959224,0,0,1.1324573852539062,0,0,0.0
2.519133697001962,0,0,1.24498486328125,0,0,0.99372
2.5222466989944223,0,0,1.120486376953125,0,0,1.1465999999999998
2.5255740330030676,0,0,1.1707646118164061,0,0,0.99372
2.5286920910002664,0,0,1.2330138549804688,0,0,1.07016
2.531806871993467,0,0,1.5945383056640625,0,0,0.7644
2.534922060003737,0,0,1.2497732666015624,0,0,0.6115200000000001
2.538057747995481,0,0,1.2713210815429687,0,0,0.68796
2.5416447079915088,0,0,1.5634136840820312,0,0,0.91728
2.544793914014008,0,0,1.1324573852539062,0,0,0.91728
2.5479103609977756,0,0,1.37906015625,0,0,0.91728
2.5510252160020173,0,0,1.3934253662109375,0,0,0.53508
2.5541618109855335,0,0,1.2928688964843749,0,0,0.68796
2.5572972210065927,0,0,1.1348515869140625,0,0,0.0
2.5604128720005974,0,0,1.2928688964843749,0,0,0.91728
2.563533540989738,0,0,1.2593500732421874,0,0,0.68796
2.5671986489905976,0,0,1.0845733520507812,0,0,0.30576000000000003
2.5703413739975076,0,0,1.5251064575195312,0,0,0.6115200000000001
2.5734961350099184,0,0,1.2306196533203124,0,0,0.6115200000000001
2.5766077309963293,0,0,1.1372457885742187,0,0,0.22932
2.5797164739924483,0,0,1.2593500732421874,0,0,0.6115200000000001
2.582875921012601,0,0,1.419761584472656,0,0,1.1465999999999998
2.5859870350104757,0,0,1.2689268798828124,0,0,1.07016
2.5890976669907104,0,0,1.3646949462890625,0,0,0.6115200000000001
2.5922416879911907,0,0,1.4891934326171874,0,0,0.84084
2.5953500980103854,0,0,1.3072341064453123,0,0,0.84084
2.598495563986944,0,0,1.199495031738281,0,0,0.91728
2.6027856830041856,0,0,1.3646949462890625,0,0,0.45864
2.6059821299859323,0,0,1.149216796875,0,0,0.6115200000000001
2.6090921880095266,0,0,1.2330138549804688,0,0,0.6115200000000001
2.6122095239988994,0,0,1.2473790649414063,0,0,0.84084
2.6153236929967534,0,0,1.1755530151367186,0,0,1.1465999999999998
2.6184459000069182,0,0,1.209071838378906,0,0,1.2994800000000002
2.6215789210109506,0,0,1.3263877197265623,0,0,0.6115200000000001
2.624687998002628,0,0,1.6639701538085936,0,0,0.7644
2.6278011490067,0,0,1.1875240234375,0,0,0.68796
2.630915559013374,0,0,1.467645617675781,0,0,0.53508
2.63406576498528,0,0,1.5370774658203123,0,0,1.07016
2.63719450798817,0,0,1.1252747802734375,0,0,0.45864
2.640308436995838,0,0,1.0965443603515623,0,0,0.7644
2.6434631799929775,0,0,1.189918225097656,0,0,0.84084
2.6465776640106924,0,0,1.209071838378906,0,0,0.99372
2.6497325740056112,0,0,1.1061211669921875,0,0,0.22932
2.652864836010849,0,0,1.3407529296874998,0,0,0.84084
2.655982097989181,0,0,1.2832920898437499,0,0,0.6115200000000001
2.659095712006092,0,0,1.3383587280273437,0,0,0.7644
2.6622123249981087,0,0,1.388636962890625,0,0,0.7644
2.6653267910005525,0,0,1.618480322265625,0,0,1.1465999999999998
2.668438589986181,0,0,1.0726023437499999,0,0,1.2230400000000001
2.6716353140072897,0,0,1.2138602416992186,0,0,2.4460800000000003
2.674752057995647,0,0,1.6256629272460936,0,0,0.53508
2.677869022998493,0,0,1.16837041015625,0,0,0.45864
2.6809802479983773,0,0,1.197100830078125,0,0,0.0
2.6840946770098526,0,0,1.3766659545898436,0,0,1.1465999999999998
2.687209642987,0,0,1.0797849487304687,0,0,0.84084
2.6903239600069355,0,0,1.2928688964843749,0,0,1.2230400000000001
2.693475462991046,0,0,1.4867992309570313,0,0,0.53508
2.6965912799932994,0,0,1.656787548828125,0,0,0.91728
2.699706523999339,0,0,1.1923124267578125,0,0,0.45864
2.7028300449892413,0,0,1.4341267944335936,0,0,0.6115200000000001
2.7059466959908605,0,0,1.7429788085937499,0,0,0.7644
2.709059087006608,0,0,1.1659762084960936,0,0,0.6115200000000001
2.7121726640034467,0,0,1.1635820068359375,0,0,0.45864
2.715288111998234,0,0,1.0821791503906248,0,0,0.84084
2.7184036140097305,0,0,1.3287819213867187,0,0,0.91728
2.7215519869932905,0,0,1.3646949462890625,0,0,1.45236
2.7246666929859202,0,0,1.3120225097656248,0,0,0.6115200000000001
2.7277795480040368,0,0,1.1875240234375,0,0,0.53508
2.7308959949878044,0,0,1.149216796875,0,0,0.45864
2.7340112199890427,0,0,1.235408056640625,0,0,0.7644
2.737151426001219,0,0,1.6448165405273436,0,0,2.4460800000000003
2.7402656140038744,0,0,1.1635820068359375,0,0,0.91728
2.743379265011754,0,0,1.2234370483398436,0,0,0.84084
2.746496785985073,0,0,1.3718775512695311,0,0,0.6115200000000001
2.7496134740067646,0,0,1.2521674682617188,0,0,0.84084
2.7527236439927947,0,0,1.2138602416992186,0,0,-0.15288000000000002
2.7558382950082887,0,0,1.2856862915039062,0,0,0.84084
2.7589540200133342,0,0,1.3024457031249999,0,0,0.6115200000000001
2.762070485012373,0,0,1.2808978881835937,0,0,0.68796
2.7652167470077984,0,0,1.5275006591796874,0,0,0.84084
2.768374842009507,0,0,1.6208745239257811,0,0,1.07016
2.771656602009898,0,0,1.1156979736328125,0,0,0.84084
2.7748364380095154,0,0,1.2904746948242187,0,0,0.6115200000000001
2.777948811009992,0,0,1.6208745239257811,0,0,0.68796
2.7810430729878135,0,0,1.139639990234375,0,0,0.6115200000000001
2.784166761004599,0,0,1.3383587280273437,0,0,0.84084
2.787270559987519,0,0,1.3670891479492187,0,0,0.99372
2.790382173989201,0,0,1.2018892333984375,0,0,0.99372
2.793552120012464,0,0,1.2641384765625,0,0,0.99372
2.796668438008055,0,0,1.2521674682617188,0,0,0.53508
2.799785773997428,0,0,1.0726023437499999,0,0,0.84084
2.8029014059866313,0,0,1.0726023437499999,0,0,0.22932
2.8060105940094218,0,0,1.446097802734375,0,0,1.07016
2.809102745988639,0,0,1.6998831787109374,0,0,0.45864
2.8148949969909154,0,0,1.177947216796875,0,0,0.07644000000000001
2.8180198509944603,0,0,1.3670891479492187,0,0,0.91728
2.8211319090041798,0,0,1.1348515869140625,0,0,0.99372
2.824244652991183,0,0,1.1276689819335937,0,0,1.2230400000000001
2.827358267008094,0,0,1.5203180541992187,0,0,0.53508
2.830502250988502,0,0,1.4628572143554686,0,0,0.91728
2.833618178992765,0,0,1.1755530151367186,0,0,0.53508
2.836758441000711,0,0,1.4532804077148436,0,0,0.84084
2.839873073011404,0,0,1.6807295654296874,0,0,0.84084
2.842985724011669,0,0,1.0749965454101562,0,0,0.7644
2.8460985599958804,0,0,1.3311761230468748,0,0,0.84084
2.849211877997732,0,0,1.2689268798828124,0,0,1.2994800000000002
2.8536834029946476,0,0,1.2593500732421874,0,0,0.6115200000000001
2.8568689599924255,0,0,1.3000515014648437,0,0,0.91728
2.85998938899138,0,0,1.5107412475585937,0,0,0.68796
2.8631174839974847,0,0,1.2617442749023438,0,0,0.3822
2.8662311540101655,0,0,1.1947066284179686,0,0,1.60524
2.869480711000506,0,0,1.388636962890625,0,0,1.07016
2.872611491009593,0,0,1.3192051147460937,0,0,0.68796
2.875726678990759,0,0,1.0917559570312498,0,0,0.84084
2.8788405150116887,0,0,1.4245499877929686,0,0,0.7644
2.8819576840032823,0,0,1.4317325927734375,0,0,0.91728
2.885069909010781,0,0,1.1420341918945311,0,0,0.22932
2.888184375013225,0,0,1.3024457031249999,0,0,0.53508
2.891324228985468,0,0,1.4317325927734375,0,0,1.07016
2.8946025450131856,0,0,1.3239935180664062,0,0,1.07016
2.897794121003244,0,0,1.2785036865234374,0,0,0.91728
2.900867105985526,0,0,1.2401964599609374,0,0,1.07016
2.9036689269996714,0,0,1.3335703247070312,0,0,0.68796
2.906489024986513,0,0,1.1875240234375,0,0,1.2994800000000002
2.9093054569966625,0,0,1.5035586425781249,0,0,0.91728
2.9121084449870978,0,0,1.6543933471679686,0,0,0.7644
2.914910729014082,0,0,1.5131354492187499,0,0,0.53508
2.9177048089914024,0,0,1.1563994018554686,0,0,0.22932
2.9207531829888467,0,0,1.4796166259765624,0,0,0.68796
2.923570226004813,0,0,1.3455413330078123,0,0,0.91728
2.9263753989944234,0,0,1.0893617553710937,0,0,0.3822
2.9291809420101345,0,0,1.2713210815429687,0,0,0.7644
2.931977392989211,0,0,1.5155296508789062,0,0,0.6115200000000001
2.9348424909985624,0,0,1.3072341064453123,0,0,0.84084
2.937638497009175,0,0,1.197100830078125,0,0,1.2994800000000002
2.940435817989055,0,0,1.39821376953125,0,0,0.91728
2.9432337500038557,0,0,1.675941162109375,0,0,1.07016
2.9460320899961516,0,0,1.3551181396484375,0,0,0.84084
2.9488274850009475,0,0,1.2904746948242187,0,0,0.30576000000000003
2.9516263249970507,0,0,1.3096283081054687,0,0,1.07016
2.9544237939990126,0,0,1.2497732666015624,0,0,0.68796
2.957220651995158,0,0,1.197100830078125,0,0,-9.32568
2.960024214000441,0,0,1.2306196533203124,0,0,0.45864
2.962822553003207,0,0,1.4221557861328125,0,0,0.91728
2.9656207080115564,0,0,1.3383587280273437,0,0,1.1465999999999998
2.9684166029910557,0,0,1.0869675537109373,0,0,1.1465999999999998
2.9712109430111013,0,0,1.4341267944335936,0,0,0.84084
2.9742016500094905,0,0,1.675941162109375,0,0,0.84084
2.977018286008388,0,0,1.1755530151367186,0,0,0.53508
2.97980355200707,0,0,1.1563994018554686,0,0,0.68796
2.9825875769893173,0,0,1.2832920898437499,0,0,0.99372
2.9854044709936716,0,0,1.1923124267578125,0,0,0.84084
2.9881844590127002,0,0,1.2928688964843749,0,0,0.3822
2.9909663180005737,0,0,1.3575123413085937,0,0,0.6115200000000001
2.9938532300002407,0,0,1.419761584472656,0,0,0.45864
2.9967330879881047,0,0,1.3311761230468748,0,0,0.15288000000000002
2.999851608998142,0,0,1.1611878051757811,0,0,0.6115200000000001
3.0030328140128404,0,0,1.2425906616210938,0,0,1.07016
3.0061540949973278,0,0,1.2378022583007813,0,0,0.91728
3.009301059995778,0,0,1.1180921752929687,0,0,0.99372
3.012420877988916,0,0,1.2306196533203124,0,0,0.84084
3.015538250998361,0,0,1.149216796875,0,0,1.1465999999999998
3.0186563459865283,0,0,1.139639990234375,0,0,0.30576000000000003
3.0218051259871572,0,0,1.2282254516601563,0,0,-9.172799999999999
3.0249388699885458,0,0,1.388636962890625,0,0,1.07016
3.028057613002602,0,0,1.3527239379882812,0,0,1.1465999999999998
3.0311747080122586,0,0,1.1635820068359375,0,0,0.68796
3.034334191994276,0,0,1.3718775512695311,0,0,0.7644
3.0374714540084824,0,0,1.2808978881835937,0,0,2.14032
3.0405891420086846,0,0,1.2138602416992186,0,0,0.3822
3.0437066630111076,0,0,1.3958195678710936,0,0,1.07016
3.0468227950041182,0,0,1.1252747802734375,0,0,0.7644
3.049939743010327,0,0,1.1276689819335937,0,0,0.22932
3.0530551899864804,0,0,1.5298948608398437,0,0,0.91728
3.056314913003007,0,0,1.3024457031249999,0,0,1.37592
3.0595768399944063,0,0,1.0797849487304687,0,0,0.91728
3.0629097479977645,0,0,1.3335703247070312,0,0,0.68796
3.0660381949855946,0,0,1.5897499023437498,0,0,0.91728
3.0691571609932,0,0,1.3168109130859373,0,0,-9.24924
3.072277478000615,0,0,1.2904746948242187,0,0,0.7644
3.0753849069878925,0,0,1.235408056640625,0,0,0.15288000000000002
3.078535428008763,0,0,1.0726023437499999,0,0,1.1465999999999998
3.081653152999934,0,0,1.3120225097656248,0,0,0.6115200000000001
3.0847696920100134,0,0,1.4796166259765624,0,0,0.22932
3.0878860660013743,0,0,1.3479355346679687,0,0,0.45864
3.0909910130139906,0,0,1.0582371337890624,0,0,0.45864
3.094136959989555,0,0,1.4724340209960938,0,0,0.84084
3.097275147010805,0,0,1.4772224243164063,0,0,1.07016
3.1003919829963706,0,0,1.1444283935546875,0,0,1.07016
3.1035691520082764,0,0,1.0893617553710937,0,0,0.30576000000000003
3.1072428149927873,0,0,1.5969325073242187,0,0,0.91728
3.110367337008938,0,0,1.0845733520507812,0,0,0.68796
3.1134976169851143,0,0,1.2114660400390624,0,0,1.2230400000000001
3.116625657014083,0,0,1.3239935180664062,0,0,0.6115200000000001
3.119745011004852,0,0,1.2761094848632812,0,0,0.91728
3.1228487360058352,0,0,1.180341418457031,0,0,0.0
3.1259907390049193,0,0,1.467645617675781,0,0,0.45864
3.129108074994292,0,0,1.177947216796875,0,0,0.53508
3.1322284289926756,0,0,1.2114660400390624,0,0,0.3822
3.1353452100011054,0,0,1.4125789794921875,0,0,0.68796
3.138477063999744,0,0,1.5753846923828123,0,0,0.91728
3.1415894370002206,0,0,1.0989385620117187,0,0,1.1465999999999998
3.144702977006091,0,0,1.2665326782226562,0,0,0.68796
3.147818497993285,0,0,1.3766659545898436,0,0,0.53508
3.150950204988476,0,0,1.2904746948242187,0,0,0.84084
3.1540673559939023,0,0,1.2282254516601563,0,0,0.0
3.1573318199953064,0,0,1.2521674682617188,0,0,1.1465999999999998
3.160450099996524,0,0,1.24498486328125,0,0,0.91728
3.1635669179959223,0,0,1.1875240234375,0,0,1.75812
3.1666713650047313,0,0,1.4963760375976562,0,0,0.3822
3.169779182993807,0,0,1.47482822265625,0,0,0.7644
3.172926314990036,0,0,1.0366893188476562,0,0,-9.24924
3.176067910011625,0,0,1.4006079711914061,0,0,0.30576000000000003
3.179173376003746,0,0,1.5969325073242187,0,0,0.6115200000000001
3.182271377998404,0,0,1.0821791503906248,0,0,0.7644
3.1853682519868016,0,0,1.369483349609375,0,0,1.07016
3.1884639769850764,0,0,1.2856862915039062,0,0,0.99372
3.1915605349931866,0,0,1.1133037719726562,0,0,0.68796
3.194709908013465,0,0,1.0941501586914062,0,0,-8.63772
3.1978274479915854,0,0,1.4508862060546874,0,0,0.6115200000000001
3.200939690985251,0,0,1.39821376953125,0,0,0.68796
3.204052713001147,0,0,1.1276689819335937,0,0,0.45864
3.2071665120020043,0,0,1.47482822265625,0,0,0.7644
3.2102814959944226,0,0,1.6400281372070311,0,0,0.7644
3.213422164990334,0,0,1.120486376953125,0,0,0.68796
3.216537222993793,0,0,1.3646949462890625,0,0,1.07016
3.2196507260086946,0,0,1.3144167114257812,0,0,0.3822
3.2231172810134012,0,0,1.1109095703125,0,0,0.53508
3.226238302013371,0,0,1.3335703247070312,0,0,1.37592
3.229353953007376,0,0,1.2928688964843749,0,0,1.1465999999999998
3.232467566995183,0,0,1.0965443603515623,0,0,0.99372
3.235581329005072,0,0,1.1085153686523437,0,0,1.2994800000000002
3.2386945910111535,0,0,1.5275006591796874,0,0,0.6115200000000001
3.241812705004122,0,0,1.4891934326171874,0,0,0.91728
3.244923985010246,0,0,1.1659762084960936,0,0,0.6115200000000001
3.2480397099861875,0,0,1.2521674682617188,0,0,0.6115200000000001
3.251153602002887,0,0,1.6735469604492186,0,0,0.6115200000000001
3.2542687710083555,0,0,1.3024457031249999,0,0,0.53508
3.2574098109907936,0,0,1.1252747802734375,0,0,1.2230400000000001
3.260523220989853,0,0,1.1516109985351561,0,0,0.84084
3.263649686006829,0,0,1.1563994018554686,0,0,0.84084
3.2667606709874235,0,0,1.0845733520507812,0,0,0.84084
3.2698752660071477,0,0,1.2928688964843749,0,0,0.91728
3.2729885280132294,0,0,1.1252747802734375,0,0,0.68796
3.2761018830060493,0,0,1.180341418457031,0,0,0.22932
3.279225533013232,0,0,1.3359645263671873,0,0,0.7644
3.282366091007134,0,0,1.5658078857421873,0,0,1.2230400000000001
3.2854810020071454,0,0,1.1635820068359375,0,0,0.91728
3.2885951710049994,0,0,1.1731588134765625,0,0,0.7644
3.291887486993801,0,0,1.5753846923828123,0,0,0.6115200000000001
3.295050156011712,0,0,1.2425906616210938,0,0,0.30576000000000003
3.2981703800032847,0,0,1.3096283081054687,0,0,0.0
3.3013008089910727,0,0,1.3215993164062498,0,0,1.1465999999999998
3.304563532001339,0,0,1.1180921752929687,0,0,0.99372
3.307756107999012,0,0,1.3718775512695311,0,0,0.7644
3.3108757410082035,0,0,1.3527239379882812,0,0,0.91728
3.3139928730088286,0,0,1.0773907470703123,0,0,0.6115200000000001
3.317106041999068,0,0,1.1851298217773436,0,0,0.0
3.3202204710105434,0,0,1.4245499877929686,0,0,0.7644
3.3233644920110237,0,0,1.5610194824218748,0,0,0.91728
3.3265100680000614,0,0,1.199495031738281,0,0,0.53508
3.3296246269892436,0,0,1.1611878051757811,0,0,0.7644
3.332736203999957,0,0,1.2904746948242187,0,0,0.7644
3.3358508920064196,0,0,1.0845733520507812,0,0,0.84084
3.3389638570079114,0,0,1.2210428466796874,0,0,-9.32568
3.3420834710123017,0,0,1.2808978881835937,0,0,0.84084
3.345196306996513,0,0,1.0893617553710937,0,0,0.53508
3.348550399998203,0,0,1.197100830078125,0,0,1.45236
3.3516641249880195,0,0,1.37906015625,0,0,0.53508
3.3549155149958096,0,0,1.3120225097656248,0,0,0.6115200000000001
3.3581784240086563,0,0,1.3766659545898436,0,0,0.45864
3.361326388985617,0,0,1.4867992309570313,0,0,0.7644
3.3644677250122186,0,0,1.6807295654296874,0,0,1.1465999999999998
3.3675783940125257,0,0,1.1444283935546875,0,0,1.07016
3.370687156013446,0,0,1.1923124267578125,0,0,0.84084
3.3738016959978268,0,0,1.4963760375976562,0,0,0.68796
3.376930142985657,0,0,1.0917559570312498,0,0,0.6115200000000001
3.3800343130133115,0,0,1.20667763671875,0,0,0.0
3.3831386860110797,0,0,1.4987702392578124,0,0,0.7644
3.3862463000114076,0,0,1.1228805786132812,0,0,0.68796
3.3893525800085627,0,0,1.13006318359375,0,0,0.53508
3.392457101988839,0,0,1.3192051147460937,0,0,0.68796
3.3956179929955397,0,0,1.6735469604492186,0,0,0.7644
3.398723421996692,0,0,1.22583125,0,0,0.84084
3.4018299430026673,0,0,1.3742717529296875,0,0,0.91728
3.4049324830120895,0,0,1.6735469604492186,0,0,0.7644
3.408158595993882,0,0,1.2330138549804688,0,0,0.53508
3.411265191010898,0,0,1.1827356201171875,0,0,0.07644000000000001
3.4143951199948788,0,0,1.2928688964843749,0,0,0.7644
3.4175458069948945,0,0,1.3144167114257812,0,0,1.07016
3.420667736005271,0,0,1.1444283935546875,0,0,1.1465999999999998
3.4237742020050064,0,0,1.3646949462890625,0,0,0.99372
3.4268799269921146,0,0,1.3623007446289062,0,0,1.07016
3.4299858740123454,0,0,1.3024457031249999,0,0,0.30576000000000003
3.4330869689874817,0,0,1.3335703247070312,0,0,0.53508
3.4361921939998865,0,0,1.5634136840820312,0,0,1.1465999999999998
3.439298253011657,0,0,1.1180921752929687,0,0,0.15288000000000002
3.442405810987111,0,0,1.218648645019531,0,0,0.7644
3.4455368510098197,0,0,1.3623007446289062,0,0,0.6115200000000001
3.44864089100156,0,0,1.3335703247070312,0,0,0.84084
3.451744560006773,0,0,1.2378022583007813,0,0,0.7644
3.4548480630037375,0,0,1.39821376953125,0,0,0.45864
3.4579537700046785,0,0,1.3527239379882812,0,0,0.91728
3.4610544579918496,0,0,1.1707646118164061,0,0,-0.22932
3.464161479001632,0,0,1.2569558715820313,0,0,-9.24924
3.467266388994176,0,0,1.649604943847656,0,0,0.91728
3.470371206989512,0,0,1.3215993164062498,0,0,0.7644
3.4734780800063163,0,0,1.1228805786132812,0,0,0.91728
3.4765823050111067,0,0,1.467645617675781,0,0,0.84084
3.4796862159855664,0,0,1.2401964599609374,0,0,0.6115200000000001
3.482789922010852,0,0,1.2856862915039062,0,0,0.07644000000000001
3.4858956100069918,0,0,1.4317325927734375,0,0,0.7644
3.4889976500126068,0,0,1.2306196533203124,0,0,0.91728
3.4921026900119614,0,0,1.120486376953125,0,0,0.15288000000000002
3.495206212013727,0,0,1.4820108276367188,0,0,0.91728
3.498334881005576,0,0,1.6065093139648436,0,0,0.6115200000000001
3.501468124013627,0,0,1.3168109130859373,0,0,0.53508
3.504576848994475,0,0,1.3287819213867187,0,0,0.99372
3.507685666991165,0,0,1.5203180541992187,0,0,0.91728
3.511027814995032,0,0,1.3096283081054687,0,0,0.3822
3.5141762619896326,0,0,1.1731588134765625,0,0,0.15288000000000002
3.517314561002422,0,0,1.4101847778320311,0,0,0.53508
3.520825726009207,0,0,1.1372457885742187,0,0,0.68796
3.5239420249999966,0,0,1.120486376953125,0,0,1.07016
3.527051916986238,0,0,1.388636962890625,0,0,0.68796
3.530162086011842,0,0,1.35990654296875,0,0,0.7644
3.5332944589899853,0,0,1.1085153686523437,0,0,0.30576000000000003
3.536404943006346,0,0,1.2928688964843749,0,0,0.84084
3.5395130020042416,0,0,1.4939818359375,0,0,0.99372
3.5426223750109784,0,0,1.1707646118164061,0,0,0.7644
3.545752673991956,0,0,1.3670891479492187,0,0,0.91728
3.5488582880061585,0,0,1.5179238525390624,0,0,0.6115200000000001
3.5519644019950647,0,0,1.35990654296875,0,0,0.53508
3.555071275011869,0,0,1.1875240234375,0,0,0.3822
3.5581776660110336,0,0,1.4317325927734375,0,0,0.99372
3.5613124649971724,0,0,1.2425906616210938,0,0,0.68796
3.5643990240059793,0,0,1.1085153686523437,0,0,0.7644
3.5675090450095013,0,0,1.4963760375976562,0,0,0.84084
3.570618233003188,0,0,1.5107412475585937,0,0,0.99372
3.573730347008677,0,0,1.139639990234375,0,0,0.7644
3.5768382200039923,0,0,1.22583125,0,0,0.45864
3.579944667988457,0,0,1.3335703247070312,0,0,0.53508
3.583050466986606,0,0,1.3287819213867187,0,0,0.45864
3.5861563209909946,0,0,1.2138602416992186,0,0,0.22932
3.589293083001394,0,0,1.4604630126953124,0,0,0.91728
3.5924027530127205,0,0,1.2713210815429687,0,0,1.1465999999999998
3.5955079779960215,0,0,1.1109095703125,0,0,1.1465999999999998
3.598651053995127,0,0,1.3958195678710936,0,0,0.84084
3.6018001310003456,0,0,1.458068811035156,0,0,0.84084
3.6057644200045615,0,0,1.13006318359375,0,0,1.07016
3.6089283489855006,0,0,1.4796166259765624,0,0,0.84084
3.6120462589897215,0,0,1.429338391113281,0,0,1.07016
3.6151612979883794,0,0,1.0989385620117187,0,0,0.6115200000000001
3.6183105419913772,0,0,1.2761094848632812,0,0,0.6115200000000001
3.621425248013111,0,0,1.6807295654296874,0,0,0.91728
3.6245398620085325,0,0,1.3239935180664062,0,0,0.53508
3.6276542539999355,0,0,1.3742717529296875,0,0,0.15288000000000002
3.63076671899762,0,0,1.2665326782226562,0,0,1.2230400000000001
3.63388166599907,0,0,1.1635820068359375,0,0,0.6115200000000001
3.6369931880035438,0,0,1.1061211669921875,0,0,1.2230400000000001
3.6401118939975277,0,0,1.39821376953125,0,0,0.68796
3.643226229993161,0,0,1.6711527587890624,0,0,0.7644
3.6463424550020136,0,0,1.2018892333984375,0,0,0.53508
3.6494723839859944,0,0,1.4437036010742186,0,0,0.6115200000000001
3.652634627011139,0,0,1.6519991455078125,0,0,0.7644
3.655752074002521,0,0,1.3239935180664062,0,0,0.68796
3.658856261987239,0,0,1.24498486328125,0,0,0.84084
3.6619704499898944,0,0,1.3575123413085937,0,0,0.7644
3.6650859900109936,0,0,1.22583125,0,0,0.91728
3.6681944000010844,0,0,1.20667763671875,0,0,0.68796
3.6713449390081223,0,0,1.4939818359375,0,0,0.53508
3.6744954790046904,0,0,1.1085153686523437,0,0,0.68796
3.6776348520070314,0,0,1.177947216796875,0,0,0.30576000000000003
3.6807497430127114,0,0,1.5083470458984374,0,0,0.91728
3.683863801008556,0,0,1.6017209106445311,0,0,0.84084
3.686978378013009,0,0,1.0821791503906248,0,0,1.1465999999999998
3.690093548008008,0,0,1.0797849487304687,0,0,0.91728
3.6932042539992835,0,0,1.2785036865234374,0,0,0.53508
3.6963173130061477,0,0,1.1755530151367186,0,0,0.45864
3.6994745369884185,0,0,1.1659762084960936,0,0,0.15288000000000002
3.702589299005922,0,0,1.3455413330078123,0,0,0.84084
3.7057039130013436,0,0,1.1324573852539062,0,0,0.53508
3.7088154160010163,0,0,1.1180921752929687,0,0,0.7644
3.71192804799648,0,0,1.4030021728515625,0,0,0.84084
3.7150414400093723,0,0,1.5179238525390624,0,0,0.91728
3.7181713129975833,0,0,1.209071838378906,0,0,0.7644
3.721306112012826,0,0,1.4341267944335936,0,0,0.6115200000000001
3.7244199110136833,0,0,1.5945383056640625,0,0,1.07016
3.7275412470044103,0,0,1.2210428466796874,0,0,0.3822
3.730657137988601,0,0,1.1851298217773436,0,0,0.30576000000000003
3.733773326006485,0,0,1.2425906616210938,0,0,1.1465999999999998
3.73688444000436,0,0,0.9552864624023437,0,0,1.07016
3.740003145998344,0,0,1.1755530151367186,0,0,1.1465999999999998
3.7431163899891544,0,0,1.3814543579101561,0,0,0.53508
3.7462318369944114,0,0,1.2521674682617188,0,0,0.91728
3.7493437659868505,0,0,1.180341418457031,0,0,0.3822
3.752457805996528,0,0,1.5179238525390624,0,0,0.68796
3.755570864013862,0,0,1.5490484741210937,0,0,1.07016
3.758683755993843,0,0,1.0726023437499999,0,0,0.68796
3.7617986839904916,0,0,1.3646949462890625,0,0,0.6115200000000001
3.7649093350046314,0,0,1.3383587280273437,0,0,1.07016
3.768017485999735,0,0,1.1037269653320312,0,0,0.91728
3.7711633589933626,0,0,1.1611878051757811,0,0,0.68796
3.774288546992466,0,0,1.2904746948242187,0,0,0.68796
3.7774352529959287,0,0,1.2832920898437499,0,0,0.45864
3.78053023701068,0,0,1.1228805786132812,0,0,1.5288
3.7836268699902575,0,0,1.47482822265625,0,0,0.68796
3.786740927986102,0,0,1.6136919189453125,0,0,1.1465999999999998
3.7898469679930713,0,0,1.1755530151367186,0,0,0.6115200000000001
3.792942100990331,0,0,1.2593500732421874,0,0,0.91728
3.7960609550063964,0,0,1.2665326782226562,0,0,0.99372
3.799176439992152,0,0,1.3096283081054687,0,0,0.6115200000000001
3.8022924610122573,0,0,1.1180921752929687,0,0,0.0
3.8054335369961336,0,0,1.5107412475585937,0,0,0.6115200000000001
3.808575077011483,0,0,1.1013327636718748,0,0,0.45864
3.8116924870118964,0,0,1.0893617553710937,0,0,0.6115200000000001
3.814823822991457,0,0,1.446097802734375,0,0,0.7644
3.81794152900693,0,0,1.6208745239257811,0,0,0.99372
3.8210654580034316,0,0,1.3359645263671873,0,0,0.99372
3.824179424002068,0,0,1.3168109130859373,0,0,0.84084
3.8272944820055272,0,0,1.5394716674804687,0,0,0.7644
3.830405298998812,0,0,1.2617442749023438,0,0,0.30576000000000003
3.8369780050124973,0,0,1.2497732666015624,0,0,0.99372
3.8401373400120065,0,0,1.2641384765625,0,0,0.99372
3.843256713997107,0,0,1.0438719238281249,0,0,1.1465999999999998
3.8463732349919155,0,0,1.4173673828125,0,0,0.53508
3.8494864410022274,0,0,1.3766659545898436,0,0,0.7644
3.8525999069970567,0,0,1.13006318359375,0,0,0.07644000000000001
3.8570024509972427,0,0,1.3958195678710936,0,0,0.68796
3.860161304997746,0,0,1.1085153686523437,0,0,0.68796
3.86328656700789,0,0,1.197100830078125,0,0,0.53508
3.866400717990473,0,0,1.3335703247070312,0,0,0.84084
3.8697339780046605,0,0,1.5729904907226562,0,0,1.07016
3.8728552579996176,0,0,1.0941501586914062,0,0,0.84084
3.875970502005657,0,0,1.2378022583007813,0,0,0.6115200000000001
3.879080912010977,0,0,1.6448165405273436,0,0,0.45864
3.882280190999154,0,0,1.0917559570312498,0,0,0.45864
3.8854352310008835,0,0,1.3383587280273437,0,0,0.68796
3.88855054799933,0,0,1.22583125,0,0,0.68796
3.8917214759858325,0,0,1.158793603515625,0,0,0.84084
3.8948407380084973,0,0,1.1659762084960936,0,0,1.45236
3.897994092985755,0,0,1.426944189453125,0,0,0.68796
3.9010545029887,0,0,1.199495031738281,0,0,0.99372
3.9038521019974723,0,0,1.0941501586914062,0,0,0.68796
3.9066515709855594,0,0,1.1085153686523437,0,0,1.5288
3.9094491520081647,0,0,1.3766659545898436,0,0,1.1465999999999998
3.91224282499752,0,0,1.1875240234375,0,0,0.91728
3.915042996988632,0,0,1.1324573852539062,0,0,0.6115200000000001
3.917869280994637,0,0,1.5011644409179687,0,0,0.3822
3.9206642319913954,0,0,1.5179238525390624,0,0,0.53508
3.9234592569991946,0,0,1.3575123413085937,0,0,0.68796
3.9262562629883178,0,0,1.3575123413085937,0,0,0.68796
3.929048805992352,0,0,1.3383587280273437,0,0,0.91728
3.9318459240021184,0,0,1.5442600708007812,0,0,0.99372
3.934643373999279,0,0,1.209071838378906,0,0,0.99372
3.9374401580134872,0,0,1.35990654296875,0,0,0.53508
3.9402518499991857,0,0,1.1276689819335937,0,0,0.91728
3.9430498740111943,0,0,1.1923124267578125,0,0,0.53508
3.945846287999302,0,0,1.3096283081054687,0,0,0.22932
3.948641202005092,0,0,1.3239935180664062,0,0,0.6115200000000001
3.9514373379934113,0,0,1.6711527587890624,0,0,0.91728
3.9542338809987996,0,0,1.2785036865234374,0,0,0.84084
3.957027497992385,0,0,1.2689268798828124,0,0,0.91728
3.9598232269927394,0,0,1.4772224243164063,0,0,0.68796
3.9626179180049803,0,0,1.4317325927734375,0,0,0.84084
3.9654154799936805,0,0,1.1037269653320312,0,0,1.1465999999999998
3.968208707985468,0,0,1.3455413330078123,0,0,0.0
3.971030084998347,0,0,1.3168109130859373,0,0,0.84084
3.973838831996545,0,0,1.3096283081054687,0,0,0.53508
3.976639505010098,0,0,1.35990654296875,0,0,0.68796
3.9794238999893423,0,0,1.3239935180664062,0,0,0.68796
3.9822074990079273,0,0,1.6639701538085936,0,0,0.3822
3.9849863020062912,0,0,1.2378022583007813,0,0,1.1465999999999998
3.9877854000078514,0,0,1.1875240234375,0,0,1.45236
3.9905720360111445,0,0,1.39821376953125,0,0,0.99372
3.993343542999355,0,0,1.5921441040039062,0,0,0.84084
3.9961417710001115,0,0,1.0749965454101562,0,0,0.7644
3.9990180729946587,0,0,1.2473790649414063,0,0,0.84084
4.001993281010073,0,0,1.2497732666015624,0,0,0.91728
4.005126690986799,0,0,1.3670891479492187,0,0,1.07016
4.008241970994277,0,0,1.1851298217773436,0,0,0.91728
4.011357418989064,0,0,1.5682020874023437,0,0,0.68796
4.014501550991554,0,0,1.3623007446289062,0,0,0.68796
4.017616478988202,0,0,1.1851298217773436,0,0,0.3822
4.020728111994686,0,0,1.3215993164062498,0,0,0.53508
4.023840965994168,0,0,1.3814543579101561,0,0,1.07016
4.026954320986988,0,0,1.2042834350585936,0,0,0.84084
4.030066323990468,0,0,1.0893617553710937,0,0,0.91728
4.034847548988182,0,0,1.3287819213867187,0,0,1.37592
4.038035403005779,0,0,1.3311761230468748,0,0,0.0
4.041143109003315,0,0,1.3096283081054687,0,0,0.53508
4.044248482998228,0,0,1.4532804077148436,0,0,0.84084
4.04734141100198,0,0,1.3168109130859373,0,0,0.3822
4.050443024985725,0,0,1.1228805786132812,0,0,0.30576000000000003
4.05354689899832,0,0,1.3311761230468748,0,0,0.53508
4.057376615994144,0,0,1.235408056640625,0,0,0.68796
4.060720615991158,0,0,1.2976572998046874,0,0,0.6115200000000001
4.064051541994559,0,0,1.3048399047851562,0,0,0.7644
4.067266580997966,0,0,1.24498486328125,0,0,0.45864
4.070375843002694,0,0,1.149216796875,0,0,-9.24924
4.073481864004862,0,0,1.678335363769531,0,0,0.84084
4.076579256012337,0,0,1.3215993164062498,0,0,0.6115200000000001
4.079706165997777,0,0,1.2330138549804688,0,0,0.0
4.082808373001171,0,0,1.4317325927734375,0,0,0.84084
4.085907394008245,0,0,1.6400281372070311,0,0,1.1465999999999998
4.089002860011533,0,0,1.1109095703125,0,0,0.91728
4.092125806986587,0,0,1.22583125,0,0,0.91728
4.095242403011071,0,0,1.2713210815429687,0,0,0.6115200000000001
4.09839860899956,0,0,1.120486376953125,0,0,0.45864
4.101547517988365,0,0,1.1420341918945311,0,0,0.0
4.104662892001215,0,0,1.1923124267578125,0,0,0.91728
4.107901745010167,0,0,1.2761094848632812,0,0,0.84084
4.111076895002043,0,0,1.0773907470703123,0,0,1.45236
4.114195119997021,0,0,1.458068811035156,0,0,0.91728
4.117311993002659,0,0,1.4030021728515625,0,0,0.91728
4.120437754987506,0,0,1.199495031738281,0,0,0.30576000000000003
4.12356644301326,0,0,1.197100830078125,0,0,0.53508
4.126682038011495,0,0,1.6112977172851561,0,0,0.6115200000000001
4.129797133005923,0,0,1.180341418457031,0,0,0.45864
4.132911155000329,0,0,1.3479355346679687,0,0,0.22932
4.136024434992578,0,0,1.2880804931640624,0,0,0.99372
4.13913764199242,0,0,1.1228805786132812,0,0,0.84084
4.142253422003705,0,0,1.209071838378906,0,0,1.37592
4.145368739991682,0,0,1.4101847778320311,0,0,0.84084
4.148484428005759,0,0,1.4700398193359374,0,0,0.84084
4.151600042008795,0,0,1.0726023437499999,0,0,0.22932
4.1547152109851595,0,0,1.3910311645507811,0,0,0.53508
4.157830806012498,0,0,1.5801730957031248,0,0,0.84084
4.160941272013588,0,0,1.2138602416992186,0,0,0.99372
4.164055219007423,0,0,1.35990654296875,0,0,0.68796
4.167169054999249,0,0,1.2401964599609374,0,0,0.45864
4.170283595012734,0,0,1.3287819213867187,0,0,0.7644
4.173482393001905,0,0,1.1133037719726562,0,0,0.53508
4.176600395992864,0,0,1.3551181396484375,0,0,0.99372
4.179715528007364,0,0,1.1444283935546875,0,0,0.84084
4.182831123995129,0,0,1.1444283935546875,0,0,0.53508
4.185949014994549,0,0,1.4173673828125,0,0,0.84084
4.189062536985148,0,0,1.5610194824218748,0,0,1.07016
4.192176317010308,0,0,1.20667763671875,0,0,0.99372
4.19529087500996,0,0,1.2473790649414063,0,0,1.5288
4.198467322014039,0,0,1.0893617553710937,0,0,0.68796
4.201594843005296,0,0,1.3215993164062498,0,0,0.3822
4.204724882991286,0,0,1.1228805786132812,0,0,-0.30576000000000003
4.207845884986455,0,0,1.3455413330078123,0,0,0.91728
4.210961758013582,0,0,1.1180921752929687,0,0,0.6115200000000001
4.214076890988508,0,0,1.158793603515625,0,0,0.68796
4.217189449002035,0,0,1.484405029296875,0,0,0.91728
4.220304841001052,0,0,1.6711527587890624,0,0,1.2994800000000002
4.223467472998891,0,0,1.1707646118164061,0,0,0.91728
4.226581808994524,0,0,1.3263877197265623,0,0,0.6115200000000001
4.2296971259929705,0,0,1.4341267944335936,0,0,0.99372
4.232809259003261,0,0,1.1635820068359375,0,0,0.15288000000000002
4.235923409985844,0,0,1.1611878051757811,0,0,0.53508
4.239037135004764,0,0,1.3120225097656248,0,0,0.99372
4.2421528970007785,0,0,1.0773907470703123,0,0,0.91728
4.245291102997726,0,0,1.2306196533203124,0,0,1.2230400000000001
4.248406272003194,0,0,1.3814543579101561,0,0,0.84084
4.251521608006442,0,0,1.3024457031249999,0,0,0.99372
4.254634796001483,0,0,1.2282254516601563,0,0,0.91728
4.257749910000712,0,0,1.4604630126953124,0,0,0.53508
4.260861227987334,0,0,1.4796166259765624,0,0,0.91728
4.263974230008898,0,0,1.197100830078125,0,0,0.6115200000000001
4.267087751999497,0,0,1.2569558715820313,0,0,0.45864
4.270201142993756,0,0,1.4604630126953124,0,0,1.07016
4.273316034988966,0,0,1.16837041015625,0,0,1.1465999999999998
4.2764290930063,0,0,1.209071838378906,0,0,0.7644
4.279543484997703,0,0,1.4891934326171874,0,0,0.53508
4.28265882100095,0,0,1.1180921752929687,0,0,0.84084
4.285773620009422,0,0,1.139639990234375,0,0,0.53508
4.288890511990758,0,0,1.3263877197265623,0,0,0.7644
4.292003440001281,0,0,1.675941162109375,0,0,0.84084
4.295116831985069,0,0,1.1324573852539062,0,0,-9.24924
4.298234315996524,0,0,1.1875240234375,0,0,1.2230400000000001
4.3014065960014705,0,0,1.37906015625,0,0,0.68796
4.304545599006815,0,0,1.35990654296875,0,0,0.6115200000000001
4.307660730992211,0,0,1.0749965454101562,0,0,0.15288000000000002
4.310774715006119,0,0,1.5131354492187499,0,0,0.6115200000000001
4.31390495900996,0,0,1.3742717529296875,0,0,0.68796
4.317021850001765,0,0,1.218648645019531,0,0,0.30576000000000003
4.320136519992957,0,0,1.3239935180664062,0,0,0.7644
4.323250171000836,0,0,1.4604630126953124,0,0,0.99372
4.3263639509968925,0,0,1.1563994018554686,0,0,1.07016
4.3294982129882555,0,0,1.2306196533203124,0,0,0.91728
4.332626160001382,0,0,1.446097802734375,0,0,0.45864
4.335748940007761,0,0,1.2737152832031249,0,0,0.45864
4.33886240600259,0,0,1.1563994018554686,0,0,-0.45864
4.341979427001206,0,0,1.4963760375976562,0,0,1.07016
4.345091503986623,0,0,1.1324573852539062,0,0,0.68796
4.348206524999114,0,0,1.3192051147460937,0,0,0.7644
4.3513196390122175,0,0,1.4006079711914061,0,0,1.07016
4.354433586995583,0,0,1.3000515014648437,0,0,0.91728
4.357585107005434,0,0,1.3192051147460937,0,0,0.7644
4.361136791005265,0,0,1.4532804077148436,0,0,0.3822
4.364310311008012,0,0,1.465251416015625,0,0,0.7644
4.367486534989439,0,0,1.209071838378906,0,0,0.99372
4.37060463099624,0,0,1.2880804931640624,0,0,1.07016
4.3737271889986005,0,0,1.2282254516601563,0,0,0.68796
4.3768431920034345,0,0,1.3287819213867187,0,0,0.91728
4.379960546008078,0,0,1.2018892333984375,0,0,0.22932
4.38307675300166,0,0,1.429338391113281,0,0,0.68796
4.386189940996701,0,0,1.2569558715820313,0,0,0.53508
4.389304165990325,0,0,1.0893617553710937,0,0,0.84084
4.392417928000214,0,0,1.4221557861328125,0,0,1.07016
4.395530707988655,0,0,1.4796166259765624,0,0,1.1465999999999998
4.398649340990232,0,0,1.1516109985351561,0,0,0.99372
4.401821768988157,0,0,1.254561669921875,0,0,0.53508
4.404937401006464,0,0,1.3479355346679687,0,0,0.3822
4.4080537559930235,0,0,1.3120225097656248,0,0,0.6115200000000001
4.4111688880075235,0,0,1.2330138549804688,0,0,0.0
4.41428396498668,0,0,1.2569558715820313,0,0,1.07016
4.41743287499412,0,0,1.1372457885742187,0,0,0.91728
4.42064870899776,0,0,1.0845733520507812,0,0,1.07016
4.4237731200119015,0,0,1.3862427612304686,0,0,0.53508
4.426887770008761,0,0,1.2976572998046874,0,0,0.7644
4.430003735993523,0,0,1.1923124267578125,0,0,0.53508
4.433114905987168,0,0,1.2306196533203124,0,0,0.3822
4.436228131002281,0,0,1.5610194824218748,0,0,0.68796
4.439342225989094,0,0,1.0821791503906248,0,0,0.3822
4.442458506004186,0,0,1.3359645263671873,0,0,0.99372
4.445574065000983,0,0,1.3742717529296875,0,0,0.99372
4.44868627100368,0,0,1.1659762084960936,0,0,1.07016
4.451800384995295,0,0,1.2018892333984375,0,0,1.2994800000000002
4.454914350993931,0,0,1.618480322265625,0,0,0.53508
4.458037278993288,0,0,1.4724340209960938,0,0,0.7644
4.4611774109944236,0,0,1.3192051147460937,0,0,-9.707880000000001
4.464295691985171,0,0,1.426944189453125,0,0,0.91728
4.467438546009362,0,0,1.4939818359375,0,0,2.6754
4.470554716011975,0,0,1.1923124267578125,0,0,0.7644
4.47366977398633,0,0,1.2425906616210938,0,0,1.1465999999999998
4.476784258004045,0,0,1.1013327636718748,0,0,0.7644
4.479896556993481,0,0,1.1851298217773436,0,0,0.84084
4.483009226998547,0,0,1.0941501586914062,0,0,1.45236
4.486121858994011,0,0,1.465251416015625,0,0,0.7644
4.489234603010118,0,0,1.1468225952148436,0,0,0.6115200000000001
4.492349364998518,0,0,1.1659762084960936,0,0,0.45864
4.495462607999798,0,0,1.455674609375,0,0,0.84084
4.498575036996044,0,0,1.6807295654296874,0,0,0.99372
