Time,AccelX1,AccelY1,AccelZ1,AccelX2,AccelY2,AccelZ2
3.722001565620303e-06,0,0,1.2378022583007813,0,0,0.91728
0.003243850020226091,0,0,1.1731588134765625,0,0,0.99372
0.006415850017219782,0,0,1.0797849487304687,0,0,0.45864
0.009676774003310129,0,0,1.4030021728515625,0,0,0.99372
0.01280942201265134,0,0,1.1348515869140625,0,0,0.91728
0.01593449601205066,0,0,1.1707646118164061,0,0,0.53508
0.019053218013141304,0,0,1.2378022583007813,0,0,0.84084
0.02217281100456603,0,0,1.5562310791015623,0,0,0.45864
0.025290699995821342,0,0,1.0965443603515623,0,0,0.84084
0.028412810992449522,0,0,1.2641384765625,0,0,0.53508
0.031556939997244626,0,0,1.5179238525390624,0,0,0.68796
0.034815124003216624,0,0,1.35990654296875,0,0,0.45864
0.03795203100889921,0,0,1.1180921752929687,0,0,0.0
0.04107169699273072,0,0,1.4891934326171874,0,0,0.99372
0.04419512301683426,0,0,1.2330138549804688,0,0,0.7644
0.0473114570195321,0,0,1.1085153686523437,0,0,1.1465999999999998
0.050430994015187025,0,0,1.608903515625,0,0,20
0.05355727099231444,0,0,1.4939818359375,0,0,0.0
0.0566762340022251,0,0,1.2210428466796874,0,0,0.68796
0.05984441901091486,0,0,1.2928688964843749,0,0,0.68796
0.06296665899571963,0,0,1.39821376953125,0,0,0.53508
0.06609053001739085,0,0,1.1755530151367186,0,0,0.45864
0.06920938199618831,0,0,1.1444283935546875,0,0,1.1465999999999998
0.07233480701688677,0,0,1.465251416015625,0,0,1.1465999999999998
0.07561150900437497,0,0,1.1276689819335937,0,0,0.68796
0.07871989801060408,0,0,1.16837041015625,0,0,1.1465999999999998
0.08184836100554094,0,0,1.37906015625,0,0,0.84084
0.08496525001828559,0,0,1.4772224243164063,0,0,0.91728
0.08808119400055148,0,0,1.1755530151367186,0,0,0.3822
0.09119743501651101,0,0,1.4700398193359374,0,0,0.68796
0.09431495401076972,0,0,1.6232687255859375,0,0,0.99372
0.097430454014102,0,0,1.1324573852539062,0,0,0.84084
0.10054747201502323,0,0,1.35990654296875,0,0,0.7644
0.10366278700530529,0,0,1.3192051147460937,0,0,1.2994800000000002
0.10677745399880223,0,0,1.2665326782226562,0,0,0.91728
0.1098944169934839,0,0,1.1659762084960936,0,0,1.1465999999999998
0.11306649001198821,0,0,1.4724340209960938,0,0,0.7644
0.11618750900379382,0,0,1.158793603515625,0,0,0.6115200000000001
0.11930197200854309,0,0,1.1611878051757811,0,0,0.45864
0.12242530501680449,0,0,1.4437036010742186,0,0,0.99372
0.1255411200108938,0,0,1.5586252807617187,0,0,1.1465999999999998
0.12866126801236533,0,0,1.199495031738281,0,0,0.68796
0.13178043501102366,0,0,1.209071838378906,0,0,0.53508
0.13489449000917375,0,0,1.2928688964843749,0,0,0.6115200000000001
0.138053211994702,0,0,1.1444283935546875,0,0,0.84084
0.1412883220182266,0,0,1.1635820068359375,0,0,0.07644000000000001
0.14441539600375108,0,0,1.3072341064453123,0,0,0.7644
0.14753272899542935,0,0,1.0749965454101562,0,0,0.84084
0.15063048800220713,0,0,1.1875240234375,0,0,0.84084
0.1537529880006332,0,0,1.3311761230468748,0,0,1.07016
0.15686747001018375,0,0,1.5466542724609373,0,0,1.1465999999999998
0.16001322900410742,0,0,1.2904746948242187,0,0,0.99372
0.16312813601689413,0,0,1.2713210815429687,0,0,0.84084
0.16624728401075117,0,0,1.4437036010742186,0,0,0.6115200000000001
0.16936215499299578,0,0,1.2617442749023438,0,0,0.68796
0.17247908099670894,0,0,1.1061211669921875,0,0,0.15288000000000002
0.17559602501569316,0,0,1.3383587280273437,0,0,0.91728
0.17871085801743902,0,0,1.3239935180664062,0,0,0.84084
0.1818867470137775,0,0,1.1276689819335937,0,0,0.84084
0.18502546899253502,0,0,1.4532804077148436,0,0,0.84084
0.18815965400426649,0,0,1.4724340209960938,0,0,0.91728
0.1912856910203118,0,0,1.1372457885742187,0,0,0.6115200000000001
0.1943879690079484,0,0,1.3623007446289062,0,0,0.7644
0.19750815400038846,0,0,1.5179238525390624,0,0,0.3822
0.20061641299980693,0,0,1.3263877197265623,0,0,0.30576000000000003
0.2037385430012364,0,0,1.1324573852539062,0,0,0.3822
0.20687828300287947,0,0,1.47482822265625,0,0,0.91728
0.20999707901501097,0,0,1.2473790649414063,0,0,0.84084
0.21311339401290752,0,0,1.2210428466796874,0,0,0.84084
0.2162295980087947,0,0,1.5251064575195312,0,0,0.68796
0.21934265401796438,0,0,1.4700398193359374,0,0,0.99372
0.22249052400002256,0,0,1.1923124267578125,0,0,0.68796
0.2256048379931599,0,0,1.3287819213867187,0,0,0.6115200000000001
0.22871874601696618,0,0,1.5011644409179687,0,0,0.99372
0.2318310980044771,0,0,1.3239935180664062,0,0,0.53508
0.23512455899617635,0,0,1.2689268798828124,0,0,0.30576000000000003
0.23832013201899827,0,0,1.3646949462890625,0,0,0.6115200000000001
0.2414442430017516,0,0,1.0869675537109373,0,0,0.45864
0.24456420601927675,0,0,1.0821791503906248,0,0,-8.4084
0.24770944600459188,0,0,1.5298948608398437,0,0,0.53508
0.25085370501619764,0,0,1.429338391113281,0,0,0.7644
0.2540064450004138,0,0,1.1516109985351561,0,0,0.45864
0.25712701899465173,0,0,1.4939818359375,0,0,1.2230400000000001
0.2602783149923198,0,0,1.5610194824218748,0,0,1.1465999999999998
0.263397797010839,0,0,1.0749965454101562,0,0,0.6115200000000001
0.2664950560138095,0,0,1.1324573852539062,0,0,0.68796
0.2696155190060381,0,0,1.3718775512695311,0,0,0.68796
0.27273001900175586,0,0,1.24498486328125,0,0,0.7644
0.27584583399584517,0,0,1.189918225097656,0,0,0.6115200000000001
0.2789577600196935,0,0,1.3431471313476562,0,0,0.84084
0.2820726860081777,0,0,1.1516109985351561,0,0,0.7644
0.2852129820093978,0,0,1.1420341918945311,0,0,0.30576000000000003
0.28833087100065313,0,0,1.3934253662109375,0,0,0.84084
0.29144872300093994,0,0,1.5442600708007812,0,0,0.91728
0.2945818150183186,0,0,1.158793603515625,0,0,0.7644
0.29769850001321174,0,0,1.2880804931640624,0,0,0.7644
0.3008181860204786,0,0,1.3024457031249999,0,0,0.68796
0.30392900001606904,0,0,1.2832920898437499,0,0,0.91728
0.30702424101764336,0,0,1.0893617553710937,0,0,0.53508
0.3101448150118813,0,0,1.3287819213867187,0,0,0.84084
0.31326277801417746,0,0,1.3120225097656248,0,0,0.91728
0.3164027600141708,0,0,1.3311761230468748,0,0,0.45864
0.31951807500445284,0,0,1.3263877197265623,0,0,0.7644
0.32261548200040124,0,0,1.3814543579101561,0,0,0.91728
0.3257335009984672,0,0,1.1324573852539062,0,0,0.7644
0.32884724100586027,0,0,1.0965443603515623,0,0,0.68796
0.33196368601056747,0,0,1.5035586425781249,0,0,0.6115200000000001
0.33507575999828987,0,0,1.216254443359375,0,0,0.7644
0.3382259260106366,0,0,1.1707646118164061,0,0,0.3822
0.3413421669974923,0,0,1.4987702392578124,0,0,0.84084
0.34445740800583735,0,0,1.2737152832031249,0,0,0.84084
0.3475722600123845,0,0,1.1133037719726562,0,0,0.07644000000000001
0.35068683401914313,0,0,1.2689268798828124,0,0,0.99372
0.3537997230014298,0,0,1.3958195678710936,0,0,0.84084
0.3569300369999837,0,0,1.0893617553710937,0,0,0.91728
0.3600794259982649,0,0,1.3623007446289062,0,0,0.68796
0.3631955000164453,0,0,1.35990654296875,0,0,0.68796
0.36631266699987464,0,0,1.1827356201171875,0,0,0.68796
0.36942681501386687,0,0,1.120486376953125,0,0,0.45864
0.3725416109955404,0,0,1.448492004394531,0,0,0.68796
0.3756552039994858,0,0,1.3287819213867187,0,0,0.7644
0.3787661480018869,0,0,1.0869675537109373,0,0,0.68796
0.38187940799980424,0,0,1.37906015625,0,0,0.68796
0.3849925739923492,0,0,1.4772224243164063,0,0,1.07016
0.38811581500340253,0,0,1.1444283935546875,0,0,0.84084
0.3912372589984443,0,0,1.3575123413085937,0,0,0.53508
0.3943369820190128,0,0,1.2569558715820313,0,0,0.91728
0.39884440999594517,0,0,1.13006318359375,0,0,0.68796
0.4019600769970566,0,0,1.4700398193359374,0,0,0.84084
0.4050677990016993,0,0,1.5562310791015623,0,0,0.84084
0.40816694701788947,0,0,1.3192051147460937,0,0,0.53508
0.411262670008,0,0,1.1827356201171875,0,0,0.30576000000000003
0.4143603370175697,0,0,1.438915197753906,0,0,1.07016
0.4174738549918402,0,0,0.9433154541015625,0,0,0.6115200000000001
0.4205885400006082,0,0,1.1444283935546875,0,0,1.1465999999999998
0.42380141001194715,0,0,1.446097802734375,0,0,0.53508
0.4269171869964339,0,0,1.3072341064453123,0,0,0.68796
0.4304461080173496,0,0,1.1827356201171875,0,0,-9.631440000000001
0.4335751270118635,0,0,1.2521674682617188,0,0,0.84084
0.43669118199613877,0,0,1.5777788940429687,0,0,0.99372
0.43994710699189454,0,0,1.1468225952148436,0,0,0.91728
0.4429929220059421,0,0,1.22583125,0,0,0.53508
0.44579763000365347,0,0,1.3742717529296875,0,0,0.99372
0.44862605902017094,0,0,1.1611878051757811,0,0,0.6115200000000001
0.45142500699148513,0,0,1.1276689819335937,0,0,0.6115200000000001
0.4542213079985231,0,0,1.3575123413085937,0,0,0.7644
0.4570324959931895,0,0,1.484405029296875,0,0,0.6115200000000001
0.4598322410020046,0,0,1.3359645263671873,0,0,0.68796
0.46262687401031144,0,0,1.2234370483398436,0,0,0.84084
0.46542693400988355,0,0,1.2713210815429687,0,0,0.91728
0.4682231229962781,0,0,1.6735469604492186,0,0,0.99372
0.4710172190098092,0,0,1.2904746948242187,0,0,0.68796
0.47381298200343736,0,0,1.3024457031249999,0,0,0.0
0.4766062450071331,0,0,1.455674609375,0,0,0.84084
0.4794024710136,0,0,1.235408056640625,0,0,0.99372
0.48220419700373895,0,0,1.1875240234375,0,0,0.30576000000000003
0.48657692299457267,0,0,1.2856862915039062,0,0,0.6115200000000001
0.48942081499262713,0,0,1.4700398193359374,0,0,1.1465999999999998
0.49222879999433644,0,0,1.0917559570312498,0,0,1.07016
0.4950268040120136,0,0,1.2617442749023438,0,0,0.22932
0.49782819699612446,0,0,1.2785036865234374,0,0,0.99372
0.5006278670043685,0,0,1.1731588134765625,0,0,0.7644
0.5122138780134264,0,0,1.2880804931640624,0,0,0.53508
0.5156758000084665,0,0,1.3479355346679687,0,0,0.6115200000000001
0.5187358559924178,0,0,1.4891934326171874,0,0,0.7644
0.5215336559922434,0,0,1.218648645019531,0,0,0.7644
0.5243211600172799,0,0,1.177947216796875,0,0,0.45864
0.5271105900174007,0,0,1.5227122558593749,0,0,0.68796
0.5298994269978721,0,0,1.5753846923828123,0,0,0.91728
0.5326850420096889,0,0,1.199495031738281,0,0,0.99372
0.5356717100075912,0,0,1.2042834350585936,0,0,0.07644000000000001
0.5389544120116625,0,0,1.2306196533203124,0,0,0.99372
0.5419554880063515,0,0,1.1516109985351561,0,0,0.6115200000000001
0.5450679690111428,0,0,1.1540052001953125,0,0,1.2230400000000001
0.5481699320080224,0,0,1.455674609375,0,0,1.07016
0.5512675990175921,0,0,1.388636962890625,0,0,1.07016
0.5543656549998559,0,0,1.235408056640625,0,0,0.91728
0.5574942840030417,0,0,1.3527239379882812,0,0,0.7644
0.5606303950189613,0,0,1.5538368774414062,0,0,0.7644
0.5637447469925974,0,0,1.3048399047851562,0,0,0.84084
0.5668382290168665,0,0,1.1276689819335937,0,0,0.30576000000000003
0.5699595070036594,0,0,1.3144167114257812,0,0,0.91728
0.5730788210057653,0,0,1.1180921752929687,0,0,1.1465999999999998
0.5761992289917544,0,0,1.1659762084960936,0,0,1.45236
0.5793156730069313,0,0,1.4101847778320311,0,0,0.84084
0.5824580060143489,0,0,1.5442600708007812,0,0,0.84084
0.5855776359967422,0,0,1.2210428466796874,0,0,0.6115200000000001
0.5898541590140667,0,0,1.4149731811523436,0,0,0.68796
0.5930626770132221,0,0,1.3407529296874998,0,0,0.7644
0.596185564994812,0,0,1.0941501586914062,0,0,0.53508
0.5993045649956912,0,0,1.465251416015625,0,0,0.68796
0.6024139359942637,0,0,1.39821376953125,0,0,0.99372
0.6055908430134878,0,0,1.2042834350585936,0,0,-9.172799999999999
0.6087112500099465,0,0,1.0845733520507812,0,0,0.84084
0.611832343012793,0,0,1.2785036865234374,0,0,1.1465999999999998
0.614950620016316,0,0,1.35990654296875,0,0,0.7644
0.6180516580061521,0,0,1.1755530151367186,0,0,0.7644
0.62116928701289,0,0,1.2808978881835937,0,0,0.7644
0.6242868060071487,0,0,1.4796166259765624,0,0,0.91728
0.6274018980038818,0,0,1.120486376953125,0,0,0.45864
0.6305177500180434,0,0,1.5035586425781249,0,0,0.68796
0.6336326019954868,0,0,1.4532804077148436,0,0,0.7644
0.6367903240025043,0,0,1.1611878051757811,0,0,0.6115200000000001
0.6399433230108116,0,0,1.0941501586914062,0,0,1.2230400000000001
0.6430578980071004,0,0,1.2330138549804688,0,0,0.84084
0.6461762860126328,0,0,1.1276689819335937,0,0,0.3822
0.6497231520188507,0,0,1.3646949462890625,0,0,0.22932
0.6528442630078644,0,0,1.3335703247070312,0,0,0.91728
0.6559642440115567,0,0,1.1611878051757811,0,0,0.99372
0.659120188007364,0,0,1.0726023437499999,0,0,1.1465999999999998
0.6622273180109914,0,0,1.4604630126953124,0,0,0.7644
0.6653468360018451,0,0,1.5777788940429687,0,0,0.99372
0.6684672440169379,0,0,1.0630255371093749,0,0,0.7644
0.6715858179959469,0,0,1.2737152832031249,0,0,0.45864
0.6747039110050537,0,0,1.4628572143554686,0,0,0.84084
0.677807614003541,0,0,1.199495031738281,0,0,0.3822
0.6809235030086711,0,0,1.1827356201171875,0,0,0.0
0.6840411880111787,0,0,1.2401964599609374,0,0,0.91728
0.6871555400139187,0,0,1.1707646118164061,0,0,0.68796
0.6903353170200717,0,0,1.1348515869140625,0,0,1.2230400000000001
0.6934534840111155,0,0,1.426944189453125,0,0,0.6115200000000001
0.6966041499981657,0,0,1.3263877197265623,0,0,0.91728
0.6997215580195189,0,0,1.0917559570312498,0,0,0.6115200000000001
0.7028344470018055,0,0,1.2641384765625,0,0,0.7644
0.7059508170059416,0,0,1.6256629272460936,0,0,0.99372
0.7090679279936012,0,0,1.2378022583007813,0,0,0.45864
0.7121842800115701,0,0,1.1947066284179686,0,0,0.53508
0.7153246870147996,0,0,1.429338391113281,0,0,0.91728
0.7184415020165034,0,0,1.2497732666015624,0,0,0.53508
0.7215544650098309,0,0,1.2234370483398436,0,0,0.91728
0.7246697240043432,0,0,1.4101847778320311,0,0,0.68796
0.727785021008458,0,0,1.2785036865234374,0,0,0.68796
0.7308984840055928,0,0,1.1468225952148436,0,0,0.6115200000000001
0.7340124280017335,0,0,1.2330138549804688,0,0,0.68796
0.7372525010141544,0,0,1.446097802734375,0,0,0.84084
0.7404565550095867,0,0,1.139639990234375,0,0,0.68796
0.7435873880167492,0,0,1.0917559570312498,0,0,0.99372
0.746707387996139,0,0,1.4700398193359374,0,0,0.7644
0.7498099069925956,0,0,1.13006318359375,0,0,0.7644
0.7529281110037118,0,0,1.1133037719726562,0,0,0.99372
0.7560773699951824,0,0,1.4317325927734375,0,0,0.7644
0.7591927220055368,0,0,1.4963760375976562,0,0,0.6115200000000001
0.7623102590150665,0,0,1.1563994018554686,0,0,0.53508
0.7654150550079066,0,0,1.467645617675781,0,0,0.99372
0.7685267399938311,0,0,1.6256629272460936,0,0,1.2994800000000002
0.7716465179983061,0,0,1.0749965454101562,0,0,0.7644
0.7747612220118754,0,0,1.2976572998046874,0,0,0.91728
0.7778768700081855,0,0,1.2976572998046874,0,0,0.68796
0.7809915550169535,0,0,1.1947066284179686,0,0,0.91728
0.7841088330023922,0,0,1.0989385620117187,0,0,1.5288
0.787228203000268,0,0,1.5035586425781249,0,0,0.68796
0.7911868790106382,0,0,1.1180921752929687,0,0,1.07016
0.7943635630072095,0,0,1.0917559570312498,0,0,0.3822
0.7974828040169086,0,0,1.2473790649414063,0,0,1.1465999999999998
0.8005940260190982,0,0,1.2425906616210938,0,0,0.68796
0.8037700440036133,0,0,1.3670891479492187,0,0,0.3822
0.8068993400083855,0,0,1.5059528442382812,0,0,1.2230400000000001
0.8100061739969533,0,0,1.5346832641601562,0,0,1.07016
0.8131245620024856,0,0,1.3551181396484375,0,0,0.68796
0.8162436550192069,0,0,1.3311761230468748,0,0,0.6115200000000001
0.8193947469990235,0,0,1.6160861206054686,0,0,0.53508
0.8225167100026738,0,0,1.4820108276367188,0,0,0.6115200000000001
0.8256364690023474,0,0,1.189918225097656,0,0,0.0
0.8287547290092334,0,0,1.2378022583007813,0,0,1.07016
0.8318664139951579,0,0,1.1516109985351561,0,0,0.7644
0.8349606179981492,0,0,1.1228805786132812,0,0,0.68796
0.8380795620032586,0,0,1.2689268798828124,0,0,0.91728
0.8412773210147861,0,0,1.3742717529296875,0,0,1.2230400000000001
0.844393987004878,0,0,1.1061211669921875,0,0,0.91728
0.8475397459988017,0,0,1.3239935180664062,0,0,0.7644
0.8506564309936948,0,0,1.4628572143554686,0,0,0.7644
0.8537720430176705,0,0,1.1276689819335937,0,0,0.45864
0.8568880240200087,0,0,1.1276689819335937,0,0,0.07644000000000001
0.8600046909996308,0,0,1.3048399047851562,0,0,1.37592
0.8631163940008264,0,0,1.0941501586914062,0,0,0.84084
0.8662305799953174,0,0,1.1037269653320312,0,0,1.07016
0.8693464499956463,0,0,1.3814543579101561,0,0,0.7644
0.87246215401683,0,0,1.4891934326171874,0,0,1.2230400000000001
0.8755779130151495,0,0,1.1947066284179686,0,0,0.07644000000000001
0.8786923389998265,0,0,1.2832920898437499,0,0,0.6115200000000001
0.8818106719991192,0,0,1.3838485595703125,0,0,0.84084
0.8849257650144864,0,0,1.3551181396484375,0,0,0.53508
0.8880418949993327,0,0,1.2210428466796874,0,0,0.22932
0.8911552840145305,0,0,1.3311761230468748,0,0,1.1465999999999998
0.894269061012892,0,0,1.3072341064453123,0,0,0.99372
0.8973830800096039,0,0,1.216254443359375,0,0,1.07016
0.9005006359948311,0,0,1.5227122558593749,0,0,0.30576000000000003
0.903644264995819,0,0,1.3670891479492187,0,0,1.1465999999999998
0.9067590430204291,0,0,0.9624690673828125,0,0,0.3822
0.9098732089914847,0,0,1.254561669921875,0,0,0.7644
0.912990782991983,0,0,1.4867992309570313,0,0,0.7644
0.9161097280157264,0,0,1.1731588134765625,0,0,0.45864
0.919222283991985,0,0,1.2593500732421874,0,0,0.7644
0.9223366170190275,0,0,1.2808978881835937,0,0,0.6115200000000001
0.9254515609936789,0,0,1.0821791503906248,0,0,0.99372
0.9285974310187157,0,0,1.0606313354492187,0,0,0.91728
0.9317157090117689,0,0,1.388636962890625,0,0,0.53508
0.9348289130139165,0,0,1.3048399047851562,0,0,0.84084
0.9379450980050024,0,0,1.1851298217773436,0,0,0.30576000000000003
0.9410887270059902,0,0,1.467645617675781,0,0,0.91728
0.944205450010486,0,0,1.4125789794921875,0,0,0.84084
0.9473192279983778,0,0,1.1324573852539062,0,0,0.45864
0.9504339680133853,0,0,1.2665326782226562,0,0,0.7644
0.9535496720054653,0,0,1.3431471313476562,0,0,0.68796
0.9566689310013317,0,0,1.0869675537109373,0,0,0.68796
0.9598231160198338,0,0,1.0965443603515623,0,0,0.7644
0.9629428750195075,0,0,1.5011644409179687,0,0,0.91728
0.9660617460031062,0,0,1.1563994018554686,0,0,0.68796
0.969178005005233,0,0,0.9528922607421875,0,0,0.7644
0.9722981709928717,0,0,1.4437036010742186,0,0,0.99372
0.9754125970066525,0,0,1.5346832641601562,0,0,0.91728
0.9785279310017359,0,0,1.1085153686523437,0,0,0.68796
0.9816434490203392,0,0,1.2497732666015624,0,0,0.91728
0.984756190009648,0,0,1.3407529296874998,0,0,1.07016
0.9888331599941012,0,0,1.1875240234375,0,0,0.84084
0.9922404529934283,0,0,1.3479355346679687,0,0,0.68796
0.9955745990155265,0,0,1.438915197753906,0,0,0.99372
0.9987571529927664,0,0,1.3359645263671873,0,0,0.45864
1.0018963199981954,0,0,1.0989385620117187,0,0,0.6115200000000001
1.005112837010529,0,0,1.2593500732421874,0,0,0.7644
1.0083277620142326,0,0,1.235408056640625,0,0,-8.943480000000001
1.0116268339916132,0,0,1.2234370483398436,0,0,0.3822
1.0148255370149855,0,0,1.235408056640625,0,0,0.91728
1.0180520540161524,0,0,1.1540052001953125,0,0,0.68796
1.0213049040175974,0,0,1.0342951171875,0,0,1.2230400000000001
1.024543903011363,0,0,1.2952630981445312,0,0,0.7644
1.0278558080026414,0,0,1.5083470458984374,0,0,0.91728
1.031064898998011,0,0,1.2234370483398436,0,0,0.22932
1.0342556390096433,0,0,1.35990654296875,0,0,0.99372
1.0374525460065342,0,0,1.5849614990234373,0,0,1.1465999999999998
1.0407809689932037,0,0,1.2114660400390624,0,0,0.68796
1.0437724709918257,0,0,1.1875240234375,0,0,0.0
1.0463344220188446,0,0,1.0941501586914062,0,0,0.7644
1.0488996689964551,0,0,1.429338391113281,0,0,0.91728
1.0515094340080395,0,0,1.0941501586914062,0,0,0.68796
1.054102126014186,0,0,1.2665326782226562,0,0,0.07644000000000001
1.0566740400099661,0,0,1.3575123413085937,0,0,0.84084
1.059290378994774,0,0,1.1037269653320312,0,0,1.07016
1.061871070007328,0,0,1.139639990234375,0,0,0.91728
1.0644365579937585,0,0,1.2641384765625,0,0,0.15288000000000002
1.0670534160162788,0,0,1.3407529296874998,0,0,0.6115200000000001
1.0696926439995877,0,0,1.3096283081054687,0,0,0.91728
1.0723370760097168,0,0,1.216254443359375,0,0,0.45864
1.0750589880044572,0,0,1.3144167114257812,0,0,0.99372
1.0777046419971157,0,0,1.3311761230468748,0,0,0.91728
1.0803238880180288,0,0,1.1444283935546875,0,0,0.84084
1.0830233750166371,0,0,1.1707646118164061,0,0,0.30576000000000003
1.085630287998356,0,0,1.2952630981445312,0,0,0.84084
1.0882990710088052,0,0,1.5179238525390624,0,0,1.2230400000000001
1.0909610770177096,0,0,1.2210428466796874,0,0,0.7644
1.0936162120196968,0,0,1.13006318359375,0,0,0.53508
1.0962962729972787,0,0,1.4245499877929686,0,0,1.1465999999999998
1.0989289080025628,0,0,1.6136919189453125,0,0,0.84084
1.1015893210133072,0,0,1.3335703247070312,0,0,1.07016
1.1042460850148927,0,0,1.1276689819335937,0,0,0.45864
1.1068876280041877,0,0,1.4030021728515625,0,0,0.68796
1.109461393993115,0,0,1.6400281372070311,0,0,0.53508
1.1120541960117407,0,0,1.2497732666015624,0,0,0.99372
1.1146338510152418,0,0,1.2378022583007813,0,0,0.6115200000000001
1.1171704129956197,0,0,1.4508862060546874,0,0,0.6115200000000001
1.119704679993447,0,0,1.484405029296875,0,0,1.07016
1.1222321310197003,0,0,1.235408056640625,0,0,0.91728
1.1247610450081993,0,0,1.218648645019531,0,0,0.30576000000000003
1.1272871640103403,0,0,1.3910311645507811,0,0,0.6115200000000001
1.129821411013836,0,0,1.0893617553710937,0,0,0.91728
1.1323742140084505,0,0,1.2593500732421874,0,0,0.91728
1.134901887999149,0,0,1.1635820068359375,0,0,0.7644
1.1374343020142987,0,0,1.2473790649414063,0,0,0.91728
1.1399620500160381,0,0,1.5442600708007812,0,0,1.1465999999999998
1.1425828149949666,0,0,1.20667763671875,0,0,0.84084
1.1449525649950374,0,0,1.1444283935546875,0,0,0.91728
1.1472784999932628,0,0,1.2928688964843749,0,0,0.22932
1.1496048429980874,0,0,1.4532804077148436,0,0,0.6115200000000001
1.151932223001495,0,0,1.177947216796875,0,0,0.91728
1.154257490998134,0,0,1.2234370483398436,0,0,0.84084
1.1565831119951326,0,0,1.1180921752929687,0,0,1.2230400000000001
1.1589085290033836,0,0,1.4245499877929686,0,0,0.99372
1.1612337970000226,0,0,1.6472107421875,0,0,0.6115200000000001
1.1635809550061822,0,0,1.2018892333984375,0,0,0.68796
1.1659064090054017,0,0,1.1707646118164061,0,0,0.68796
1.1682334360084496,0,0,1.2808978881835937,0,0,0.15288000000000002
1.1705562050046865,0,0,1.2617442749023438,0,0,0.84084
1.1728814369998872,0,0,1.189918225097656,0,0,1.07016
1.175207002001116,0,0,1.3742717529296875,0,0,0.53508
1.177532511006575,0,0,1.1563994018554686,0,0,1.1465999999999998
1.1798583719937596,0,0,1.458068811035156,0,0,0.84084
1.182182049000403,0,0,1.678335363769531,0,0,0.84084
1.1845082429936156,0,0,1.1659762084960936,0,0,0.53508
1.1868359560030513,0,0,1.13006318359375,0,0,0.6115200000000001
1.1891658540116623,0,0,1.235408056640625,0,0,0.91728
1.191504493006505,0,0,1.3383587280273437,0,0,1.07016
1.193830225005513,0,0,1.24498486328125,0,0,1.2994800000000002
1.1961561600037385,0,0,1.197100830078125,0,0,0.7644
1.198480818013195,0,0,1.158793603515625,0,0,0.0
1.2008057350176387,0,0,1.3527239379882812,0,0,1.1465999999999998
1.203130948008038,0,0,1.484405029296875,0,0,0.7644
1.2054546610161196,0,0,1.2928688964843749,0,0,0.53508
1.207799726020312,0,0,1.1635820068359375,0,0,0.30576000000000003
1.2101253830187488,0,0,1.3551181396484375,0,0,0.68796
1.2124509300047066,0,0,1.3623007446289062,0,0,1.07016
1.2147756060003303,0,0,1.2808978881835937,0,0,0.7644
1.217103634000523,0,0,1.180341418457031,0,0,0.84084
1.219428809999954,0,0,1.3527239379882812,0,0,0.0
1.2217530600028113,0,0,1.254561669921875,0,0,0.91728
1.2240786059992388,0,0,1.3192051147460937,0,0,0.99372
1.2264025789918378,0,0,1.3359645263671873,0,0,0.84084
1.2287294210109394,0,0,1.2713210815429687,0,0,0.99372
1.2310538750025444,0,0,1.458068811035156,0,0,0.7644
1.2335755310195964,0,0,1.4772224243164063,0,0,0.6115200000000001
1.2359205950051546,0,0,1.2713210815429687,0,0,0.30576000000000003
1.2396510879916605,0,0,1.197100830078125,0,0,0.3822
1.2420761700195726,0,0,1.3144167114257812,0,0,0.53508
1.2448300450050738,0,0,1.350329736328125,0,0,1.07016
1.247945545008406,0,0,1.1061211669921875,0,0,0.45864
1.2510426930093672,0,0,1.2904746948242187,0,0,0.68796
1.2541657669935375,0,0,1.5921441040039062,0,0,0.7644
1.2572860270156525,0,0,1.1516109985351561,0,0,0.53508
1.2604145270015579,0,0,1.158793603515625,0,0,0.30576000000000003
1.2635315270163119,0,0,1.3766659545898436,0,0,0.7644
1.2666292120120488,0,0,1.2138602416992186,0,0,0.84084
1.2697490270074923,0,0,1.216254443359375,0,0,0.99372
1.2728647680196445,0,0,1.5011644409179687,0,0,0.68796
1.2759803970111534,0,0,1.2401964599609374,0,0,0.7644
1.2790924709988758,0,0,1.139639990234375,0,0,0.30576000000000003
1.2822071940172464,0,0,1.429338391113281,0,0,0.53508
1.2853627120202873,0,0,1.484405029296875,0,0,1.1465999999999998
1.2884895259921905,0,0,1.2330138549804688,0,0,0.91728
1.2916382109979168,0,0,1.2210428466796874,0,0,0.84084
1.294756656017853,0,0,1.458068811035156,0,0,0.53508
1.2978610080026556,0,0,1.2617442749023438,0,0,1.07016
1.3009783220186364,0,0,1.2018892333984375,0,0,0.45864
1.3040983410028275,0,0,1.5131354492187499,0,0,0.91728
1.3072142850141972,0,0,1.3742717529296875,0,0,0.84084
1.3103314519976266,0,0,1.1851298217773436,0,0,0.84084
1.3134368780010846,0,0,1.3263877197265623,0,0,0.6115200000000001
1.3165483039920218,0,0,1.5322890624999999,0,0,0.99372
1.3196646379947197,0,0,1.1420341918945311,0,0,1.07016
1.32277752601658,0,0,1.2282254516601563,0,0,0.68796
1.3258916189952288,0,0,1.4532804077148436,0,0,0.53508
1.3290074710093904,0,0,1.3120225097656248,0,0,0.7644
1.3321203780069482,0,0,1.0773907470703123,0,0,0.15288000000000002
1.3352287120069377,0,0,1.4053963745117186,0,0,1.07016
1.3383752120134886,0,0,1.2641384765625,0,0,0.68796
1.3415260070178192,0,0,1.0773907470703123,0,0,0.3822
1.3446429150062613,0,0,1.2689268798828124,0,0,0.68796
1.3477604700019583,0,0,1.388636962890625,0,0,0.99372
1.3508738219970837,0,0,1.1252747802734375,0,0,1.07016
1.3539890450192615,0,0,1.2497732666015624,0,0,1.07016
1.3571072109916713,0,0,1.2689268798828124,0,0,0.53508
1.3602248590032104,0,0,1.350329736328125,0,0,0.3822
1.3633384339918848,0,0,1.2425906616210938,0,0,0.0
1.3664559710014146,0,0,1.465251416015625,0,0,1.07016
1.3695705819991417,0,0,1.0989385620117187,0,0,0.7644
1.372686656017322,0,0,1.1037269653320312,0,0,0.99372
1.3758018410007935,0,0,1.3838485595703125,0,0,0.6115200000000001
1.3789136559935287,0,0,1.5035586425781249,0,0,1.07016
1.382027323008515,0,0,1.0821791503906248,0,0,0.68796
1.385143045015866,0,0,1.2737152832031249,0,0,0.3822
1.388266897003632,0,0,1.3934253662109375,0,0,0.7644
1.3914148590120021,0,0,1.3646949462890625,0,0,0.6115200000000001
1.3945354520110413,0,0,1.1875240234375,0,0,0.15288000000000002
1.3976582850154955,0,0,1.3000515014648437,0,0,0.91728
1.4008212100015953,0,0,1.199495031738281,0,0,0.68796
1.4040254130086396,0,0,1.350329736328125,0,0,0.7644
1.4071548939973582,0,0,1.3072341064453123,0,0,0.68796
1.410272264998639,0,0,1.2617442749023438,0,0,0.99372
1.4133894690021407,0,0,1.1827356201171875,0,0,0.6115200000000001
1.4165094130148645,0,0,1.467645617675781,0,0,0.7644
1.4196655980194919,0,0,1.678335363769531,0,0,0.99372
1.4227818380168173,0,0,1.350329736328125,0,0,0.91728
1.4259001160098705,0,0,1.2306196533203124,0,0,0.6115200000000001
1.429016412992496,0,0,1.2306196533203124,0,0,0.53508
1.4321311349922325,0,0,1.149216796875,0,0,1.07016
1.4352398570044897,0,0,1.1563994018554686,0,0,0.6115200000000001
1.4383880230016075,0,0,1.2425906616210938,0,0,0.84084
1.4415483750053681,0,0,1.1635820068359375,0,0,0.6115200000000001
1.4446675780054647,0,0,1.1947066284179686,0,0,0.3822
1.4477868009998929,0,0,1.5203180541992187,0,0,0.84084
1.450903171004029,0,0,1.5322890624999999,0,0,1.2994800000000002
1.4540037820115685,0,0,1.2378022583007813,0,0,0.91728
1.4571202640072443,0,0,1.3718775512695311,0,0,0.68796
1.4602373749949038,0,0,1.3479355346679687,0,0,0.45864
1.4633516900066752,0,0,1.189918225097656,0,0,0.6115200000000001
1.4664980779925827,0,0,1.1707646118164061,0,0,0.30576000000000003
1.4696152270189486,0,0,1.3455413330078123,0,0,1.07016
1.4727194670122117,0,0,1.139639990234375,0,0,1.07016
1.475828096998157,0,0,1.1133037719726562,0,0,0.91728
1.4789425600029062,0,0,1.4006079711914061,0,0,0.7644
1.48205778200645,0,0,1.675941162109375,0,0,0.91728
1.4851713569951244,0,0,1.1611878051757811,0,0,0.7644
1.488344097015215,0,0,1.3287819213867187,0,0,0.84084
1.4920161270129029,0,0,1.5346832641601562,0,0,1.07016
1.4951395530079026,0,0,1.1109095703125,0,0,0.99372
1.4982574970053975,0,0,1.1013327636718748,0,0,0.91728
1.5013633680064231,0,0,1.5538368774414062,0,0,0.53508
1.5044772200053558,0,0,1.3646949462890625,0,0,0.84084
1.5075963489944115,0,0,1.120486376953125,0,0,0.45864
1.5107138869934715,0,0,1.5298948608398437,0,0,0.91728
1.513831793999998,0,0,1.3120225097656248,0,0,0.68796
1.516937405016506,0,0,1.1420341918945311,0,0,0.53508
1.5200508870184422,0,0,1.4006079711914061,0,0,0.84084
1.5231656830001157,0,0,1.5490484741210937,0,0,0.99372
1.526280479010893,0,0,1.3287819213867187,0,0,0.68796
1.529395460995147,0,0,1.2378022583007813,0,0,0.91728
1.532509904995095,0,0,1.5107412475585937,0,0,0.7644
1.5358315700141247,0,0,1.0941501586914062,0,0,0.45864
1.5389511249959469,0,0,1.0965443603515623,0,0,0.07644000000000001
1.5421014210151043,0,0,1.2401964599609374,0,0,1.2994800000000002
1.5452179400017485,0,0,1.20667763671875,0,0,0.91728
1.5485544179973658,0,0,1.2138602416992186,0,0,1.1465999999999998
1.5516732149990276,0,0,1.3862427612304686,0,0,0.84084
1.5547890110174194,0,0,1.3407529296874998,0,0,0.99372
1.5578916410158854,0,0,1.2234370483398436,0,0,0.45864
1.5610178070201073,0,0,1.3455413330078123,0,0,0.45864
1.5641373069956899,0,0,1.5251064575195312,0,0,0.6115200000000001
1.5672517890052404,0,0,1.209071838378906,0,0,0.6115200000000001
1.570374900009483,0,0,1.20667763671875,0,0,0.99372
1.573479362996295,0,0,1.2425906616210938,0,0,0.68796
1.5766942510090303,0,0,1.2856862915039062,0,0,0.84084
1.5798100469983183,0,0,1.2210428466796874,0,0,0.30576000000000003
1.5829224180197343,0,0,1.2521674682617188,0,0,0.6115200000000001
1.5860391030146275,0,0,1.4437036010742186,0,0,0.7644
1.5891583620104939,0,0,1.1372457885742187,0,0,0.84084
1.5922781210101675,0,0,1.448492004394531,0,0,1.07016
1.595394029020099,0,0,1.4939818359375,0,0,0.68796
1.5985086029977538,0,0,1.1659762084960936,0,0,0.7644
1.6016218620061409,0,0,1.2641384765625,0,0,0.45864
1.6047392330074217,0,0,1.22583125,0,0,0.45864
1.607896288012853,0,0,1.0726023437499999,0,0,0.99372
1.6110106029955205,0,0,1.2114660400390624,0,0,0.30576000000000003
1.6141264910111204,0,0,1.446097802734375,0,0,0.68796
1.6172452140017413,0,0,1.0941501586914062,0,0,0.84084
1.6203618989966344,0,0,1.1252747802734375,0,0,0.99372
1.623516676016152,0,0,1.3958195678710936,0,0,0.7644
1.6266313430096488,0,0,1.4724340209960938,0,0,0.91728
1.629744509991724,0,0,1.1276689819335937,0,0,0.84084
1.6328902870009188,0,0,1.3718775512695311,0,0,0.84084
1.636031934991479,0,0,1.2521674682617188,0,0,0.68796
1.639156193996314,0,0,1.1420341918945311,0,0,0.45864
1.6423090269963723,0,0,1.2401964599609374,0,0,0.68796
1.6455976360011846,0,0,1.0965443603515623,0,0,1.1465999999999998
1.6495138670143206,0,0,1.3623007446289062,0,0,0.53508
1.6527724399929866,0,0,1.3383587280273437,0,0,0.91728
1.6559037910192274,0,0,1.2401964599609374,0,0,1.2230400000000001
1.6590218660130631,0,0,1.1563994018554686,0,0,0.84084
1.6621399029972963,0,0,1.1156979736328125,0,0,0.91728
1.665256477019284,0,0,1.3096283081054687,0,0,0.91728
1.6683753470133524,0,0,1.3168109130859373,0,0,0.91728
1.6715277539915405,0,0,1.2018892333984375,0,0,0.68796
1.6746705500117969,0,0,1.5059528442382812,0,0,0.84084
1.6777883460163139,0,0,1.4772224243164063,0,0,1.1465999999999998
1.680904865002958,0,0,1.1372457885742187,0,0,0.84084
1.6840225130144972,0,0,1.177947216796875,0,0,0.84084
1.6871372720052022,0,0,1.5011644409179687,0,0,0.91728
1.6902523830067366,0,0,1.1707646118164061,0,0,1.1465999999999998
1.693366698018508,0,0,1.1611878051757811,0,0,0.3822
1.6964852170203812,0,0,1.388636962890625,0,0,1.2230400000000001
1.6996428270067554,0,0,1.3742717529296875,0,0,0.6115200000000001
1.7027584390016273,0,0,1.13006318359375,0,0,0.68796
1.7058735680184327,0,0,1.3215993164062498,0,0,1.07016
1.7089892720105127,0,0,1.6328455322265625,0,0,0.99372
1.7121062900114339,0,0,1.2234370483398436,0,0,0.6115200000000001
1.7152266050106846,0,0,1.2713210815429687,0,0,0.7644
1.7183423090027645,0,0,1.5227122558593749,0,0,0.53508
1.7214576239930466,0,0,1.3479355346679687,0,0,0.3822
1.7246052350092214,0,0,1.1420341918945311,0,0,0.07644000000000001
1.7277204199926928,0,0,1.3646949462890625,0,0,0.91728
1.730835938011296,0,0,1.2593500732421874,0,0,0.6115200000000001
1.733950846013613,0,0,1.158793603515625,0,0,1.1465999999999998
1.7370666789938696,0,0,1.426944189453125,0,0,0.53508
1.7402730300091207,0,0,1.2330138549804688,0,0,1.1465999999999998
1.7434651590010617,0,0,1.2018892333984375,0,0,0.99372
1.7465845480037387,0,0,1.0821791503906248,0,0,0.6115200000000001
1.7497019740112592,0,0,1.5275006591796874,0,0,0.68796
1.752820380992489,0,0,1.2306196533203124,0,0,0.3822
1.7559356770070735,0,0,1.16837041015625,0,0,0.53508
1.759051344008185,0,0,1.2306196533203124,0,0,0.99372
1.7621676590060815,0,0,1.2138602416992186,0,0,0.84084
1.7652832879975904,0,0,1.1707646118164061,0,0,0.99372
1.7683983629976865,0,0,1.4030021728515625,0,0,0.6115200000000001
1.771516676992178,0,0,1.4341267944335936,0,0,0.84084
1.7746295290126,0,0,0.93852705078125,0,0,0.45864
1.7777432150032837,0,0,1.3072341064453123,0,0,0.68796
1.7808588439947926,0,0,1.5059528442382812,0,0,1.07016
1.7839757330075372,0,0,1.1827356201171875,0,0,0.84084
1.7870877149980515,0,0,1.3359645263671873,0,0,0.84084
1.7902397880097851,0,0,1.4772224243164063,0,0,2.2167600000000003
1.7934310100099538,0,0,1.3431471313476562,0,0,0.91728
1.7965354539919645,0,0,1.1947066284179686,0,0,0.30576000000000003
1.799699954019161,0,0,1.4149731811523436,0,0,0.68796
1.8027991949929856,0,0,1.2761094848632812,0,0,0.7644
1.8059197870024946,0,0,1.149216796875,0,0,0.30576000000000003
1.809036102000391,0,0,1.4628572143554686,0,0,0.6115200000000001
1.8121567869966384,0,0,1.6615759521484375,0,0,1.2230400000000001
1.8152703980158549,0,0,1.369483349609375,0,0,0.7644
1.8183853800001089,0,0,1.3000515014648437,0,0,0.99372
1.8215032129955944,0,0,1.254561669921875,0,0,0.6115200000000001
1.8246193430095445,0,0,1.2497732666015624,0,0,0.99372
1.8277362319931854,0,0,1.1085153686523437,0,0,0.22932
1.830848028010223,0,0,1.4125789794921875,0,0,1.07016
1.8339626390079502,0,0,1.218648645019531,0,0,0.53508
1.8370777500094846,0,0,1.350329736328125,0,0,0.84084
1.8401937129965518,0,0,1.4508862060546874,0,0,0.53508
1.8433355460001621,0,0,1.4796166259765624,0,0,1.1465999999999998
1.8464843420078978,0,0,1.139639990234375,0,0,0.84084
1.8496017130091786,0,0,1.2497732666015624,0,0,0.45864
1.8527167680149432,0,0,1.3096283081054687,0,0,0.3822
1.8558341019961517,0,0,1.35990654296875,0,0,0.45864
1.8594387070043012,0,0,1.2234370483398436,0,0,0.84084
1.8625758550188038,0,0,1.22583125,0,0,0.99372
1.8656933550082613,0,0,1.3263877197265623,0,0,0.84084
1.8688078740087803,0,0,1.218648645019531,0,0,0.22932
1.8720449460088275,0,0,1.2928688964843749,0,0,0.84084
1.875145946018165,0,0,1.2018892333984375,0,0,0.84084
1.8782466500124428,0,0,1.3646949462890625,0,0,0.7644
1.8813533910142723,0,0,1.4149731811523436,0,0,1.1465999999999998
1.8844678540190216,0,0,1.5729904907226562,0,0,1.07016
1.8875851880002301,0,0,1.1851298217773436,0,0,0.7644
1.8907013169955462,0,0,1.1947066284179686,0,0,0.53508
1.8938161130063236,0,0,1.6519991455078125,0,0,0.68796
1.8969301140168682,0,0,1.2665326782226562,0,0,0.6115200000000001
1.9000462620169856,0,0,1.2042834350585936,0,0,0.07644000000000001
1.903160262008896,0,0,1.350329736328125,0,0,1.1465999999999998
1.9062745030096266,0,0,1.1540052001953125,0,0,0.53508
1.909390168992104,0,0,1.1348515869140625,0,0,0.99372
1.9125068729917984,0,0,1.3814543579101561,0,0,0.99372
1.9156610020145308,0,0,1.5562310791015623,0,0,0.91728
1.9187739840126596,0,0,1.1707646118164061,0,0,0.53508
1.9218885950103868,0,0,1.4053963745117186,0,0,0.7644
1.9250028360111173,0,0,1.4317325927734375,0,0,0.99372
1.9281182429986075,0,0,1.1827356201171875,0,0,0.6115200000000001
1.9312298360164277,0,0,1.1540052001953125,0,0,0.30576000000000003
1.9343441509990953,0,0,1.2306196533203124,0,0,0.91728
1.937463539012242,0,0,1.0869675537109373,0,0,0.84084
1.940665001020534,0,0,1.1109095703125,0,0,1.1465999999999998
1.9438181490113493,0,0,1.2928688964843749,0,0,0.91728
1.9469322230143007,0,0,1.3646949462890625,0,0,0.91728
1.950048594007967,0,0,1.0869675537109373,0,0,0.53508
1.9531640009954572,0,0,1.2808978881835937,0,0,0.84084
1.9562798160186503,0,0,1.6424223388671875,0,0,0.53508
1.9593954830197617,0,0,1.1372457885742187,0,0,0.68796
1.9625095750088803,0,0,1.177947216796875,0,0,0.6115200000000001
1.9656243350182194,0,0,1.2976572998046874,0,0,0.91728
1.9687383720010985,0,0,1.2928688964843749,0,0,0.68796
1.9718550010002218,0,0,1.0989385620117187,0,0,0.84084
1.9749679829983506,0,0,1.2425906616210938,0,0,0.99372
1.9780805750051513,0,0,1.0726023437499999,0,0,0.07644000000000001
1.9811945570108946,0,0,1.1252747802734375,0,0,0.3822
1.9843076870020013,0,0,1.3192051147460937,0,0,1.1465999999999998
1.9874507980130147,0,0,1.5538368774414062,0,0,1.1465999999999998
1.9922309069952462,0,0,1.0079588989257813,0,0,0.84084
1.9976974909950513,0,0,1.484405029296875,0,0,1.07016
2.000875749014085,0,0,1.1324573852539062,0,0,0.6115200000000001
2.0039957310073078,0,0,1.235408056640625,0,0,0.68796
2.0071071379934438,0,0,1.4173673828125,0,0,0.6115200000000001
2.0102175830106717,0,0,1.1540052001953125,0,0,0.7644
2.0133273050014395,0,0,1.0917559570312498,0,0,0.22932
2.016437175014289,0,0,1.3646949462890625,0,0,0.7644
2.019667100015795,0,0,1.0749965454101562,0,0,0.91728
2.0227786370087415,0,0,1.1061211669921875,0,0,0.6115200000000001
2.025887841009535,0,0,1.39821376953125,0,0,0.99372
2.028996637003729,0,0,1.455674609375,0,0,1.2994800000000002
2.0321064890013076,0,0,1.0295067138671874,0,0,0.84084
2.035213933995692,0,0,1.2401964599609374,0,0,0.7644
2.03833180401125,0,0,1.39821376953125,0,0,0.84084
2.0415835620078724,0,0,1.1156979736328125,0,0,0.68796
2.044731321017025,0,0,1.3048399047851562,0,0,0.3822
2.0478474870033097,0,0,1.2928688964843749,0,0,0.91728
2.0509533770091366,0,0,1.2114660400390624,0,0,0.68796
2.054062673007138,0,0,0.9744400756835937,0,0,1.1465999999999998
2.0571716540143825,0,0,1.4700398193359374,0,0,0.6115200000000001
2.060281895013759,0,0,1.438915197753906,0,0,0.99372
2.0634141539921984,0,0,1.0797849487304687,0,0,0.22932
2.0665276540094055,0,0,1.3742717529296875,0,0,0.6115200000000001
2.0696387469943147,0,0,1.4772224243164063,0,0,0.84084
2.0727498030173592,0,0,1.209071838378906,0,0,0.53508
2.0758613210055046,0,0,1.0821791503906248,0,0,0.45864
2.078966766013764,0,0,1.2497732666015624,0,0,2.36964
2.0820754330197815,0,0,1.1276689819335937,0,0,0.84084
2.0851825069985352,0,0,0.9911994873046874,0,0,1.07016
2.0882894520182163,0,0,1.43652099609375,0,0,0.84084
2.091413118003402,0,0,1.4317325927734375,0,0,0.84084
2.094552118011052,0,0,1.1731588134765625,0,0,0.53508
2.0976598220004234,0,0,1.4915876342773438,0,0,0.68796
2.10077024801285,0,0,1.5801730957031248,0,0,0.7644
2.1038782660034485,0,0,1.1468225952148436,0,0,0.53508
2.1069835259986576,0,0,1.2042834350585936,0,0,0.7644
2.11014372901991,0,0,1.3407529296874998,0,0,0.6115200000000001
2.113429004995851,0,0,1.0821791503906248,0,0,0.6115200000000001
2.1166111710190307,0,0,1.1755530151367186,0,0,0.0
2.1197928180044983,0,0,1.35990654296875,0,0,0.99372
2.1229849840165116,0,0,1.1037269653320312,0,0,0.68796
2.1262123710184824,0,0,1.0917559570312498,0,0,1.2230400000000001
2.1294088150025345,0,0,1.4987702392578124,0,0,0.7644
2.1326290360011626,0,0,1.2737152832031249,0,0,0.99372
2.135842757008504,0,0,1.1348515869140625,0,0,0.3822
2.139029293000931,0,0,1.3862427612304686,0,0,0.7644
2.1422284220170695,0,0,1.6448165405273436,0,0,0.84084
2.145425624999916,0,0,1.139639990234375,0,0,0.6115200000000001
2.148522828996647,0,0,1.3670891479492187,0,0,0.53508
2.151857585005928,0,0,1.429338391113281,0,0,0.68796
2.154634681995958,0,0,1.3670891479492187,0,0,0.7644
2.1574105560139287,0,0,1.1635820068359375,0,0,1.2230400000000001
2.160202486003982,0,0,1.37906015625,0,0,0.91728
2.1629752500157338,0,0,1.668758557128906,0,0,0.99372
2.165749661013251,0,0,1.1875240234375,0,0,0.53508
2.1685279429948423,0,0,1.1851298217773436,0,0,0.0
2.1712980210140813,0,0,1.4030021728515625,0,0,0.6115200000000001
2.174073303001933,0,0,1.4413093994140624,0,0,0.84084
2.1768471960094757,0,0,1.1827356201171875,0,0,0.99372
2.1796304220042657,0,0,1.2785036865234374,0,0,0.91728
2.182408499997109,0,0,1.446097802734375,0,0,2.06388
2.185199947998626,0,0,1.20667763671875,0,0,1.07016
2.1880167110066395,0,0,1.0749965454101562,0,0,0.30576000000000003
2.1907990490144584,0,0,1.4628572143554686,0,0,0.7644
2.1936092370015103,0,0,1.5179238525390624,0,0,0.84084
2.1964017410064116,0,0,1.24498486328125,0,0,0.6115200000000001
2.199191708001308,0,0,1.216254443359375,0,0,1.2230400000000001
2.2019666010164656,0,0,1.5203180541992187,0,0,0.53508
2.2047561980143655,0,0,1.3670891479492187,0,0,0.68796
2.207547516009072,0,0,1.1324573852539062,0,0,0.53508
2.210337465017801,0,0,1.3239935180664062,0,0,0.91728
2.2131274130078964,0,0,1.254561669921875,0,0,0.84084
2.2159172130050138,0,0,1.13006318359375,0,0,0.68796
2.218713623995427,0,0,1.2018892333984375,0,0,0.7644
2.2215159620100167,0,0,1.3072341064453123,0,0,0.30576000000000003
2.2243103359942324,0,0,1.2808978881835937,0,0,0.3822
2.227097451017471,0,0,1.3263877197265623,0,0,0.84084
2.229889992013341,0,0,1.1037269653320312,0,0,1.1465999999999998
2.232681070017861,0,0,1.3910311645507811,0,0,0.68796
2.2355158319987822,0,0,1.2880804931640624,0,0,1.1465999999999998
2.2383069100033026,0,0,1.1420341918945311,0,0,1.911
2.2413706890074536,0,0,1.3575123413085937,0,0,1.1465999999999998
2.2442462659964804,0,0,1.3383587280273437,0,0,0.91728
2.2471420649962965,0,0,1.149216796875,0,0,1.07016
2.25021595400176,0,0,1.1875240234375,0,0,0.84084
2.2533336759952363,0,0,1.37906015625,0,0,0.30576000000000003
2.2564511020027567,0,0,1.3431471313476562,0,0,0.84084
2.2595710470050108,0,0,1.1228805786132812,0,0,0.45864
2.262686953996308,0,0,1.2641384765625,0,0,0.6115200000000001
2.2658019730006345,0,0,1.6472107421875,0,0,0.91728
2.2689261760096997,0,0,1.2761094848632812,0,0,0.84084
2.2720751200104132,0,0,1.2689268798828124,0,0,0.99372
2.275189917010721,0,0,1.350329736328125,0,0,0.91728
2.2783042500086594,0,0,1.2976572998046874,0,0,0.91728
2.281434694014024,0,0,1.0989385620117187,0,0,0.22932
2.284552249999251,0,0,1.4604630126953124,0,0,0.91728
2.2876678979955614,0,0,1.2737152832031249,0,0,0.84084
2.2907954530091956,0,0,1.1827356201171875,0,0,0.6115200000000001
2.2939133979962207,0,0,1.2785036865234374,0,0,0.68796
2.297028731001774,0,0,1.678335363769531,0,0,1.07016
2.3001447129936423,0,0,1.3215993164062498,0,0,0.99372
2.3032573420205154,0,0,1.2569558715820313,0,0,0.68796
2.306371194019448,0,0,1.4341267944335936,0,0,0.84084
2.3094851759960875,0,0,1.0797849487304687,0,0,0.68796
2.3126019350020215,0,0,1.139639990234375,0,0,0.15288000000000002
2.3157167680037674,0,0,1.4604630126953124,0,0,0.68796
2.318828768999083,0,0,1.254561669921875,0,0,0.84084
2.3219422870024573,0,0,1.1468225952148436,0,0,0.68796
2.325057491019834,0,0,1.458068811035156,0,0,1.1465999999999998
2.3281733240000904,0,0,1.3311761230468748,0,0,1.2230400000000001
2.3312885829946026,0,0,1.1252747802734375,0,0,0.6115200000000001
2.3344023980025668,0,0,1.3168109130859373,0,0,-8.7906
2.3375534910010174,0,0,1.4939818359375,0,0,0.6115200000000001
2.3406675280130003,0,0,1.2689268798828124,0,0,0.7644
2.34378299099626,0,0,1.1276689819335937,0,0,0.15288000000000002
2.3469257130054757,0,0,1.407790576171875,0,0,0.91728
2.350040731020272,0,0,1.2737152832031249,0,0,0.84084
2.3533678399981,0,0,1.1755530151367186,0,0,1.07016
2.3564923579979222,0,0,1.4772224243164063,0,0,0.7644
2.3596427100128494,0,0,1.4915876342773438,0,0,0.99372
2.362759506009752,0,0,1.209071838378906,0,0,0.6115200000000001
2.365876024006866,0,0,1.2593500732421874,0,0,0.68796
2.3689911169931293,0,0,1.3934253662109375,0,0,0.99372
2.372105932008708,0,0,1.2665326782226562,0,0,-9.32568
2.375220543006435,0,0,1.0941501586914062,0,0,0.99372
2.3783613580162637,0,0,1.2904746948242187,0,0,0.84084
2.381476284004748,0,0,1.1013327636718748,0,0,0.99372
2.3845928760129027,0,0,1.2138602416992186,0,0,1.07016
2.3877075240015984,0,0,1.2641384765625,0,0,0.53508
2.390831172000617,0,0,1.5275006591796874,0,0,0.7644
2.3939816350175533,0,0,1.1324573852539062,0,0,0.15288000000000002
2.3970865239971317,0,0,1.455674609375,0,0,0.84084
2.400775573012652,0,0,1.6400281372070311,0,0,1.1465999999999998
2.403933017019881,0,0,1.2617442749023438,0,0,0.53508
2.4070708680083044,0,0,1.4437036010742186,0,0,0.53508
2.4101886830176227,0,0,1.5801730957031248,0,0,0.68796
2.4133046829956584,0,0,1.0965443603515623,0,0,0.6115200000000001
2.416419739020057,0,0,1.20667763671875,0,0,0.68796
2.4195331830123905,0,0,1.2713210815429687,0,0,0.99372
2.4226477580086794,0,0,1.1444283935546875,0,0,0.91728
2.425794553011656,0,0,1.1348515869140625,0,0,1.2230400000000001
2.4289109609962907,0,0,1.5227122558593749,0,0,0.68796
2.4320273130142596,0,0,1.458068811035156,0,0,0.99372
2.43517657200573,0,0,1.1635820068359375,0,0,0.07644000000000001
2.4383238310110755,0,0,1.3263877197265623,0,0,0.6115200000000001
2.4414441080007236,0,0,1.6448165405273436,0,0,1.07016
2.444566312013194,0,0,1.35990654296875,0,0,0.7644
2.447727885999484,0,0,1.1635820068359375,0,0,0.91728
2.4508446080144495,0,0,1.2306196533203124,0,0,0.7644
2.4539619410061277,0,0,1.177947216796875,0,0,0.84084
2.4570797930064145,0,0,1.0941501586914062,0,0,-9.172799999999999
2.460217478015693,0,0,1.4891934326171874,0,0,0.99372
2.4633326820039656,0,0,1.180341418457031,0,0,0.84084
2.466453700006241,0,0,1.16837041015625,0,0,0.53508
2.4695706450147554,0,0,1.5155296508789062,0,0,0.68796
2.4726872559986077,0,0,1.5897499023437498,0,0,0.91728
2.475797163002426,0,0,1.3359645263671873,0,0,0.7644
2.4789184590044897,0,0,1.0845733520507812,0,0,0.84084
2.4820351999951527,0,0,1.6615759521484375,0,0,0.3822
2.4851502560195513,0,0,1.3623007446289062,0,0,0.6115200000000001
2.488264810992405,0,0,1.0749965454101562,0,0,0.15288000000000002
2.491403977997834,0,0,1.2665326782226562,0,0,1.1465999999999998
2.4949071400042158,0,0,1.0989385620117187,0,0,0.91728
2.4980457140190993,0,0,1.2234370483398436,0,0,1.2230400000000001
2.501164287998108,0,0,1.4341267944335936,0,0,0.68796
2.504276103019947,0,0,1.0965443603515623,0,0,0.84084
2.5074520090129226,0,0,1.1611878051757811,0,0,0.3822
2.5105739349965006,0,0,1.2761094848632812,0,0,0.7644
2.513691416999791,0,0,1.5753846923828123,0,0,1.1465999999999998
2.5168088799982797,0,0,1.1372457885742187,0,0,0.7644
2.5199190099956468,0,0,1.1755530151367186,0,0,0.84084
2.5230134169978555,0,0,1.4101847778320311,0,0,0.91728
2.5261308250192087,0,0,1.2904746948242187,0,0,0.84084
2.5292476580070797,0,0,1.1755530151367186,0,0,0.3822
2.532359991018893,0,0,1.43652099609375,0,0,0.6115200000000001
2.5357073030027095,0,0,1.2473790649414063,0,0,0.84084
2.5388279700127896,0,0,1.1109095703125,0,0,0.3822
2.5419773220201023,0,0,1.2832920898437499,0,0,0.68796
2.545227672002511,0,0,1.4053963745117186,0,0,1.07016
2.54838646799908,0,0,1.218648645019531,0,0,0.68796
2.551532875018893,0,0,1.3575123413085937,0,0,0.68796
2.554629855992971,0,0,1.2282254516601563,0,0,0.68796
2.5577495970064774,0,0,1.3670891479492187,0,0,1.60524
2.5608666900079697,0,0,1.1635820068359375,0,0,0.22932
2.5639860600058455,0,0,1.1827356201171875,0,0,0.91728
2.5671019490109757,0,0,1.3455413330078123,0,0,0.91728
2.5702047090162523,0,0,1.0941501586914062,0,0,0.84084
2.5733202830015216,0,0,1.4413093994140624,0,0,1.83456
2.576457874994958,0,0,1.4820108276367188,0,0,1.07016
2.5795718379959,0,0,1.1516109985351561,0,0,0.7644
2.582684708002489,0,0,1.3766659545898436,0,0,0.91728
2.5859363920171745,0,0,1.66636435546875,0,0,0.68796
2.5890540959953796,0,0,1.3551181396484375,0,0,0.53508
2.5921822620148305,0,0,1.3335703247070312,0,0,0.6115200000000001
2.595301059016492,0,0,1.3527239379882812,0,0,1.07016
2.5984013919951394,0,0,1.0845733520507812,0,0,0.99372
2.6015810950193554,0,0,1.0175357055664063,0,0,0.91728
2.6047010580077767,0,0,1.2976572998046874,0,0,0.91728
2.608068074012408,0,0,1.120486376953125,0,0,0.6115200000000001
2.611188833019696,0,0,1.139639990234375,0,0,0.6115200000000001
2.6143142399960198,0,0,1.4006079711914061,0,0,0.99372
2.6174206660070922,0,0,1.5514426757812498,0,0,0.7644
2.620535963011207,0,0,1.2473790649414063,0,0,1.07016
2.6236514810007066,0,0,1.2042834350585936,0,0,0.68796
2.6267651850066613,0,0,1.2785036865234374,0,0,0.68796
2.6298794070025906,0,0,1.149216796875,0,0,0.53508
2.632984925992787,0,0,1.1180921752929687,0,0,0.07644000000000001
2.636122758995043,0,0,1.350329736328125,0,0,0.68796
2.6392412960121874,0,0,1.1444283935546875,0,0,0.84084
2.6423566290177405,0,0,1.1827356201171875,0,0,0.7644
2.645475722005358,0,0,1.3646949462890625,0,0,0.84084
2.648632518015802,0,0,1.6424223388671875,0,0,0.91728
2.6517493879946414,0,0,1.0726023437499999,0,0,0.84084
2.654862035997212,0,0,1.235408056640625,0,0,0.6115200000000001
2.6580842020048294,0,0,1.6639701538085936,0,0,0.68796
2.6612062019994482,0,0,1.3120225097656248,0,0,0.84084
2.664325015997747,0,0,1.1156979736328125,0,0,0.30576000000000003
2.667473683017306,0,0,1.4030021728515625,0,0,1.07016
2.670590349007398,0,0,1.2856862915039062,0,0,0.7644
2.673709663999034,0,0,1.177947216796875,0,0,1.60524
2.6768419230065774,0,0,1.5298948608398437,0,0,0.91728
2.679957571992418,0,0,1.3766659545898436,0,0,1.07016
2.6830701639992185,0,0,1.0893617553710937,0,0,0.22932
2.68618472001981,0,0,1.2401964599609374,0,0,-9.172799999999999
2.6893025350000244,0,0,1.5801730957031248,0,0,0.7644
2.6924695710185915,0,0,1.3311761230468748,0,0,0.99372
2.6955904780188575,0,0,1.1755530151367186,0,0,0.15288000000000002
2.6987072009942494,0,0,1.4125789794921875,0,0,0.91728
2.7018224600178655,0,0,1.2593500732421874,0,0,0.84084
2.704936145019019,0,0,1.218648645019531,0,0,0.84084
2.708050979010295,0,0,1.2904746948242187,0,0,0.84084
2.7111635339970235,0,0,1.2737152832031249,0,0,0.84084
2.7142769969941583,0,0,1.1563994018554686,0,0,0.53508
2.7173908120021224,0,0,1.4604630126953124,0,0,0.91728
2.7205061269924045,0,0,1.4006079711914061,0,0,1.07016
2.7236492010124493,0,0,1.2832920898437499,0,0,0.84084
2.726763923012186,0,0,1.2401964599609374,0,0,0.7644
2.7298797930125147,0,0,1.4939818359375,0,0,0.91728
2.732982460001949,0,0,1.1420341918945311,0,0,0.53508
2.7361202750180382,0,0,1.1109095703125,0,0,1.07016
2.739237497007707,0,0,1.39821376953125,0,0,0.84084
2.7423988670052495,0,0,1.3096283081054687,0,0,0.99372
2.745936232007807,0,0,1.0726023437499999,0,0,0.99372
2.7490915470116306,0,0,1.484405029296875,0,0,0.7644
2.752212157996837,0,0,1.5035586425781249,0,0,0.99372
2.7553263989975676,0,0,1.216254443359375,0,0,0.3822
2.758428991015535,0,0,1.3144167114257812,0,0,0.6115200000000001
2.761619527009316,0,0,1.5849614990234373,0,0,0.99372
2.764738452999154,0,0,1.2114660400390624,0,0,0.3822
2.767857027007267,0,0,1.3144167114257812,0,0,0.30576000000000003
2.7709723610023502,0,0,1.3407529296874998,0,0,0.99372
2.774103546020342,0,0,1.3120225097656248,0,0,1.1465999999999998
2.777218861010624,0,0,1.1228805786132812,0,0,1.07016
2.780334027018398,0,0,1.5586252807617187,0,0,0.7644
2.783447009016527,0,0,1.4987702392578124,0,0,0.99372
2.7865619900112506,0,0,1.1420341918945311,0,0,0.45864
2.789675009000348,0,0,1.426944189453125,0,0,2.4460800000000003
2.7928014530043583,0,0,1.6735469604492186,0,0,0.84084
2.7959168610104825,0,0,1.149216796875,0,0,0.84084
2.799051842011977,0,0,1.177947216796875,0,0,0.6115200000000001
2.8021659899968654,0,0,1.2737152832031249,0,0,1.07016
2.805280157015659,0,0,1.218648645019531,0,0,0.91728
2.8084197489952203,0,0,1.1731588134765625,0,0,0.6115200000000001
2.8115433049970306,0,0,1.5131354492187499,0,0,0.6115200000000001
2.814660008996725,0,0,1.0845733520507812,0,0,0.91728
2.8177604350203183,0,0,1.0941501586914062,0,0,0.30576000000000003
2.8208766379975714,0,0,1.4796166259765624,0,0,0.84084
2.823994564008899,0,0,1.5801730957031248,0,0,0.91728
2.8271072680072393,0,0,1.3383587280273437,0,0,0.53508
2.8302209160174243,0,0,1.1947066284179686,0,0,0.99372
2.8333244910172652,0,0,1.2832920898437499,0,0,0.91728
2.836460452992469,0,0,1.1851298217773436,0,0,0.91728
2.8395886380167212,0,0,1.1659762084960936,0,0,0.45864
2.842703508998966,0,0,1.2785036865234374,0,0,0.6115200000000001
2.845817398017971,0,0,1.1085153686523437,0,0,0.91728
2.848964805016294,0,0,1.1372457885742187,0,0,0.53508
2.8520824900188018,0,0,1.5203180541992187,0,0,0.7644
2.85519558301894,0,0,1.3934253662109375,0,0,1.45236
2.858312174997991,0,0,1.16837041015625,0,0,0.84084
2.861426435003523,0,0,1.0869675537109373,0,0,0.7644
2.864541435003048,0,0,1.608903515625,0,0,0.68796
2.867655323992949,0,0,1.3192051147460937,0,0,0.53508
2.8707677499915008,0,0,1.0797849487304687,0,0,-0.15288000000000002
2.8739112119947094,0,0,1.2808978881835937,0,0,0.91728
2.877026433998253,0,0,1.24498486328125,0,0,0.6115200000000001
2.8801424340053927,0,0,1.158793603515625,0,0,0.6115200000000001
2.883253953012172,0,0,1.4891934326171874,0,0,0.68796
2.8863680270151235,0,0,1.43652099609375,0,0,1.07016
2.88948256400181,0,0,1.1444283935546875,0,0,0.84084
2.892600193998078,0,0,1.3096283081054687,0,0,0.3822
2.8957155639945995,0,0,1.5682020874023437,0,0,0.6115200000000001
2.8988278420001734,0,0,1.350329736328125,0,0,0.30576000000000003
2.901942786993459,0,0,1.0965443603515623,0,0,0.22932
2.9050536199938506,0,0,1.3958195678710936,0,0,1.1465999999999998
2.9081935090071056,0,0,1.1228805786132812,0,0,0.7644
2.9113097859953996,0,0,1.1348515869140625,0,0,1.1465999999999998
2.914425694005331,0,0,1.3910311645507811,0,0,0.7644
2.9175448610039894,0,0,1.35990654296875,0,0,0.7644
2.9206614720169455,0,0,1.1468225952148436,0,0,0.6115200000000001
2.923777787014842,0,0,1.5227122558593749,0,0,0.84084
2.927133599005174,0,0,1.4173673828125,0,0,0.68796
2.9302773759991396,0,0,1.24498486328125,0,0,0.91728
2.9333899689954706,0,0,1.254561669921875,0,0,0.30576000000000003
2.9365311170113273,0,0,1.2641384765625,0,0,0.6115200000000001
2.939652875997126,0,0,1.2330138549804688,0,0,0.7644
2.9427707830036525,0,0,1.218648645019531,0,0,0.53508
2.9458891160029452,0,0,1.47482822265625,0,0,0.7644
2.949035449011717,0,0,1.3766659545898436,0,0,0.45864
2.952156098006526,0,0,1.1444283935546875,0,0,0.45864
2.9552720240026247,0,0,1.2497732666015624,0,0,0.91728
2.9583732649916783,0,0,1.455674609375,0,0,0.45864
2.963925587013364,0,0,1.0965443603515623,0,0,0.15288000000000002
2.9670407910016365,0,0,1.5107412475585937,0,0,0.7644
2.9701583280111663,0,0,1.2330138549804688,0,0,0.68796
2.9733494200045243,0,0,1.120486376953125,0,0,0.91728
2.976472937996732,0,0,1.4101847778320311,0,0,0.84084
2.9795888639928307,0,0,1.3072341064453123,0,0,1.1465999999999998
2.982705383008579,0,0,1.0726023437499999,0,0,0.6115200000000001
2.986357562011108,0,0,1.6735469604492186,0,0,0.84084
2.9898195580171887,0,0,1.438915197753906,0,0,0.7644
2.994395207002526,0,0,0.967257470703125,0,0,0.68796
2.997741703991778,0,0,1.5227122558593749,0,0,0.91728
3.0009430549980607,0,0,1.2425906616210938,0,0,0.84084
3.004067166009918,0,0,1.1755530151367186,0,0,0.30576000000000003
3.007166537019657,0,0,1.2497732666015624,0,0,1.07016
3.0102882030187175,0,0,1.3718775512695311,0,0,1.2230400000000001
3.0134052770154085,0,0,1.2234370483398436,0,0,0.84084
3.0165225740056485,0,0,1.2689268798828124,0,0,0.45864
3.0196522219921462,0,0,1.4939818359375,0,0,0.84084
3.0227694070199504,0,0,1.149216796875,0,0,0.45864
3.0258851110120304,0,0,1.1444283935546875,0,0,0.22932
3.029002944007516,0,0,1.4532804077148436,0,0,0.7644
3.032120276999194,0,0,1.2330138549804688,0,0,0.68796
3.035234722017776,0,0,1.0965443603515623,0,0,0.6115200000000001
3.038351685012458,0,0,1.37906015625,0,0,0.6115200000000001
3.0414657780202106,0,0,1.4867992309570313,0,0,1.1465999999999998
3.0446171289950144,0,0,1.1755530151367186,0,0,0.7644
3.047734110004967,0,0,1.4604630126953124,0,0,0.68796
3.0509529800037853,0,0,1.2808978881835937,0,0,0.68796
3.053903388994513,0,0,1.0845733520507812,0,0,0.68796
3.056701763009187,0,0,0.9457096557617187,0,0,0.68796
3.059510988998227,0,0,1.2832920898437499,0,0,0.84084
3.0623093259928282,0,0,1.3287819213867187,0,0,0.99372
3.065138236997882,0,0,1.1468225952148436,0,0,0.68796
3.0679365929972846,0,0,1.2665326782226562,0,0,0.45864
3.0707310599973425,0,0,1.2306196533203124,0,0,0.7644
3.0735435450042132,0,0,1.1611878051757811,0,0,0.7644
3.0763430850056466,0,0,1.0821791503906248,0,0,0.7644
3.079137423017528,0,0,1.3742717529296875,0,0,0.68796
3.0819352040125523,0,0,1.4006079711914061,0,0,0.45864
3.0847314489947166,0,0,1.3215993164062498,0,0,0.6115200000000001
3.0875291929987725,0,0,1.20667763671875,0,0,1.2230400000000001
3.0903264560038224,0,0,1.419761584472656,0,0,0.84084
3.093125053012045,0,0,1.3958195678710936,0,0,1.07016
3.095922408014303,0,0,1.0893617553710937,0,0,0.6115200000000001
3.0987172090099193,0,0,1.1540052001953125,0,0,0.07644000000000001
3.1015143239928875,0,0,1.3287819213867187,0,0,0.91728
3.104312142007984,0,0,1.1037269653320312,0,0,0.91728
3.1071065720170736,0,0,1.1324573852539062,0,0,0.84084
3.1099037420062814,0,0,1.3527239379882812,0,0,0.91728
3.112748820014531,0,0,1.3335703247070312,0,0,0.84084
3.115587581996806,0,0,1.1827356201171875,0,0,1.07016
3.1183879380114377,0,0,1.0965443603515623,0,0,1.07016
3.1211752009985503,0,0,1.455674609375,0,0,1.98744
3.123970298009226,0,0,1.6304513305664061,0,0,0.99372
3.1267679120064713,0,0,1.1923124267578125,0,0,0.68796
3.1295647869992536,0,0,1.3096283081054687,0,0,0.15288000000000002
3.1324430490203667,0,0,1.2856862915039062,0,0,0.68796
3.135271125996951,0,0,1.0965443603515623,0,0,0.91728
3.138073982001515,0,0,1.1420341918945311,0,0,0.45864
3.140899893012829,0,0,1.3455413330078123,0,0,0.68796
3.143701841006987,0,0,1.2401964599609374,0,0,0.84084
3.146500233997358,0,0,1.3766659545898436,0,0,0.6115200000000001
3.149333737004781,0,0,1.0821791503906248,0,0,1.2994800000000002
3.152228573017055,0,0,1.5275006591796874,0,0,0.68796
3.1552970920165535,0,0,1.37906015625,0,0,0.84084
3.158416851016227,0,0,1.1755530151367186,0,0,0.53508
3.16158847999759,0,0,1.0989385620117187,0,0,0.68796
3.164705610019155,0,0,1.3000515014648437,0,0,1.1465999999999998
3.167824183998164,0,0,1.2497732666015624,0,0,0.3822
3.1709390910109505,0,0,1.1516109985351561,0,0,0.45864
3.1740567029919475,0,0,1.5107412475585937,0,0,0.84084
3.1771726470033173,0,0,1.149216796875,0,0,0.53508
3.1802896290028,0,0,1.1875240234375,0,0,0.84084
3.183421925001312,0,0,1.5059528442382812,0,0,0.7644
3.1865403880074155,0,0,1.3239935180664062,0,0,0.99372
3.189659184019547,0,0,1.209071838378906,0,0,0.22932
3.1927839620038867,0,0,1.2306196533203124,0,0,0.53508
3.195893869007705,0,0,1.3048399047851562,0,0,0.84084
3.198988406016724,0,0,1.197100830078125,0,0,0.6115200000000001
3.2024004590057302,0,0,1.0965443603515623,0,0,0.91728
3.205553569016047,0,0,1.3455413330078123,0,0,0.53508
3.208681439020438,0,0,1.0893617553710937,0,0,0.84084
3.2117935880087316,0,0,1.1013327636718748,0,0,0.45864
3.214909550995799,0,0,1.426944189453125,0,0,0.6115200000000001
3.218024588015396,0,0,1.1563994018554686,0,0,0.84084
3.22114110601251,0,0,1.1707646118164061,0,0,0.68796
3.224256179993972,0,0,1.4437036010742186,0,0,0.68796
3.227399569004774,0,0,1.6400281372070311,0,0,0.99372
3.2305155319918413,0,0,1.0941501586914062,0,0,1.75812
3.233629310008837,0,0,1.3096283081054687,0,0,0.7644
3.2367422910174355,0,0,1.235408056640625,0,0,0.68796
3.2398560139990877,0,0,1.0941501586914062,0,0,0.53508
3.24380185600603,0,0,1.1252747802734375,0,0,0.68796
3.2470214100030717,0,0,1.484405029296875,0,0,0.53508
3.250145447003888,0,0,1.1707646118164061,0,0,0.84084
3.2533030020131264,0,0,1.1611878051757811,0,0,0.07644000000000001
3.2564151500118896,0,0,1.3575123413085937,0,0,0.84084
3.2596173160127364,0,0,1.2306196533203124,0,0,0.68796
3.2627725380007178,0,0,1.0726023437499999,0,0,0.7644
3.265890778013272,0,0,1.5394716674804687,0,0,0.7644
3.269008538016351,0,0,1.3072341064453123,0,0,0.91728
3.2721189820149448,0,0,1.1372457885742187,0,0,0.68796
3.27521270501893,0,0,1.407790576171875,0,0,0.45864
3.278333185997326,0,0,1.6543933471679686,0,0,0.6115200000000001
3.2814498160150833,0,0,1.1563994018554686,0,0,0.68796
3.2845957599929534,0,0,1.0965443603515623,0,0,0.0
3.2877333520154934,0,0,1.4508862060546874,0,0,0.53508
3.290851593017578,0,0,1.2617442749023438,0,0,0.91728
3.293969593010843,0,0,1.0438719238281249,0,0,1.07016
3.2970740190066863,0,0,1.6519991455078125,0,0,0.99372
3.300186759995995,0,0,1.446097802734375,0,0,0.91728
3.3033142969943583,0,0,1.1659762084960936,0,0,0.84084
3.3064340749988332,0,0,1.1468225952148436,0,0,0.6115200000000001
3.3095541860093363,0,0,1.4987702392578124,0,0,0.53508
3.312660555995535,0,0,1.3575123413085937,0,0,0.45864
3.3157938710064627,0,0,1.2497732666015624,0,0,0.30576000000000003
3.3189137410081457,0,0,1.2378022583007813,0,0,1.1465999999999998
3.322031556017464,0,0,1.120486376953125,0,0,0.99372
3.325148314994294,0,0,1.2114660400390624,0,0,0.91728
3.3282588150177617,0,0,1.2761094848632812,0,0,0.68796
3.3313519450020976,0,0,1.5107412475585937,0,0,0.91728
3.334582406998379,0,0,1.1013327636718748,0,0,0.3822
3.3377367579960264,0,0,1.2952630981445312,0,0,0.6115200000000001
3.340854925016174,0,0,1.5729904907226562,0,0,0.84084
3.3439713139960077,0,0,1.3383587280273437,0,0,0.68796
3.347084684006404,0,0,1.3742717529296875,0,0,0.68796
3.3501989810029045,0,0,1.2497732666015624,0,0,0.68796
3.3533418140141293,0,0,1.3766659545898436,0,0,0.84084
3.356456609995803,0,0,1.209071838378906,0,0,0.68796
3.359599868999794,0,0,1.3048399047851562,0,0,0.7644
3.362716442992678,0,0,1.5131354492187499,0,0,0.53508
3.365830258000642,0,0,1.1444283935546875,0,0,0.6115200000000001
3.368943740002578,0,0,1.458068811035156,0,0,0.84084
3.3720598880026955,0,0,1.5466542724609373,0,0,0.91728
3.3751700170105323,0,0,1.1827356201171875,0,0,0.45864
3.3782823139918037,0,0,1.2330138549804688,0,0,0.91728
3.381396314012818,0,0,1.2761094848632812,0,0,0.45864
3.384510610019788,0,0,1.1133037719726562,0,0,0.7644
3.3876593690074515,0,0,1.158793603515625,0,0,0.68796
3.3907772210077383,0,0,1.3527239379882812,0,0,0.84084
3.393902184005128,0,0,1.2114660400390624,0,0,0.84084
3.3970162580080796,0,0,1.0869675537109373,0,0,0.3822
3.400153776019579,0,0,1.3814543579101561,0,0,0.68796
3.403337052994175,0,0,1.5370774658203123,0,0,1.1465999999999998
3.4065146450011525,0,0,1.2737152832031249,0,0,0.91728
3.409637014992768,0,0,1.1228805786132812,0,0,0.45864
3.412742515996797,0,0,1.6519991455078125,0,0,0.6115200000000001
3.4158548680134118,0,0,1.3407529296874998,0,0,0.30576000000000003
3.4189719050191343,0,0,1.1755530151367186,0,0,0.0
3.4220726460043807,0,0,1.4341267944335936,0,0,0.7644
3.4251884600089397,0,0,1.1013327636718748,0,0,0.99372
3.428302979009459,0,0,1.0821791503906248,0,0,0.7644
3.431418794003548,0,0,1.4341267944335936,0,0,1.07016
3.434529794001719,0,0,1.4724340209960938,0,0,1.07016
3.4377195150009356,0,0,1.0869675537109373,0,0,0.91728
3.440846589015564,0,0,1.5131354492187499,0,0,0.7644
3.443963274010457,0,0,1.3838485595703125,0,0,0.91728
3.447106662992155,0,0,1.3072341064453123,0,0,0.7644
3.450224144005915,0,0,1.3120225097656248,0,0,0.30576000000000003
3.4533779399935156,0,0,1.5083470458984374,0,0,0.91728
3.4564949960040394,0,0,1.2856862915039062,0,0,0.91728
3.4596930690167937,0,0,1.0749965454101562,0,0,1.07016
3.462808625015896,0,0,1.4149731811523436,0,0,0.68796
3.465922847011825,0,0,1.3072341064453123,0,0,1.1465999999999998
3.4690379399980884,0,0,1.199495031738281,0,0,0.53508
3.4721532910189126,0,0,1.3455413330078123,0,0,0.53508
3.475265125016449,0,0,1.5825672973632812,0,0,0.84084
3.478378847008571,0,0,1.3024457031249999,0,0,0.53508
3.4814917180046905,0,0,1.1156979736328125,0,0,0.7644
3.484604551020311,0,0,1.4317325927734375,0,0,0.91728
3.4877902720181737,0,0,1.3407529296874998,0,0,0.91728
3.4909066609980073,0,0,1.1947066284179686,0,0,1.2994800000000002
3.4940492910100147,0,0,1.4173673828125,0,0,1.07016
3.4975461940048262,0,0,1.1444283935546875,0,0,1.07016
3.5007138040091377,0,0,1.177947216796875,0,0,0.84084
3.5038309520168696,0,0,1.5442600708007812,0,0,0.7644
3.506940082006622,0,0,1.429338391113281,0,0,1.1465999999999998
3.510049008007627,0,0,1.218648645019531,0,0,0.7644
3.513158101006411,0,0,1.2569558715820313,0,0,0.15288000000000002
3.5162677860062104,0,0,1.2904746948242187,0,0,0.6115200000000001
3.51940495200688,0,0,1.3000515014648437,0,0,0.6115200000000001
3.52251506401808,0,0,1.1635820068359375,0,0,0.15288000000000002
3.5256213970133103,0,0,1.407790576171875,0,0,1.07016
3.5287301189964637,0,0,1.13006318359375,0,0,0.84084
3.5318409710016567,0,0,1.1420341918945311,0,0,0.68796
3.5349458970013075,0,0,1.484405029296875,0,0,0.6115200000000001
3.538054249016568,0,0,1.3910311645507811,0,0,0.84084
3.5411599350045435,0,0,1.1947066284179686,0,0,0.68796
3.544269064994296,0,0,1.3742717529296875,0,0,0.6115200000000001
3.5474052499921527,0,0,1.2928688964843749,0,0,0.68796
3.5506125999963842,0,0,1.149216796875,0,0,0.6115200000000001
3.553754137014039,0,0,1.1635820068359375,0,0,0.0
3.556893378001405,0,0,1.2713210815429687,0,0,0.99372
3.5600040630088188,0,0,1.1563994018554686,0,0,0.7644
3.5631100260070525,0,0,1.254561669921875,0,0,0.99372
3.5661998970026616,0,0,1.47482822265625,0,0,0.6115200000000001
3.5693037119926885,0,0,1.618480322265625,0,0,0.91728
3.5724100270017516,0,0,1.180341418457031,0,0,0.53508
3.5755144900176674,0,0,1.4053963745117186,0,0,0.68796
3.5786353230068926,0,0,1.5969325073242187,0,0,0.91728
3.581742286012741,0,0,1.3479355346679687,0,0,0.3822
3.5848471939971205,0,0,1.2378022583007813,0,0,0.22932
3.58795252701384,0,0,1.3144167114257812,0,0,0.91728
3.591058657009853,0,0,1.1252747802734375,0,0,0.84084
3.5941745830059517,0,0,1.16837041015625,0,0,1.2994800000000002
3.597282268019626,0,0,1.5251064575195312,0,0,0.7644
3.600387120008236,0,0,1.1947066284179686,0,0,1.07016
3.6037138770043384,0,0,1.149216796875,0,0,0.3822
3.606830820994219,0,0,1.4317325927734375,0,0,0.84084
3.6099364330002572,0,0,1.656787548828125,0,0,0.68796
3.613042951008538,0,0,1.22583125,0,0,0.6115200000000001
3.616151655005524,0,0,1.0797849487304687,0,0,0.7644
3.6192536739981733,0,0,1.2330138549804688,0,0,0.91728
3.6223608040018007,0,0,1.3263877197265623,0,0,1.07016
3.625465137010906,0,0,1.0989385620117187,0,0,0.99372
3.628606081008911,0,0,1.458068811035156,0,0,0.68796
3.631714599992847,0,0,1.24498486328125,0,0,0.84084
3.634815415018238,0,0,1.1420341918945311,0,0,0.15288000000000002
3.6379197490168735,0,0,1.2713210815429687,0,0,0.99372
3.6410247489984613,0,0,1.5370774658203123,0,0,0.91728
3.644204192009056,0,0,1.2569558715820313,0,0,0.99372
3.6473123409959953,0,0,1.369483349609375,0,0,0.6115200000000001
3.6504204329976346,0,0,1.4820108276367188,0,0,0.84084
3.6535586550016887,0,0,1.3263877197265623,0,0,1.07016
3.656731840019347,0,0,1.13006318359375,0,0,0.0
3.6598555440141354,0,0,1.3958195678710936,0,0,1.1465999999999998
3.6629581919987686,0,0,1.2378022583007813,0,0,0.84084
3.6660607109952252,0,0,1.3431471313476562,0,0,0.6115200000000001
3.6692048580152914,0,0,1.3527239379882812,0,0,1.2230400000000001
3.6723159510002006,0,0,1.4125789794921875,0,0,0.84084
3.6754244879994076,0,0,1.3575123413085937,0,0,0.84084
3.6785323960066307,0,0,1.2737152832031249,0,0,0.84084
3.681639674003236,0,0,1.5059528442382812,0,0,0.7644
3.684747877996415,0,0,1.3479355346679687,0,0,0.91728
3.687855969998054,0,0,1.0989385620117187,0,0,0.68796
3.6909607670095284,0,0,1.4173673828125,0,0,0.84084
3.694069933000719,0,0,1.467645617675781,0,0,0.91728
3.697177174006356,0,0,1.199495031738281,0,0,0.53508
3.700276360003045,0,0,1.484405029296875,0,0,0.99372
3.70340510000824,0,0,1.3814543579101561,0,0,1.07016
3.7065144520020112,0,0,1.3239935180664062,0,0,0.91728
3.7096462110057473,0,0,1.2856862915039062,0,0,0.7644
3.712752952007577,0,0,1.4173673828125,0,0,0.6115200000000001
3.7158552299952134,0,0,1.2330138549804688,0,0,0.53508
3.7189619900018442,0,0,1.0869675537109373,0,0,0.53508
3.722069879004266,0,0,1.4796166259765624,0,0,0.7644
3.7251775079930667,0,0,1.1420341918945311,0,0,0.68796
3.728286452998873,0,0,1.0941501586914062,0,0,0.45864
3.7313936749997083,0,0,1.4963760375976562,0,0,0.6115200000000001
3.7344999900087714,0,0,1.5562310791015623,0,0,1.1465999999999998
3.737590805016225,0,0,1.1516109985351561,0,0,1.07016
3.7407042309932876,0,0,1.2282254516601563,0,0,0.68796
3.7438240089977626,0,0,1.3646949462890625,0,0,0.6115200000000001
3.748772043007193,0,0,1.1923124267578125,0,0,0.3822
3.7518888949998654,0,0,1.3144167114257812,0,0,0.7644
3.7551245790091343,0,0,1.3287819213867187,0,0,0.91728
3.7581625239981804,0,0,1.1037269653320312,0,0,0.68796
3.760954102006508,0,0,1.2210428466796874,0,0,0.07644000000000001
3.763745624019066,0,0,1.369483349609375,0,0,1.1465999999999998
3.766536258015549,0,0,1.0941501586914062,0,0,0.84084
3.7693257800128777,0,0,1.1516109985351561,0,0,0.45864
3.7721192100143526,0,0,1.4101847778320311,0,0,0.7644
3.7749069920100737,0,0,1.2665326782226562,0,0,0.7644
3.7776966440142132,0,0,1.2737152832031249,0,0,1.1465999999999998
3.7804884070064873,0,0,1.2042834350585936,0,0,0.45864
3.7832780960015953,0,0,1.484405029296875,0,0,1.1465999999999998
3.7860684700135607,0,0,1.5610194824218748,0,0,0.84084
3.788858974003233,0,0,1.1851298217773436,0,0,0.45864
3.79165673701209,0,0,1.1061211669921875,0,0,0.07644000000000001
3.7944481860031374,0,0,1.2904746948242187,0,0,0.53508
3.7972387080080807,0,0,1.3072341064453123,0,0,1.2994800000000002
3.8000273969955742,0,0,1.3766659545898436,0,0,0.84084
3.802840456017293,0,0,1.2282254516601563,0,0,0.68796
3.8056307939987164,0,0,1.1755530151367186,0,0,0.99372
3.8084248160012066,0,0,1.1851298217773436,0,0,0.84084
3.8112135980045423,0,0,1.3551181396484375,0,0,0.84084
3.8140023419982754,0,0,1.3718775512695311,0,0,0.7644
3.8167919760162476,0,0,1.659181750488281,0,0,0.68796
3.8196139050123747,0,0,1.3096283081054687,0,0,0.3822
3.8224040390050504,0,0,1.1516109985351561,0,0,1.37592
3.825192913005594,0,0,1.467645617675781,0,0,0.6115200000000001
3.827983565017348,0,0,1.608903515625,0,0,0.84084
3.830770606000442,0,0,1.2114660400390624,0,0,0.7644
3.8335832949960604,0,0,1.216254443359375,0,0,0.68796
3.8363751319993753,0,0,1.1468225952148436,0,0,0.7644
3.8391648580145556,0,0,1.1324573852539062,0,0,0.7644
3.841956157993991,0,0,1.0917559570312498,0,0,0.45864
3.8447594770113938,0,0,1.2928688964843749,0,0,0.45864
3.8475515180034563,0,0,1.3407529296874998,0,0,0.45864
3.8503419290063903,0,0,1.3407529296874998,0,0,0.91728
3.853122581000207,0,0,1.1324573852539062,0,0,1.37592
3.855985677015269,0,0,1.4413093994140624,0,0,0.7644
3.8589501419919543,0,0,1.656787548828125,0,0,1.2230400000000001
3.8620582350122277,0,0,0.9600748657226562,0,0,0.7644
3.865164253016701,0,0,1.2401964599609374,0,0,0.68796
3.8682713269954547,0,0,1.5370774658203123,0,0,0.84084
3.871402068005409,0,0,1.120486376953125,0,0,0.84084
3.8745181240083184,0,0,1.1731588134765625,0,0,0.3822
3.877625438006362,0,0,1.3814543579101561,0,0,0.68796
3.880731012992328,0,0,1.1444283935546875,0,0,0.7644
3.8838370500016026,0,0,1.1276689819335937,0,0,1.2994800000000002
3.886942180019105,0,0,1.4628572143554686,0,0,0.53508
3.890048642992042,0,0,1.3575123413085937,0,0,0.91728
3.893155736004701,0,0,1.1707646118164061,0,0,0.68796
3.8962641060061287,0,0,1.4891934326171874,0,0,0.6115200000000001
3.8994002169929445,0,0,1.5203180541992187,0,0,0.99372
3.902512624015799,0,0,1.2378022583007813,0,0,0.53508
3.905619810015196,0,0,1.0989385620117187,0,0,0.15288000000000002
3.908727050991729,0,0,1.3000515014648437,0,0,0.91728
3.911835366016021,0,0,1.2042834350585936,0,0,0.84084
3.9149384399934206,0,0,1.149216796875,0,0,1.07016
3.9180471440195106,0,0,1.5083470458984374,0,0,0.91728
3.9211541620024946,0,0,1.3120225097656248,0,0,0.91728
3.9242631439992692,0,0,1.1851298217773436,0,0,-8.943480000000001
3.9273964210005943,0,0,1.2808978881835937,0,0,0.53508
3.9305034590070136,0,0,1.39821376953125,0,0,0.84084
3.9336103289970197,0,0,1.180341418457031,0,0,0.7644
3.9367174220096786,0,0,1.1276689819335937,0,0,0.45864
3.939846013992792,0,0,1.455674609375,0,0,0.84084
3.9429494770010933,0,0,1.0726023437499999,0,0,0.91728
3.9460563659959007,0,0,1.139639990234375,0,0,1.1465999999999998
3.949151700013317,0,0,1.39821376953125,0,0,0.84084
3.9522537930170074,0,0,1.3263877197265623,0,0,0.68796
3.955400570004713,0,0,1.1037269653320312,0,0,-9.09636
3.958507606992498,0,0,1.2904746948242187,0,0,0.68796
3.961646922020009,0,0,1.3766659545898436,0,0,0.99372
3.964753311011009,0,0,1.3263877197265623,0,0,0.45864
3.9678616629971657,0,0,1.158793603515625,0,0,0.6115200000000001
3.970962348015746,0,0,1.3407529296874998,0,0,0.99372
3.974067349015968,0,0,1.1013327636718748,0,0,0.84084
3.977171033999184,0,0,1.0726023437499999,0,0,0.99372
3.980279070994584,0,0,1.458068811035156,0,0,0.53508
3.9834079970023595,0,0,1.5131354492187499,0,0,1.2230400000000001
3.986520903999917,0,0,1.3646949462890625,0,0,0.07644000000000001
3.9908535750000738,0,0,1.2306196533203124,0,0,0.84084
3.9942382570006885,0,0,1.2928688964843749,0,0,0.7644
3.9977531040203758,0,0,1.0917559570312498,0,0,0.91728
4.001160397019703,0,0,1.4867992309570313,0,0,0.7644
4.004368822003016,0,0,1.2234370483398436,0,0,0.53508
4.007576469011838,0,0,1.0893617553710937,0,0,0.30576000000000003
4.010696654004278,0,0,1.43652099609375,0,0,0.91728
4.013798803003738,0,0,1.467645617675781,0,0,0.99372
4.016900118003832,0,0,1.1611878051757811,0,0,0.53508
4.0200149879965466,0,0,1.2330138549804688,0,0,1.07016
4.023132118018111,0,0,1.4053963745117186,0,0,0.68796
4.026232247997541,0,0,1.0893617553710937,0,0,0.6115200000000001
4.029349451011512,0,0,1.1851298217773436,0,0,0.45864
4.0324583030014765,0,0,1.446097802734375,0,0,0.99372
4.035796078009298,0,0,1.2880804931640624,0,0,0.6115200000000001
4.038918152014958,0,0,1.1085153686523437,0,0,1.1465999999999998
4.042078152007889,0,0,1.4772224243164063,0,0,0.53508
4.045194170001196,0,0,1.39821376953125,0,0,0.99372
4.048310448008124,0,0,1.2401964599609374,0,0,0.6115200000000001
4.051424967008643,0,0,1.2928688964843749,0,0,0.6115200000000001
4.054540467011975,0,0,1.2976572998046874,0,0,0.6115200000000001
4.057692392001627,0,0,1.2138602416992186,0,0,0.68796
4.060809504007921,0,0,1.209071838378906,0,0,0.15288000000000002
4.06392550401506,0,0,1.3431471313476562,0,0,0.91728
4.067040429014014,0,0,1.1851298217773436,0,0,1.07016
4.070154967019334,0,0,1.35990654296875,0,0,1.5288
4.073269763001008,0,0,1.5131354492187499,0,0,0.45864
4.076384837011574,0,0,1.4915876342773438,0,0,0.91728
4.079526596004143,0,0,1.1420341918945311,0,0,0.7644
4.082641910994425,0,0,1.37906015625,0,0,0.84084
4.085755633015651,0,0,1.608903515625,0,0,0.84084
4.088870855019195,0,0,1.1324573852539062,0,0,0.7644
4.091987059015082,0,0,1.0989385620117187,0,0,0.6115200000000001
4.095117429009406,0,0,1.0917559570312498,0,0,0.91728
4.098232818010729,0,0,1.2018892333984375,0,0,0.7644
4.1013475409999955,0,0,1.1133037719726562,0,0,1.2994800000000002
4.104462485003751,0,0,1.455674609375,0,0,0.6115200000000001
4.107575744012138,0,0,1.4341267944335936,0,0,0.99372
4.110690041008638,0,0,1.1444283935546875,0,0,0.68796
4.115084192017093,0,0,1.5298948608398437,0,0,0.84084
4.118215135997161,0,0,1.2378022583007813,0,0,0.7644
4.1213224139937665,0,0,1.180341418457031,0,0,0.6115200000000001
4.124436896003317,0,0,1.3407529296874998,0,0,0.84084
4.1275602290115785,0,0,1.6807295654296874,0,0,1.1465999999999998
4.130675563006662,0,0,1.1444283935546875,0,0,0.99372
4.133786377002252,0,0,1.2761094848632812,0,0,0.91728
4.136933118017623,0,0,1.4724340209960938,0,0,0.6115200000000001
4.140077395015396,0,0,1.35990654296875,0,0,0.6115200000000001
4.1431935250002425,0,0,1.158793603515625,0,0,-9.47856
4.146311969001545,0,0,1.3096283081054687,0,0,0.84084
4.149427469004877,0,0,1.3455413330078123,0,0,0.45864
4.152544117998332,0,0,1.1707646118164061,0,0,0.7644
4.155694654007675,0,0,1.4628572143554686,0,0,0.84084
4.158808136009611,0,0,1.4125789794921875,0,0,1.07016
4.16192276601214,0,0,1.1109095703125,0,0,0.84084
4.165036357997451,0,0,1.2808978881835937,0,0,0.68796
4.168152488011401,0,0,1.4700398193359374,0,0,0.6115200000000001
4.171263914002338,0,0,1.2880804931640624,0,0,0.22932
4.174378005991457,0,0,1.0869675537109373,0,0,0.0
4.177491968992399,0,0,1.3383587280273437,0,0,0.91728
4.180606544017792,0,0,1.1228805786132812,0,0,1.07016
4.183726062008645,0,0,1.1755530151367186,0,0,0.6115200000000001
4.186844692012528,0,0,1.3814543579101561,0,0,0.84084
4.189974284003256,0,0,1.6160861206054686,0,0,1.37592
4.193109062005533,0,0,1.0749965454101562,0,0,0.53508
4.19622091401834,0,0,1.3120225097656248,0,0,0.84084
4.199315599020338,0,0,1.4532804077148436,0,0,0.53508
4.202438931999495,0,0,1.22583125,0,0,0.53508
4.205540322000161,0,0,1.1827356201171875,0,0,0.22932
4.208664599020267,0,0,1.3455413330078123,0,0,1.1465999999999998
4.21179330299492,0,0,1.180341418457031,0,0,0.68796
4.2149123400158715,0,0,1.1228805786132812,0,0,0.99372
4.218148172018118,0,0,1.4939818359375,0,0,0.68796
4.221251005015802,0,0,1.419761584472656,0,0,0.84084
4.2243513940193225,0,0,1.2114660400390624,0,0,0.84084
4.22748104200582,0,0,1.4173673828125,0,0,0.7644
4.230578838993097,0,0,1.5370774658203123,0,0,1.2230400000000001
4.233693246002076,0,0,1.1372457885742187,0,0,0.6115200000000001
4.2368452649971005,0,0,1.0965443603515623,0,0,0.30576000000000003
4.239986411994323,0,0,1.24498486328125,0,0,0.91728
4.243101190018933,0,0,1.1180921752929687,0,0,0.91728
4.246227152994834,0,0,1.180341418457031,0,0,0.68796
4.249438708007801,0,0,1.3359645263671873,0,0,0.7644
4.2525616330094635,0,0,1.1133037719726562,0,0,0.7644
4.255683633004082,0,0,1.0965443603515623,0,0,0.22932
4.258835521992296,0,0,1.235408056640625,0,0,0.84084
4.261944615020184,0,0,1.608903515625,0,0,0.91728
4.265063429018483,0,0,1.2713210815429687,0,0,0.7644
4.268370000994764,0,0,1.4030021728515625,0,0,0.84084
4.271524779003812,0,0,1.3814543579101561,0,0,0.53508
4.274643001001095,0,0,1.3239935180664062,0,0,0.7644
4.2777610560006,0,0,1.120486376953125,0,0,-0.22932
4.280868519010255,0,0,1.3766659545898436,0,0,1.37592
4.283980427018832,0,0,1.0749965454101562,0,0,0.7644
4.287097538006492,0,0,1.1109095703125,0,0,0.99372
4.290216279012384,0,0,1.37906015625,0,0,0.84084
4.293332038010703,0,0,1.3096283081054687,0,0,1.1465999999999998
4.296441704995232,0,0,1.1851298217773436,0,0,0.53508
4.299591796996538,0,0,1.2808978881835937,0,0,0.53508
4.3027093160199,0,0,1.465251416015625,0,0,0.45864
4.305835667008068,0,0,1.2473790649414063,0,0,0.0
4.308938075002516,0,0,1.16837041015625,0,0,0.0
4.312049130996456,0,0,1.4724340209960938,0,0,0.91728
4.31516564899357,0,0,1.3551181396484375,0,0,0.6115200000000001
4.31828170499648,0,0,1.1324573852539062,0,0,1.2994800000000002
4.321399705018848,0,0,1.4437036010742186,0,0,0.0
4.324510464008199,0,0,1.2952630981445312,0,0,0.84084
4.327732536999974,0,0,1.1109095703125,0,0,0.6115200000000001
4.330847278004512,0,0,1.3072341064453123,0,0,0.68796
4.333962258999236,0,0,1.37906015625,0,0,0.68796
4.337140257994179,0,0,1.3383587280273437,0,0,0.3822
4.340267110004788,0,0,1.235408056640625,0,0,0.99372
4.343409961991711,0,0,1.3359645263671873,0,0,0.7644
4.34652725799242,0,0,1.0845733520507812,0,0,0.99372
4.34964220301481,0,0,1.0582371337890624,0,0,0.7644
4.352757703018142,0,0,1.2832920898437499,0,0,0.53508
4.35587374001625,0,0,1.3215993164062498,0,0,0.6115200000000001
4.359054294007365,0,0,1.1324573852539062,0,0,0.6115200000000001
4.362169386993628,0,0,1.4030021728515625,0,0,0.7644
4.365284608997172,0,0,1.5035586425781249,0,0,0.84084
4.3684003870002925,0,0,1.350329736328125,0,0,0.68796
4.3715168130001985,0,0,1.1947066284179686,0,0,0.99372
4.3746297390025575,0,0,1.2521674682617188,0,0,0.53508
4.377743849996477,0,0,1.1611878051757811,0,0,0.7644
4.380857276002644,0,0,1.1731588134765625,0,0,0.45864
4.383972554001957,0,0,1.4604630126953124,0,0,0.68796
4.387083313020412,0,0,1.2976572998046874,0,0,0.22932
4.39019616501173,0,0,1.1947066284179686,0,0,0.45864
4.3933175730053335,0,0,1.4724340209960938,0,0,0.91728
4.396436369017465,0,0,1.3838485595703125,0,0,1.2230400000000001
4.39954959100578,0,0,1.1851298217773436,0,0,0.7644
4.402691127994331,0,0,1.3718775512695311,0,0,1.1465999999999998
4.405810961005045,0,0,1.2928688964843749,0,0,0.68796
4.408941942994716,0,0,1.2569558715820313,0,0,0.99372
4.412052443018183,0,0,1.3383587280273437,0,0,0.07644000000000001
4.415167443017708,0,0,1.235408056640625,0,0,0.91728
4.41828575800173,0,0,1.1348515869140625,0,0,0.68796
4.421400146995438,0,0,1.1420341918945311,0,0,1.2994800000000002
4.424884531006683,0,0,1.465251416015625,0,0,0.68796
4.428017216006992,0,0,1.5897499023437498,0,0,0.91728
4.431479064020095,0,0,1.1563994018554686,0,0,0.53508
4.434600637992844,0,0,1.350329736328125,0,0,0.84084
4.437787136994302,0,0,1.5490484741210937,0,0,1.2230400000000001
4.441043654020177,0,0,1.1851298217773436,0,0,0.91728
4.444172098010313,0,0,1.4891934326171874,0,0,0.68796
4.44728535800823,0,0,1.5346832641601562,0,0,0.84084
4.45040400599828,0,0,1.3192051147460937,0,0,0.3822
4.453540579997934,0,0,1.16837041015625,0,0,0.3822
4.4566545610141475,0,0,1.2808978881835937,0,0,0.84084
4.459871171013219,0,0,1.1851298217773436,0,0,0.84084
4.462722619005945,0,0,1.0726023437499999,0,0,0.6115200000000001
4.465521252015606,0,0,1.4604630126953124,0,0,0.6115200000000001
4.468313312012469,0,0,1.6232687255859375,0,0,0.45864
4.471092723018955,0,0,1.139639990234375,0,0,0.6115200000000001
4.473891227011336,0,0,1.218648645019531,0,0,0.99372
4.476688082999317,0,0,1.47482822265625,0,0,0.99372
4.479506475006929,0,0,1.5155296508789062,0,0,0.99372
4.482303794007748,0,0,1.1923124267578125,0,0,0.68796
4.48510018599336,0,0,1.2976572998046874,0,0,-9.555
4.487929245020496,0,0,1.3383587280273437,0,0,0.99372
4.4907255450089,0,0,1.0965443603515623,0,0,0.84084
4.493523846002063,0,0,1.1731588134765625,0,0,0.7644
4.496325460000662,0,0,1.446097802734375,0,0,0.53508
4.499207834014669,0,0,1.4508862060546874,0,0,0.45864
