Time,AccelX1,AccelY1,AccelZ1,AccelX2,AccelY2,AccelZ2
5.406996933743358e-06,0,0,1.3718775512695311,0,0,0.99372
0.003683900984469801,0,0,1.2138602416992186,0,0,0.7644
0.00790859098196961,0,0,1.3646949462890625,0,0,0.7644
0.01149965898366645,0,0,1.3934253662109375,0,0,0.91728
0.015035153977805749,0,0,1.1635820068359375,0,0,0.68796
0.018559074989752844,0,0,1.149216796875,0,0,0.84084
0.022057311987737194,0,0,1.4125789794921875,0,0,0.99372
0.025634324993006885,0,0,1.1659762084960936,0,0,0.6115200000000001
0.02990905099431984,0,0,1.2401964599609374,0,0,1.1465999999999998
0.033493878989247605,0,0,1.62805712890625,0,0,1.1465999999999998
0.036998096999013796,0,0,1.0175357055664063,0,0,0.6115200000000001
0.04049683298217133,0,0,1.458068811035156,0,0,0.7644
0.04408623499330133,0,0,1.4939818359375,0,0,0.91728
0.04776739398948848,0,0,0.9840168823242187,0,0,0.7644
0.05128987098578364,0,0,1.43652099609375,0,0,1.1465999999999998
0.054807310982141644,0,0,1.3958195678710936,0,0,0.84084
0.058305398997617885,0,0,1.1252747802734375,0,0,0.3822
0.06193516997154802,0,0,1.2928688964843749,0,0,1.1465999999999998
0.06545814697165042,0,0,1.659181750488281,0,0,0.84084
0.06897875299910083,0,0,1.1659762084960936,0,0,0.30576000000000003
0.07258839497808367,0,0,1.429338391113281,0,0,0.68796
0.07628455499070697,0,0,1.3814543579101561,0,0,0.6115200000000001
0.07979901297949255,0,0,1.1468225952148436,0,0,0.6115200000000001
0.08331404498312622,0,0,1.3072341064453123,0,0,0.99372
0.08681118898675777,0,0,1.5227122558593749,0,0,0.91728
0.0904072199773509,0,0,1.1133037719726562,0,0,0.45864
0.09361884897225536,0,0,1.2641384765625,0,0,0.7644
0.09674007099238224,0,0,1.5849614990234373,0,0,0.91728
0.09987590397940949,0,0,1.1731588134765625,0,0,0.68796
0.10299308897810988,0,0,1.177947216796875,0,0,0.45864
0.1061135699856095,0,0,1.3838485595703125,0,0,0.91728
0.10921916298684664,0,0,1.2569558715820313,0,0,0.7644
0.11233116299263202,0,0,0.9361328491210937,0,0,0.45864
0.11545099597424269,0,0,1.3383587280273437,0,0,0.30576000000000003
0.11857377397245727,0,0,1.4317325927734375,0,0,0.91728
0.12169323698617518,0,0,1.1324573852539062,0,0,0.7644
0.12479677397641353,0,0,1.3096283081054687,0,0,0.53508
0.12790751399006695,0,0,1.4173673828125,0,0,0.7644
0.1310217549907975,0,0,1.120486376953125,0,0,0.53508
0.13423906898242421,0,0,1.0821791503906248,0,0,1.1465999999999998
0.1373616059718188,0,0,1.5179238525390624,0,0,0.68796
0.14048219798132777,0,0,1.1923124267578125,0,0,0.84084
0.14359873498324305,0,0,1.16837041015625,0,0,0.68796
0.1466958459932357,0,0,1.2808978881835937,0,0,0.7644
0.1498151239939034,0,0,1.5346832641601562,0,0,1.07016
0.15293079099501483,0,0,1.1755530151367186,0,0,0.68796
0.15604960499331355,0,0,1.189918225097656,0,0,0.30576000000000003
0.15916408697376028,0,0,1.4053963745117186,0,0,0.84084
0.16226408697548322,0,0,1.2617442749023438,0,0,0.53508
0.1653806429821998,0,0,1.1611878051757811,0,0,0.15288000000000002
0.16852810498676263,0,0,1.448492004394531,0,0,0.84084
0.1716433639812749,0,0,1.4221557861328125,0,0,0.84084
0.17475773498881608,0,0,1.0654197387695312,0,0,0.68796
0.1778736790001858,0,0,1.2689268798828124,0,0,0.53508
0.18098871599067934,0,0,1.3407529296874998,0,0,0.6115200000000001
0.18410262299585156,0,0,1.0797849487304687,0,0,0.68796
0.18721075297798961,0,0,1.1947066284179686,0,0,1.1465999999999998
0.1903867519868072,0,0,1.4700398193359374,0,0,0.30576000000000003
0.19350388197926804,0,0,1.2282254516601563,0,0,0.7644
0.19664395597646944,0,0,1.1635820068359375,0,0,0.3822
0.1997628999815788,0,0,1.419761584472656,0,0,0.6115200000000001
0.20287876998190768,0,0,1.5011644409179687,0,0,0.7644
0.20598939998308197,0,0,1.158793603515625,0,0,0.45864
0.20913806598400697,0,0,1.0749965454101562,0,0,0.0
0.2123462499876041,0,0,1.3072341064453123,0,0,0.84084
0.21544769499450922,0,0,1.2138602416992186,0,0,0.91728
0.21854660197277553,0,0,0.9696516723632812,0,0,0.68796
0.22164736199192703,0,0,1.4341267944335936,0,0,1.1465999999999998
0.22479008298250847,0,0,1.6065093139648436,0,0,0.91728
0.22790628697839566,0,0,1.149216796875,0,0,-8.943480000000001
0.23102282398031093,0,0,1.139639990234375,0,0,0.6115200000000001
0.23413984299986623,0,0,1.467645617675781,0,0,0.68796
0.2372551759763155,0,0,1.1156979736328125,0,0,0.99372
0.24036999099189416,0,0,1.1156979736328125,0,0,0.84084
0.24348215697682463,0,0,1.388636962890625,0,0,0.7644
0.24659595399862155,0,0,1.2306196533203124,0,0,0.84084
0.24973780498839915,0,0,1.149216796875,0,0,0.6115200000000001
0.2528561749786604,0,0,1.4030021728515625,0,0,0.84084
0.2559726749896072,0,0,1.4317325927734375,0,0,0.91728
0.25908454597811215,0,0,1.177947216796875,0,0,0.53508
0.2621977309754584,0,0,1.2138602416992186,0,0,0.53508
0.2653130639810115,0,0,1.3742717529296875,0,0,0.91728
0.26845108199631795,0,0,1.20667763671875,0,0,0.7644
0.271589044976281,0,0,1.1540052001953125,0,0,0.3822
0.27470384098705836,0,0,1.2808978881835937,0,0,0.45864
0.27781593397958204,0,0,1.637633935546875,0,0,1.07016
0.2809294519829564,0,0,1.216254443359375,0,0,0.68796
0.28404122998472303,0,0,1.3192051147460937,0,0,0.53508
0.2871472669939976,0,0,1.4867992309570313,0,0,0.91728
0.2903223769972101,0,0,1.1755530151367186,0,0,0.68796
0.2935004139726516,0,0,1.1468225952148436,0,0,0.84084
0.2967332829721272,0,0,1.4317325927734375,0,0,0.6115200000000001
0.2998588939954061,0,0,1.4939818359375,0,0,0.91728
0.3029789309948683,0,0,1.1468225952148436,0,0,0.22932
0.30608000498614274,0,0,1.2904746948242187,0,0,0.7644
0.3091969119850546,0,0,1.6017209106445311,0,0,0.6115200000000001
0.3123280969739426,0,0,1.0917559570312498,0,0,0.68796
0.3154462269740179,0,0,1.1875240234375,0,0,0.07644000000000001
0.31856302300002426,0,0,1.429338391113281,0,0,0.7644
0.32166711598983966,0,0,1.209071838378906,0,0,0.68796
0.3248182999959681,0,0,1.1324573852539062,0,0,0.45864
0.3279714659729507,0,0,1.4532804077148436,0,0,0.99372
0.33108589198673144,0,0,1.5035586425781249,0,0,0.91728
0.3342005029844586,0,0,1.13006318359375,0,0,0.6115200000000001
0.3373150769912172,0,0,1.3623007446289062,0,0,0.22932
0.34043081797426566,0,0,1.3623007446289062,0,0,0.53508
0.3435733359947335,0,0,1.3144167114257812,0,0,0.7644
0.3466887619870249,0,0,1.1348515869140625,0,0,0.99372
0.34982744697481394,0,0,1.4963760375976562,0,0,0.68796
0.3529484649770893,0,0,1.5131354492187499,0,0,0.91728
0.35606614997959696,0,0,1.199495031738281,0,0,0.68796
0.3591854099940974,0,0,1.4341267944335936,0,0,0.68796
0.36229183597606607,0,0,1.4700398193359374,0,0,0.84084
0.36543483499553986,0,0,1.1372457885742187,0,0,0.7644
0.3685560939775314,0,0,1.0726023437499999,0,0,0.07644000000000001
0.3717030379921198,0,0,1.4341267944335936,0,0,0.7644
0.3748205569863785,0,0,1.2425906616210938,0,0,0.53508
0.37792131598689593,0,0,1.1851298217773436,0,0,0.7644
0.38103614997817203,0,0,1.5035586425781249,0,0,0.91728
0.3841514089726843,0,0,1.47482822265625,0,0,0.91728
0.3872611869883258,0,0,1.0965443603515623,0,0,0.53508
0.390439944982063,0,0,1.218648645019531,0,0,0.6115200000000001
0.3935630929772742,0,0,1.3575123413085937,0,0,0.7644
0.3966809259727597,0,0,1.3192051147460937,0,0,1.07016
0.3998265369737055,0,0,1.1947066284179686,0,0,0.84084
0.40294177798205055,0,0,1.4245499877929686,0,0,0.6115200000000001
0.40614862798247486,0,0,1.2018892333984375,0,0,0.99372
0.4092989059863612,0,0,0.9409212524414062,0,0,0.53508
0.4124618499772623,0,0,1.235408056640625,0,0,0.6115200000000001
0.4155884049832821,0,0,1.429338391113281,0,0,0.91728
0.4186858309840318,0,0,1.1444283935546875,0,0,0.84084
0.42178549797972664,0,0,1.1252747802734375,0,0,0.45864
0.42490273897419684,0,0,1.4101847778320311,0,0,0.99372
0.4280195350002032,0,0,1.3144167114257812,0,0,0.7644
0.4311326269817073,0,0,1.16837041015625,0,0,0.7644
0.4342484609805979,0,0,1.5298948608398437,0,0,1.07016
0.43736327497754246,0,0,1.419761584472656,0,0,1.07016
0.44047934899572283,0,0,1.0893617553710937,0,0,0.68796
0.4435944789729547,0,0,1.0893617553710937,0,0,0.3822
0.44670757197309285,0,0,1.5011644409179687,0,0,0.91728
0.44982207199791446,0,0,1.158793603515625,0,0,0.99372
0.4529383679910097,0,0,0.9576806640625,0,0,0.91728
0.45605616399552673,0,0,1.4173673828125,0,0,0.84084
0.4591990339977201,0,0,1.5298948608398437,0,0,0.84084
0.46231299699866213,0,0,1.1133037719726562,0,0,0.6115200000000001
0.46544331099721603,0,0,1.2761094848632812,0,0,0.7644
0.468559570988873,0,0,1.3359645263671873,0,0,0.7644
0.47170094097964466,0,0,1.3383587280273437,0,0,0.68796
0.4748163669719361,0,0,1.1540052001953125,0,0,0.53508
0.47793342199292965,0,0,1.3144167114257812,0,0,0.99372
0.48104958899784833,0,0,1.1707646118164061,0,0,0.53508
0.4841638109937776,0,0,1.1947066284179686,0,0,0.53508
0.4872715699893888,0,0,1.4700398193359374,0,0,1.07016
0.4904587359924335,0,0,1.5682020874023437,0,0,0.6115200000000001
0.49357821699231863,0,0,1.0797849487304687,0,0,0.45864
0.49669717997312546,0,0,1.1252747802734375,0,0,0.7644
0.499840142991161,0,0,1.3000515014648437,0,0,1.07016
0.5029565129952971,0,0,1.1061211669921875,0,0,0.7644
0.5159406919847243,0,0,1.01514150390625,0,0,0.45864
0.5205337299848907,0,0,1.39821376953125,0,0,0.91728
0.523713061993476,0,0,1.0869675537109373,0,0,0.53508
0.5268380439956672,0,0,0.9265560424804687,0,0,0.53508
0.5299600059806835,0,0,1.5227122558593749,0,0,0.91728
0.5330805989797227,0,0,1.4149731811523436,0,0,1.1465999999999998
0.5362010059761815,0,0,1.20667763671875,0,0,0.53508
0.5393175429780968,0,0,1.2904746948242187,0,0,0.84084
0.5428189459780697,0,0,1.4628572143554686,0,0,0.99372
0.5466942149796523,0,0,1.218648645019531,0,0,0.45864
0.5498462879913859,0,0,1.465251416015625,0,0,0.6115200000000001
0.5529697879974265,0,0,1.3575123413085937,0,0,0.99372
0.5560926579928491,0,0,1.22583125,0,0,0.6115200000000001
0.5592129919969011,0,0,1.149216796875,0,0,0.91728
0.562315620976733,0,0,1.4030021728515625,0,0,0.91728
0.565439065976534,0,0,1.3838485595703125,0,0,0.6115200000000001
0.5685589729982894,0,0,1.0965443603515623,0,0,0.7644
0.5717175839818083,0,0,1.3623007446289062,0,0,0.6115200000000001
0.5748693609784823,0,0,1.4149731811523436,0,0,0.91728
0.5779733419767581,0,0,1.3096283081054687,0,0,0.84084
0.5810772869735956,0,0,1.350329736328125,0,0,0.3822
0.5841915459895972,0,0,1.5083470458984374,0,0,0.91728
0.5877929849957582,0,0,1.35990654296875,0,0,0.68796
0.5912492209754419,0,0,1.1755530151367186,0,0,0.91728
0.5941905009967741,0,0,1.3910311645507811,0,0,0.68796
0.5969919679919258,0,0,1.4101847778320311,0,0,0.84084
0.5998215820000041,0,0,1.158793603515625,0,0,0.7644
0.6026374379871413,0,0,1.2114660400390624,0,0,0.45864
0.6058078069763724,0,0,1.2617442749023438,0,0,1.1465999999999998
0.6109586899983697,0,0,1.1276689819335937,0,0,0.30576000000000003
0.6138136939844117,0,0,1.2880804931640624,0,0,0.6115200000000001
0.6166044939891435,0,0,1.2282254516601563,0,0,1.98744
0.6193885719985701,0,0,1.3072341064453123,0,0,0.53508
0.6221721309993882,0,0,1.216254443359375,0,0,0.6115200000000001
0.6249597829882987,0,0,1.2593500732421874,0,0,0.7644
0.6277448049804661,0,0,1.5083470458984374,0,0,0.7644
0.6305267539864872,0,0,1.189918225097656,0,0,0.91728
0.6333311649796087,0,0,1.0773907470703123,0,0,0.68796
0.636126779980259,0,0,1.448492004394531,0,0,0.7644
0.6389103389810771,0,0,1.6448165405273436,0,0,0.84084
0.6416974729800131,0,0,1.22583125,0,0,0.6115200000000001
0.6444820139731746,0,0,0.9217676391601562,0,0,0.6115200000000001
0.6477391789958347,0,0,1.3335703247070312,0,0,0.84084
0.6505289599881507,0,0,1.4987702392578124,0,0,0.84084
0.6533142419939395,0,0,1.1611878051757811,0,0,0.45864
0.6560988009732682,0,0,1.3551181396484375,0,0,-9.40212
0.6588805829815101,0,0,1.235408056640625,0,0,0.84084
0.6616656609985512,0,0,1.197100830078125,0,0,0.84084
0.6644576829858124,0,0,1.139639990234375,0,0,0.45864
0.6672396499780007,0,0,1.2378022583007813,0,0,0.6115200000000001
0.6700730419834144,0,0,1.446097802734375,0,0,0.68796
0.6728641389927361,0,0,1.1276689819335937,0,0,0.7644
0.6756910499825608,0,0,1.1061211669921875,0,0,0.45864
0.6785814599716105,0,0,1.5203180541992187,0,0,0.91728
0.6813829449820332,0,0,1.668758557128906,0,0,0.91728
0.6841837259999011,0,0,1.1324573852539062,0,0,0.7644
0.6869815629906952,0,0,1.177947216796875,0,0,0.91728
0.6897683449788019,0,0,1.5131354492187499,0,0,0.68796
0.6926327739784028,0,0,1.2952630981445312,0,0,0.91728
0.6954377589863725,0,0,1.1611878051757811,0,0,0.7644
0.6982385589799378,0,0,1.3168109130859373,0,0,0.91728
0.7010380439751316,0,0,1.455674609375,0,0,0.68796
0.703832714993041,0,0,1.2785036865234374,0,0,0.91728
0.7066130699822679,0,0,1.1037269653320312,0,0,0.53508
0.7094107219891157,0,0,1.1611878051757811,0,0,0.84084
0.7122091699857265,0,0,1.37906015625,0,0,1.07016
0.7150058039987925,0,0,1.1324573852539062,0,0,0.7644
0.7178026409819722,0,0,1.0965443603515623,0,0,0.53508
0.7205993109964766,0,0,1.446097802734375,0,0,0.6115200000000001
0.7235815719759557,0,0,1.5801730957031248,0,0,0.68796
0.7263862419931684,0,0,1.218648645019531,0,0,0.91728
0.7291872649802826,0,0,1.2210428466796874,0,0,0.68796
0.7319887499907054,0,0,1.5131354492187499,0,0,0.6115200000000001
0.7347856049891561,0,0,1.66636435546875,0,0,0.7644
0.7375849979871418,0,0,1.209071838378906,0,0,0.84084
0.7403853169817012,0,0,1.1156979736328125,0,0,1.1465999999999998
0.743181227997411,0,0,1.419761584472656,0,0,0.68796
0.7459782869846094,0,0,1.2737152832031249,0,0,1.1465999999999998
0.748789401986869,0,0,1.0726023437499999,0,0,0.3822
0.7516717379912734,0,0,1.24498486328125,0,0,0.53508
0.7544599819811992,0,0,1.5011644409179687,0,0,1.1465999999999998
0.7572637449775357,0,0,1.3455413330078123,0,0,0.91728
0.7600489899923559,0,0,1.0726023437499999,0,0,0.68796
0.762830067978939,0,0,1.3215993164062498,0,0,0.91728
0.7656305159907788,0,0,1.3742717529296875,0,0,0.91728
0.7684319639811292,0,0,1.24498486328125,0,0,0.68796
0.7712268569739535,0,0,1.189918225097656,0,0,0.30576000000000003
0.7740242859872524,0,0,1.3263877197265623,0,0,0.53508
0.7768209200003184,0,0,1.6639701538085936,0,0,0.84084
0.7796203869802412,0,0,1.2330138549804688,0,0,0.7644
0.7824188159720507,0,0,1.1635820068359375,0,0,0.91728
0.7852515789854806,0,0,1.2425906616210938,0,0,0.7644
0.7880756379745435,0,0,1.4149731811523436,0,0,0.84084
0.7917114089941606,0,0,1.2114660400390624,0,0,1.2230400000000001
0.7960879869933706,0,0,1.5921441040039062,0,0,0.53508
0.7992428009747528,0,0,1.5658078857421873,0,0,2.14032
0.8023889489995781,0,0,1.1156979736328125,0,0,0.53508
0.8055109669803642,0,0,1.3072341064453123,0,0,0.53508
0.808668225974543,0,0,1.618480322265625,0,0,1.07016
0.8118487989995629,0,0,1.3096283081054687,0,0,0.84084
0.8149702619994059,0,0,1.0821791503906248,0,0,0.30576000000000003
0.8180892249802127,0,0,1.3958195678710936,0,0,0.84084
0.8212080949742813,0,0,1.2138602416992186,0,0,0.68796
0.8243269279773813,0,0,0.9864110839843749,0,0,0.45864
0.8274456139770336,0,0,1.35990654296875,0,0,0.91728
0.830565909971483,0,0,1.4341267944335936,0,0,0.91728
0.8336843909928575,0,0,1.199495031738281,0,0,0.84084
0.8368030579877086,0,0,1.2282254516601563,0,0,0.68796
0.8399792049895041,0,0,1.37906015625,0,0,1.07016
0.8431022609875072,0,0,1.0845733520507812,0,0,0.7644
0.8462222229863983,0,0,1.1516109985351561,0,0,0.84084
0.8493461679900065,0,0,1.438915197753906,0,0,0.7644
0.8524687049794011,0,0,1.3407529296874998,0,0,1.1465999999999998
0.8555899449856952,0,0,0.9744400756835937,0,0,0.45864
0.8587103339959867,0,0,1.3048399047851562,0,0,0.53508
0.8618315009807702,0,0,1.4939818359375,0,0,0.99372
0.8649510189716239,0,0,1.3742717529296875,0,0,0.68796
0.868075610982487,0,0,1.1061211669921875,0,0,0.22932
0.8711964259855449,0,0,1.5083470458984374,0,0,0.84084
0.8743163329781964,0,0,1.1875240234375,0,0,0.84084
0.8774352409818675,0,0,1.0773907470703123,0,0,0.7644
0.8805536669970024,0,0,1.5753846923828123,0,0,0.91728
0.883720887999516,0,0,1.455674609375,0,0,0.99372
0.8868424619722646,0,0,1.0223241088867188,0,0,0.6115200000000001
0.8899613879912067,0,0,1.2138602416992186,0,0,0.6115200000000001
0.8931179239880294,0,0,1.35990654296875,0,0,0.91728
0.8962370539957192,0,0,1.2138602416992186,0,0,0.99372
0.8993525349942502,0,0,1.2018892333984375,0,0,0.7644
0.9024726279894821,0,0,1.5562310791015623,0,0,0.7644
0.9055897019861732,0,0,1.350329736328125,0,0,0.84084
0.9087082759942859,0,0,1.1731588134765625,0,0,0.30576000000000003
0.9120079219865147,0,0,1.465251416015625,0,0,0.99372
0.9151487359777093,0,0,1.5035586425781249,0,0,0.99372
0.9182695509807672,0,0,1.3623007446289062,0,0,0.68796
0.9213888289814349,0,0,1.2928688964843749,0,0,0.3822
0.924509013973875,0,0,1.2928688964843749,0,0,0.7644
0.9276282909850124,0,0,1.0893617553710937,0,0,0.6115200000000001
0.9307464769808576,0,0,0.948103857421875,0,0,0.84084
0.9338643279916141,0,0,1.4221557861328125,0,0,1.1465999999999998
0.93698075399152,0,0,1.5634136840820312,0,0,0.6115200000000001
0.9400994389725383,0,0,1.1276689819335937,0,0,0.68796
0.9432157169794664,0,0,1.3024457031249999,0,0,0.68796
0.9463322349765804,0,0,1.388636962890625,0,0,0.84084
0.9494499949796591,0,0,1.2785036865234374,0,0,0.99372
0.9525688459980302,0,0,1.1468225952148436,0,0,1.1465999999999998
0.9557293089746963,0,0,1.3862427612304686,0,0,0.6115200000000001
0.9588478639780078,0,0,1.2976572998046874,0,0,0.68796
0.9619663459889125,0,0,1.149216796875,0,0,0.6115200000000001
0.9650840119866189,0,0,1.4891934326171874,0,0,0.84084
0.9682031789852772,0,0,1.369483349609375,0,0,0.68796
0.9713183639978524,0,0,1.1276689819335937,0,0,0.7644
0.97444058599649,0,0,1.2138602416992186,0,0,0.3822
0.9775582529837266,0,0,1.4891934326171874,0,0,-9.01992
0.980679826985579,0,0,1.1444283935546875,0,0,0.7644
0.9838250299799256,0,0,1.1659762084960936,0,0,0.3822
0.9869419189926703,0,0,1.448492004394531,0,0,1.07016
0.9900593259953894,0,0,1.6041151123046875,0,0,0.68796
0.9932406589796301,0,0,1.1540052001953125,0,0,0.68796
0.9963610659760889,0,0,1.24498486328125,0,0,0.7644
0.9994760289846454,0,0,1.3862427612304686,0,0,0.99372
1.0026866019761655,0,0,1.1156979736328125,0,0,0.84084
1.005917636997765,0,0,1.1947066284179686,0,0,0.22932
1.0092383009905461,0,0,1.369483349609375,0,0,0.91728
1.0124513739719987,0,0,1.2306196533203124,0,0,0.6115200000000001
1.0156775029900018,0,0,0.9600748657226562,0,0,1.07016
1.0193981060001533,0,0,1.4915876342773438,0,0,0.7644
1.0228721019811928,0,0,1.2569558715820313,0,0,0.84084
1.0261324149905704,0,0,0.9217676391601562,0,0,0.68796
1.029364709975198,0,0,1.448492004394531,0,0,0.84084
1.032551523996517,0,0,1.4915876342773438,0,0,1.2230400000000001
1.0358570399985183,0,0,1.1707646118164061,0,0,0.6115200000000001
1.0389799289987423,0,0,1.3383587280273437,0,0,0.53508
1.04209848397295,0,0,1.35990654296875,0,0,0.91728
1.0480420989915729,0,0,1.2234370483398436,0,0,1.1465999999999998
1.0512000429735053,0,0,1.4221557861328125,0,0,0.99372
1.0543645979778375,0,0,1.199495031738281,0,0,0.84084
1.0575089119956829,0,0,1.1109095703125,0,0,0.45864
1.0606592259719037,0,0,1.3287819213867187,0,0,0.7644
1.0638557249912992,0,0,1.6017209106445311,0,0,1.1465999999999998
1.0670023179845884,0,0,1.3742717529296875,0,0,0.45864
1.0701540759764612,0,0,1.2282254516601563,0,0,0.30576000000000003
1.0733476119930856,0,0,1.24498486328125,0,0,0.91728
1.076550944999326,0,0,1.1707646118164061,0,0,0.91728
1.079794775985647,0,0,1.0749965454101562,0,0,0.7644
1.0830557009903714,0,0,1.4532804077148436,0,0,0.30576000000000003
1.0862780139723327,0,0,1.35990654296875,0,0,0.91728
1.089498993998859,0,0,1.0965443603515623,0,0,0.53508
1.0931076179840602,0,0,1.659181750488281,0,0,0.6115200000000001
1.095737678988371,0,0,1.5083470458984374,0,0,0.7644
1.0972594019840471,0,0,1.1372457885742187,0,0,0.84084
1.0987304949958343,0,0,1.1109095703125,0,0,0.7644
1.1001955149986316,0,0,1.1444283935546875,0,0,0.7644
1.1016766089887824,0,0,1.1947066284179686,0,0,0.3822
1.1031788869877346,0,0,1.5083470458984374,0,0,0.6115200000000001
1.1046642399742268,0,0,1.5275006591796874,0,0,0.68796
1.106132203974994,0,0,1.5514426757812498,0,0,0.91728
1.1077083889977075,0,0,1.3527239379882812,0,0,0.91728
1.109126686991658,0,0,1.2401964599609374,0,0,0.99372
1.1105096329993103,0,0,1.1540052001953125,0,0,0.45864
1.1119166719727218,0,0,1.0486603271484374,0,0,0.53508
1.1133023959991988,0,0,1.388636962890625,0,0,1.1465999999999998
1.1146828979835846,0,0,1.4245499877929686,0,0,0.84084
1.1160658079897985,0,0,1.43652099609375,0,0,1.07016
1.117445512994891,0,0,1.4963760375976562,0,0,0.99372
1.1188249039987568,0,0,1.35990654296875,0,0,0.84084
1.1202064619865268,0,0,1.0773907470703123,0,0,0.53508
1.1215870379819535,0,0,1.1252747802734375,0,0,0.6115200000000001
1.1229674109781627,0,0,1.0749965454101562,0,0,0.45864
1.1243514679954387,0,0,1.3766659545898436,0,0,0.68796
1.1257312299858313,0,0,1.388636962890625,0,0,0.91728
1.1271101759921294,0,0,1.5945383056640625,0,0,0.99372
1.1284911229740828,0,0,1.4006079711914061,0,0,0.99372
1.1298708469839767,0,0,1.2593500732421874,0,0,0.91728
1.131250200996874,0,0,1.1133037719726562,0,0,0.84084
1.132631202985067,0,0,1.0869675537109373,0,0,0.7644
1.1340100759989582,0,0,1.158793603515625,0,0,0.99372
1.1353888179874048,0,0,1.5083470458984374,0,0,0.30576000000000003
1.1367684129800182,0,0,1.5394716674804687,0,0,0.68796
1.138147099991329,0,0,1.5035586425781249,0,0,0.68796
1.139525935985148,0,0,1.2808978881835937,0,0,0.7644
1.1409065309853759,0,0,1.1516109985351561,0,0,0.99372
1.1422859399754088,0,0,1.209071838378906,0,0,0.6115200000000001
1.143684996990487,0,0,1.1444283935546875,0,0,-9.09636
1.1450757589773275,0,0,1.3072341064453123,0,0,0.99372
1.1464626499800943,0,0,1.419761584472656,0,0,0.84084
1.1478493179893121,0,0,1.3263877197265623,0,0,0.99372
1.1492362279968802,0,0,1.4437036010742186,0,0,0.91728
1.1506230819795746,0,0,1.199495031738281,0,0,0.99372
1.1520111209829338,0,0,1.1516109985351561,0,0,0.68796
1.1533966229762882,0,0,1.1444283935546875,0,0,0.6115200000000001
1.1547827539907303,0,0,1.1468225952148436,0,0,0.53508
1.1561695899872575,0,0,1.4101847778320311,0,0,0.68796
1.1575562399812043,0,0,1.4221557861328125,0,0,0.68796
1.158942259993637,0,0,1.2569558715820313,0,0,0.68796
1.1603289479971863,0,0,1.4245499877929686,0,0,0.91728
1.1617152459803037,0,0,1.0773907470703123,0,0,0.99372
1.1631015809834935,0,0,1.1563994018554686,0,0,0.7644
1.1644878609804437,0,0,1.1420341918945311,0,0,0.91728
1.1658739369886462,0,0,1.3359645263671873,0,0,0.68796
1.1672606059873942,0,0,1.465251416015625,0,0,0.30576000000000003
1.168647255981341,0,0,1.4508862060546874,0,0,0.84084
1.1700329059967771,0,0,1.5969325073242187,0,0,0.7644
1.1714195009844843,0,0,1.24498486328125,0,0,0.68796
1.1728082249755971,0,0,1.3024457031249999,0,0,0.84084
1.1741948569833767,0,0,1.0606313354492187,0,0,0.84084
1.1755815989745315,0,0,1.0797849487304687,0,0,0.68796
1.1769682119775098,0,0,1.2378022583007813,0,0,1.1465999999999998
1.1783541589975357,0,0,1.458068811035156,0,0,0.7644
1.1797416609770153,0,0,1.2928688964843749,0,0,0.7644
1.181127680989448,0,0,1.4891934326171874,0,0,0.7644
1.1825139059801586,0,0,1.1611878051757811,0,0,1.07016
1.1839007409871556,0,0,1.1372457885742187,0,0,0.7644
1.1852846869733185,0,0,1.0510545288085937,0,0,0.99372
1.1866686709981877,0,0,1.1133037719726562,0,0,0.30576000000000003
1.1880699139728677,0,0,1.3958195678710936,0,0,0.68796
1.1894590449810494,0,0,1.5035586425781249,0,0,0.6115200000000001
1.1908463809813838,0,0,1.24498486328125,0,0,0.84084
1.192233863985166,0,0,1.3287819213867187,0,0,0.68796
1.1936214029847179,0,0,1.0845733520507812,0,0,0.84084
1.1950086639844812,0,0,1.1133037719726562,0,0,0.84084
1.1963958329870366,0,0,1.1875240234375,0,0,0.45864
1.197782612987794,0,0,1.1875240234375,0,0,0.91728
1.1991696699988097,0,0,1.429338391113281,0,0,0.15288000000000002
1.2005573579808697,0,0,1.448492004394531,0,0,0.84084
1.2019444149918854,0,0,1.4915876342773438,0,0,0.84084
1.2033315649896394,0,0,1.2114660400390624,0,0,0.84084
1.2047191969759297,0,0,1.2904746948242187,0,0,0.84084
1.2061062539869454,0,0,1.0582371337890624,0,0,0.68796
1.207493441994302,0,0,1.1276689819335937,0,0,0.45864
1.2088861839729361,0,0,1.1540052001953125,0,0,0.7644
1.2102767599863,0,0,1.5753846923828123,0,0,0.68796
1.211667261988623,0,0,1.4221557861328125,0,0,0.68796
1.213062615977833,0,0,1.4604630126953124,0,0,0.6115200000000001
1.2144512479717378,0,0,1.1731588134765625,0,0,1.1465999999999998
1.2158356199797709,0,0,1.158793603515625,0,0,0.7644
1.2172149189864285,0,0,1.1133037719726562,0,0,0.6115200000000001
1.2185937539907172,0,0,1.0917559570312498,0,0,0.3822
1.2199804599804338,0,0,1.369483349609375,0,0,0.07644000000000001
1.2213682949950453,0,0,1.4173673828125,0,0,0.91728
1.2227557229925878,0,0,1.2425906616210938,0,0,0.7644
1.224143039988121,0,0,1.2234370483398436,0,0,0.91728
1.2255300419928972,0,0,1.0965443603515623,0,0,0.91728
1.2269173769745976,0,0,1.1228805786132812,0,0,0.84084
1.2283046009833924,0,0,1.120486376953125,0,0,0.84084
1.2296917519997805,0,0,1.1635820068359375,0,0,1.07016
1.2310788829927333,0,0,1.4413093994140624,0,0,0.68796
1.2324656259734184,0,0,1.22583125,0,0,0.7644
1.2338526089733932,0,0,1.6735469604492186,0,0,0.91728
1.2352415189961903,0,0,1.254561669921875,0,0,0.91728
1.236628557991935,0,0,1.2521674682617188,0,0,0.99372
1.2380172079720069,0,0,1.149216796875,0,0,0.6115200000000001
1.239404616993852,0,0,1.1252747802734375,0,0,0.53508
1.240792081982363,0,0,1.2713210815429687,0,0,0.68796
1.242213453981094,0,0,1.4149731811523436,0,0,0.68796
1.2436105859815143,0,0,1.4796166259765624,0,0,0.68796
1.244998198992107,0,0,1.3072341064453123,0,0,0.99372
1.2463854599918704,0,0,1.13006318359375,0,0,0.53508
1.2477711659739725,0,0,1.2976572998046874,0,0,0.99372
1.2491495379945263,0,0,1.0893617553710937,0,0,0.6115200000000001
1.2505305409722496,0,0,1.3551181396484375,0,0,0.53508
1.2519168759754393,0,0,1.4700398193359374,0,0,0.22932
1.2533029699989129,0,0,1.429338391113281,0,0,0.7644
1.2546896019775886,0,0,1.5083470458984374,0,0,0.68796
1.2560874559858348,0,0,1.20667763671875,0,0,0.91728
1.2574737909890246,0,0,1.3192051147460937,0,0,0.84084
1.258859848981956,0,0,1.0366893188476562,0,0,0.91728
1.260248905979097,0,0,1.0726023437499999,0,0,0.3822
1.261635018978268,0,0,1.13006318359375,0,0,0.84084
1.263021224993281,0,0,1.4604630126953124,0,0,0.22932
1.2644081719918177,0,0,1.3742717529296875,0,0,0.84084
1.265795191982761,0,0,1.455674609375,0,0,0.84084
1.26718145297491,0,0,1.1731588134765625,0,0,0.91728
1.268568380997749,0,0,1.0917559570312498,0,0,-9.01992
1.269956216972787,0,0,1.0941501586914062,0,0,0.53508
1.271342977997847,0,0,1.1755530151367186,0,0,0.3822
1.2727286469889805,0,0,1.3646949462890625,0,0,0.7644
1.274115500971675,0,0,1.429338391113281,0,0,0.7644
1.2755011689732783,0,0,1.2713210815429687,0,0,0.53508
1.2768868559796829,0,0,1.2785036865234374,0,0,0.7644
1.2782728399906773,0,0,1.2306196533203124,0,0,0.99372
1.2796706939989235,0,0,1.0845733520507812,0,0,1.07016
1.2810568809800316,0,0,1.1180921752929687,0,0,0.68796
1.2824441789998673,0,0,1.1037269653320312,0,0,0.68796
1.2838458289916161,0,0,1.4508862060546874,0,0,0.45864
1.2852303129911888,0,0,1.3766659545898436,0,0,0.53508
1.286615795979742,0,0,1.4772224243164063,0,0,0.91728
1.2880145569797605,0,0,1.180341418457031,0,0,0.99372
1.2894022069813218,0,0,1.3144167114257812,0,0,0.84084
1.2907892099756282,0,0,1.1156979736328125,0,0,1.07016
1.2921810819825623,0,0,1.1563994018554686,0,0,0.6115200000000001
1.2935694729967508,0,0,1.1180921752929687,0,0,0.53508
1.2961076649953611,0,0,1.3359645263671873,0,0,0.91728
1.2974955739919096,0,0,1.4125789794921875,0,0,0.84084
1.2988827059743926,0,0,1.1109095703125,0,0,0.99372
1.3002705039980356,0,0,1.2713210815429687,0,0,0.45864
1.301657042989973,0,0,1.0917559570312498,0,0,0.68796
1.3030433409730904,0,0,1.139639990234375,0,0,0.45864
1.304430287971627,0,0,1.3168109130859373,0,0,0.68796
1.3058168819989078,0,0,1.4891934326171874,0,0,0.45864
1.3072033099888358,0,0,1.3263877197265623,0,0,0.99372
1.3085946269857232,0,0,1.5945383056640625,0,0,0.68796
1.3099809999985155,0,0,1.2234370483398436,0,0,0.84084
1.3113671679748222,0,0,1.180341418457031,0,0,0.7644
1.3127538549888413,0,0,0.9600748657226562,0,0,0.84084
1.314139764988795,0,0,1.20667763671875,0,0,0.45864
1.3155260999919847,0,0,1.3024457031249999,0,0,0.53508
1.3169125099957455,0,0,1.3551181396484375,0,0,0.6115200000000001
1.318298751983093,0,0,1.4939818359375,0,0,0.6115200000000001
1.3196859949966893,0,0,1.484405029296875,0,0,0.68796
1.3210719049966428,0,0,1.2401964599609374,0,0,1.07016
1.3224577959917951,0,0,1.120486376953125,0,0,0.91728
1.32384477899177,0,0,1.13006318359375,0,0,0.7644
1.325231039983919,0,0,1.216254443359375,0,0,0.99372
1.3266177459736355,0,0,1.3670891479492187,0,0,0.3822
1.328005895979004,0,0,1.4030021728515625,0,0,0.84084
1.329391693987418,0,0,1.6711527587890624,0,0,0.91728
1.3307783079799265,0,0,1.2018892333984375,0,0,1.07016
1.3321645319811068,0,0,1.1659762084960936,0,0,1.07016
1.3335504779824987,0,0,1.1180921752929687,0,0,0.7644
1.3349367029732093,0,0,1.218648645019531,0,0,0.53508
1.3363233339914586,0,0,1.3239935180664062,0,0,0.91728
1.3377094469906297,0,0,1.4173673828125,0,0,0.91728
1.3390956899966113,0,0,1.4413093994140624,0,0,0.99372
1.3404835809778888,0,0,1.5011644409179687,0,0,0.91728
1.3418700459878892,0,0,1.1611878051757811,0,0,0.91728
1.3432601779932156,0,0,1.1420341918945311,0,0,0.7644
1.344646882993402,0,0,1.149216796875,0,0,0.84084
1.3460373299894854,0,0,1.3215993164062498,0,0,0.84084
1.3474236839974765,0,0,1.4317325927734375,0,0,0.53508
1.3488137039821595,0,0,1.3766659545898436,0,0,0.91728
1.350200335989939,0,0,1.5490484741210937,0,0,0.99372
1.35158939298708,0,0,1.3431471313476562,0,0,0.99372
1.3529771359753795,0,0,1.2665326782226562,0,0,0.99372
1.3543649339990225,0,0,1.13006318359375,0,0,0.6115200000000001
1.3557528620003723,0,0,1.1635820068359375,0,0,0.6115200000000001
1.3571382719965186,0,0,1.2473790649414063,0,0,0.91728
1.3585242739936803,0,0,1.484405029296875,0,0,0.84084
1.359911164996447,0,0,1.4053963745117186,0,0,1.1465999999999998
1.3612968699890189,0,0,1.6328455322265625,0,0,0.91728
1.3626828909909818,0,0,1.3766659545898436,0,0,0.99372
1.3640692999761086,0,0,1.1731588134765625,0,0,0.68796
1.3654552279913332,0,0,1.1923124267578125,0,0,0.6115200000000001
1.3668410079844762,0,0,1.1707646118164061,0,0,0.6115200000000001
1.3682271399884485,0,0,1.2114660400390624,0,0,0.3822
1.3696133639896289,0,0,1.388636962890625,0,0,0.7644
1.3709994959936012,0,0,1.4341267944335936,0,0,0.99372
1.3723859789897688,0,0,1.3934253662109375,0,0,0.68796
1.3737720739736687,0,0,1.197100830078125,0,0,1.1465999999999998
1.3751580389798619,0,0,1.218648645019531,0,0,0.7644
1.3765444109740201,0,0,1.197100830078125,0,0,0.84084
1.3779305239731912,0,0,1.3024457031249999,0,0,0.53508
1.3793165079841856,0,0,1.3910311645507811,0,0,0.22932
1.3807027689763345,0,0,1.3575123413085937,0,0,0.7644
1.3820889559865464,0,0,1.5251064575195312,0,0,0.84084
1.3834747909859288,0,0,1.3910311645507811,0,0,0.84084
1.3848596079915296,0,0,1.216254443359375,0,0,0.6115200000000001
1.3862442769750487,0,0,1.0295067138671874,0,0,0.7644
1.3877046489797067,0,0,1.1276689819335937,0,0,0.45864
1.3890945949824527,0,0,1.350329736328125,0,0,0.84084
1.390481929993257,0,0,1.448492004394531,0,0,0.53508
1.3918687839759514,0,0,1.4772224243164063,0,0,1.1465999999999998
1.3932553049817216,0,0,1.6160861206054686,0,0,0.91728
1.3946415659738705,0,0,1.235408056640625,0,0,0.99372
1.396028604998719,0,0,1.1659762084960936,0,0,0.68796
1.397414551989641,0,0,0.9504980590820312,0,0,0.6115200000000001
1.3988009979948401,0,0,1.1420341918945311,0,0,0.30576000000000003
1.4001877219998278,0,0,1.35990654296875,0,0,0.68796
1.401573927985737,0,0,1.4125789794921875,0,0,0.91728
1.4029602629889268,0,0,1.4532804077148436,0,0,0.91728
1.4043453949852847,0,0,1.455674609375,0,0,1.07016
1.4057294709782582,0,0,1.1540052001953125,0,0,1.1465999999999998
1.4071262139768805,0,0,1.0606313354492187,0,0,0.68796
1.4085151049948763,0,0,1.1180921752929687,0,0,0.99372
1.4099071439995896,0,0,1.2306196533203124,0,0,0.7644
1.411296793987276,0,0,1.3455413330078123,0,0,0.45864
1.4126855919894297,0,0,1.3407529296874998,0,0,0.68796
1.4140732050000224,0,0,1.5179238525390624,0,0,1.1465999999999998
1.4154607259843033,0,0,1.35990654296875,0,0,0.53508
1.4168416169995908,0,0,1.20667763671875,0,0,0.91728
1.418220470979577,0,0,1.0342951171875,0,0,0.53508
1.4196413429745007,0,0,1.1851298217773436,0,0,0.53508
1.421028677985305,0,0,1.3335703247070312,0,0,1.07016
1.4224149759975262,0,0,1.3814543579101561,0,0,0.53508
1.4238010519766249,0,0,1.4006079711914061,0,0,0.7644
1.4251974249782506,0,0,1.5370774658203123,0,0,0.84084
1.4265834269754123,0,0,1.3742717529296875,0,0,1.07016
1.4279698169848416,0,0,1.22583125,0,0,0.7644
1.4293552639719564,0,0,1.0989385620117187,0,0,0.7644
1.4307413219939917,0,0,1.197100830078125,0,0,0.6115200000000001
1.432126971980324,0,0,1.350329736328125,0,0,0.3822
1.4335127889935393,0,0,1.3862427612304686,0,0,0.53508
1.434898864972638,0,0,1.5035586425781249,0,0,0.91728
1.436284903989872,0,0,1.4939818359375,0,0,0.6115200000000001
1.437671423977008,0,0,1.22583125,0,0,1.1465999999999998
1.4390574819990434,0,0,1.177947216796875,0,0,0.99372
1.440444612991996,0,0,1.1276689819335937,0,0,0.84084
1.441831022995757,0,0,1.2665326782226562,0,0,0.3822
1.4432169509818777,0,0,1.3359645263671873,0,0,0.3822
1.4446028229722288,0,0,1.4987702392578124,0,0,0.91728
1.4459889919962734,0,0,1.6448165405273436,0,0,0.68796
1.4473743639828172,0,0,1.22583125,0,0,1.07016
1.4487606259936001,0,0,1.3575123413085937,0,0,0.7644
1.450146645976929,0,0,1.0965443603515623,0,0,0.53508
1.451532351988135,0,0,1.2042834350585936,0,0,0.6115200000000001
1.4529191319888923,0,0,1.3934253662109375,0,0,0.68796
1.4543054299720097,0,0,1.4724340209960938,0,0,0.68796
1.4556921359908301,0,0,1.3072341064453123,0,0,0.7644
1.4570779519854113,0,0,1.4724340209960938,0,0,1.1465999999999998
1.4584638429805636,0,0,1.2785036865234374,0,0,1.1465999999999998
1.4598625489743426,0,0,1.1755530151367186,0,0,0.99372
1.46124773597694,0,0,1.13006318359375,0,0,0.7644
1.462633774994174,0,0,1.1659762084960936,0,0,0.6115200000000001
1.4640204249881208,0,0,1.3814543579101561,0,0,0.53508
1.4654050199897029,0,0,1.5777788940429687,0,0,0.45864
1.466790577978827,0,0,1.5682020874023437,0,0,0.7644
1.4681771909818053,0,0,1.2689268798828124,0,0,0.68796
1.4695629149791785,0,0,1.1755530151367186,0,0,0.99372
1.4709492499823682,0,0,1.0797849487304687,0,0,0.7644
1.4723356969770975,0,0,1.1085153686523437,0,0,0.7644
1.4737213839835022,0,0,1.3215993164062498,0,0,0.7644
1.4751074969826732,0,0,1.4796166259765624,0,0,0.30576000000000003
1.47649414697662,0,0,1.5107412475585937,0,0,0.91728
1.4778799269988667,0,0,1.5203180541992187,0,0,0.99372
1.4792657989892177,0,0,1.3168109130859373,0,0,0.7644
1.4806518019759096,0,0,1.197100830078125,0,0,0.68796
1.4820378589793108,0,0,1.1109095703125,0,0,0.6115200000000001
1.4834233609726653,0,0,0.9696516723632812,0,0,0.6115200000000001
1.484808103996329,0,0,1.3455413330078123,0,0,0.68796
1.486191975971451,0,0,1.426944189453125,0,0,0.53508
1.4876287179940846,0,0,1.4939818359375,0,0,0.91728
1.4890218129730783,0,0,1.4939818359375,0,0,0.7644
1.4904084819718264,0,0,1.3718775512695311,0,0,1.2994800000000002
1.4917966689972673,0,0,1.1707646118164061,0,0,0.84084
1.493183560000034,0,0,1.1611878051757811,0,0,0.7644
1.4945706539729144,0,0,1.3335703247070312,0,0,0.68796
1.4959580269933213,0,0,1.3814543579101561,0,0,0.15288000000000002
1.49733797297813,0,0,1.467645617675781,0,0,0.45864
1.4987169569940306,0,0,1.668758557128906,0,0,0.84084
1.5000995699956547,0,0,1.35990654296875,0,0,1.07016
1.5014792569854762,0,0,1.1923124267578125,0,0,0.91728
1.5028575559845194,0,0,1.0893617553710937,0,0,0.84084
1.5042443909915164,0,0,1.180341418457031,0,0,0.68796
1.5056347259960603,0,0,1.3239935180664062,0,0,0.99372
1.507021913974313,0,0,1.47482822265625,0,0,0.22932
1.5084043049719185,0,0,1.39821376953125,0,0,0.84084
1.50978288098122,0,0,1.5107412475585937,0,0,0.84084
1.511161586997332,0,0,1.2425906616210938,0,0,0.68796
1.5125528659846168,0,0,1.177947216796875,0,0,0.84084
1.5139396649901755,0,0,1.0271125122070313,0,0,0.7644
1.5153264069813304,0,0,1.0773907470703123,0,0,0.45864
1.5167133169888984,0,0,1.3359645263671873,0,0,0.53508
1.5180995219852775,0,0,1.4341267944335936,0,0,0.6115200000000001
1.5194863949727733,0,0,1.5011644409179687,0,0,0.68796
1.520872970984783,0,0,1.4939818359375,0,0,0.84084
1.5222590279881842,0,0,1.24498486328125,0,0,1.1465999999999998
1.5236575489980169,0,0,1.189918225097656,0,0,0.91728
1.5250437179929577,0,0,1.1276689819335937,0,0,0.53508
1.5264296639943495,0,0,1.0773907470703123,0,0,0.6115200000000001
1.5278165729832835,0,0,1.4341267944335936,0,0,0.30576000000000003
1.5292228719918057,0,0,1.37906015625,0,0,0.68796
1.5306100589805283,0,0,1.5107412475585937,0,0,0.68796
1.531997189973481,0,0,1.3192051147460937,0,0,0.91728
1.5333829889714252,0,0,1.1540052001953125,0,0,1.07016
1.5347694719966967,0,0,1.0319009155273438,0,0,0.6115200000000001
1.5361556409916375,0,0,1.13006318359375,0,0,0.6115200000000001
1.5375416429887991,0,0,1.3862427612304686,0,0,0.84084
1.5389276079949923,0,0,1.426944189453125,0,0,0.68796
1.540313942998182,0,0,1.3814543579101561,0,0,0.91728
1.5416999269800726,0,0,1.467645617675781,0,0,0.91728
1.5430859839834739,0,0,1.2234370483398436,0,0,0.7644
1.544489744992461,0,0,1.1061211669921875,0,0,0.45864
1.5468313659948763,0,0,1.149216796875,0,0,0.68796
1.548221367993392,0,0,1.2737152832031249,0,0,0.68796
1.5496082209865563,0,0,1.4772224243164063,0,0,0.53508
1.5509951309941243,0,0,1.3958195678710936,0,0,0.91728
1.55238353999448,0,0,1.5921441040039062,0,0,0.84084
1.5537700610002503,0,0,1.149216796875,0,0,0.84084
1.5551565259811468,0,0,1.0821791503906248,0,0,0.6115200000000001
1.55654249098734,0,0,1.0630255371093749,0,0,0.6115200000000001
1.5579287339933217,0,0,1.1827356201171875,0,0,0.53508
1.559315031976439,0,0,1.3407529296874998,0,0,0.45864
1.5607018859882373,0,0,1.5059528442382812,0,0,0.7644
1.562088609993225,0,0,1.5083470458984374,0,0,0.53508
1.5634955929999705,0,0,1.3431471313476562,0,0,0.84084
1.5648820769856684,0,0,1.1659762084960936,0,0,1.07016
1.5662685229908675,0,0,1.1540052001953125,0,0,0.91728
1.5676739319751505,0,0,1.1276689819335937,0,0,0.7644
1.5690602679969743,0,0,1.3048399047851562,0,0,0.45864
1.5704465479939245,0,0,1.2785036865234374,0,0,0.15288000000000002
1.5718334009870887,0,0,1.4820108276367188,0,0,0.7644
1.5732197179750074,0,0,1.467645617675781,0,0,0.7644
1.5746054419723805,0,0,1.180341418457031,0,0,0.84084
1.5759918330004439,0,0,1.197100830078125,0,0,0.91728
1.5773777609865647,0,0,1.0989385620117187,0,0,0.6115200000000001
1.5787637999746948,0,0,1.235408056640625,0,0,0.68796
1.5801497839856893,0,0,1.2473790649414063,0,0,1.1465999999999998
1.581535637989873,0,0,1.5059528442382812,0,0,0.6115200000000001
1.582921176974196,0,0,1.37906015625,0,0,0.7644
1.5843064749788027,0,0,1.675941162109375,0,0,1.07016
1.5856908849964384,0,0,1.20667763671875,0,0,0.68796
1.5870772009948269,0,0,1.0749965454101562,0,0,0.7644
1.5884875739866402,0,0,1.139639990234375,0,0,0.68796
1.5898756499809679,0,0,1.158793603515625,0,0,0.45864
1.5912625959899742,0,0,1.3239935180664062,0,0,0.30576000000000003
1.5926572459866293,0,0,1.4724340209960938,0,0,0.53508
1.594044118974125,0,0,1.3383587280273437,0,0,0.68796
1.5954309909720905,0,0,1.2473790649414063,0,0,0.6115200000000001
1.5968278819927946,0,0,1.197100830078125,0,0,1.2230400000000001
1.5982163839798886,0,0,1.1827356201171875,0,0,0.6115200000000001
1.5996221259993035,0,0,1.1540052001953125,0,0,0.68796
1.6010085539892316,0,0,1.1875240234375,0,0,0.7644
1.6023947409994435,0,0,1.2497732666015624,0,0,0.22932
1.6037808169785421,0,0,1.3239935180664062,0,0,0.91728
1.6055513149767648,0,0,1.39821376953125,0,0,0.7644
1.607058703986695,0,0,1.2138602416992186,0,0,0.84084
1.6086907399876509,0,0,1.0606313354492187,0,0,0.99372
1.6101299639849458,0,0,1.2018892333984375,0,0,0.6115200000000001
1.6115245959954336,0,0,1.2306196533203124,0,0,0.53508
1.6129149309999775,0,0,1.3096283081054687,0,0,0.3822
1.6143038959999103,0,0,1.4125789794921875,0,0,0.7644
1.6156923609960359,0,0,1.6017209106445311,0,0,0.7644
1.617080158990575,0,0,1.4508862060546874,0,0,0.7644
1.6184682909806725,0,0,1.2306196533203124,0,0,0.7644
1.6198530339752324,0,0,1.1013327636718748,0,0,0.68796
1.6212325359811075,0,0,1.149216796875,0,0,0.6115200000000001
1.6226121299841907,0,0,1.235408056640625,0,0,1.2230400000000001
1.6239987989829388,0,0,1.4173673828125,0,0,0.45864
1.625387152977055,0,0,1.369483349609375,0,0,-8.943480000000001
1.6267767659737729,0,0,1.467645617675781,0,0,0.99372
1.6281649349839427,0,0,1.2018892333984375,0,0,0.99372
1.6295523069857154,0,0,1.149216796875,0,0,0.84084
1.630939975992078,0,0,1.1468225952148436,0,0,0.6115200000000001
1.6323287739942316,0,0,1.0749965454101562,0,0,0.30576000000000003
1.633716349984752,0,0,1.3718775512695311,0,0,0.22932
1.6351036669802852,0,0,1.4508862060546874,0,0,0.84084
1.6364867059746757,0,0,1.6160861206054686,0,0,0.7644
1.6378653189749457,0,0,1.4939818359375,0,0,0.6115200000000001
1.6392447289836127,0,0,1.2018892333984375,0,0,1.07016
1.6406332489859778,0,0,1.1444283935546875,0,0,-9.09636
1.6420206399925519,0,0,1.1372457885742187,0,0,0.53508
1.6434075679862872,0,0,1.2497732666015624,0,0,0.7644
1.6447944769752212,0,0,1.3575123413085937,0,0,0.22932
1.6461806649749633,0,0,1.2378022583007813,0,0,0.91728
1.6475840549974237,0,0,1.5634136840820312,0,0,0.84084
1.648971779999556,0,0,1.3120225097656248,0,0,0.99372
1.650358373997733,0,0,1.2042834350585936,0,0,0.91728
1.651752782985568,0,0,1.1875240234375,0,0,0.99372
1.6531383599794935,0,0,1.0821791503906248,0,0,0.7644
1.6545250649796799,0,0,1.3527239379882812,0,0,0.84084
1.6559115489944816,0,0,1.3958195678710936,0,0,0.53508
1.6572972359717824,0,0,1.5011644409179687,0,0,0.84084
1.6587359229743015,0,0,1.5155296508789062,0,0,0.84084
1.6601248319784645,0,0,1.2976572998046874,0,0,0.84084
1.661512277991278,0,0,1.158793603515625,0,0,0.6115200000000001
1.662899724993622,0,0,1.0989385620117187,0,0,0.84084
1.6642870789801236,0,0,1.209071838378906,0,0,0.22932
1.6656743209750857,0,0,1.4030021728515625,0,0,0.22932
1.6670614719914738,0,0,1.3958195678710936,0,0,0.7644
1.6684442699770443,0,0,1.5418658691406248,0,0,0.6115200000000001
1.669825327990111,0,0,1.3168109130859373,0,0,1.07016
1.6712043669831473,0,0,1.13006318359375,0,0,0.6115200000000001
1.6725929429812822,0,0,1.1013327636718748,0,0,0.68796
1.6739805369870737,0,0,1.139639990234375,0,0,0.6115200000000001
1.6753690209880006,0,0,1.3239935180664062,0,0,0.53508
1.6767563009925652,0,0,1.4006079711914061,0,0,0.3822
1.6781431179842912,0,0,1.2641384765625,0,0,0.99372
1.6795305269770324,0,0,1.5777788940429687,0,0,0.99372
1.6809174179797992,0,0,1.0749965454101562,0,0,0.91728
1.6823041609895881,0,0,1.1037269653320312,0,0,0.84084
1.683688662975328,0,0,1.0366893188476562,0,0,0.7644
1.6850713309831917,0,0,1.0773907470703123,0,0,0.3822
1.6866745349834673,0,0,1.35990654296875,0,0,0.68796
1.6880735179875046,0,0,1.3814543579101561,0,0,0.68796
1.689461334986845,0,0,1.6232687255859375,0,0,0.7644
1.6908491329813842,0,0,1.4820108276367188,0,0,0.99372
1.692236671980936,0,0,1.0989385620117187,0,0,1.1465999999999998
1.6936243039963301,0,0,1.0534487304687499,0,0,0.91728
1.69502843497321,0,0,1.1252747802734375,0,0,0.7644
1.6964120849734172,0,0,1.2617442749023438,0,0,0.6115200000000001
1.6977909019915387,0,0,1.3838485595703125,0,0,0.45864
1.6991697749763262,0,0,1.5298948608398437,0,0,0.68796
1.70055986897205,0,0,1.5634136840820312,0,0,1.07016
1.701947259978624,0,0,1.3168109130859373,0,0,0.91728
1.7033345399831887,0,0,1.197100830078125,0,0,0.68796
1.7047220969980117,0,0,1.1372457885742187,0,0,0.84084
1.7061171179811936,0,0,1.1659762084960936,0,0,0.45864
1.7075045269739348,0,0,1.3479355346679687,0,0,0.91728
1.708892102993559,0,0,1.4820108276367188,0,0,0.3822
1.7102786979812663,0,0,1.4772224243164063,0,0,1.07016
1.7116642739856616,0,0,1.5658078857421873,0,0,0.91728
1.7130433499987703,0,0,1.1348515869140625,0,0,1.1465999999999998
1.7144222779897973,0,0,1.1037269653320312,0,0,0.84084
1.715807242988376,0,0,1.0702081420898437,0,0,0.53508
1.7171937449893449,0,0,1.180341418457031,0,0,0.3822
1.7185802099993452,0,0,1.3910311645507811,0,0,0.45864
1.7199667120003141,0,0,1.47482822265625,0,0,0.6115200000000001
1.7213526220002677,0,0,1.5131354492187499,0,0,0.6115200000000001
1.7227381979755592,0,0,1.4030021728515625,0,0,0.68796
1.7241244219767395,0,0,1.2593500732421874,0,0,1.1465999999999998
1.7255105909716804,0,0,1.0941501586914062,0,0,0.91728
1.726896833977662,0,0,1.1731588134765625,0,0,0.7644
1.7282832799828611,0,0,1.2617442749023438,0,0,0.53508
1.7296698189747985,0,0,1.446097802734375,0,0,0.15288000000000002
1.7310559879988432,0,0,1.4867992309570313,0,0,0.53508
1.7324423789978027,0,0,1.687912170410156,0,0,0.91728
1.7338290289917495,0,0,1.22583125,0,0,0.91728
1.7352152899838984,0,0,1.149216796875,0,0,0.7644
1.7366227549791802,0,0,1.0534487304687499,0,0,0.84084
1.7380109609803185,0,0,1.216254443359375,0,0,0.6115200000000001
1.7394077589851804,0,0,1.3910311645507811,0,0,0.84084
1.740794945973903,0,0,1.3910311645507811,0,0,0.91728
1.7421821699826978,0,0,1.39821376953125,0,0,0.91728
1.7435700239730068,0,0,1.5705962890624998,0,0,0.84084
1.7449499329959508,0,0,1.2497732666015624,0,0,0.91728
1.7463292129978072,0,0,1.1707646118164061,0,0,0.6115200000000001
1.747714825993171,0,0,1.1348515869140625,0,0,0.7644
1.7491736609954387,0,0,1.2114660400390624,0,0,0.68796
1.7505624779732898,0,0,1.3168109130859373,0,0,0.3822
1.7519514609884936,0,0,1.3958195678710936,0,0,0.84084
1.7533384259731974,0,0,1.5083470458984374,0,0,0.68796
1.7547261499857996,0,0,1.350329736328125,0,0,0.6115200000000001
1.7561139119789004,0,0,1.1276689819335937,0,0,0.7644
1.7575010059808847,0,0,1.1109095703125,0,0,1.07016
1.7588883599964902,0,0,1.1731588134765625,0,0,0.84084
1.760271417995682,0,0,1.2856862915039062,0,0,1.07016
1.7616506239864975,0,0,1.4939818359375,0,0,0.07644000000000001
1.7630297919968143,0,0,1.4891934326171874,0,0,1.1465999999999998
1.7644319419923704,0,0,1.6472107421875,0,0,0.91728
1.7658197589917108,0,0,1.3646949462890625,0,0,0.84084
1.767206668999279,0,0,1.1109095703125,0,0,0.91728
1.7685983929841314,0,0,1.0630255371093749,0,0,0.84084
1.7699849319760688,0,0,1.1731588134765625,0,0,0.45864
1.7713712859840598,0,0,1.448492004394531,0,0,0.84084
1.7727579539932776,0,0,1.5203180541992187,0,0,0.53508
1.774144252995029,0,0,1.2521674682617188,0,0,0.84084
1.7755309579952154,0,0,1.4724340209960938,0,0,1.07016
1.7769176269939635,0,0,1.218648645019531,0,0,0.7644
1.77830409197486,0,0,1.0630255371093749,0,0,0.7644
1.779690834984649,0,0,1.0917559570312498,0,0,0.84084
1.7810767439950723,0,0,0.9337386474609375,0,0,0.53508
1.7824694309965707,0,0,1.3575123413085937,0,0,0.0
1.783856266993098,0,0,1.3910311645507811,0,0,0.45864
1.785240712983068,0,0,1.6639701538085936,0,0,1.07016
1.7868077869934496,0,0,1.3287819213867187,0,0,1.07016
1.7881979559897445,0,0,1.189918225097656,0,0,0.68796
1.7895866429898888,0,0,1.0726023437499999,0,0,0.53508
1.7909744229982607,0,0,0.9600748657226562,0,0,0.68796
1.7923619799839798,0,0,1.3958195678710936,0,0,0.7644
1.793749296979513,0,0,1.5203180541992187,0,0,0.6115200000000001
1.7963509139954112,0,0,1.5011644409179687,0,0,0.68796
1.7977798419888131,0,0,1.3455413330078123,0,0,0.68796
1.7991682329738978,0,0,1.1420341918945311,0,0,0.7644
1.800555808993522,0,0,1.0175357055664063,0,0,0.68796
1.8019512739847414,0,0,1.01514150390625,0,0,0.53508
1.803338386991527,0,0,1.3479355346679687,0,0,0.6115200000000001
1.8047266109788325,0,0,1.4939818359375,0,0,0.68796
1.8061132239818107,0,0,1.3407529296874998,0,0,0.7644
1.8074996519717388,0,0,1.4532804077148436,0,0,0.6115200000000001
1.8088843759906013,0,0,1.0749965454101562,0,0,0.7644
1.8102891739981715,0,0,1.0438719238281249,0,0,0.91728
1.811749341984978,0,0,1.1372457885742187,0,0,0.53508
1.8131361959967762,0,0,1.2569558715820313,0,0,0.45864
1.8145163279841654,0,0,1.4508862060546874,0,0,0.22932
1.8158980699954554,0,0,1.4987702392578124,0,0,0.7644
1.8172773869882803,0,0,1.4508862060546874,0,0,0.91728
1.8186566489748657,0,0,1.2521674682617188,0,0,0.84084
1.8200376689783297,0,0,1.0965443603515623,0,0,1.07016
1.821421745000407,0,0,1.1468225952148436,0,0,0.7644
1.8228020249807741,0,0,1.1276689819335937,0,0,0.53508
1.8242081749776844,0,0,1.2665326782226562,0,0,0.7644
1.8256132699898444,0,0,1.4125789794921875,0,0,0.6115200000000001
1.8270023089717142,0,0,1.2928688964843749,0,0,0.99372
1.828402699000435,0,0,1.5203180541992187,0,0,0.68796
1.8297908499953337,0,0,1.209071838378906,0,0,1.07016
1.8311787959828507,0,0,1.1085153686523437,0,0,0.91728
1.8325663169962354,0,0,1.1324573852539062,0,0,0.45864
1.8339542069879826,0,0,1.1851298217773436,0,0,0.45864
1.8353417459875345,0,0,1.5011644409179687,0,0,0.3822
1.8367292669718154,0,0,1.5203180541992187,0,0,0.7644
1.8381162689765915,0,0,1.4891934326171874,0,0,0.45864
1.8395036409783643,0,0,1.3814543579101561,0,0,1.07016
1.8408909949939698,0,0,1.2234370483398436,0,0,0.84084
1.8422784599824809,0,0,1.0438719238281249,0,0,0.91728
1.8436665549816098,0,0,1.2138602416992186,0,0,0.7644
1.8450560199853498,0,0,1.1037269653320312,0,0,0.6115200000000001
1.8464542619767599,0,0,1.3958195678710936,0,0,0.22932
1.8478422829939518,0,0,1.5203180541992187,0,0,0.91728
1.8492284519888926,0,0,1.599326708984375,0,0,0.99372
1.8506157499796245,0,0,1.2330138549804688,0,0,0.91728
1.8520036959962454,0,0,1.1875240234375,0,0,0.53508
1.8533906239899807,0,0,1.0510545288085937,0,0,0.6115200000000001
1.8547782559762709,0,0,1.1875240234375,0,0,0.6115200000000001
1.8561658689868636,0,0,1.37906015625,0,0,0.7644
1.8575529819936492,0,0,1.429338391113281,0,0,0.7644
1.8589401509962045,0,0,1.2497732666015624,0,0,1.07016
1.8603277269867249,0,0,1.446097802734375,0,0,0.53508
1.8617153959930874,0,0,1.3623007446289062,0,0,1.2230400000000001
1.86310234197299,0,0,1.0941501586914062,0,0,0.53508
1.8644897879858036,0,0,1.0462661254882812,0,0,0.7644
1.8658774019859266,0,0,1.1468225952148436,0,0,0.53508
1.867264347994933,0,0,1.458068811035156,0,0,0.7644
1.868651664990466,0,0,1.455674609375,0,0,0.68796
1.870038721972378,0,0,1.4867992309570313,0,0,0.68796
1.8714345389744267,0,0,1.3048399047851562,0,0,0.68796
1.872822744975565,0,0,1.189918225097656,0,0,0.68796
1.8742103209951892,0,0,1.1947066284179686,0,0,0.6115200000000001
1.8756143409991637,0,0,1.149216796875,0,0,0.53508
1.8770022690005135,0,0,1.189918225097656,0,0,0.99372
1.8783898639958352,0,0,1.4796166259765624,0,0,0.45864
1.8797780689783394,0,0,1.5179238525390624,0,0,0.91728
1.8811645529931411,0,0,1.4604630126953124,0,0,0.84084
1.8825594069785438,0,0,1.2401964599609374,0,0,1.07016
1.8839482979965396,0,0,1.13006318359375,0,0,0.7644
1.8853350959834643,0,0,1.0342951171875,0,0,0.6115200000000001
1.886722301976988,0,0,0.9409212524414062,0,0,0.45864
1.8881108219793532,0,0,1.4341267944335936,0,0,1.2994800000000002
1.8894979349861387,0,0,1.484405029296875,0,0,0.68796
1.8908850669977255,0,0,1.2713210815429687,0,0,0.84084
1.892287882976234,0,0,1.3623007446289062,0,0,0.99372
1.893685329996515,0,0,1.1468225952148436,0,0,0.7644
1.8950727019982878,0,0,1.149216796875,0,0,0.91728
1.8964602229825687,0,0,1.149216796875,0,0,0.45864
1.897847316984553,0,0,1.2737152832031249,0,0,0.53508
1.8992342639830895,0,0,1.4987702392578124,0,0,0.30576000000000003
1.9006219319999218,0,0,1.5251064575195312,0,0,0.68796
1.9020093599974643,0,0,1.5466542724609373,0,0,0.84084
1.9033960849919822,0,0,1.2976572998046874,0,0,0.7644
1.9047839569975622,0,0,1.16837041015625,0,0,0.91728
1.906171310984064,0,0,1.1061211669921875,0,0,0.91728
1.9075608499988448,0,0,1.1085153686523437,0,0,0.3822
1.9089494259969797,0,0,1.0773907470703123,0,0,0.7644
1.9103366129857022,0,0,1.3958195678710936,0,0,0.91728
1.9117243189830333,0,0,1.2425906616210938,0,0,1.2230400000000001
1.9131107469729614,0,0,1.5586252807617187,0,0,0.84084
1.9144986379833426,0,0,1.197100830078125,0,0,0.91728
1.9159032319730613,0,0,1.3239935180664062,0,0,0.7644
1.9172900119738188,0,0,1.0941501586914062,0,0,0.68796
1.9186771249806043,0,0,1.209071838378906,0,0,0.53508
1.920065052981954,0,0,1.3862427612304686,0,0,0.53508
1.9214515179919545,0,0,1.5155296508789062,0,0,0.3822
1.9228384089947212,0,0,1.24498486328125,0,0,0.84084
1.9242254659766331,0,0,1.3766659545898436,0,0,0.7644
1.9256124869862106,0,0,1.24498486328125,0,0,1.07016
1.9269994149799459,0,0,1.0893617553710937,0,0,0.7644
1.9283867689955514,0,0,1.180341418457031,0,0,0.45864
1.9297741219925229,0,0,1.189918225097656,0,0,0.7644
1.931160790991271,0,0,1.4173673828125,0,0,0.15288000000000002
1.932548107986804,0,0,1.419761584472656,0,0,0.6115200000000001
1.9339351839735173,0,0,1.4437036010742186,0,0,0.84084
1.9353223709913436,0,0,1.24498486328125,0,0,0.7644
1.9367096509959083,0,0,1.2138602416992186,0,0,0.68796
1.9380971529753879,0,0,1.0342951171875,0,0,0.6115200000000001
1.9394840249733534,0,0,1.0941501586914062,0,0,0.7644
1.9410032669838984,0,0,1.2521674682617188,0,0,0.7644
1.9423960829735734,0,0,1.3287819213867187,0,0,0.68796
1.9437842519837432,0,0,1.2976572998046874,0,0,0.84084
1.9451707359985448,0,0,1.4987702392578124,0,0,0.68796
1.9465584039862733,0,0,1.1420341918945311,0,0,0.7644
1.9479459059948567,0,0,1.180341418457031,0,0,0.91728
1.9493329639954027,0,0,1.024718310546875,0,0,0.68796
1.9507206319831312,0,0,1.1133037719726562,0,0,0.45864
1.9521080229897052,0,0,1.4030021728515625,0,0,0.45864
1.9534948399814311,0,0,1.4101847778320311,0,0,0.68796
1.9548824349767528,0,0,1.2737152832031249,0,0,0.84084
1.9562696589855477,0,0,1.3814543579101561,0,0,0.7644
1.9576568649790715,0,0,1.3718775512695311,0,0,0.99372
1.9590840329765342,0,0,1.0319009155273438,0,0,0.99372
1.9604736459732521,0,0,1.0702081420898437,0,0,-9.01992
1.9618627589952666,0,0,1.1420341918945311,0,0,0.91728
1.96325001999503,0,0,1.438915197753906,0,0,0.53508
1.9646376149903517,0,0,1.407790576171875,0,0,0.6115200000000001
1.9660244869883172,0,0,1.4724340209960938,0,0,0.84084
1.967411618999904,0,0,1.2042834350585936,0,0,0.91728
1.9687992879771627,0,0,1.3383587280273437,0,0,0.91728
1.9701860859931912,0,0,1.1228805786132812,0,0,1.07016
1.9715756799851079,0,0,1.0893617553710937,0,0,0.53508
1.9729634969844483,0,0,1.2689268798828124,0,0,0.6115200000000001
1.974350369971944,0,0,1.419761584472656,0,0,0.68796
1.9757380749797449,0,0,1.2401964599609374,0,0,0.99372
1.9771247629832942,0,0,1.4413093994140624,0,0,0.7644
1.9785113199905027,0,0,1.1563994018554686,0,0,0.68796
1.9798993039876223,0,0,1.0917559570312498,0,0,0.7644
1.9812859169906005,0,0,1.0534487304687499,0,0,0.68796
1.9826728259795345,0,0,1.2234370483398436,0,0,0.68796
1.9840604389901273,0,0,1.3814543579101561,0,0,0.45864
1.985446681996109,0,0,1.3479355346679687,0,0,0.53508
1.9868333689810243,0,0,1.2330138549804688,0,0,0.99372
1.9882204819878098,0,0,1.2952630981445312,0,0,0.7644
1.9896074289863463,0,0,1.1875240234375,0,0,1.1465999999999998
1.9909945049730595,0,0,1.1013327636718748,0,0,0.7644
1.992381765972823,0,0,1.120486376953125,0,0,0.6115200000000001
1.993768601998454,0,0,1.180341418457031,0,0,0.91728
1.9951557149761356,0,0,1.455674609375,0,0,0.3822
1.9965431059827097,0,0,1.3527239379882812,0,0,0.99372
1.9979307189933024,0,0,1.5921441040039062,0,0,1.07016
1.999325886979932,0,0,1.189918225097656,0,0,0.91728
2.000707203987986,0,0,1.2401964599609374,0,0,0.91728
2.002086372987833,0,0,1.1635820068359375,0,0,0.6115200000000001
2.0034721899719443,0,0,1.0869675537109373,0,0,0.6115200000000001
2.004861617984716,0,0,1.4030021728515625,0,0,1.37592
2.0062478049949277,0,0,1.5442600708007812,0,0,0.99372
2.007634491979843,0,0,1.2401964599609374,0,0,0.68796
2.0090184199798387,0,0,1.3455413330078123,0,0,0.7644
2.010423717991216,0,0,1.1875240234375,0,0,0.84084
2.011820515996078,0,0,1.3623007446289062,0,0,0.84084
2.013202314992668,0,0,1.0797849487304687,0,0,0.53508
2.0145810569811147,0,0,1.1252747802734375,0,0,0.53508
2.0159615039883647,0,0,1.4437036010742186,0,0,0.45864
2.017340542981401,0,0,1.3910311645507811,0,0,0.84084
2.0187194899772294,0,0,1.3958195678710936,0,0,0.84084
2.020101880974835,0,0,1.1827356201171875,0,0,0.91728
2.0214806979929563,0,0,1.1755530151367186,0,0,1.1465999999999998
2.0228594959771726,0,0,1.0582371337890624,0,0,0.6115200000000001
2.0242475719715003,0,0,1.1324573852539062,0,0,0.53508
2.0256386669934727,0,0,1.139639990234375,0,0,0.7644
2.027113593998365,0,0,1.4867992309570313,0,0,0.68796
2.0285205399850383,0,0,1.4796166259765624,0,0,0.91728
2.0299076899827924,0,0,1.3934253662109375,0,0,1.07016
2.0312943029857706,0,0,1.1851298217773436,0,0,0.91728
2.0326791379775386,0,0,1.0965443603515623,0,0,0.84084
2.034063769999193,0,0,1.0797849487304687,0,0,0.6115200000000001
2.0354701049800497,0,0,1.13006318359375,0,0,0.53508
2.036861421976937,0,0,1.4341267944335936,0,0,0.6115200000000001
2.0382491089985706,0,0,1.4437036010742186,0,0,0.68796
2.0396367959911004,0,0,1.4053963745117186,0,0,0.84084
2.0410249089763965,0,0,1.3479355346679687,0,0,0.91728
2.0424149299797136,0,0,1.2138602416992186,0,0,1.1465999999999998
2.043803635984659,0,0,1.0893617553710937,0,0,0.6115200000000001
2.045216859987704,0,0,1.0342951171875,0,0,0.45864
2.047740125999553,0,0,1.22583125,0,0,0.22932
2.049129868973978,0,0,1.3670891479492187,0,0,0.6115200000000001
2.0505178149905987,0,0,1.37906015625,0,0,0.91728
2.0519065389817115,0,0,1.1947066284179686,0,0,0.7644
2.053293503995519,0,0,1.24498486328125,0,0,1.07016
2.0546807469800115,0,0,1.1755530151367186,0,0,0.7644
2.0560686189855915,0,0,1.1444283935546875,0,0,0.6115200000000001
2.0574548989825416,0,0,1.2497732666015624,0,0,0.53508
2.0588645489769988,0,0,1.455674609375,0,0,0.7644
2.0602521059918217,0,0,1.369483349609375,0,0,0.84084
2.0616928299714345,0,0,1.3910311645507811,0,0,1.07016
2.063081701984629,0,0,1.16837041015625,0,0,0.91728
2.0645618889830075,0,0,1.1707646118164061,0,0,0.7644
2.0660095749772154,0,0,1.0582371337890624,0,0,0.53508
2.0673990399809554,0,0,1.139639990234375,0,0,0.84084
2.0687875419971533,0,0,1.3862427612304686,0,0,0.68796
2.070175043976633,0,0,1.4508862060546874,0,0,0.53508
2.071563971985597,0,0,1.426944189453125,0,0,0.7644
2.072952306974912,0,0,1.2713210815429687,0,0,0.84084
2.074339919985505,0,0,1.2425906616210938,0,0,0.99372
2.075729477975983,0,0,1.2114660400390624,0,0,0.84084
2.077114627987612,0,0,1.120486376953125,0,0,0.7644
2.0785011669795495,0,0,1.1109095703125,0,0,0.45864
2.079885576997185,0,0,1.47482822265625,0,0,0.15288000000000002
2.0812643009994645,0,0,1.407790576171875,0,0,1.1465999999999998
2.082643339992501,0,0,1.4724340209960938,0,0,0.3822
2.0840306379832327,0,0,1.1923124267578125,0,0,0.7644
2.085416621994227,0,0,1.1372457885742187,0,0,0.68796
2.0868026609823573,0,0,1.1109095703125,0,0,0.99372
2.08819003298413,0,0,1.0678139404296874,0,0,0.68796
2.089576201979071,0,0,1.3718775512695311,0,0,1.07016
2.0909623519983143,0,0,1.4173673828125,0,0,0.84084
2.092368482990423,0,0,1.2521674682617188,0,0,0.68796
2.0937543559994083,0,0,1.446097802734375,0,0,0.91728
2.095140672987327,0,0,1.1755530151367186,0,0,0.68796
2.0965302669792436,0,0,1.1133037719726562,0,0,0.7644
2.0979154919914436,0,0,1.1228805786132812,0,0,0.68796
2.099301641981583,0,0,1.2401964599609374,0,0,0.45864
2.100688161997823,0,0,1.2952630981445312,0,0,0.3822
2.1020740719977766,0,0,1.5251064575195312,0,0,0.91728
2.103459906997159,0,0,1.4317325927734375,0,0,0.7644
2.1048461129830685,0,0,1.2473790649414063,0,0,0.91728
2.1062320589844603,0,0,1.180341418457031,0,0,0.91728
2.107617968984414,0,0,1.0845733520507812,0,0,0.84084
2.109019229974365,0,0,1.0726023437499999,0,0,0.6115200000000001
2.110461193980882,0,0,1.189918225097656,0,0,0.91728
2.11194113898091,0,0,1.4987702392578124,0,0,0.84084
2.1134032889967784,0,0,1.4341267944335936,0,0,0.6115200000000001
2.114839382993523,0,0,1.4796166259765624,0,0,0.84084
2.1162943839735817,0,0,1.2234370483398436,0,0,0.91728
2.1177732739888597,0,0,1.1037269653320312,0,0,0.53508
2.1193784029746894,0,0,1.0534487304687499,0,0,0.6115200000000001
2.1208933479792904,0,0,1.2785036865234374,0,0,0.91728
2.123739017988555,0,0,1.3431471313476562,0,0,0.99372
2.1252441849792376,0,0,1.5562310791015623,0,0,0.7644
2.1274138999870047,0,0,1.3192051147460937,0,0,0.91728
2.129369672999019,0,0,1.0223241088867188,0,0,0.6115200000000001
2.1307519899855834,0,0,1.2042834350585936,0,0,0.3822
2.132134472980397,0,0,1.3359645263671873,0,0,0.6115200000000001
2.133513400971424,0,0,1.47482822265625,0,0,0.6115200000000001
2.134892421978293,0,0,1.5322890624999999,0,0,0.84084
2.1362767569953576,0,0,1.455674609375,0,0,0.84084
2.1376556849863846,0,0,1.2761094848632812,0,0,1.1465999999999998
2.139049575984245,0,0,1.1659762084960936,0,0,0.68796
2.14043048597523,0,0,1.1468225952148436,0,0,0.6115200000000001
2.141809746972285,0,0,1.2832920898437499,0,0,0.3822
2.1431886929785833,0,0,1.3934253662109375,0,0,0.3822
2.1445819919754285,0,0,1.446097802734375,0,0,0.53508
2.145961696980521,0,0,1.4987702392578124,0,0,0.68796
2.147340606985381,0,0,1.3575123413085937,0,0,0.84084
2.148719867982436,0,0,1.1923124267578125,0,0,0.91728
2.1500988329935353,0,0,1.2234370483398436,0,0,0.53508
2.1514770759968087,0,0,1.1707646118164061,0,0,0.6115200000000001
2.1528578929719515,0,0,1.189918225097656,0,0,0.6115200000000001
2.154239024996059,0,0,1.3670891479492187,0,0,0.6115200000000001
2.1556193599826656,0,0,1.3958195678710936,0,0,0.99372
2.1569980289787054,0,0,1.656787548828125,0,0,0.91728
2.158376771985786,0,0,1.3407529296874998,0,0,0.7644
2.1597563669783995,0,0,1.1228805786132812,0,0,0.68796
2.1611348129808903,0,0,1.1372457885742187,0,0,0.6115200000000001
2.1625133889901917,0,0,1.209071838378906,0,0,0.53508
2.163893113989616,0,0,1.2856862915039062,0,0,0.91728
2.165271263977047,0,0,1.4867992309570313,0,0,0.53508
2.166649635997601,0,0,1.5251064575195312,0,0,0.68796
2.1680314900004305,0,0,1.5586252807617187,0,0,1.07016
2.1694102329784073,0,0,1.2018892333984375,0,0,1.07016
2.170788197981892,0,0,1.16837041015625,0,0,0.7644
2.1721681819763035,0,0,1.0366893188476562,0,0,0.91728
2.1735465539968573,0,0,1.2138602416992186,0,0,0.53508
2.1749247789848596,0,0,1.3742717529296875,0,0,1.07016
2.1763061699748505,0,0,1.4532804077148436,0,0,0.6115200000000001
2.177684430993395,0,0,1.5801730957031248,0,0,0.7644
2.1790728219784796,0,0,1.429338391113281,0,0,0.68796
2.1804635459848214,0,0,1.1516109985351561,0,0,1.07016
2.181851158995414,0,0,1.1180921752929687,0,0,0.7644
2.1832450499932747,0,0,0.9457096557617187,0,0,0.53508
2.1846324779908173,0,0,1.3335703247070312,0,0,0.6115200000000001
2.186018886975944,0,0,1.484405029296875,0,0,0.53508
2.187404925993178,0,0,1.4963760375976562,0,0,0.91728
2.1887927619973198,0,0,1.5658078857421873,0,0,0.84084
2.190179133991478,0,0,1.2497732666015624,0,0,0.84084
2.191566098976182,0,0,1.13006318359375,0,0,0.84084
2.1929603419848718,0,0,1.0917559570312498,0,0,0.6115200000000001
2.1943469179968815,0,0,1.1348515869140625,0,0,0.30576000000000003
2.1957348639843985,0,0,1.3910311645507811,0,0,0.84084
2.197120458993595,0,0,1.5514426757812498,0,0,0.6115200000000001
2.198506886983523,0,0,1.5203180541992187,0,0,0.84084
2.1998938329925295,0,0,1.5155296508789062,0,0,0.7644
2.2012793909816537,0,0,1.2378022583007813,0,0,0.84084
2.2026654859946575,0,0,1.1420341918945311,0,0,0.91728
2.2040526539785787,0,0,1.1563994018554686,0,0,0.7644
2.2054388969845604,0,0,1.0582371337890624,0,0,0.22932
2.206825546978507,0,0,1.3934253662109375,0,0,0.53508
2.208210752985906,0,0,1.465251416015625,0,0,0.84084
2.2097594749939162,0,0,1.5801730957031248,0,0,0.53508
2.211158865975449,0,0,1.429338391113281,0,0,0.91728
2.2125430529995356,0,0,1.3335703247070312,0,0,0.91728
2.2139225179853383,0,0,1.20667763671875,0,0,0.68796
2.2153013719944283,0,0,1.209071838378906,0,0,0.53508
2.216680744983023,0,0,1.3527239379882812,0,0,0.7644
2.218058801983716,0,0,1.426944189453125,0,0,0.53508
2.219448340998497,0,0,1.2713210815429687,0,0,0.7644
2.2208297319884878,0,0,1.6136919189453125,0,0,0.91728
2.222208511986537,0,0,1.3766659545898436,0,0,0.91728
2.2235901249805465,0,0,1.0821791503906248,0,0,0.84084
2.2249783869774546,0,0,1.1156979736328125,0,0,0.7644
2.226378184976056,0,0,1.1731588134765625,0,0,0.53508
2.2277667979942635,0,0,1.3718775512695311,0,0,0.84084
2.2291534479882102,0,0,1.5251064575195312,0,0,0.91728
2.2305400609911885,0,0,1.3096283081054687,0,0,0.91728
2.231928044988308,0,0,1.5203180541992187,0,0,0.7644
2.2333143429714255,0,0,1.2042834350585936,0,0,1.60524
2.234702103974996,0,0,1.180341418457031,0,0,0.91728
2.2360908839909825,0,0,1.0582371337890624,0,0,0.6115200000000001
2.2374925339827314,0,0,1.2425906616210938,0,0,0.68796
2.2388797399762552,0,0,1.3527239379882812,0,0,0.53508
2.240267759974813,0,0,1.4149731811523436,0,0,0.68796
2.241654261975782,0,0,1.5849614990234373,0,0,0.84084
2.243041189998621,0,0,1.2425906616210938,0,0,0.91728
2.24442880298011,0,0,1.2689268798828124,0,0,0.7644
2.245815878995927,0,0,1.0366893188476562,0,0,0.68796
2.2472028999764007,0,0,1.0175357055664063,0,0,0.7644
2.2485835689876694,0,0,1.3766659545898436,0,0,0.84084
2.2499615339911543,0,0,1.4532804077148436,0,0,0.68796
2.251339553971775,0,0,1.4341267944335936,0,0,0.7644
2.252727833983954,0,0,1.5083470458984374,0,0,0.99372
2.254114187991945,0,0,1.1563994018554686,0,0,0.91728
2.255500115978066,0,0,1.3718775512695311,0,0,0.99372
2.2568866919900756,0,0,1.1420341918945311,0,0,0.53508
2.2582728609850165,0,0,1.1037269653320312,0,0,0.53508
2.259673213993665,0,0,1.2952630981445312,0,0,0.7644
2.261060049990192,0,0,1.4173673828125,0,0,0.53508
2.2624462559761014,0,0,1.407790576171875,0,0,0.91728
2.263832664990332,0,0,1.3838485595703125,0,0,0.91728
2.2652187409985345,0,0,1.197100830078125,0,0,1.07016
2.266604946984444,0,0,1.1180921752929687,0,0,0.84084
2.26799189299345,0,0,1.1085153686523437,0,0,0.6115200000000001
2.2693768949829973,0,0,1.139639990234375,0,0,0.68796
2.270770804985659,0,0,1.4508862060546874,0,0,0.30576000000000003
2.2721580469806213,0,0,1.5155296508789062,0,0,0.68796
2.2735440309916157,0,0,1.5251064575195312,0,0,1.1465999999999998
2.2749301999865565,0,0,1.2114660400390624,0,0,0.84084
2.276316275994759,0,0,1.1923124267578125,0,0,0.99372
2.2777020929788705,0,0,1.1061211669921875,0,0,0.7644
2.2790891129989177,0,0,1.0941501586914062,0,0,0.45864
2.280475244973786,0,0,1.350329736328125,0,0,1.2994800000000002
2.281861190975178,0,0,1.4532804077148436,0,0,0.68796
2.2832475639879704,0,0,1.4724340209960938,0,0,0.99372
2.284634120995179,0,0,1.39821376953125,0,0,0.7644
2.2860197899863124,0,0,1.218648645019531,0,0,0.7644
2.2874059029854834,0,0,1.3096283081054687,0,0,0.7644
2.288792441977421,0,0,1.0702081420898437,0,0,0.53508
2.2901788509916514,0,0,1.120486376953125,0,0,0.6115200000000001
2.2915659089921974,0,0,1.3838485595703125,0,0,0.6115200000000001
2.2929524299979676,0,0,1.4772224243164063,0,0,0.7644
2.2943387649720535,0,0,1.3431471313476562,0,0,0.84084
2.2957375819969457,0,0,1.3766659545898436,0,0,1.1465999999999998
2.2982244589948095,0,0,1.2473790649414063,0,0,0.91728
2.2996184609946795,0,0,1.1180921752929687,0,0,0.7644
2.301011222996749,0,0,1.0989385620117187,0,0,0.53508
2.302398131985683,0,0,1.2713210815429687,0,0,0.53508
2.303785448981216,0,0,1.388636962890625,0,0,0.91728
2.3051713029854,0,0,1.4939818359375,0,0,0.99372
2.3065578789974097,0,0,1.2210428466796874,0,0,0.99372
2.3079452509991825,0,0,1.2425906616210938,0,0,1.07016
2.3093309749965556,0,0,1.2928688964843749,0,0,0.7644
2.3107172549935058,0,0,1.2282254516601563,0,0,0.68796
2.3121042019920424,0,0,1.3670891479492187,0,0,0.6115200000000001
2.31349092599703,0,0,1.4700398193359374,0,0,0.6115200000000001
2.314895945979515,0,0,1.3239935180664062,0,0,0.91728
2.3162833559908904,0,0,1.599326708984375,0,0,0.91728
2.3176694869762287,0,0,1.1468225952148436,0,0,0.91728
2.3190559709910303,0,0,1.1109095703125,0,0,0.6115200000000001
2.3204424169962294,0,0,1.149216796875,0,0,0.91728
2.321828474989161,0,0,1.2114660400390624,0,0,0.53508
2.3232152169803157,0,0,1.3407529296874998,0,0,0.7644
2.3246017939818557,0,0,1.6208745239257811,0,0,0.45864
2.3259972949745134,0,0,1.467645617675781,0,0,0.68796
2.3273881859786343,0,0,1.4053963745117186,0,0,1.07016
2.328775558999041,0,0,1.2856862915039062,0,0,1.07016
2.330168023996521,0,0,1.3096283081054687,0,0,0.7644
2.331557191995671,0,0,1.2018892333984375,0,0,0.7644
2.3329435649793595,0,0,1.2306196533203124,0,0,0.6115200000000001
2.3343295299855527,0,0,1.2473790649414063,0,0,0.0
2.335716457979288,0,0,1.2904746948242187,0,0,0.68796
2.3371028489782475,0,0,1.5155296508789062,0,0,0.84084
2.3384896279894747,0,0,1.2401964599609374,0,0,0.91728
2.3398767779872287,0,0,1.2306196533203124,0,0,0.68796
2.3412622249743436,0,0,1.216254443359375,0,0,0.84084
2.34265259699896,0,0,1.0678139404296874,0,0,0.45864
2.3443155589920934,0,0,1.3000515014648437,0,0,0.7644
2.3457180419936776,0,0,1.5203180541992187,0,0,0.6115200000000001
2.34710571100004,0,0,1.3359645263671873,0,0,0.84084
2.3484925829980057,0,0,1.4173673828125,0,0,0.7644
2.3498791409947444,0,0,1.2330138549804688,0,0,1.07016
2.351266327983467,0,0,1.2330138549804688,0,0,0.7644
2.3526531079842243,0,0,1.1156979736328125,0,0,0.7644
2.35404016499524,0,0,1.3527239379882812,0,0,0.30576000000000003
2.355446203990141,0,0,1.4413093994140624,0,0,0.45864
2.356833576981444,0,0,1.4724340209960938,0,0,0.53508
2.35822057898622,0,0,1.4245499877929686,0,0,0.84084
2.3596154139959253,0,0,1.2473790649414063,0,0,0.84084
2.361002285993891,0,0,1.1228805786132812,0,0,0.7644
2.3623891399765853,0,0,1.0271125122070313,0,0,0.99372
2.3637764009763487,0,0,1.2042834350585936,0,0,0.53508
2.3651625519851223,0,0,1.2617442749023438,0,0,0.91728
2.3665488679835107,0,0,1.4700398193359374,0,0,0.3822
2.3679357410001103,0,0,1.3120225097656248,0,0,0.84084
2.3693220209970605,0,0,1.467645617675781,0,0,0.99372
2.3707079489831813,0,0,1.1875240234375,0,0,0.7644
2.372095320984954,0,0,1.149216796875,0,0,0.99372
2.3734816189971752,0,0,1.149216796875,0,0,0.68796
2.3748679729760624,0,0,1.2042834350585936,0,0,0.68796
2.3762544199998956,0,0,1.22583125,0,0,1.1465999999999998
2.3776409399870317,0,0,1.465251416015625,0,0,0.68796
2.3790270529862028,0,0,1.2378022583007813,0,0,0.68796
2.380413332983153,0,0,1.3814543579101561,0,0,0.6115200000000001
2.381799760973081,0,0,1.209071838378906,0,0,0.6115200000000001
2.383185947983293,0,0,1.197100830078125,0,0,0.84084
2.3845725059800316,0,0,1.158793603515625,0,0,0.53508
2.3859588409832213,0,0,1.1085153686523437,0,0,0.3822
2.38734534298419,0,0,1.2880804931640624,0,0,-9.01992
2.3887337339983787,0,0,1.47482822265625,0,0,0.6115200000000001
2.3901200689724647,0,0,1.4221557861328125,0,0,0.84084
2.391506459971424,0,0,1.3215993164062498,0,0,0.84084
2.3928929809771944,0,0,1.3024457031249999,0,0,0.99372
2.394279371976154,0,0,1.1659762084960936,0,0,0.91728
2.3956671889754944,0,0,1.1180921752929687,0,0,0.6115200000000001
2.397053282998968,0,0,1.1563994018554686,0,0,0.68796
2.398439969983883,0,0,1.465251416015625,0,0,0.6115200000000001
2.3998270829906687,0,0,1.3814543579101561,0,0,0.91728
2.401212566997856,0,0,1.5107412475585937,0,0,1.07016
2.4026059759780765,0,0,1.149216796875,0,0,0.84084
2.403994033986237,0,0,1.2976572998046874,0,0,0.53508
2.4053799619723577,0,0,1.1372457885742187,0,0,0.53508
2.406765870982781,0,0,1.209071838378906,0,0,0.53508
2.4081516139849555,0,0,1.2425906616210938,0,0,0.3822
2.4095535229716916,0,0,1.35990654296875,0,0,0.45864
2.4109361179871485,0,0,1.2641384765625,0,0,0.7644
2.412349859980168,0,0,1.3000515014648437,0,0,0.68796
2.413746417994844,0,0,1.2282254516601563,0,0,0.84084
2.4151258639758453,0,0,1.2018892333984375,0,0,0.99372
2.4165212369989604,0,0,1.1276689819335937,0,0,0.6115200000000001
2.4179000909789465,0,0,1.180341418457031,0,0,0.7644
2.4192785559862386,0,0,1.2976572998046874,0,0,0.15288000000000002
2.42065848398488,0,0,1.4006079711914061,0,0,0.68796
2.4220375229779165,0,0,1.5275006591796874,0,0,0.84084
2.423424802982481,0,0,1.3263877197265623,0,0,1.07016
2.4248056009819265,0,0,1.3048399047851562,0,0,1.1465999999999998
2.426183917996241,0,0,1.16837041015625,0,0,0.84084
2.42756877199281,0,0,1.0797849487304687,0,0,0.6115200000000001
2.428948421991663,0,0,1.0845733520507812,0,0,0.84084
2.4303268129879143,0,0,1.429338391113281,0,0,0.45864
2.4317121479834896,0,0,1.3551181396484375,0,0,0.91728
2.43309972397401,0,0,1.5562310791015623,0,0,0.99372
2.434487022983376,0,0,1.2856862915039062,0,0,0.68796
2.4358750249957666,0,0,1.24498486328125,0,0,0.84084
2.4372611929720733,0,0,1.120486376953125,0,0,0.53508
2.4386486029834487,0,0,1.1827356201171875,0,0,0.3822
2.4400360859872308,0,0,1.2282254516601563,0,0,0.30576000000000003
2.4414229029789567,0,0,1.5011644409179687,0,0,0.7644
2.4428097199997865,0,0,1.4820108276367188,0,0,0.6115200000000001
2.444197054981487,0,0,1.6065093139648436,0,0,0.7644
2.445583982975222,0,0,1.1947066284179686,0,0,1.1465999999999998
2.4469788189744577,0,0,1.1085153686523437,0,0,0.7644
2.448365857999306,0,0,1.1659762084960936,0,0,0.53508
2.449752748972969,0,0,1.1707646118164061,0,0,0.68796
2.4511400099727325,0,0,1.369483349609375,0,0,0.15288000000000002
2.452527752990136,0,0,1.3096283081054687,0,0,0.99372
2.4539149399788585,0,0,1.429338391113281,0,0,0.6115200000000001
2.4553019419836346,0,0,1.1611878051757811,0,0,0.68796
2.4566889809793793,0,0,1.20667763671875,0,0,0.91728
2.4580792419728823,0,0,1.0941501586914062,0,0,0.68796
2.4594663179886993,0,0,1.1061211669921875,0,0,0.6115200000000001
2.460853450000286,0,0,1.350329736328125,0,0,1.1465999999999998
2.4622403219982516,0,0,1.5107412475585937,0,0,0.68796
2.4636287319881376,0,0,1.419761584472656,0,0,0.84084
2.465015695983311,0,0,1.6448165405273436,0,0,0.3822
2.4664028839906678,0,0,1.1516109985351561,0,0,0.7644
2.467790940980194,0,0,1.1827356201171875,0,0,0.7644
2.4691773139929865,0,0,1.1611878051757811,0,0,0.68796
2.4705641489999834,0,0,1.16837041015625,0,0,0.45864
2.4719596689974423,0,0,1.1516109985351561,0,0,0.7644
2.4733460789720993,0,0,1.4053963745117186,0,0,0.68796
2.47473267299938,0,0,1.4413093994140624,0,0,0.7644
2.476119804981863,0,0,1.656787548828125,0,0,0.91728
2.4775069179886486,0,0,1.1923124267578125,0,0,0.84084
2.47889456799021,0,0,1.0917559570312498,0,0,0.84084
2.4802815149887465,0,0,1.1133037719726562,0,0,0.68796
2.4816678869829047,0,0,1.1923124267578125,0,0,0.45864
2.4830548339814413,0,0,1.2880804931640624,0,0,0.30576000000000003
2.484442205983214,0,0,1.3862427612304686,0,0,1.1465999999999998
2.4858286709932145,0,0,1.668758557128906,0,0,0.91728
2.487215784,0,0,1.1923124267578125,0,0,1.07016
2.488603156991303,0,0,1.2497732666015624,0,0,0.7644
2.4900057689810637,0,0,1.197100830078125,0,0,0.84084
2.4913942529819906,0,0,1.1827356201171875,0,0,0.53508
2.492805068992311,0,0,1.1324573852539062,0,0,0.84084
2.4941925709717907,0,0,1.43652099609375,0,0,0.68796
2.495581109978957,0,0,1.3551181396484375,0,0,0.99372
2.4969676499895286,0,0,1.5586252807617187,0,0,0.53508
2.498354836978251,0,0,1.120486376953125,0,0,1.07016
2.4997403389716055,0,0,1.199495031738281,0,0,0.6115200000000001
2.5011180999863427,0,0,1.0510545288085937,0,0,0.53508
2.5024972689861897,0,0,1.1755530151367186,0,0,0.3822
2.5038826409727335,0,0,1.3623007446289062,0,0,0.07644000000000001
2.505269809975289,0,0,1.3575123413085937,0,0,0.6115200000000001
2.506656755984295,0,0,1.467645617675781,0,0,0.7644
2.5080444619816262,0,0,1.3814543579101561,0,0,0.91728
2.509430797974346,0,0,1.2425906616210938,0,0,0.68796
2.510817780974321,0,0,1.1252747802734375,0,0,0.68796
2.5122044309973717,0,0,1.1540052001953125,0,0,0.91728
2.513591506984085,0,0,1.3239935180664062,0,0,0.91728
2.5149787869886495,0,0,1.4532804077148436,0,0,0.6115200000000001
2.5163683819992,0,0,1.3383587280273437,0,0,1.1465999999999998
2.517755031993147,0,0,1.5418658691406248,0,0,0.91728
2.5191420709888916,0,0,1.4987702392578124,0,0,0.7644
2.5205285729898605,0,0,1.2880804931640624,0,0,0.84084
2.5219153339858167,0,0,1.1923124267578125,0,0,0.68796
2.5233027059875894,0,0,1.2114660400390624,0,0,0.6115200000000001
2.524689337995369,0,0,1.3000515014648437,0,0,0.84084
2.5260762659891043,0,0,1.4125789794921875,0,0,0.6115200000000001
2.527467304986203,0,0,1.407790576171875,0,0,-8.7906
2.528855862998171,0,0,1.5538368774414062,0,0,0.91728
2.5302530310000293,0,0,1.1420341918945311,0,0,0.84084
2.5316539029881824,0,0,1.1324573852539062,0,0,0.6115200000000001
2.5330673869757447,0,0,1.005564697265625,0,0,0.6115200000000001
2.5344649809994735,0,0,1.22583125,0,0,0.7644
2.5358558899897616,0,0,1.2473790649414063,0,0,0.15288000000000002
2.5372462259838358,0,0,1.3551181396484375,0,0,0.7644
2.538633005984593,0,0,1.5011644409179687,0,0,0.84084
2.5400208219944034,0,0,1.5035586425781249,0,0,0.7644
2.541406823991565,0,0,1.180341418457031,0,0,0.84084
2.542793825996341,0,0,1.1085153686523437,0,0,0.7644
2.544181364995893,0,0,1.1420341918945311,0,0,0.53508
2.54556801597937,0,0,1.3168109130859373,0,0,-8.71416
2.547722322982736,0,0,1.4915876342773438,0,0,0.53508
2.5491507689876016,0,0,1.5251064575195312,0,0,0.91728
2.550541752978461,0,0,1.2737152832031249,0,0,0.91728
2.551931309979409,0,0,1.1755530151367186,0,0,0.84084
2.5533164969820064,0,0,1.0319009155273438,0,0,0.84084
2.554702333000023,0,0,0.9935936889648437,0,0,0.3822
2.556091093982104,0,0,1.1276689819335937,0,0,0.91728
2.557478003000142,0,0,1.465251416015625,0,0,0.68796
2.5588644679810386,0,0,1.3718775512695311,0,0,1.07016
2.5602510259777773,0,0,1.5610194824218748,0,0,0.84084
2.561637749982765,0,0,1.1659762084960936,0,0,0.3822
2.56302362299175,0,0,1.3479355346679687,0,0,0.6115200000000001
2.564410068996949,0,0,1.0726023437499999,0,0,0.91728
2.565795459988294,0,0,1.120486376953125,0,0,0.30576000000000003
2.5671812769724056,0,0,1.3766659545898436,0,0,0.45864
2.5685673159896396,0,0,1.3910311645507811,0,0,0.6115200000000001
2.569952669990016,0,0,1.2282254516601563,0,0,0.7644
2.571338430978358,0,0,1.407790576171875,0,0,1.07016
2.5727243589935824,0,0,1.3527239379882812,0,0,0.84084
2.5741108609945513,0,0,1.0606313354492187,0,0,0.91728
2.5754971589776687,0,0,1.0965443603515623,0,0,0.68796
2.576898827974219,0,0,1.149216796875,0,0,0.84084
2.578306810988579,0,0,1.5227122558593749,0,0,0.30576000000000003
2.579696182976477,0,0,1.4772224243164063,0,0,0.45864
2.5810814449796453,0,0,1.465251416015625,0,0,0.84084
2.5824675579788163,0,0,1.218648645019531,0,0,0.91728
2.583853096992243,0,0,1.3383587280273437,0,0,0.68796
2.5852364509773906,0,0,1.0845733520507812,0,0,0.99372
2.586620452988427,0,0,1.1659762084960936,0,0,0.3822
2.5880196769721806,0,0,1.1827356201171875,0,0,0.91728
2.589416363975033,0,0,1.438915197753906,0,0,0.6115200000000001
2.5908030509890523,0,0,1.3623007446289062,0,0,1.2230400000000001
2.5921914789942093,0,0,1.4891934326171874,0,0,0.91728
2.593577073974302,0,0,1.1731588134765625,0,0,0.99372
2.5949627419759054,0,0,1.2832920898437499,0,0,0.84084
2.5963495779724326,0,0,1.1324573852539062,0,0,0.6115200000000001
2.597735579998698,0,0,1.1875240234375,0,0,0.3822
2.599121692997869,0,0,1.369483349609375,0,0,0.53508
2.6005249729787465,0,0,1.4532804077148436,0,0,0.68796
2.601911437988747,0,0,1.2737152832031249,0,0,0.6115200000000001
2.603297568974085,0,0,1.3000515014648437,0,0,0.84084
2.604748273995938,0,0,1.235408056640625,0,0,1.07016
2.606288107985165,0,0,1.0941501586914062,0,0,0.84084
2.6077408869750798,0,0,1.1755530151367186,0,0,0.68796
2.609181832987815,0,0,1.3527239379882812,0,0,0.84084
2.610641573992325,0,0,1.4173673828125,0,0,0.45864
2.6120700199971907,0,0,1.5418658691406248,0,0,0.68796
2.6134501889755484,0,0,1.467645617675781,0,0,0.99372
2.6148291909776162,0,0,1.1875240234375,0,0,0.68796
2.6162209149915725,0,0,1.1875240234375,0,0,0.99372
2.617607713997131,0,0,1.139639990234375,0,0,0.6115200000000001
2.6189953819848597,0,0,1.180341418457031,0,0,0.53508
2.620377995976014,0,0,1.4006079711914061,0,0,0.45864
2.6217562569945585,0,0,1.4867992309570313,0,0,0.68796
2.6231465179880615,0,0,1.5873557006835937,0,0,0.68796
2.6245392239943612,0,0,1.407790576171875,0,0,0.84084
2.625926595996134,0,0,1.3024457031249999,0,0,1.07016
2.627313819975825,0,0,1.2138602416992186,0,0,0.84084
2.62869497097563,0,0,1.1324573852539062,0,0,0.7644
2.630073212989373,0,0,1.2593500732421874,0,0,0.84084
2.631451641995227,0,0,1.4437036010742186,0,0,0.22932
2.632838957972126,0,0,1.3431471313476562,0,0,0.84084
2.6342251089808997,0,0,1.6065093139648436,0,0,0.84084
2.635612998972647,0,0,1.3239935180664062,0,0,0.84084
2.6370053899881896,0,0,1.1468225952148436,0,0,0.91728
2.638392651977483,0,0,1.0630255371093749,0,0,1.1465999999999998
2.6397802279971074,0,0,1.2856862915039062,0,0,0.68796
2.6411659149744082,0,0,1.3479355346679687,0,0,0.84084
2.642552434990648,0,0,1.5035586425781249,0,0,0.7644
2.643939473986393,0,0,1.369483349609375,0,0,0.53508
2.6454524559958372,0,0,1.4796166259765624,0,0,0.99372
2.6468746249738615,0,0,1.0941501586914062,0,0,0.84084
2.6482821999816224,0,0,1.177947216796875,0,0,0.84084
2.6496702209988143,0,0,1.218648645019531,0,0,0.91728
2.6510573529812973,0,0,1.3072341064453123,0,0,0.45864
2.652444557985291,0,0,1.3862427612304686,0,0,0.15288000000000002
2.6538441339798737,0,0,1.4939818359375,0,0,0.53508
2.6552312099956907,0,0,1.5298948608398437,0,0,0.91728
2.656617637985619,0,0,1.3192051147460937,0,0,0.99372
2.658004306984367,0,0,1.2401964599609374,0,0,0.99372
2.6593904019973706,0,0,1.0917559570312498,0,0,0.84084
2.660776440985501,0,0,1.158793603515625,0,0,0.53508
2.6621625349798705,0,0,1.3838485595703125,0,0,1.07016
2.663574369973503,0,0,1.438915197753906,0,0,0.6115200000000001
2.6649623719858937,0,0,1.4700398193359374,0,0,1.1465999999999998
2.6663581149769016,0,0,1.5586252807617187,0,0,0.68796
2.667745690996526,0,0,1.3646949462890625,0,0,0.91728
2.669132359995274,0,0,1.1109095703125,0,0,0.6115200000000001
2.670518157974584,0,0,1.0845733520507812,0,0,0.7644
2.671905289986171,0,0,1.1085153686523437,0,0,0.45864
2.673290365986759,0,0,1.3000515014648437,0,0,0.30576000000000003
2.6746763679839205,0,0,1.5298948608398437,0,0,0.68796
2.6760633699886966,0,0,1.5107412475585937,0,0,0.68796
2.6774492239928804,0,0,1.455674609375,0,0,0.84084
2.6788351519790012,0,0,1.2521674682617188,0,0,0.99372
2.6802213759801816,0,0,1.1611878051757811,0,0,0.7644
2.6816073219815735,0,0,1.1516109985351561,0,0,0.84084
2.6829927869839594,0,0,1.22583125,0,0,0.7644
2.68437760398956,0,0,1.4245499877929686,0,0,0.45864
2.685760976979509,0,0,1.4030021728515625,0,0,0.68796
2.6871443309937604,0,0,1.5586252807617187,0,0,0.91728
2.68862829398131,0,0,1.2497732666015624,0,0,0.99372
2.690015018975828,0,0,1.3072341064453123,0,0,0.84084
2.6914008719904814,0,0,1.197100830078125,0,0,0.7644
2.6927873749809805,0,0,1.1420341918945311,0,0,0.7644
2.694173598982161,0,0,1.2689268798828124,0,0,0.99372
2.695560766995186,0,0,1.4221557861328125,0,0,0.6115200000000001
2.696946787997149,0,0,1.5514426757812498,0,0,0.7644
2.698332511994522,0,0,1.5227122558593749,0,0,0.84084
2.6997195879812352,0,0,1.2401964599609374,0,0,0.84084
2.7011047569976654,0,0,1.209071838378906,0,0,0.91728
2.702490369993029,0,0,1.180341418457031,0,0,0.99372
2.7038769829960074,0,0,1.1013327636718748,0,0,0.6115200000000001
2.705262244999176,0,0,1.39821376953125,0,0,0.07644000000000001
2.706657949980581,0,0,1.5179238525390624,0,0,0.53508
2.708045155974105,0,0,1.5035586425781249,0,0,0.7644
2.7094308989762794,0,0,1.2952630981445312,0,0,-9.01992
2.710825363988988,0,0,1.2114660400390624,0,0,0.84084
2.7122195879928768,0,0,1.0989385620117187,0,0,0.6115200000000001
2.7136067189858295,0,0,1.1611878051757811,0,0,0.6115200000000001
2.714992776978761,0,0,1.3048399047851562,0,0,0.7644
2.7163787049939856,0,0,1.455674609375,0,0,0.7644
2.717764521978097,0,0,1.3910311645507811,0,0,1.07016
2.719150134973461,0,0,1.6304513305664061,0,0,0.99372
2.720536025997717,0,0,1.3575123413085937,0,0,0.84084
2.7219217679812573,0,0,1.177947216796875,0,0,0.68796
2.723307695996482,0,0,1.1851298217773436,0,0,0.6115200000000001
2.724693068972556,0,0,1.0965443603515623,0,0,0.68796
2.7260782749799546,0,0,1.4413093994140624,0,0,0.6115200000000001
2.7274640539835673,0,0,1.5275006591796874,0,0,0.6115200000000001
2.7288499269925524,0,0,1.2282254516601563,0,0,0.7644
2.730234891991131,0,0,1.4245499877929686,0,0,0.91728
2.7316216719918884,0,0,1.2042834350585936,0,0,0.99372
2.7330076369980816,0,0,1.209071838378906,0,0,0.7644
2.734393082995666,0,0,1.1635820068359375,0,0,0.53508
2.735779417998856,0,0,1.120486376953125,0,0,0.7644
2.737164569000015,0,0,1.4628572143554686,0,0,0.15288000000000002
2.738550496986136,0,0,1.484405029296875,0,0,0.84084
2.7399371279752813,0,0,1.5849614990234373,0,0,0.91728
2.7413227039796766,0,0,1.2928688964843749,0,0,0.99372
2.7427082249778323,0,0,1.3527239379882812,0,0,0.84084
2.744094707974,0,0,1.0797849487304687,0,0,0.6115200000000001
2.745480265992228,0,0,1.1348515869140625,0,0,0.6115200000000001
2.7468656379787717,0,0,1.0726023437499999,0,0,0.99372
2.748327305977,0,0,1.3527239379882812,0,0,0.7644
2.749727066984633,0,0,1.350329736328125,0,0,0.84084
2.7511067359882873,0,0,1.455674609375,0,0,0.7644
2.752489089994924,0,0,1.1851298217773436,0,0,0.84084
2.753877480980009,0,0,1.0414777221679687,0,0,0.7644
2.7552567979728337,0,0,1.0127473022460938,0,0,0.91728
2.7566370589775033,0,0,1.0462661254882812,0,0,0.3822
2.7580155429895967,0,0,1.438915197753906,0,0,0.53508
2.759394007996889,0,0,1.4867992309570313,0,0,0.7644
2.760773657995742,0,0,1.22583125,0,0,0.53508
2.7621521599940024,0,0,1.3096283081054687,0,0,0.68796
2.7635309959878214,0,0,1.2114660400390624,0,0,0.91728
2.7649274049908854,0,0,1.180341418457031,0,0,0.84084
2.7663135179900564,0,0,1.1061211669921875,0,0,0.7644
2.7677001309930347,0,0,1.1731588134765625,0,0,0.3822
2.7690847999765538,0,0,1.47482822265625,0,0,0.15288000000000002
2.770565152983181,0,0,1.455674609375,0,0,0.99372
2.771960357989883,0,0,1.5418658691406248,0,0,0.7644
2.773344618995907,0,0,1.2306196533203124,0,0,0.7644
2.7747304549848195,0,0,1.1659762084960936,0,0,0.68796
2.7761167159769684,0,0,1.1348515869140625,0,0,0.7644
2.7775022919813637,0,0,1.0726023437499999,0,0,0.53508
2.778887867985759,0,0,1.3646949462890625,0,0,0.99372
2.7802741849736776,0,0,1.5035586425781249,0,0,0.7644
2.7816598169738427,0,0,1.4221557861328125,0,0,0.45864
2.7830457449890673,0,0,1.458068811035156,0,0,0.84084
2.7844303389720153,0,0,1.0845733520507812,0,0,0.91728
2.7858154339774046,0,0,1.2114660400390624,0,0,0.91728
2.7871993989974726,0,0,1.1252747802734375,0,0,0.30576000000000003
2.7886011969821993,0,0,1.1085153686523437,0,0,0.22932
2.7899880509939976,0,0,1.4221557861328125,0,0,0.15288000000000002
2.791374904976692,0,0,1.3814543579101561,0,0,0.68796
2.7927688699855935,0,0,1.2832920898437499,0,0,0.68796
2.7941567609959748,0,0,1.3407529296874998,0,0,0.91728
2.795561335980892,0,0,1.2713210815429687,0,0,0.68796
2.7969620419899,0,0,1.0271125122070313,0,0,0.6115200000000001
2.798455023992574,0,0,1.0438719238281249,0,0,0.45864
2.7998592109943274,0,0,1.3862427612304686,0,0,1.1465999999999998
2.8012425839842763,0,0,1.4963760375976562,0,0,0.45864
2.8026290489942767,0,0,1.2425906616210938,0,0,0.84084
2.8040169209998567,0,0,1.4341267944335936,0,0,0.99372
2.8054029229970183,0,0,1.20667763671875,0,0,1.07016
2.8067897579749115,0,0,1.139639990234375,0,0,0.7644
2.808177037979476,0,0,1.1348515869140625,0,0,0.91728
2.809563855000306,0,0,1.1061211669921875,0,0,0.6115200000000001
2.810957449983107,0,0,1.35990654296875,0,0,0.53508
2.812349062995054,0,0,1.4317325927734375,0,0,0.6115200000000001
2.81373582399101,0,0,1.2689268798828124,0,0,0.7644
2.8151226219779346,0,0,1.3431471313476562,0,0,0.91728
2.816504994989373,0,0,1.0749965454101562,0,0,0.84084
2.817882662988268,0,0,1.1348515869140625,0,0,0.7644
2.819260868971469,0,0,1.1109095703125,0,0,0.6115200000000001
2.8206519079976715,0,0,1.1827356201171875,0,0,0.68796
2.822038446989609,0,0,1.448492004394531,0,0,0.53508
2.8234410969889723,0,0,1.455674609375,0,0,0.6115200000000001
2.8248283959983382,0,0,1.5873557006835937,0,0,0.91728
2.826214860979235,0,0,1.2928688964843749,0,0,0.91728
2.827615343994694,0,0,1.1444283935546875,0,0,0.7644
2.8290039569837973,0,0,1.0989385620117187,0,0,0.7644
2.830390773975523,0,0,1.20667763671875,0,0,0.68796
2.8317787569831125,0,0,1.3766659545898436,0,0,0.68796
2.833166758995503,0,0,1.4939818359375,0,0,0.45864
2.834553168999264,0,0,1.5227122558593749,0,0,0.91728
2.8359407629759517,0,0,1.4125789794921875,0,0,0.7644
2.8373264509718865,0,0,1.0749965454101562,0,0,0.99372
2.8387126379820984,0,0,1.2737152832031249,0,0,0.84084
2.840099750988884,0,0,1.0438719238281249,0,0,0.7644
2.841495289991144,0,0,1.2785036865234374,0,0,0.6115200000000001
2.8428824579750653,0,0,1.4221557861328125,0,0,0.30576000000000003
2.844269572000485,0,0,1.429338391113281,0,0,0.6115200000000001
2.845656332996441,0,0,1.2330138549804688,0,0,0.6115200000000001
2.8470429649751168,0,0,1.3958195678710936,0,0,0.91728
2.848430058977101,0,0,1.1037269653320312,0,0,1.07016
2.8498164319898933,0,0,1.1037269653320312,0,0,0.91728
2.8512033779988997,0,0,1.1348515869140625,0,0,0.68796
2.8525835469772574,0,0,1.1923124267578125,0,0,0.84084
2.8539613819739316,0,0,1.4173673828125,0,0,0.3822
2.8553407919825986,0,0,1.1947066284179686,0,0,0.84084
2.856728070997633,0,0,1.4413093994140624,0,0,0.91728
2.8581135919957887,0,0,1.13006318359375,0,0,0.91728
2.8594995759776793,0,0,1.149216796875,0,0,0.91728
2.860885354981292,0,0,1.0558429321289062,0,0,0.6115200000000001
2.862271042977227,0,0,1.0510545288085937,0,0,0.3822
2.863668340985896,0,0,1.218648645019531,0,0,0.7644
2.8650549539888743,0,0,1.5658078857421873,0,0,0.91728
2.866440399986459,0,0,1.4053963745117186,0,0,0.84084
2.8678261429886334,0,0,1.3359645263671873,0,0,0.91728
2.8692117749887984,0,0,1.209071838378906,0,0,0.84084
2.870597054978134,0,0,1.3287819213867187,0,0,0.84084
2.8719837419921532,0,0,1.0295067138671874,0,0,0.84084
2.873368465981912,0,0,1.1156979736328125,0,0,0.45864
2.87475402400014,0,0,1.4867992309570313,0,0,0.22932
2.8761397109774407,0,0,1.4628572143554686,0,0,0.68796
2.8775253979838453,0,0,1.5155296508789062,0,0,0.6115200000000001
2.878911714971764,0,0,1.235408056640625,0,0,0.84084
2.8802980129839852,0,0,1.2018892333984375,0,0,0.84084
2.8816939599928446,0,0,1.1707646118164061,0,0,0.7644
2.8830798319831956,0,0,1.180341418457031,0,0,0.68796
2.884464314993238,0,0,1.3287819213867187,0,0,1.1465999999999998
2.885855353990337,0,0,1.5251064575195312,0,0,0.53508
2.8872391339973547,0,0,1.2689268798828124,0,0,0.68796
2.8886390989937354,0,0,1.6639701538085936,0,0,1.07016
2.890026526991278,0,0,1.24498486328125,0,0,0.7644
2.8914123809954617,0,0,1.3335703247070312,0,0,0.7644
2.8927984009787906,0,0,1.1348515869140625,0,0,0.7644
2.8941848109825514,0,0,1.1085153686523437,0,0,0.6115200000000001
2.8955706829729024,0,0,1.177947216796875,0,0,0.68796
2.896956462995149,0,0,1.3814543579101561,0,0,0.7644
2.898342538974248,0,0,1.47482822265625,0,0,0.6115200000000001
2.8997290970000904,0,0,1.3144167114257812,0,0,0.84084
2.9011143389798235,0,0,1.149216796875,0,0,0.91728
2.9025002119888086,0,0,1.16837041015625,0,0,0.7644
2.903886509971926,0,0,1.2018892333984375,0,0,0.91728
2.9052713829732966,0,0,1.177947216796875,0,0,0.07644000000000001
2.906656810984714,0,0,1.4341267944335936,0,0,0.30576000000000003
2.9080427199951373,0,0,1.3670891479492187,0,0,0.68796
2.909441239986336,0,0,1.369483349609375,0,0,0.6115200000000001
2.9108286679838784,0,0,1.2114660400390624,0,0,0.7644
2.9122113369812723,0,0,1.3431471313476562,0,0,1.07016
2.913589838979533,0,0,1.0845733520507812,0,0,0.84084
2.91496789699886,0,0,1.1013327636718748,0,0,0.84084
2.9174035719770472,0,0,1.5083470458984374,0,0,0.53508
2.918789998977445,0,0,1.407790576171875,0,0,0.91728
2.920176408981206,0,0,1.5179238525390624,0,0,1.07016
2.92167429899564,0,0,1.1875240234375,0,0,0.99372
2.9230648929951712,0,0,1.2856862915039062,0,0,0.91728
2.924452172999736,0,0,1.1156979736328125,0,0,0.6115200000000001
2.9258376749930903,0,0,1.1540052001953125,0,0,0.6115200000000001
2.927223694976419,0,0,1.2282254516601563,0,0,0.99372
2.92861010498018,0,0,1.4628572143554686,0,0,0.68796
2.9300170879869256,0,0,1.37906015625,0,0,0.91728
2.931403626978863,0,0,1.6519991455078125,0,0,0.84084
2.9327907219994813,0,0,1.1755530151367186,0,0,0.6115200000000001
2.934176389971981,0,0,1.1947066284179686,0,0,0.7644
2.9355635219835676,0,0,1.0654197387695312,0,0,0.6115200000000001
2.9369494689744897,0,0,1.158793603515625,0,0,0.6115200000000001
2.938335210987134,0,0,1.3742717529296875,0,0,0.45864
2.9397217869991437,0,0,1.3551181396484375,0,0,0.7644
2.941115548979724,0,0,1.4939818359375,0,0,0.84084
2.942501938989153,0,0,1.5179238525390624,0,0,0.7644
2.943888737994712,0,0,1.24498486328125,0,0,1.07016
2.9452737949904986,0,0,1.0821791503906248,0,0,0.91728
2.9466599829902407,0,0,1.1252747802734375,0,0,0.6115200000000001
2.94804642899544,0,0,1.1923124267578125,0,0,0.6115200000000001
2.949431763991015,0,0,1.2761094848632812,0,0,0.53508
2.950817637,0,0,1.3718775512695311,0,0,0.91728
2.952203323977301,0,0,1.6041151123046875,0,0,0.84084
2.953588584990939,0,0,1.2282254516601563,0,0,0.84084
2.954974679974839,0,0,1.2569558715820313,0,0,0.68796
2.9563606629963033,0,0,1.1707646118164061,0,0,0.68796
2.957746313972166,0,0,1.1635820068359375,0,0,0.53508
2.9591320749896113,0,0,1.2952630981445312,0,0,0.7644
2.960517761996016,0,0,1.438915197753906,0,0,0.68796
2.961903226998402,0,0,1.438915197753906,0,0,0.68796
2.9632891549845226,0,0,1.4508862060546874,0,0,0.91728
2.964675063994946,0,0,1.1180921752929687,0,0,0.99372
2.9660612329898868,0,0,1.1324573852539062,0,0,0.84084
2.9674470869940706,0,0,1.1348515869140625,0,0,0.30576000000000003
2.968832921993453,0,0,1.2880804931640624,0,0,0.53508
2.9702185909845866,0,0,1.3431471313476562,0,0,0.45864
2.971621407981729,0,0,1.438915197753906,0,0,0.84084
2.973007409978891,0,0,1.4772224243164063,0,0,0.6115200000000001
2.974400503997458,0,0,1.4963760375976562,0,0,0.7644
2.975787061994197,0,0,1.1731588134765625,0,0,0.91728
2.9771721749857534,0,0,1.2042834350585936,0,0,0.7644
2.9785579549788963,0,0,1.1516109985351561,0,0,0.68796
2.9799446239776444,0,0,1.20667763671875,0,0,0.91728
2.981329680973431,0,0,1.3000515014648437,0,0,0.84084
2.982714997982839,0,0,1.4341267944335936,0,0,0.99372
2.984100073983427,0,0,1.6065093139648436,0,0,0.84084
2.985483612981625,0,0,1.2952630981445312,0,0,1.1465999999999998
2.986867114988854,0,0,1.2425906616210938,0,0,0.68796
2.988263894978445,0,0,1.1707646118164061,0,0,0.53508
2.9896501559996977,0,0,1.1252747802734375,0,0,0.45864
2.9910417139763013,0,0,1.2641384765625,0,0,0.68796
2.9924274749937467,0,0,1.5107412475585937,0,0,0.68796
2.993813365988899,0,0,1.4891934326171874,0,0,0.68796
2.995199072000105,0,0,1.5035586425781249,0,0,0.6115200000000001
2.9965847589774057,0,0,1.2234370483398436,0,0,1.1465999999999998
2.997970982978586,0,0,1.180341418457031,0,0,0.53508
2.9993654849822633,0,0,1.1707646118164061,0,0,0.68796
3.000751430983655,0,0,1.2665326782226562,0,0,0.68796
3.0021373409836087,0,0,1.43652099609375,0,0,0.0
3.0035231759829912,0,0,1.3934253662109375,0,0,0.84084
3.004909585986752,0,0,1.5729904907226562,0,0,0.68796
3.006295513972873,0,0,1.2306196533203124,0,0,0.7644
3.00768123799935,0,0,1.2713210815429687,0,0,0.84084
3.009066091995919,0,0,1.180341418457031,0,0,0.3822
3.010455796989845,0,0,1.1037269653320312,0,0,0.6115200000000001
3.0118520399846602,0,0,1.2617442749023438,0,0,0.53508
3.0132450419769157,0,0,1.4772224243164063,0,0,0.7644
3.0146321179927327,0,0,1.4867992309570313,0,0,0.84084
3.0160152679891326,0,0,1.6136919189453125,0,0,0.7644
3.017407066974556,0,0,1.3000515014648437,0,0,0.7644
3.018787049979437,0,0,1.1420341918945311,0,0,0.6115200000000001
3.020174181991024,0,0,0.9888052856445312,0,0,0.68796
3.0215603319811635,0,0,1.2665326782226562,0,0,0.30576000000000003
3.022946333978325,0,0,1.3838485595703125,0,0,0.6115200000000001
3.0243318539869506,0,0,1.4437036010742186,0,0,0.7644
3.025726448977366,0,0,1.5873557006835937,0,0,0.68796
3.027126765984576,0,0,1.3934253662109375,0,0,0.68796
3.0285445079789497,0,0,1.22583125,0,0,1.1465999999999998
3.02993232497829,0,0,1.1276689819335937,0,0,0.6115200000000001
3.0313191049790476,0,0,1.1180921752929687,0,0,0.68796
3.032700235984521,0,0,1.3263877197265623,0,0,0.53508
3.0340788309986237,0,0,1.4173673828125,0,0,0.30576000000000003
3.035456888988847,0,0,1.4125789794921875,0,0,0.68796
3.0368456129799597,0,0,1.5897499023437498,0,0,0.84084
3.038231688988162,0,0,1.3670891479492187,0,0,0.99372
3.0396177469810937,0,0,1.197100830078125,0,0,1.07016
3.0410038599802647,0,0,1.13006318359375,0,0,0.7644
3.0423892319959123,0,0,1.1923124267578125,0,0,0.3822
3.0437762159854174,0,0,1.2808978881835937,0,0,1.07016
3.0451614579942543,0,0,1.438915197753906,0,0,-9.01992
3.0465496459801216,0,0,1.4939818359375,0,0,0.7644
3.0479881840001326,0,0,1.4724340209960938,0,0,0.7644
3.049431036983151,0,0,1.0893617553710937,0,0,0.53508
3.0508197429880966,0,0,1.1731588134765625,0,0,0.6115200000000001
3.052207466971595,0,0,1.120486376953125,0,0,0.84084
3.0535940429836046,0,0,1.2641384765625,0,0,0.6115200000000001
3.0549796559789684,0,0,1.3407529296874998,0,0,0.45864
3.0563656209851615,0,0,1.455674609375,0,0,0.84084
3.057773141976213,0,0,1.5801730957031248,0,0,0.84084
3.0591591439733747,0,0,1.3239935180664062,0,0,1.07016
3.0605452199815772,0,0,1.1540052001953125,0,0,0.99372
3.061939202976646,0,0,1.216254443359375,0,0,0.7644
3.063325945986435,0,0,1.1563994018554686,0,0,0.6115200000000001
3.0647121889924165,0,0,1.2928688964843749,0,0,0.99372
3.0660987089795526,0,0,1.22583125,0,0,0.6115200000000001
3.0674844709865283,0,0,1.4006079711914061,0,0,0.7644
3.068870953982696,0,0,1.5658078857421873,0,0,0.91728
3.070257214974845,0,0,1.2378022583007813,0,0,0.84084
3.0716448839812074,0,0,1.1516109985351561,0,0,0.6115200000000001
3.073031422973145,0,0,1.1037269653320312,0,0,0.84084
3.074417461990379,0,0,1.20667763671875,0,0,0.53508
3.075804945983691,0,0,1.3766659545898436,0,0,0.53508
3.077189206989715,0,0,1.5203180541992187,0,0,0.84084
3.0785752089868765,0,0,1.5586252807617187,0,0,0.6115200000000001
3.0799625809886493,0,0,1.4173673828125,0,0,0.84084
3.081348360981792,0,0,1.0965443603515623,0,0,0.7644
3.08273373299744,0,0,1.1755530151367186,0,0,0.7644
3.0841181429859716,0,0,0.9624690673828125,0,0,0.6115200000000001
3.085501718975138,0,0,1.3168109130859373,0,0,0.6115200000000001
3.0868852029962,0,0,1.429338391113281,0,0,0.15288000000000002
3.0882847039902117,0,0,1.5298948608398437,0,0,0.53508
3.0896711879759096,0,0,1.5322890624999999,0,0,0.99372
3.0910570419800933,0,0,1.2593500732421874,0,0,1.2230400000000001
3.092450154974358,0,0,1.1659762084960936,0,0,0.7644
3.0938361199805513,0,0,1.0510545288085937,0,0,0.7644
3.0952223259955645,0,0,1.0749965454101562,0,0,0.6115200000000001
3.096608104999177,0,0,1.3742717529296875,0,0,0.91728
3.0979935149953235,0,0,1.4245499877929686,0,0,0.53508
3.0993788869818673,0,0,1.5610194824218748,0,0,0.84084
3.100764573988272,0,0,1.5705962890624998,0,0,0.91728
3.1021501689974684,0,0,1.1372457885742187,0,0,0.6115200000000001
3.1035355599888135,0,0,1.1875240234375,0,0,0.91728
3.1049356169824023,0,0,1.1563994018554686,0,0,0.6115200000000001
3.1063300269888714,0,0,1.1947066284179686,0,0,0.68796
3.1077206209884025,0,0,1.3551181396484375,0,0,0.22932
3.109106993972091,0,0,1.4508862060546874,0,0,0.68796
3.110492791980505,0,0,1.5945383056640625,0,0,0.84084
3.111879052972654,0,0,1.3742717529296875,0,0,0.7644
3.113283499988029,0,0,1.3024457031249999,0,0,0.7644
3.114669408998452,0,0,1.0510545288085937,0,0,0.6115200000000001
3.116065317997709,0,0,1.13006318359375,0,0,0.84084
3.1174512459838297,0,0,1.37906015625,0,0,0.91728
3.11883728497196,0,0,1.4939818359375,0,0,0.22932
3.1202230469789356,0,0,1.4437036010742186,0,0,0.91728
3.121609122987138,0,0,1.5873557006835937,0,0,0.91728
3.1229947729734704,0,0,1.199495031738281,0,0,0.7644
3.1243804789846763,0,0,1.13006318359375,0,0,0.7644
3.1257667029858567,0,0,1.024718310546875,0,0,0.91728
3.127152519999072,0,0,1.149216796875,0,0,0.68796
3.128538002987625,0,0,1.2952630981445312,0,0,1.1465999999999998
3.1299235049809795,0,0,1.5107412475585937,0,0,0.6115200000000001
3.131308914977126,0,0,1.2401964599609374,0,0,0.6115200000000001
3.13269465698977,0,0,1.5059528442382812,0,0,1.07016
3.134080270974664,0,0,1.209071838378906,0,0,0.99372
3.1354660319921095,0,0,1.120486376953125,0,0,0.91728
3.1368517379742116,0,0,1.0797849487304687,0,0,0.84084
3.1382376099936664,0,0,1.16837041015625,0,0,0.30576000000000003
3.1396243529743515,0,0,1.3910311645507811,0,0,0.0
3.1410098359920084,0,0,1.4724340209960938,0,0,0.7644
3.142395115981344,0,0,1.6041151123046875,0,0,1.07016
3.1437818399863318,0,0,1.3144167114257812,0,0,0.91728
3.1451671019895002,0,0,1.2018892333984375,0,0,0.91728
3.146552399994107,0,0,1.1061211669921875,0,0,0.84084
3.1479388649750035,0,0,1.1468225952148436,0,0,0.6115200000000001
3.1493313669925556,0,0,1.2928688964843749,0,0,1.1465999999999998
3.1507170909899287,0,0,1.3862427612304686,0,0,0.3822
3.152103388973046,0,0,1.3215993164062498,0,0,1.07016
3.1534888169844635,0,0,1.6041151123046875,0,0,0.84084
3.1548742639715783,0,0,1.3311761230468748,0,0,0.84084
3.1562599139870144,0,0,1.3311761230468748,0,0,0.84084
3.157645582978148,0,0,1.0534487304687499,0,0,0.68796
3.159031213988783,0,0,1.1923124267578125,0,0,0.45864
3.160417160979705,0,0,1.4317325927734375,0,0,0.22932
3.16180297799292,0,0,1.4508862060546874,0,0,0.68796
3.163188664999325,0,0,1.2856862915039062,0,0,0.84084
3.1645744819834363,0,0,1.3623007446289062,0,0,0.84084
3.165959761972772,0,0,1.2569558715820313,0,0,0.91728
3.1673455409763847,0,0,1.20667763671875,0,0,0.84084
3.1687310619745404,0,0,1.1635820068359375,0,0,0.6115200000000001
3.1701164899859577,0,0,1.1468225952148436,0,0,0.3822
3.171502454992151,0,0,1.426944189453125,0,0,0.53508
3.1728884379845113,0,0,1.388636962890625,0,0,0.6115200000000001
3.174280995997833,0,0,1.5035586425781249,0,0,0.68796
3.1756674789940007,0,0,1.2330138549804688,0,0,0.91728
3.177052814979106,0,0,1.20667763671875,0,0,0.91728
3.1784382239857223,0,0,1.1420341918945311,0,0,0.84084
3.1798248929844704,0,0,1.1444283935546875,0,0,0.6115200000000001
3.181209709990071,0,0,1.3742717529296875,0,0,1.07016
3.1825952859944664,0,0,1.47482822265625,0,0,0.84084
3.183980546979001,0,0,1.4173673828125,0,0,0.68796
3.1853638449974824,0,0,1.4628572143554686,0,0,0.6115200000000001
3.186752772977343,0,0,1.2282254516601563,0,0,0.91728
3.188166978972731,0,0,1.3359645263671873,0,0,0.6115200000000001
3.1895532209891826,0,0,1.1420341918945311,0,0,0.99372
3.190939352993155,0,0,1.2593500732421874,0,0,0.6115200000000001
3.1923331699799746,0,0,1.3287819213867187,0,0,0.45864
3.1937189499731176,0,0,1.3910311645507811,0,0,0.7644
3.195104525977513,0,0,1.4101847778320311,0,0,0.91728
3.196490805974463,0,0,1.2665326782226562,0,0,0.84084
3.197876270976849,0,0,1.177947216796875,0,0,0.84084
3.1992621239915024,0,0,1.1468225952148436,0,0,0.91728
3.2006479779956862,0,0,1.0989385620117187,0,0,0.3822
3.202033516980009,0,0,1.2138602416992186,0,0,1.2230400000000001
3.203419555997243,0,0,1.4413093994140624,0,0,0.53508
3.2048049659933895,0,0,1.2689268798828124,0,0,0.84084
3.206190319993766,0,0,1.455674609375,0,0,0.68796
3.2075766739726532,0,0,1.1875240234375,0,0,0.7644
3.208962471981067,0,0,1.1420341918945311,0,0,0.68796
3.2103479739744216,0,0,1.0749965454101562,0,0,0.6115200000000001
3.21174562399392,0,0,1.0510545288085937,0,0,0.45864
3.213131736993091,0,0,1.2330138549804688,0,0,0.84084
3.2145177759812213,0,0,1.43652099609375,0,0,0.84084
3.2159012779884506,0,0,1.2521674682617188,0,0,1.07016
3.2172795579826925,0,0,1.3814543579101561,0,0,0.6115200000000001
3.218657819990767,0,0,1.1516109985351561,0,0,0.99372
3.2200430989905726,0,0,1.216254443359375,0,0,0.99372
3.221431637997739,0,0,1.0223241088867188,0,0,0.7644
3.2228169919981156,0,0,1.1372457885742187,0,0,0.45864
3.224202660989249,0,0,1.3670891479492187,0,0,0.68796
3.2255881629826035,0,0,1.4317325927734375,0,0,0.68796
3.226973608980188,0,0,1.407790576171875,0,0,0.91728
3.2283588519785553,0,0,1.1707646118164061,0,0,0.7644
3.229744446987752,0,0,1.2234370483398436,0,0,1.2230400000000001
3.2311293379752897,0,0,1.20667763671875,0,0,0.53508
3.2325266729749274,0,0,1.1372457885742187,0,0,0.6115200000000001
3.2339123049750924,0,0,1.2521674682617188,0,0,1.07016
3.235298861982301,0,0,1.4437036010742186,0,0,0.6115200000000001
3.236690882971743,0,0,1.3623007446289062,0,0,0.91728
3.2380770509771537,0,0,1.6256629272460936,0,0,0.68796
3.2394625159795396,0,0,1.1468225952148436,0,0,1.1465999999999998
3.2408476669806987,0,0,1.0869675537109373,0,0,0.7644
3.242233408993343,0,0,1.0630255371093749,0,0,0.6115200000000001
3.2436201889941003,0,0,1.1659762084960936,0,0,0.6115200000000001
3.245005468983436,0,0,1.2761094848632812,0,0,0.68796
3.246391118998872,0,0,1.4341267944335936,0,0,0.68796
3.2477769919787534,0,0,1.4341267944335936,0,0,0.6115200000000001
3.249161733983783,0,0,1.5514426757812498,0,0,0.6115200000000001
3.250547106988961,0,0,1.1372457885742187,0,0,1.1465999999999998
3.251932904997375,0,0,1.2761094848632812,0,0,0.91728
3.253317832975881,0,0,1.1085153686523437,0,0,0.84084
3.2547030759742483,0,0,1.2234370483398436,0,0,0.6115200000000001
3.2560887439758517,0,0,1.2856862915039062,0,0,0.22932
3.257473894977011,0,0,1.3934253662109375,0,0,0.7644
3.258859081979608,0,0,1.4987702392578124,0,0,0.84084
3.2602447319950443,0,0,1.1563994018554686,0,0,1.07016
3.2616301229863893,0,0,1.22583125,0,0,0.7644
3.2630159029795323,0,0,1.1563994018554686,0,0,0.99372
3.264402089989744,0,0,1.0941501586914062,0,0,0.6115200000000001
3.2657876849989407,0,0,1.2689268798828124,0,0,0.91728
3.2671728719724342,0,0,1.4891934326171874,0,0,0.7644
3.268558595998911,0,0,1.3335703247070312,0,0,0.91728
3.269952264992753,0,0,1.6017209106445311,0,0,1.1465999999999998
3.2713375819730572,0,0,1.2282254516601563,0,0,0.99372
3.2727235649945214,0,0,1.2521674682617188,0,0,0.53508
3.2741091039788444,0,0,1.2138602416992186,0,0,0.91728
3.275494124973193,0,0,1.24498486328125,0,0,0.45864
3.2768800529884174,0,0,1.4891934326171874,0,0,0.6115200000000001
3.2782658509968314,0,0,1.4149731811523436,0,0,0.68796
3.2796770749846473,0,0,1.429338391113281,0,0,-9.09636
3.2810653549968265,0,0,1.678335363769531,0,0,1.07016
3.2824515229731333,0,0,1.2497732666015624,0,0,0.99372
3.2838881359784864,0,0,1.3096283081054687,0,0,0.7644
3.2852871749782935,0,0,1.1444283935546875,0,0,0.6115200000000001
3.2866716209973674,0,0,1.20667763671875,0,0,0.6115200000000001
3.2880691229947843,0,0,1.3407529296874998,0,0,0.45864
3.289460883999709,0,0,1.3862427612304686,0,0,0.7644
3.290870515978895,0,0,1.6352397338867186,0,0,0.84084
3.292255906999344,0,0,1.216254443359375,0,0,0.84084
3.2936414269788656,0,0,1.235408056640625,0,0,0.99372
3.2950266509724315,0,0,1.1180921752929687,0,0,0.6115200000000001
3.296412171999691,0,0,1.2042834350585936,0,0,0.68796
3.2977976929978468,0,0,1.2282254516601563,0,0,0.84084
3.2992455089988653,0,0,1.438915197753906,0,0,0.6115200000000001
3.3006686579901725,0,0,1.4173673828125,0,0,0.6115200000000001
3.3020558829884976,0,0,1.5610194824218748,0,0,0.45864
3.3034418479946908,0,0,1.1563994018554686,0,0,0.84084
3.304828071995871,0,0,1.2856862915039062,0,0,0.99372
3.306214017997263,0,0,1.0917559570312498,0,0,0.6115200000000001
3.3078156289993785,0,0,1.1372457885742187,0,0,0.6115200000000001
3.309214222972514,0,0,1.4149731811523436,0,0,0.30576000000000003
3.310600706987316,0,0,1.3383587280273437,0,0,1.07016
3.31199522697716,0,0,1.5394716674804687,0,0,0.84084
3.3133787289843895,0,0,1.2617442749023438,0,0,0.91728
3.3147728419862688,0,0,1.2689268798828124,0,0,0.53508
3.316159288980998,0,0,1.0821791503906248,0,0,0.99372
3.3175455689779483,0,0,1.1635820068359375,0,0,0.68796
3.31893199699698,0,0,1.2593500732421874,0,0,0.6115200000000001
3.320317924983101,0,0,1.438915197753906,0,0,0.68796
3.321703389985487,0,0,1.3718775512695311,0,0,1.07016
3.323088724981062,0,0,1.3862427612304686,0,0,0.91728
3.3244959489966277,0,0,1.1755530151367186,0,0,1.07016
3.325881857977947,0,0,1.3096283081054687,0,0,0.7644
3.327267785993172,0,0,1.1324573852539062,0,0,0.7644
3.3286531589983497,0,0,1.1875240234375,0,0,0.6115200000000001
3.3300387719937135,0,0,1.3407529296874998,0,0,0.3822
3.331424291973235,0,0,1.5035586425781249,0,0,0.7644
3.3328103499952704,0,0,1.43652099609375,0,0,0.91728
3.334195962990634,0,0,1.2904746948242187,0,0,0.91728
3.3355821689765435,0,0,1.3048399047851562,0,0,0.6115200000000001
3.336968318995787,0,0,1.1061211669921875,0,0,0.68796
3.338353727973299,0,0,1.0869675537109373,0,0,0.68796
3.3397402669943403,0,0,1.1420341918945311,0,0,1.2230400000000001
3.341125602979446,0,0,1.4891934326171874,0,0,0.68796
3.3425104939960875,0,0,1.3335703247070312,0,0,0.91728
3.3438974029850215,0,0,1.6352397338867186,0,0,0.53508
3.3452819789818022,0,0,1.1875240234375,0,0,0.6115200000000001
3.3466674809751566,0,0,1.2952630981445312,0,0,0.7644
3.348053538997192,0,0,1.1252747802734375,0,0,0.91728
3.349447540997062,0,0,1.1540052001953125,0,0,0.53508
3.350832949974574,0,0,1.2737152832031249,0,0,0.45864
3.3522187669877894,0,0,1.35990654296875,0,0,0.7644
3.3536080839985516,0,0,1.3814543579101561,0,0,0.6115200000000001
3.3549936789786443,0,0,1.618480322265625,0,0,0.84084
3.356379309989279,0,0,1.2880804931640624,0,0,1.1465999999999998
3.357764607993886,0,0,1.1611878051757811,0,0,1.2230400000000001
3.3591500919719692,0,0,1.1444283935546875,0,0,-9.24924
3.3605375749757513,0,0,1.1252747802734375,0,0,0.53508
3.3619234479847364,0,0,1.3168109130859373,0,0,0.15288000000000002
3.363308875996154,0,0,1.4700398193359374,0,0,0.7644
3.3646943959756754,0,0,1.5705962890624998,0,0,0.84084
3.3660791759903077,0,0,1.2593500732421874,0,0,0.68796
3.367472807993181,0,0,1.197100830078125,0,0,0.91728
3.3688589579833206,0,0,1.1085153686523437,0,0,1.07016
3.3702449779957533,0,0,1.1420341918945311,0,0,0.53508
3.3716313509794418,0,0,1.2282254516601563,0,0,0.68796
3.3730167419998907,0,0,1.4030021728515625,0,0,0.68796
3.3744025959749706,0,0,1.3287819213867187,0,0,0.7644
3.375788337987615,0,0,1.6304513305664061,0,0,1.07016
3.3771733779867645,0,0,1.2330138549804688,0,0,0.7644
3.3785585459845606,0,0,1.2665326782226562,0,0,0.68796
3.3799448999925517,0,0,1.1228805786132812,0,0,0.53508
3.381329605996143,0,0,1.149216796875,0,0,0.7644
3.3827149599965196,0,0,1.0749965454101562,0,0,0.30576000000000003
3.384100053983275,0,0,1.3120225097656248,0,0,0.53508
3.385483316000318,0,0,1.4437036010742186,0,0,0.84084
3.386866706976434,0,0,1.6232687255859375,0,0,0.84084
3.388268448994495,0,0,1.177947216796875,0,0,0.7644
3.389654932980193,0,0,1.0199299072265624,0,0,0.91728
3.3910413419944234,0,0,1.1061211669921875,0,0,0.68796
3.392431639978895,0,0,1.180341418457031,0,0,0.7644
3.393817012984073,0,0,1.2593500732421874,0,0,0.0
3.3952025699836668,0,0,1.3168109130859373,0,0,0.91728
3.3965884979988914,0,0,1.4125789794921875,0,0,1.07016
3.397974333987804,0,0,1.1659762084960936,0,0,0.68796
3.3993600760004483,0,0,1.2018892333984375,0,0,0.7644
3.400745652994374,0,0,1.1755530151367186,0,0,0.6115200000000001
3.4021310429961886,0,0,1.1923124267578125,0,0,0.6115200000000001
3.403516933991341,0,0,1.2425906616210938,0,0,1.2994800000000002
3.4049024549894966,0,0,1.4628572143554686,0,0,0.7644
3.4062876609968953,0,0,1.4245499877929686,0,0,0.84084
3.407686199992895,0,0,1.4413093994140624,0,0,1.07016
3.4090983489877544,0,0,1.2378022583007813,0,0,0.84084
3.4104882219980936,0,0,1.2569558715820313,0,0,0.84084
3.4119049459986854,0,0,1.1013327636718748,0,0,0.91728
3.4132935399829876,0,0,1.1516109985351561,0,0,0.53508
3.4146803569747135,0,0,1.3120225097656248,0,0,0.68796
3.4160642479837406,0,0,1.350329736328125,0,0,0.68796
3.4174429349950515,0,0,1.5322890624999999,0,0,0.6115200000000001
3.4188212149892934,0,0,1.4987702392578124,0,0,0.84084
3.420207587972982,0,0,1.24498486328125,0,0,0.91728
3.4215935159882065,0,0,1.1851298217773436,0,0,0.99372
3.4229788509837817,0,0,1.0678139404296874,0,0,0.99372
3.4243646859831642,0,0,1.2952630981445312,0,0,0.84084
3.4257502619875595,0,0,1.43652099609375,0,0,0.68796
3.427135930978693,0,0,1.3048399047851562,0,0,0.91728
3.4285213029943407,0,0,1.4437036010742186,0,0,0.6115200000000001
3.4299090089916717,0,0,1.5155296508789062,0,0,0.91728
3.4312941409880295,0,0,1.1516109985351561,0,0,0.84084
3.432679642981384,0,0,1.1013327636718748,0,0,0.6115200000000001
3.4340653119725175,0,0,1.0797849487304687,0,0,0.68796
3.435450516990386,0,0,1.209071838378906,0,0,0.30576000000000003
3.436835815984523,0,0,1.4173673828125,0,0,0.84084
3.438221076998161,0,0,1.446097802734375,0,0,0.6115200000000001
3.439620559976902,0,0,1.465251416015625,0,0,0.99372
3.4410062659881078,0,0,1.2018892333984375,0,0,0.7644
3.442391749995295,0,0,1.20667763671875,0,0,0.91728
3.4437778439896647,0,0,1.1109095703125,0,0,0.84084
3.4451620869804174,0,0,1.216254443359375,0,0,0.7644
3.446557032992132,0,0,1.2880804931640624,0,0,0.45864
3.4479426829784643,0,0,1.3646949462890625,0,0,0.68796
3.449327592999907,0,0,1.5298948608398437,0,0,0.6115200000000001
3.4507130019774195,0,0,1.4604630126953124,0,0,1.1465999999999998
3.452098744979594,0,0,1.1372457885742187,0,0,0.84084
3.453483839984983,0,0,1.1228805786132812,0,0,0.68796
3.454876785981469,0,0,1.1635820068359375,0,0,0.7644
3.4562628809944727,0,0,1.2665326782226562,0,0,1.07016
3.4576481789990794,0,0,1.3814543579101561,0,0,0.68796
3.4590335699904244,0,0,1.4413093994140624,0,0,0.99372
3.4604187389777508,0,0,1.5705962890624998,0,0,0.53508
3.4618037219916005,0,0,1.3479355346679687,0,0,0.84084
3.4631892609759234,0,0,1.2378022583007813,0,0,0.7644
3.4645752999931574,0,0,1.1635820068359375,0,0,0.6115200000000001
3.465968394972151,0,0,1.189918225097656,0,0,0.45864
3.467353951971745,0,0,1.3958195678710936,0,0,0.3822
3.468739565985743,0,0,1.4939818359375,0,0,0.6115200000000001
3.4701246049953625,0,0,1.5849614990234373,0,0,0.6115200000000001
3.471509865979897,0,0,1.465251416015625,0,0,0.53508
3.472895182989305,0,0,1.2114660400390624,0,0,0.99372
3.474280202994123,0,0,1.1540052001953125,0,0,0.91728
3.475665593985468,0,0,0.9744400756835937,0,0,0.45864
3.4770504669868387,0,0,1.3168109130859373,0,0,0.7644
3.4784358209872153,0,0,1.4413093994140624,0,0,0.30576000000000003
3.4798214149777777,0,0,1.47482822265625,0,0,0.7644
3.4812060839904007,0,0,1.5610194824218748,0,0,0.91728
3.4825913079839665,0,0,1.3287819213867187,0,0,1.07016
3.483976346993586,0,0,1.1540052001953125,0,0,0.68796
3.4853590529819485,0,0,1.0342951171875,0,0,0.91728
3.4867422959941905,0,0,1.0869675537109373,0,0,0.6115200000000001
3.4881723709986545,0,0,1.4006079711914061,0,0,1.1465999999999998
3.489559483976336,0,0,1.4915876342773438,0,0,0.68796
3.490945023979293,0,0,1.5394716674804687,0,0,0.84084
3.4923305259726476,0,0,1.4772224243164063,0,0,0.6115200000000001
3.493716193974251,0,0,1.1707646118164061,0,0,0.84084
3.495101769978646,0,0,1.149216796875,0,0,2.14032
3.496487290976802,0,0,1.1156979736328125,0,0,0.6115200000000001
3.4978800889803097,0,0,1.2832920898437499,0,0,0.68796
3.4992772759869695,0,0,1.407790576171875,0,0,0.45864
3.50066374099697,0,0,1.4341267944335936,0,0,0.6115200000000001
3.5020496689830907,0,0,1.6615759521484375,0,0,0.91728
3.503436207975028,0,0,1.3072341064453123,0,0,0.84084
3.5048162099847104,0,0,1.0821791503906248,0,0,0.84084
3.5061940460000187,0,0,1.1085153686523437,0,0,0.68796
3.5075845289975405,0,0,1.2018892333984375,0,0,0.7644
3.5089715869980864,0,0,1.3742717529296875,0,0,0.68796
3.510356606973801,0,0,1.4149731811523436,0,0,0.7644
3.5117422949988395,0,0,1.484405029296875,0,0,1.07016
3.513127481972333,0,0,1.637633935546875,0,0,0.7644
3.5145125209819525,0,0,1.3024457031249999,0,0,0.99372
3.5159008749760687,0,0,1.16837041015625,0,0,0.6115200000000001
3.5172848209913354,0,0,1.1444283935546875,0,0,0.45864
3.51867032298469,0,0,1.120486376953125,0,0,0.53508
3.5200565099949017,0,0,1.37906015625,0,0,0.91728
3.5214416419912595,0,0,1.2282254516601563,0,0,0.45864
3.5228270889783744,0,0,1.467645617675781,0,0,0.53508
3.5242215349862818,0,0,1.3766659545898436,0,0,0.6115200000000001
3.525607166986447,0,0,1.1348515869140625,0,0,0.91728
3.5269926129840314,0,0,1.1851298217773436,0,0,0.84084
3.5283777079894207,0,0,1.1013327636718748,0,0,0.6115200000000001
3.5297626729879994,0,0,1.1252747802734375,0,0,0.53508
3.531147970992606,0,0,1.407790576171875,0,0,0.30576000000000003
3.5325333989749197,0,0,1.4125789794921875,0,0,0.68796
3.5339187709905673,0,0,1.5490484741210937,0,0,0.99372
3.535304235992953,0,0,1.3192051147460937,0,0,0.84084
3.5366900349908974,0,0,1.3335703247070312,0,0,0.99372
3.5380751289776526,0,0,1.0726023437499999,0,0,0.91728
3.539460075990064,0,0,1.0630255371093749,0,0,0.7644
3.540845799987437,0,0,1.3742717529296875,0,0,0.91728
3.5422379869851284,0,0,1.455674609375,0,0,0.53508
3.5436244889860973,0,0,1.4724340209960938,0,0,1.1465999999999998
3.5450098989822436,0,0,1.5155296508789062,0,0,1.1465999999999998
3.5463956039748155,0,0,1.2282254516601563,0,0,1.1465999999999998
3.547781920991838,0,0,1.0845733520507812,0,0,0.7644
3.5491878670000006,0,0,1.1133037719726562,0,0,-9.01992
3.550625923991902,0,0,1.2138602416992186,0,0,0.45864
3.5520182969921734,0,0,1.3646949462890625,0,0,0.30576000000000003
3.5534026690002065,0,0,1.3838485595703125,0,0,0.91728
3.5547885419800878,0,0,1.5514426757812498,0,0,0.6115200000000001
3.5561747099854983,0,0,1.3263877197265623,0,0,0.68796
3.557559989974834,0,0,1.0773907470703123,0,0,1.07016
3.558945158991264,0,0,1.0893617553710937,0,0,0.99372
3.560331493994454,0,0,1.0821791503906248,0,0,0.91728
3.5617170149926096,0,0,1.2401964599609374,0,0,0.91728
3.5631019430002198,0,0,1.438915197753906,0,0,0.22932
3.5644875369907822,0,0,1.2378022583007813,0,0,0.91728
3.5658726129913703,0,0,1.5035586425781249,0,0,0.91728
3.5672580969985574,0,0,1.2210428466796874,0,0,0.68796
3.5686437839758582,0,0,1.3623007446289062,0,0,0.68796
3.5700288229854777,0,0,1.1276689819335937,0,0,0.45864
3.571414324978832,0,0,1.2808978881835937,0,0,0.53508
3.5727998269721866,0,0,1.4604630126953124,0,0,0.68796
3.574197550973622,0,0,1.4628572143554686,0,0,0.84084
3.575583812984405,0,0,1.4628572143554686,0,0,0.84084
3.5769698699878063,0,0,1.455674609375,0,0,0.91728
3.578355575999012,0,0,1.197100830078125,0,0,0.91728
3.5797417629801203,0,0,1.1276689819335937,0,0,0.84084
3.581126894976478,0,0,1.0797849487304687,0,0,0.7644
3.5825708959891926,0,0,1.13006318359375,0,0,0.53508
3.583956971997395,0,0,1.429338391113281,0,0,0.07644000000000001
3.5853398449835368,0,0,1.5298948608398437,0,0,0.7644
3.5867305499850772,0,0,1.62805712890625,0,0,0.68796
3.588186273991596,0,0,1.2665326782226562,0,0,0.99372
3.5895729239855427,0,0,1.180341418457031,0,0,0.84084
3.590958092972869,0,0,1.1444283935546875,0,0,0.99372
3.592344131990103,0,0,1.158793603515625,0,0,0.68796
3.5937294849718455,0,0,1.3048399047851562,0,0,0.6115200000000001
3.595114820986055,0,0,1.4796166259765624,0,0,0.68796
