Time,AccelX1,AccelY1,AccelZ1,AccelX2,AccelY2,AccelZ2
2.390699228271842e-05,0,0,1.3958195678710936,0,0,1.1465999999999998
0.003688052005600184,0,0,1.1851298217773436,0,0,0.7644
0.007275401003425941,0,0,1.3575123413085937,0,0,0.6115200000000001
0.010929879994364455,0,0,1.5011644409179687,0,0,0.99372
0.014454247982939705,0,0,1.1923124267578125,0,0,0.91728
0.01798822800628841,0,0,1.35990654296875,0,0,0.30576000000000003
0.021505801007151604,0,0,1.3168109130859373,0,0,0.84084
0.025203259981935844,0,0,1.3144167114257812,0,0,0.84084
0.028891700989333913,0,0,1.2641384765625,0,0,0.84084
0.03241769899614155,0,0,1.3024457031249999,0,0,0.7644
0.035928216006141156,0,0,1.3718775512695311,0,0,0.6115200000000001
0.03941986299469136,0,0,1.3479355346679687,0,0,1.1465999999999998
0.04293163900729269,0,0,1.1755530151367186,0,0,0.7644
0.04643973000929691,0,0,1.2737152832031249,0,0,0.68796
0.04995026599499397,0,0,1.3239935180664062,0,0,0.91728
0.05345065300934948,0,0,1.3000515014648437,0,0,0.6115200000000001
0.0569475409865845,0,0,1.3670891479492187,0,0,0.91728
0.060479186999145895,0,0,1.2473790649414063,0,0,0.84084
0.06398246399476193,0,0,1.1923124267578125,0,0,0.3822
0.06748018498183228,0,0,1.0893617553710937,0,0,1.07016
0.07104044200968929,0,0,1.5227122558593749,0,0,0.68796
0.07485841799643822,0,0,1.448492004394531,0,0,1.2994800000000002
0.07843823099392466,0,0,1.35990654296875,0,0,0.7644
0.08196113698068075,0,0,1.455674609375,0,0,1.07016
0.08549489398137666,0,0,1.5203180541992187,0,0,0.84084
0.08901231799973175,0,0,1.22583125,0,0,0.7644
0.09253324300516397,0,0,1.47482822265625,0,0,1.07016
0.09604577798745595,0,0,1.2737152832031249,0,0,0.68796
0.09955944298417307,0,0,1.2378022583007813,0,0,1.07016
0.10307407099753618,0,0,1.4796166259765624,0,0,1.2230400000000001
0.10597411400522105,0,0,1.4149731811523436,0,0,1.07016
0.10877271299250424,0,0,1.1276689819335937,0,0,0.68796
0.11163032898912206,0,0,1.3718775512695311,0,0,0.30576000000000003
0.1144361500046216,0,0,1.2306196533203124,0,0,0.91728
0.11724965699249879,0,0,1.197100830078125,0,0,1.2230400000000001
0.12004755198722705,0,0,1.2785036865234374,0,0,0.7644
0.12284411399741657,0,0,1.369483349609375,0,0,1.2230400000000001
0.12563741600024514,0,0,1.35990654296875,0,0,1.07016
0.12848045898135751,0,0,1.13006318359375,0,0,0.99372
0.131279816996539,0,0,1.3383587280273437,0,0,0.7644
0.13407430500956252,0,0,1.438915197753906,0,0,0.91728
0.1378685779927764,0,0,1.1635820068359375,0,0,1.2994800000000002
0.14074358399375342,0,0,1.3168109130859373,0,0,0.6115200000000001
0.1435392200073693,0,0,1.3168109130859373,0,0,0.99372
0.14633961499202996,0,0,1.3263877197265623,0,0,1.1465999999999998
0.14914095398853533,0,0,1.0869675537109373,0,0,0.68796
0.15207720000762492,0,0,1.2689268798828124,0,0,2.14032
0.15487933598342352,0,0,1.47482822265625,0,0,1.07016
0.1576798789901659,0,0,1.599326708984375,0,0,0.53508
0.16048047799267806,0,0,1.3383587280273437,0,0,0.6115200000000001
0.1632766510010697,0,0,1.3263877197265623,0,0,0.68796
0.166076138993958,0,0,1.3144167114257812,0,0,0.53508
0.16887670100550167,0,0,1.180341418457031,0,0,1.07016
0.17170542900566943,0,0,1.209071838378906,0,0,0.7644
0.1745048239827156,0,0,1.2521674682617188,0,0,1.2994800000000002
0.1773027190065477,0,0,1.3335703247070312,0,0,0.99372
0.18009902199264616,0,0,1.1420341918945311,0,0,0.7644
0.1828972689982038,0,0,1.2378022583007813,0,0,0.7644
0.18569946000934578,0,0,1.4628572143554686,0,0,0.91728
0.1885181889811065,0,0,1.6160861206054686,0,0,0.84084
0.19131552800536156,0,0,1.2976572998046874,0,0,0.84084
0.1941208679927513,0,0,1.3287819213867187,0,0,0.6115200000000001
0.19691896700533107,0,0,1.254561669921875,0,0,0.45864
0.19971299200551584,0,0,1.4891934326171874,0,0,1.1465999999999998
0.202512313000625,0,0,1.0749965454101562,0,0,0.99372
0.20539618900511414,0,0,1.3287819213867187,0,0,0.91728
0.20861507899826393,0,0,1.3239935180664062,0,0,0.7644
0.2117428040073719,0,0,1.1324573852539062,0,0,-9.09636
0.21486371400533244,0,0,1.2952630981445312,0,0,0.3822
0.21798345798742957,0,0,1.2880804931640624,0,0,0.45864
0.221101404982619,0,0,1.1228805786132812,0,0,0.84084
0.22421870398102328,0,0,1.1037269653320312,0,0,1.37592
0.22733453998807818,0,0,1.3431471313476562,0,0,1.1465999999999998
0.23045082099270076,0,0,1.5011644409179687,0,0,1.45236
0.2335664900019765,0,0,1.1324573852539062,0,0,0.99372
0.23668249300681055,0,0,1.3766659545898436,0,0,0.84084
0.23979651398258284,0,0,1.6017209106445311,0,0,0.6115200000000001
0.24292027598130517,0,0,1.0773907470703123,0,0,0.53508
0.24603603899595328,0,0,1.3646949462890625,0,0,0.30576000000000003
0.24915722600417212,0,0,1.1827356201171875,0,0,1.07016
0.25227143298252486,0,0,1.3024457031249999,0,0,0.91728
0.25538684299681336,0,0,1.3359645263671873,0,0,1.45236
0.2585009019821882,0,0,1.5538368774414062,0,0,1.1465999999999998
0.26161714500631206,0,0,1.4724340209960938,0,0,0.91728
0.26475777698215097,0,0,1.369483349609375,0,0,0.99372
0.2678813539969269,0,0,1.4772224243164063,0,0,0.7644
0.2710007269924972,0,0,1.5801730957031248,0,0,0.84084
0.27411773000494577,0,0,1.1252747802734375,0,0,0.84084
0.27723362200777046,0,0,1.3623007446289062,0,0,0.68796
0.2803565129870549,0,0,1.3263877197265623,0,0,0.91728
0.2834825530007947,0,0,1.1611878051757811,0,0,0.99372
0.28659670398337767,0,0,1.24498486328125,0,0,1.5288
0.28971144798561,0,0,1.458068811035156,0,0,0.91728
0.29282883898122236,0,0,1.2306196533203124,0,0,0.84084
0.295943378994707,0,0,1.3407529296874998,0,0,0.68796
0.29905934500857256,0,0,1.2856862915039062,0,0,0.68796
0.3022150509932544,0,0,1.4125789794921875,0,0,0.68796
0.30533286900026724,0,0,1.3718775512695311,0,0,1.07016
0.30849726000451483,0,0,1.35990654296875,0,0,0.7644
0.311612947989488,0,0,1.3120225097656248,0,0,1.2994800000000002
0.31472782100900076,0,0,1.3287819213867187,0,0,0.7644
0.3178673239890486,0,0,1.3263877197265623,0,0,1.07016
0.3209828269900754,0,0,1.369483349609375,0,0,0.68796
0.32409740300499834,0,0,1.3359645263671873,0,0,0.99372
0.32721210998715833,0,0,1.3527239379882812,0,0,0.7644
0.3303297789825592,0,0,1.4221557861328125,0,0,0.91728
0.3334447820088826,0,0,1.2761094848632812,0,0,0.68796
0.33656382199842483,0,0,1.1755530151367186,0,0,0.84084
0.3396773989952635,0,0,1.2665326782226562,0,0,0.91728
0.34279386498383246,0,0,1.3168109130859373,0,0,1.45236
0.345908793999115,0,0,1.3455413330078123,0,0,1.07016
0.34902407400659285,0,0,1.2378022583007813,0,0,1.2230400000000001
0.3521375029813498,0,0,1.4963760375976562,0,0,0.6115200000000001
0.3552505979896523,0,0,1.3551181396484375,0,0,0.99372
0.35836762000690214,0,0,1.2808978881835937,0,0,0.3822
0.36148188199149445,0,0,1.24498486328125,0,0,0.91728
0.36461218100157566,0,0,1.4772224243164063,0,0,1.07016
0.3677258690004237,0,0,1.1228805786132812,0,0,0.99372
0.3708871669950895,0,0,1.2713210815429687,0,0,1.1465999999999998
0.374009021994425,0,0,1.2473790649414063,0,0,0.84084
0.37712667300365865,0,0,1.3383587280273437,0,0,0.99372
0.3802463419851847,0,0,1.3000515014648437,0,0,0.84084
0.38336195598822087,0,0,1.4173673828125,0,0,0.91728
0.38647266299813055,0,0,1.3192051147460937,0,0,0.91728
0.3906557279988192,0,0,1.3670891479492187,0,0,0.99372
0.39379347098292783,0,0,1.3144167114257812,0,0,0.6115200000000001
0.3969201779982541,0,0,1.2018892333984375,0,0,0.68796
0.4000411620072555,0,0,1.2785036865234374,0,0,0.53508
0.4032018309808336,0,0,1.4532804077148436,0,0,0.99372
0.4063262970012147,0,0,1.4221557861328125,0,0,1.2994800000000002
0.4094460589985829,0,0,1.1947066284179686,0,0,1.2230400000000001
0.4125664320017677,0,0,1.467645617675781,0,0,1.1465999999999998
0.4156829720013775,0,0,1.3144167114257812,0,0,0.91728
0.4188036599953193,0,0,1.0965443603515623,0,0,0.84084
0.4219231999886688,0,0,1.218648645019531,0,0,0.45864
0.4250435169960838,0,0,1.43652099609375,0,0,0.6115200000000001
0.4281597239896655,0,0,1.197100830078125,0,0,0.99372
0.43128144898219034,0,0,1.3527239379882812,0,0,0.7644
0.43441189598524943,0,0,1.37906015625,0,0,1.07016
0.4375282689870801,0,0,1.3000515014648437,0,0,1.07016
0.4406481049954891,0,0,1.3575123413085937,0,0,1.1465999999999998
0.44377044099383056,0,0,1.3287819213867187,0,0,0.53508
0.44694038800662383,0,0,1.3623007446289062,0,0,0.22932
0.4503337759815622,0,0,1.3287819213867187,0,0,0.68796
0.4534708349965513,0,0,1.3646949462890625,0,0,1.2230400000000001
0.4565926890063565,0,0,1.2210428466796874,0,0,1.45236
0.45971039598225616,0,0,1.2713210815429687,0,0,0.7644
0.4628493799827993,0,0,1.3168109130859373,0,0,1.75812
0.46597228999598883,0,0,1.5083470458984374,0,0,0.68796
0.469107440992957,0,0,1.5227122558593749,0,0,0.68796
0.4722325539914891,0,0,1.3072341064453123,0,0,0.53508
0.47535142800188623,0,0,1.467645617675781,0,0,0.53508
0.4784700039890595,0,0,1.4867992309570313,0,0,1.5288
0.48158974800026044,0,0,1.1444283935546875,0,0,0.68796
0.4847174730093684,0,0,1.3263877197265623,0,0,1.2230400000000001
0.4878324939927552,0,0,1.1563994018554686,0,0,1.45236
0.49095138598931953,0,0,1.2138602416992186,0,0,1.2994800000000002
0.4940700919833034,0,0,1.0773907470703123,0,0,0.53508
0.49718894698889926,0,0,1.4963760375976562,0,0,0.7644
0.5003462089807726,0,0,1.218648645019531,0,0,0.68796
0.5131859380053356,0,0,1.20667763671875,0,0,0.7644
0.5164167360053398,0,0,1.4939818359375,0,0,0.6115200000000001
0.5195306460082065,0,0,1.5658078857421873,0,0,0.53508
0.5226346679846756,0,0,1.1156979736328125,0,0,0.99372
0.5257360780087765,0,0,1.2401964599609374,0,0,0.15288000000000002
0.5288558960019145,0,0,1.2210428466796874,0,0,1.07016
0.5320398049952928,0,0,1.1731588134765625,0,0,1.07016
0.5352657879993785,0,0,1.24498486328125,0,0,1.60524
0.5383902909816243,0,0,1.22583125,0,0,0.84084
0.5415089419984724,0,0,1.2737152832031249,0,0,0.84084
0.544628500007093,0,0,1.3335703247070312,0,0,0.68796
0.5477450960024726,0,0,1.2761094848632812,0,0,0.7644
0.5508629870018922,0,0,1.4939818359375,0,0,0.68796
0.5565202029829379,0,0,1.3670891479492187,0,0,0.3822
0.5597879079869017,0,0,1.35990654296875,0,0,1.2230400000000001
0.5633481279946864,0,0,1.3311761230468748,0,0,1.07016
0.5664763530076016,0,0,1.3215993164062498,0,0,1.07016
0.5696050219994504,0,0,1.3814543579101561,0,0,0.91728
0.5727187840093393,0,0,1.2593500732421874,0,0,0.7644
0.5759778970095795,0,0,1.2401964599609374,0,0,0.3822
0.5792153799848165,0,0,1.4149731811523436,0,0,1.37592
0.5823395299958065,0,0,1.3551181396484375,0,0,1.1465999999999998
0.5854589589871466,0,0,1.0917559570312498,0,0,0.68796
0.5885779059899505,0,0,1.2737152832031249,0,0,0.84084
0.5916949829843361,0,0,1.0869675537109373,0,0,0.7644
0.5949041889980435,0,0,1.2569558715820313,0,0,0.45864
0.5980232839938253,0,0,1.2593500732421874,0,0,0.3822
0.6011406389879994,0,0,1.254561669921875,0,0,1.2994800000000002
0.6043673630047124,0,0,1.1133037719726562,0,0,0.53508
0.6073215889919084,0,0,1.2808978881835937,0,0,0.68796
0.6102149469952565,0,0,1.484405029296875,0,0,0.53508
0.6130135080020409,0,0,1.5251064575195312,0,0,0.68796
0.6158279959927313,0,0,1.3144167114257812,0,0,0.53508
0.6186658539809287,0,0,1.3742717529296875,0,0,1.2230400000000001
0.6214717669936363,0,0,1.4125789794921875,0,0,0.7644
0.6267677650030237,0,0,1.1276689819335937,0,0,0.53508
0.6295725670061074,0,0,1.4030021728515625,0,0,0.53508
0.6327180879889056,0,0,1.3024457031249999,0,0,0.91728
0.6355176320066676,0,0,1.1516109985351561,0,0,0.91728
0.6383462859957945,0,0,1.2952630981445312,0,0,1.1465999999999998
0.6414749739924446,0,0,1.2378022583007813,0,0,0.7644
0.644328572001541,0,0,1.4939818359375,0,0,0.68796
0.6471308190084528,0,0,1.16837041015625,0,0,0.53508
0.6499304359895177,0,0,1.2832920898437499,0,0,0.22932
0.6527298130095005,0,0,1.4867992309570313,0,0,0.91728
0.6555258559819777,0,0,1.3646949462890625,0,0,1.37592
0.6583238999883179,0,0,1.120486376953125,0,0,0.99372
0.6611235910095274,0,0,1.2832920898437499,0,0,1.2994800000000002
0.6639185969834216,0,0,1.3646949462890625,0,0,1.2230400000000001
0.6667169189895503,0,0,1.1348515869140625,0,0,0.68796
0.6695529060089029,0,0,1.2425906616210938,0,0,0.45864
0.672435170999961,0,0,1.5251064575195312,0,0,1.07016
0.6752367879962549,0,0,1.467645617675781,0,0,0.6115200000000001
0.6780355350056197,0,0,1.0749965454101562,0,0,0.53508
0.6808341149881016,0,0,1.3239935180664062,0,0,0.53508
0.6836301769944839,0,0,1.5107412475585937,0,0,0.91728
0.6864382759958971,0,0,1.3455413330078123,0,0,1.37592
0.6892356899916194,0,0,1.2665326782226562,0,0,0.91728
0.692031380982371,0,0,1.3096283081054687,0,0,-8.943480000000001
0.6948291840089951,0,0,1.3144167114257812,0,0,1.2230400000000001
0.6976364679867402,0,0,1.0869675537109373,0,0,2.36964
0.7004379369900562,0,0,1.2928688964843749,0,0,0.68796
0.7032459990005009,0,0,1.6400281372070311,0,0,0.7644
0.7060765789938159,0,0,1.5107412475585937,0,0,0.22932
0.7088742519845255,0,0,1.3575123413085937,0,0,0.91728
0.7116686289955396,0,0,1.2282254516601563,0,0,1.2230400000000001
0.7144614130083937,0,0,1.4173673828125,0,0,0.91728
0.7174944540020078,0,0,1.3287819213867187,0,0,1.2230400000000001
0.7203153299924452,0,0,1.1037269653320312,0,0,1.07016
0.7231162620009854,0,0,1.3287819213867187,0,0,0.7644
0.7259185829898342,0,0,1.4987702392578124,0,0,1.1465999999999998
0.7287198120029643,0,0,1.0989385620117187,0,0,0.68796
0.7315169479988981,0,0,1.35990654296875,0,0,1.07016
0.7343189349921886,0,0,1.5227122558593749,0,0,1.2994800000000002
0.7371201450005174,0,0,1.5155296508789062,0,0,0.84084
0.739916874008486,0,0,1.3766659545898436,0,0,0.6115200000000001
0.742716490989551,0,0,1.2808978881835937,0,0,0.84084
0.7455149419838563,0,0,1.4149731811523436,0,0,0.99372
0.7483385219820775,0,0,1.3072341064453123,0,0,1.07016
0.7511456949869171,0,0,1.2042834350585936,0,0,0.68796
0.7539451089978684,0,0,1.2641384765625,0,0,0.7644
0.7567450409987941,0,0,1.2425906616210938,0,0,1.1465999999999998
0.7595624550012872,0,0,1.1013327636718748,0,0,0.6115200000000001
0.7623617019853555,0,0,1.3120225097656248,0,0,0.30576000000000003
0.7651605599967297,0,0,1.5227122558593749,0,0,0.7644
0.7679572330089286,0,0,1.5897499023437498,0,0,0.6115200000000001
0.7707559429982211,0,0,1.1348515869140625,0,0,0.99372
0.7735539679997601,0,0,1.13006318359375,0,0,1.911
0.7763548069924582,0,0,1.4341267944335936,0,0,1.2230400000000001
0.7791514059936162,0,0,1.2976572998046874,0,0,0.99372
0.781950300995959,0,0,1.2952630981445312,0,0,0.53508
0.7854385219980031,0,0,1.2952630981445312,0,0,1.1465999999999998
0.7882766760012601,0,0,1.2521674682617188,0,0,0.68796
0.7910596829897258,0,0,1.2497732666015624,0,0,0.84084
0.7938870959915221,0,0,1.2378022583007813,0,0,1.45236
0.7966910839895718,0,0,1.4700398193359374,0,0,1.1465999999999998
0.7994871829869226,0,0,1.5466542724609373,0,0,0.45864
0.8022845409868751,0,0,1.199495031738281,0,0,0.84084
0.805185397999594,0,0,1.2282254516601563,0,0,0.7644
0.8080534409964457,0,0,1.2473790649414063,0,0,0.91728
0.8111690169898793,0,0,1.1563994018554686,0,0,0.84084
0.8142816129839048,0,0,1.2952630981445312,0,0,1.37592
0.8176080209959764,0,0,1.5586252807617187,0,0,1.1465999999999998
0.820725097990362,0,0,1.39821376953125,0,0,2.75184
0.8238684149982873,0,0,1.2761094848632812,0,0,1.07016
0.8269881960004568,0,0,1.37906015625,0,0,0.45864
0.8301064019906335,0,0,1.429338391113281,0,0,0.30576000000000003
0.8332252749823965,0,0,1.1923124267578125,0,0,0.99372
0.836345055984566,0,0,1.3144167114257812,0,0,1.07016
0.8394655959855299,0,0,1.1827356201171875,0,0,1.68168
0.8425823389843572,0,0,1.1252747802734375,0,0,0.91728
0.8456870270019863,0,0,1.2713210815429687,0,0,1.75812
0.8487992339942139,0,0,1.3958195678710936,0,0,1.07016
0.851913977006916,0,0,1.1013327636718748,0,0,0.84084
0.855025887984084,0,0,1.0989385620117187,0,0,0.68796
0.8581755199993495,0,0,1.419761584472656,0,0,0.91728
0.8612770040053874,0,0,1.5825672973632812,0,0,0.3822
0.864385063003283,0,0,1.3479355346679687,0,0,0.53508
0.8674838989973068,0,0,1.2401964599609374,0,0,0.6115200000000001
0.8706019200035371,0,0,1.2593500732421874,0,0,1.2994800000000002
0.8737014599901158,0,0,1.0773907470703123,0,0,2.4460800000000003
0.8768130370008294,0,0,1.8339584716796873,0,0,2.75184
0.8799270220042672,0,0,2.118868469238281,0,0,1.68168
0.8830432840040885,0,0,2.887407202148437,0,0,1.911
0.8861664349969942,0,0,1.438915197753906,0,0,0.45864
0.8895169899915345,0,0,1.4820108276367188,0,0,1.45236
0.8927840660035145,0,0,1.3335703247070312,0,0,1.68168
0.8959110309951939,0,0,1.8219874633789062,0,0,1.68168
0.8990334410045762,0,0,2.360682836914062,0,0,1.5288
0.9021555549988989,0,0,1.9009961181640624,0,0,1.37592
0.9053145759971812,0,0,1.7477672119140624,0,0,0.99372
0.9084820970019791,0,0,1.9488801513671874,0,0,0.45864
0.911601989006158,0,0,1.9728221679687499,0,0,1.60524
0.9147222510073334,0,0,1.8339584716796873,0,0,1.45236
0.9178421050019097,0,0,1.5777788940429687,0,0,1.911
0.9209638299944345,0,0,1.9297265380859374,0,0,1.83456
0.9240807030000724,0,0,2.3295582153320313,0,0,2.14032
0.9271979469922371,0,0,1.35990654296875,0,0,0.6115200000000001
0.9303148390026763,0,0,2.1404162841796874,0,0,0.7644
0.93343360099243,0,0,1.39821376953125,0,0,1.2994800000000002
0.9365538069978356,0,0,1.687912170410156,0,0,1.75812
0.9396694019960705,0,0,1.867477294921875,0,0,1.911
0.9427894419932272,0,0,2.27927998046875,0,0,1.60524
0.9459169640031178,0,0,1.6352397338867186,0,0,1.37592
0.949036095989868,0,0,1.5011644409179687,0,0,1.83456
0.9521536169922911,0,0,1.6711527587890624,0,0,1.60524
0.9552746939880308,0,0,1.5131354492187499,0,0,2.6754
0.9583956410060637,0,0,2.114080065917969,0,0,1.68168
0.961513496004045,0,0,1.8602946899414061,0,0,0.91728
0.9646363320061937,0,0,2.1547814941406247,0,0,1.5288
0.9677531129855197,0,0,1.62805712890625,0,0,0.6115200000000001
0.9709117999882437,0,0,0.6344634399414062,0,0,0.7644
0.9740346549951937,0,0,2.530671154785156,0,0,2.90472
0.9771666020096745,0,0,1.85790048828125,0,0,0.91728
0.9802845119847916,0,0,1.6711527587890624,0,0,1.45236
0.98340310700587,0,0,2.8514941772460936,0,0,1.2994800000000002
0.9865204810048454,0,0,0.6536170532226562,0,0,0.84084
0.9896381319849752,0,0,1.70467158203125,0,0,1.83456
0.9927570419968106,0,0,1.7118541870117185,0,0,1.2230400000000001
0.9958718410052825,0,0,2.6886884643554687,0,0,0.91728
0.9989891209988855,0,0,1.39821376953125,0,0,1.1465999999999998
1.00213738300954,0,0,1.8507178833007811,0,0,2.2167600000000003
1.0054264579957817,0,0,1.5418658691406248,0,0,0.53508
1.0086835699912626,0,0,2.2074539306640624,0,0,0.7644
1.011935126996832,0,0,1.637633935546875,0,0,2.36964
1.0151611479814164,0,0,1.7286135986328124,0,0,2.2167600000000003
1.0184122970094904,0,0,1.0965443603515623,0,0,0.53508
1.0216403169906698,0,0,1.695094775390625,0,0,1.911
1.0248884479806293,0,0,3.1387983764648437,0,0,2.90472
1.0280513949983288,0,0,1.139639990234375,0,0,-9.707880000000001
1.0312533039832488,0,0,0.6631938598632812,0,0,-0.3822
1.0344636759837158,0,0,2.3774422485351563,0,0,3.21048
1.037608179001836,0,0,1.20667763671875,0,0,0.84084
1.040733736997936,0,0,0.7972691528320313,0,0,0.0
1.0438600729976315,0,0,3.9240965209960934,0,0,3.2869200000000003
1.0469908159866463,0,0,1.39821376953125,0,0,-0.3822
1.050322316994425,0,0,0.16041151123046873,0,0,1.68168
1.053477078996366,0,0,3.526659045410156,0,0,2.82828
1.0566476919921115,0,0,1.2785036865234374,0,0,0.6115200000000001
1.0597808059828822,0,0,0.6847416748046875,0,0,1.68168
1.0629230669874232,0,0,3.725377783203125,0,0,2.82828
1.0660874960012734,0,0,0.8595183959960937,0,0,-0.6115200000000001
1.06923647999065,0,0,1.1372457885742187,0,0,0.6115200000000001
1.072429407009622,0,0,2.5067291381835934,0,0,0.6115200000000001
1.0756363910040818,0,0,-0.8212111694335937,0,0,0.45864
1.0788779289869126,0,0,2.5617957763671875,0,0,2.2167600000000003
1.0821251159941312,0,0,1.438915197753906,0,0,-0.3822
1.0854161719908006,0,0,0.6344634399414062,0,0,1.60524
1.0886251000047196,0,0,2.272097375488281,0,0,-9.784320000000001
1.0926489259873051,0,0,0.19871873779296872,0,0,1.68168
1.0958342989906669,0,0,3.095702746582031,0,0,1.5288
1.0990678739908617,0,0,0.16998831787109375,0,0,0.0
1.1023368749883957,0,0,1.9321207397460936,0,0,1.911
1.1057321899861563,0,0,1.4700398193359374,0,0,-0.7644
1.10895850599627,0,0,0.20350714111328125,0,0,0.0
1.1104219350090716,0,0,1.5131354492187499,0,0,1.2994800000000002
1.111904252000386,0,0,2.3965958618164063,0,0,0.99372
1.11338392100879,0,0,1.9584569580078124,0,0,0.99372
1.1151080309937242,0,0,0.09337386474609374,0,0,0.68796
1.1165429789980408,0,0,0.8906430175781249,0,0,0.22932
1.1179278339841403,0,0,2.47081611328125,0,0,1.911
1.1193082999961916,0,0,2.4588451049804685,0,0,1.75812
1.1206902480043937,0,0,2.1308394775390624,0,0,1.98744
1.122070065990556,0,0,1.1875240234375,0,0,0.99372
1.1234506059845444,0,0,0.26815058593749996,0,0,-1.2994800000000002
1.1248378320015036,0,0,0.7709329345703124,0,0,0.7644
1.1262182609934825,0,0,2.0757728393554684,0,0,1.37592
1.1275990050053224,0,0,2.4013842651367185,0,0,1.5288
1.128981952992035,0,0,1.5729904907226562,0,0,0.99372
1.1303613079944625,0,0,0.8786720092773437,0,0,0.99372
1.131740737997461,0,0,-0.7637503295898437,0,0,-1.45236
1.1331240739964414,0,0,0.45010991210937495,0,0,0.22932
1.134515874000499,0,0,2.104503259277344,0,0,1.60524
1.1358968029962853,0,0,2.5953145996093747,0,0,1.83456
1.1372776399948634,0,0,2.2098481323242187,0,0,0.91728
1.1386920319928322,0,0,0.5865794067382812,0,0,1.2994800000000002
1.1401236079982482,0,0,-0.22505495605468748,0,0,0.0
1.1415150380053092,0,0,1.7693150268554687,0,0,0.0
1.1428949300025124,0,0,2.4109610717773435,0,0,1.1465999999999998
1.1442783960083034,0,0,2.7629087158203123,0,0,2.06388
1.145658232999267,0,0,1.5705962890624998,0,0,1.2994800000000002
1.1470371070026886,0,0,0.5386953735351562,0,0,0.6115200000000001
1.1484257399861235,0,0,-0.6871358764648438,0,0,0.91728
1.149806131987134,0,0,0.8499415893554687,0,0,0.07644000000000001
1.151185060996795,0,0,1.5825672973632812,0,0,0.99372
1.1525721749931108,0,0,2.020706201171875,0,0,1.68168
1.153959622984985,0,0,1.6472107421875,0,0,1.07016
1.155346201005159,0,0,1.0678139404296874,0,0,0.15288000000000002
1.1567342779890168,0,0,0.8379705810546875,0,0,0.53508
1.1581208739953581,0,0,1.7453730102539062,0,0,0.91728
1.1595076359808445,0,0,1.8028338500976562,0,0,0.99372
1.1608951950038318,0,0,1.898601916503906,0,0,0.91728
1.1622819209878799,0,0,1.5538368774414062,0,0,1.1465999999999998
1.1636686459823977,0,0,0.30885201416015623,0,0,-0.68796
1.1650572789949365,0,0,0.679953271484375,0,0,0.45864
1.1664440229942556,0,0,1.656787548828125,0,0,0.91728
1.167830544989556,0,0,2.001552587890625,0,0,2.06388
1.1692176409997046,0,0,1.8363526733398436,0,0,1.2994800000000002
1.1706042180012446,0,0,0.2920926025390625,0,0,1.2230400000000001
1.1719912590051536,0,0,-0.12449848632812499,0,0,9.47856
1.1733786879922263,0,0,0.7637503295898437,0,0,0.84084
1.174767227988923,0,0,1.9728221679687499,0,0,1.60524
1.176154027984012,0,0,2.437297290039062,0,0,1.98744
1.177540845994372,0,0,1.6208745239257811,0,0,1.911
1.1789276449999306,0,0,1.024718310546875,0,0,0.07644000000000001
1.180315203993814,0,0,0.1292868896484375,0,0,0.3822
1.1817013190011494,0,0,2.403778466796875,0,0,0.6115200000000001
1.1830878400069196,0,0,2.013523596191406,0,0,1.1465999999999998
1.1844753249897622,0,0,1.4891934326171874,0,0,1.1465999999999998
1.1858615140081383,0,0,1.0941501586914062,0,0,0.7644
1.1872481649916153,0,0,0.45010991210937495,0,0,-0.68796
1.1886359459895175,0,0,0.6464344482421874,0,0,0.7644
1.1900218939990737,0,0,1.7310078002929687,0,0,0.68796
1.1914086379983928,0,0,2.061407629394531,0,0,1.1465999999999998
1.192799862998072,0,0,1.2880804931640624,0,0,1.07016
1.1941879219957627,0,0,0.8595183959960937,0,0,2.2167600000000003
1.195574907003902,0,0,0.00239420166015625,0,0,0.53508
1.1969613549881615,0,0,0.9911994873046874,0,0,1.98744
1.1983478580077644,0,0,2.375048046875,0,0,2.4460800000000003
1.1997344350093044,0,0,2.588131994628906,0,0,0.6115200000000001
1.2011213649821002,0,0,1.5705962890624998,0,0,0.53508
1.2025074049888644,0,0,0.8834604125976562,0,0,0.68796
1.203893703990616,0,0,0.47884033203125,0,0,0.0
1.2052805410057772,0,0,1.608903515625,0,0,0.84084
1.20666661800351,0,0,2.104503259277344,0,0,2.06388
1.2081027879903559,0,0,1.707065783691406,0,0,1.07016
1.209491198998876,0,0,0.36391865234375,0,0,0.0
1.2108768690086436,0,0,-0.11731588134765625,0,0,0.0
1.2122799640055746,0,0,-0.16998831787109375,0,0,0.3822
1.2138147070072591,0,0,2.6671406494140624,0,0,0.91728
1.2152044140093494,0,0,2.73896669921875,0,0,2.4460800000000003
1.2165968240005895,0,0,1.6328455322265625,0,0,1.75812
1.2179844389902428,0,0,1.1444283935546875,0,0,1.2230400000000001
1.2193717939953785,0,0,-0.47884033203125,0,0,-0.53508
1.220762148994254,0,0,0.6919242797851562,0,0,0.53508
1.2221500969899353,0,0,1.8650830932617186,0,0,1.37592
1.223537932994077,0,0,2.8658593872070313,0,0,1.911
1.2249263249977957,0,0,1.6519991455078125,0,0,1.2230400000000001
1.2263141429866664,0,0,0.8595183959960937,0,0,1.60524
1.2277015910076443,0,0,-0.51714755859375,0,0,-0.6115200000000001
1.2290913540055044,0,0,0.6177040283203125,0,0,0.45864
1.2304790609923657,0,0,2.607285607910156,0,0,1.68168
1.2318666009814478,0,0,2.7269956909179687,0,0,0.99372
1.2332546600082424,0,0,1.5394716674804687,0,0,0.45864
1.2346418669912964,0,0,0.24899697265624998,0,0,0.45864
1.23602936998941,0,0,-0.08858546142578125,0,0,0.45864
1.237418409989914,0,0,2.559401574707031,0,0,0.84084
1.238805228000274,0,0,2.2840683837890623,0,0,2.4460800000000003
1.2401958429836668,0,0,2.281674182128906,0,0,1.911
1.241583235008875,0,0,0.36152445068359373,0,0,0.0
1.2429707009869162,0,0,-0.39743747558593745,0,0,-0.99372
1.244360056007281,0,0,1.3575123413085937,0,0,0.68796
1.245747170993127,0,0,2.7341782958984373,0,0,1.911
1.2471362479845993,0,0,3.105279553222656,0,0,2.75184
1.2485243999981321,0,0,1.3575123413085937,0,0,1.83456
1.249910810001893,0,0,0.33518823242187495,0,0,0.45864
1.251298257993767,0,0,-0.39264907226562495,0,0,-1.60524
1.2526893909962382,0,0,0.5267243652343749,0,0,0.3822
1.2540758760005701,0,0,2.693476867675781,0,0,1.1465999999999998
1.255463323002914,0,0,3.4548329956054684,0,0,2.14032
1.256851085985545,0,0,2.1715409057617188,0,0,2.06388
1.2582378299848642,0,0,1.0486603271484374,0,0,1.45236
1.2596259810088668,0,0,-1.5275006591796874,0,0,-1.68168
1.2610145029902924,0,0,-0.055066638183593745,0,0,-0.99372
1.2624028399877716,0,0,3.0741549316406247,0,0,1.68168
1.2637901949929073,0,0,3.632003918457031,0,0,1.5288
1.2651777910068631,0,0,2.592920397949219,0,0,1.75812
1.2665650349808857,0,0,-0.040701428222656245,0,0,0.6115200000000001
1.2679538159864023,0,0,-1.3407529296874998,0,0,-0.30576000000000003
1.2693426710029598,0,0,1.5777788940429687,0,0,0.53508
1.2708253400051035,0,0,2.463633508300781,0,0,1.83456
1.272217361984076,0,0,2.952050646972656,0,0,1.07016
1.273606493981788,0,0,1.2928688964843749,0,0,1.37592
1.2749950529832859,0,0,0.4572925170898437,0,0,0.30576000000000003
1.2763838529936038,0,0,0.4213794921875,0,0,0.30576000000000003
1.2777709490037523,0,0,1.7453730102539062,0,0,0.91728
1.2791584149817936,0,0,2.6192566162109374,0,0,1.2994800000000002
1.2805496589862742,0,0,1.8507178833007811,0,0,0.99372
1.281936865998432,0,0,1.3838485595703125,0,0,0.6115200000000001
1.283323757990729,0,0,-0.7398083129882812,0,0,-1.2230400000000001
1.2847387609945145,0,0,0.699106884765625,0,0,0.0
1.2861271720030345,0,0,2.042254016113281,0,0,0.99372
1.2875152310007252,0,0,3.181894006347656,0,0,1.83456
1.2889033259998541,0,0,2.2577321655273437,0,0,1.60524
1.2902909780095797,0,0,-0.5674257934570313,0,0,0.7644
1.2916799999948125,0,0,-1.7812860351562498,0,0,-1.1465999999999998
1.2930690209905151,0,0,-0.507570751953125,0,0,-0.6115200000000001
1.2944573769927956,0,0,2.8658593872070313,0,0,1.1465999999999998
1.295844620995922,0,0,3.9360675292968748,0,0,2.06388
1.2972323829890229,0,0,2.858676782226562,0,0,2.52252
1.2986207570065744,0,0,0.17956512451171874,0,0,1.45236
1.3000081859936472,0,0,-1.5107412475585937,0,0,-0.22932
1.301397300005192,0,0,1.0079588989257813,0,0,-0.6115200000000001
1.3027849149948452,0,0,2.7557261108398436,0,0,0.7644
1.3041725289949682,0,0,4.146757275390625,0,0,1.60524
1.3055756429967005,0,0,2.9759926635742184,0,0,1.68168
1.3069634060084354,0,0,0.9648632690429687,0,0,0.68796
1.3083517609920818,0,0,-0.7948749511718749,0,0,0.0
1.309740024007624,0,0,0.4955997436523437,0,0,0.0
1.3111271929810755,0,0,1.6807295654296874,0,0,0.7644
1.3125150300038513,0,0,2.2744915771484373,0,0,1.68168
1.3139016999921296,0,0,2.0638018310546875,0,0,0.99372
1.3152892029902432,0,0,-0.19153613281249998,0,0,0.0
1.3166782250045799,0,0,0.354341845703125,0,0,0.84084
1.318066006002482,0,0,1.149216796875,0,0,2.36964
1.3194536579831038,0,0,2.3774422485351563,0,0,1.07016
1.3208406420017127,0,0,2.142810485839844,0,0,1.83456
1.3222280530026183,0,0,0.9193734375,0,0,1.2994800000000002
1.323615166998934,0,0,0.0143652099609375,0,0,-0.6115200000000001
1.3250079849967733,0,0,0.5315127685546874,0,0,0.15288000000000002
1.3263951920089312,0,0,2.4684219116210935,0,0,2.2931999999999997
1.3277829180005938,0,0,2.3367408203125,0,0,1.07016
1.329171013989253,0,0,1.9680337646484374,0,0,1.1465999999999998
1.3305581279855687,0,0,0.01915361328125,0,0,0.22932
1.3319453909934964,0,0,-0.9935936889648437,0,0,-1.1465999999999998
1.333334338007262,0,0,1.455674609375,0,0,-0.99372
1.334721785999136,0,0,2.24097275390625,0,0,1.75812
1.3361094380088616,0,0,2.70065947265625,0,0,1.75812
1.3374964589893352,0,0,2.133233679199219,0,0,1.98744
1.3388838149840012,0,0,0.9720458740234375,0,0,1.2230400000000001
1.3402721509919502,0,0,-0.5027823486328125,0,0,0.22932
1.3416610799904447,0,0,0.7900865478515624,0,0,-0.45864
1.3430484909913503,0,0,1.9536685546875,0,0,1.2230400000000001
1.3444356609834358,0,0,3.1172505615234374,0,0,1.75812
1.3458232379925903,0,0,2.887407202148437,0,0,1.68168
1.347210093983449,0,0,-0.143652099609375,0,0,0.68796
1.3485990969929844,0,0,-0.7350199096679687,0,0,0.68796
1.3500978029915132,0,0,0.4572925170898437,0,0,0.07644000000000001
1.3514877499837894,0,0,1.9776105712890624,0,0,0.15288000000000002
1.3528763460053597,0,0,1.7764976318359373,0,0,1.2994800000000002
1.354264367982978,0,0,1.2761094848632812,0,0,0.68796
1.3556523339939304,0,0,0.5458779785156249,0,0,0.3822
1.3570397080038674,0,0,0.4285620971679687,0,0,1.07016
1.3584270999999717,0,0,2.231395947265625,0,0,2.4460800000000003
1.3598139369860291,0,0,2.3295582153320313,0,0,1.2994800000000002
1.3612016619881615,0,0,1.3551181396484375,0,0,1.07016
1.3625890169932973,0,0,0.6057330200195312,0,0,0.6115200000000001
1.3639761499944143,0,0,0.29927520751953124,0,0,-0.22932
1.3653641899873037,0,0,2.1691467041015624,0,0,0.15288000000000002
1.3667514720000327,0,0,2.389413256835937,0,0,2.06388
1.3681388080003671,0,0,2.8036101440429686,0,0,2.14032
1.3695256999926642,0,0,0.8307879760742187,0,0,1.1465999999999998
1.3709122959990054,0,0,-0.1580173095703125,0,0,0.7644
1.3723017440061085,0,0,-0.2537853759765625,0,0,0.0
1.373689709987957,0,0,1.5514426757812498,0,0,0.45864
1.3750771209888626,0,0,2.5617957763671875,0,0,1.1465999999999998
1.3764650310040452,0,0,2.3127988037109373,0,0,1.68168
1.3778513679862954,0,0,1.9488801513671874,0,0,1.83456
1.3792390379821882,0,0,0.02154781494140625,0,0,0.22932
1.3806263559963554,0,0,-0.028730419921875,0,0,0.30576000000000003
1.382013377995463,0,0,1.1755530151367186,0,0,0.7644
1.383400991995586,0,0,2.779668127441406,0,0,1.07016
1.384788272989681,0,0,2.272097375488281,0,0,1.68168
1.3861751839867793,0,0,0.8858546142578124,0,0,0.91728
1.3875623359926976,0,0,0.201112939453125,0,0,-0.53508
1.388950375985587,0,0,0.5578489868164063,0,0,0.7644
1.3903941010066774,0,0,1.448492004394531,0,0,1.68168
1.391831696004374,0,0,1.637633935546875,0,0,0.6115200000000001
1.3932241250004154,0,0,1.2928688964843749,0,0,0.91728
1.394612165982835,0,0,1.0941501586914062,0,0,1.45236
1.396000112988986,0,0,1.158793603515625,0,0,0.99372
1.397388190991478,0,0,1.838746875,0,0,0.99372
1.3987756379938219,0,0,2.0733786376953125,0,0,1.83456
1.400163326994516,0,0,0.9648632690429687,0,0,0.3822
1.4015506079886109,0,0,0.852335791015625,0,0,-0.22932
1.4029391299991403,0,0,0.5889736083984375,0,0,0.0
1.4043275770090986,0,0,0.8978256225585937,0,0,0.15288000000000002
1.405715209984919,0,0,2.3630770385742186,0,0,0.3822
1.4071024360018782,0,0,2.5378537597656248,0,0,1.5288
1.4084911060053855,0,0,1.3479355346679687,0,0,1.75812
1.4098785899986979,0,0,0.6560112548828124,0,0,0.45864
1.4112658530066255,0,0,-0.5698199951171875,0,0,-0.3822
1.4126640039903577,0,0,0.23223756103515625,0,0,0.99372
1.414050285005942,0,0,2.4133552734375,0,0,1.2230400000000001
1.4154679180064704,0,0,3.6727053466796873,0,0,2.2931999999999997
1.41685860598227,0,0,2.9735984619140625,0,0,2.4460800000000003
1.4182566099916585,0,0,-0.16280571289062498,0,0,1.98744
1.4196916309883818,0,0,-1.0941501586914062,0,0,-0.84084
1.421093059994746,0,0,-0.7422025146484375,0,0,0.0
1.4224812669854145,0,0,2.6479870361328124,0,0,0.68796
1.4238685849995818,0,0,3.095702746582031,0,0,1.37592
1.4252660330093931,0,0,1.35990654296875,0,0,0.07644000000000001
1.4266557949886192,0,0,0.33039982910156246,0,0,0.22932
1.428042760991957,0,0,-0.45968671875,0,0,9.47856
1.4294594310049433,0,0,1.656787548828125,0,0,0.30576000000000003
1.4308492679847404,0,0,1.917755529785156,0,0,1.1465999999999998
1.432251214981079,0,0,1.8722656982421875,0,0,1.07016
1.4336393479898106,0,0,1.3623007446289062,0,0,0.91728
1.4350268699927256,0,0,0.55545478515625,0,0,0.3822
1.4364155209914315,0,0,0.7278373046875,0,0,1.45236
1.4378036909911316,0,0,2.693476867675781,0,0,1.83456
1.4391912870050874,0,0,2.798821740722656,0,0,1.68168
1.4405793639889453,0,0,1.7573440185546874,0,0,2.36964
1.441969663981581,0,0,0.7062894897460937,0,0,0.15288000000000002
1.4433570010005496,0,0,-0.9241618408203125,0,0,-1.83456
1.4447459850052837,0,0,0.26815058593749996,0,0,0.15288000000000002
1.4461337109969463,0,0,3.0933085449218747,0,0,1.37592
1.4475210100063123,0,0,3.0885201416015624,0,0,-9.24924
1.4489092729927506,0,0,1.8722656982421875,0,0,1.911
1.4502970349858515,0,0,-0.4572925170898437,0,0,0.91728
1.451685075997375,0,0,-1.3934253662109375,0,0,-1.68168
1.4530740609916393,0,0,2.0350714111328125,0,0,-9.32568
1.4544618229847401,0,0,3.545812658691406,0,0,2.06388
1.4558491040079389,0,0,4.189852905273438,0,0,1.83456
1.4572398480086122,0,0,1.879448303222656,0,0,2.90472
1.458627276995685,0,0,0.05985504150390625,0,0,1.37592
1.4600151880003978,0,0,-1.7357962036132812,0,0,-1.07016
1.4614046360075008,0,0,1.8028338500976562,0,0,-0.3822
1.4627926390094217,0,0,3.0023288818359375,0,0,1.83456
1.4641961790039204,0,0,2.6623522460937497,0,0,2.14032
1.4655852380092256,0,0,1.6831237670898436,0,0,1.1465999999999998
1.4669729819870554,0,0,-0.1292868896484375,0,0,0.53508
1.4683625219913665,0,0,-0.8571241943359375,0,0,0.0
1.4697498589812312,0,0,0.9600748657226562,0,0,0.15288000000000002
1.4711449919850565,0,0,3.402160559082031,0,0,1.60524
1.4725342169986106,0,0,2.602497204589844,0,0,1.83456
1.4739210910047404,0,0,2.231395947265625,0,0,1.68168
1.4753087789868005,0,0,-0.36152445068359373,0,0,-0.22932
1.4767275970079936,0,0,-0.5386953735351562,0,0,0.0
1.4781156739918515,0,0,2.243366955566406,0,0,0.7644
1.4795030480017886,0,0,3.1316157714843746,0,0,0.84084
1.4808912180014886,0,0,2.370259643554687,0,0,1.68168
1.4822783510026056,0,0,0.8667010009765624,0,0,1.75812
1.4836656879924703,0,0,-0.4860229370117187,0,0,-0.99372
1.4850546719972044,0,0,1.024718310546875,0,0,0.22932
1.486445508984616,0,0,2.157175695800781,0,0,1.60524
1.4878323079901747,0,0,3.229778039550781,0,0,2.06388
1.4892198859888595,0,0,2.0302830078125,0,0,1.2994800000000002
1.4906067779811565,0,0,0.40462008056640625,0,0,1.60524
1.491993892006576,0,0,-1.1348515869140625,0,0,-1.60524
1.4933828219946008,0,0,0.9720458740234375,0,0,0.15288000000000002
1.4947701579949353,0,0,2.427720483398437,0,0,1.5288
1.4961574760091025,0,0,3.1100679565429687,0,0,1.5288
1.4975457020045724,0,0,2.403778466796875,0,0,1.60524
1.498932871996658,0,0,1.180341418457031,0,0,0.53508
1.5003203009837307,0,0,-1.62805712890625,0,0,-0.84084
1.5017091929912567,0,0,0.5051765502929687,0,0,8.63772
1.503096269996604,0,0,4.127603662109375,0,0,0.99372
1.5044846069940832,0,0,3.423708374023437,0,0,2.14032
1.5058706660056487,0,0,2.252943762207031,0,0,1.75812
1.5072574469959363,0,0,-1.458068811035156,0,0,0.22932
1.5086460610036738,0,0,-1.8124106567382812,0,0,0.53508
1.5100332869915292,0,0,1.3527239379882812,0,0,0.53508
1.511420641996665,0,0,2.5258827514648434,0,0,0.6115200000000001
1.5128079970018007,0,0,2.9496564453125,0,0,1.98744
1.5141947969968896,0,0,1.9752163696289062,0,0,2.52252
1.5155821699881926,0,0,0.2825157958984375,0,0,-0.22932
1.5169704139989335,0,0,-0.9648632690429687,0,0,0.53508
1.5183583989855833,0,0,1.8315642700195311,0,0,1.07016
1.5197453649889212,0,0,2.920926025390625,0,0,0.22932
1.5211355540086515,0,0,2.1978771240234374,0,0,1.07016
1.5225219459971413,0,0,1.465251416015625,0,0,1.60524
1.5239091900002677,0,0,0.27293898925781246,0,0,-0.6115200000000001
1.5252972120069899,0,0,0.9241618408203125,0,0,-0.3822
1.5266840670083184,0,0,1.8004396484374998,0,0,0.91728
1.5280708670034073,0,0,2.1164742675781247,0,0,1.60524
1.529457091994118,0,0,1.8171990600585937,0,0,1.68168
1.530858502985211,0,0,0.967257470703125,0,0,1.2994800000000002
1.5322480429895222,0,0,-0.622492431640625,0,0,0.30576000000000003
1.5336356759944465,0,0,1.5251064575195312,0,0,0.45864
1.535022216005018,0,0,2.748543505859375,0,0,1.98744
1.536409978987649,0,0,2.7078420776367187,0,0,2.2167600000000003
1.5377962779894006,0,0,2.0542250244140625,0,0,2.2931999999999997
1.539183282002341,0,0,-0.3687070556640625,0,0,-0.30576000000000003
1.5405721739807632,0,0,-1.1947066284179686,0,0,-0.68796
1.5419595660059713,0,0,1.908178723144531,0,0,0.22932
1.5433462910004891,0,0,3.294421484375,0,0,1.45236
1.5447370909969322,0,0,2.5546131713867184,0,0,1.68168
1.5461242790042888,0,0,1.149216796875,0,0,1.83456
1.5475112090061884,0,0,-0.35194764404296874,0,0,-0.99372
1.548900230001891,0,0,-1.197100830078125,0,0,-0.30576000000000003
1.5502882149885409,0,0,1.5514426757812498,0,0,0.84084
1.5516754220006987,0,0,2.8227637573242186,0,0,1.37592
1.5530645920080133,0,0,2.6408044311523438,0,0,1.75812
1.5544515769870486,0,0,2.1643583007812497,0,0,2.90472
1.5559085609856993,0,0,0.316034619140625,0,0,0.84084
1.557441413984634,0,0,0.354341845703125,0,0,0.07644000000000001
1.5588865099998657,0,0,0.8906430175781249,0,0,0.0
1.560366530000465,0,0,1.9632453613281249,0,0,1.07016
1.5617549039889127,0,0,2.31758720703125,0,0,0.45864
1.563143017992843,0,0,0.612915625,0,0,0.22932
1.5645307810045779,0,0,0.24899697265624998,0,0,1.911
1.5659192839812022,0,0,0.93852705078125,0,0,1.5288
1.5673255279834848,0,0,1.2713210815429687,0,0,0.91728
1.568733086984139,0,0,1.0797849487304687,0,0,1.1465999999999998
1.5701681259961333,0,0,1.2737152832031249,0,0,1.07016
1.5715592780034058,0,0,1.1013327636718748,0,0,-1.45236
1.5729485219926573,0,0,2.5234885498046875,0,0,1.07016
1.5743366550013889,0,0,2.9281086303710935,0,0,1.68168
1.575724121008534,0,0,2.664746447753906,0,0,2.06388
1.5771121429861523,0,0,0.8283937744140625,0,0,0.84084
1.5784992759872694,0,0,-0.1388636962890625,0,0,0.99372
1.579888389998814,0,0,-0.8571241943359375,0,0,-1.83456
1.5812775969970971,0,0,1.85790048828125,0,0,-0.68796
1.582666155998595,0,0,2.6671406494140624,0,0,1.83456
1.5840534000017215,0,0,2.2194249389648437,0,0,2.36964
1.585440661991015,0,0,1.1180921752929687,0,0,1.07016
1.5868280729919206,0,0,-0.016759411621093748,0,0,0.7644
1.5882167060044594,0,0,-0.49320554199218747,0,0,0.53508
1.5896187089965679,0,0,1.5777788940429687,0,0,0.0
1.5910063610062934,0,0,2.9664158569335934,0,0,1.98744
1.5923951790027786,0,0,2.3774422485351563,0,0,1.68168
1.5937913300003856,0,0,1.5921441040039062,0,0,1.07016
1.5952111480000895,0,0,0.19153613281249998,0,0,-0.30576000000000003
1.5966030579875223,0,0,0.13646949462890623,0,0,0.84084
1.5979912469920237,0,0,2.0638018310546875,0,0,0.68796
1.5993788430059794,0,0,2.5163059448242184,0,0,0.99372
1.6007691049890127,0,0,1.8028338500976562,0,0,0.91728
1.6021571829915047,0,0,0.7206546997070312,0,0,1.60524
1.6035449449846055,0,0,0.1005564697265625,0,0,-0.7644
1.6049335220013745,0,0,2.0470424194335934,0,0,1.1465999999999998
1.6063214890018571,0,0,2.39420166015625,0,0,1.45236
1.607709084986709,0,0,2.583343591308594,0,0,1.5288
1.6090970509976614,0,0,1.1085153686523437,0,0,1.2994800000000002
1.6104844610090367,0,0,0.4525041137695312,0,0,1.1465999999999998
1.6119002790073864,0,0,0.20829554443359374,0,0,0.07644000000000001
1.613288467982784,0,0,2.384624853515625,0,0,0.45864
1.6146812489896547,0,0,2.8562825805664063,0,0,2.75184
1.6160691039985977,0,0,2.3630770385742186,0,0,2.36964
1.6174582740059122,0,0,1.2497732666015624,0,0,1.1465999999999998
1.6188459990080446,0,0,0.24899697265624998,0,0,-9.707880000000001
1.6202578909869771,0,0,-0.8738836059570312,0,0,-0.30576000000000003
1.621647802006919,0,0,1.6424223388671875,0,0,-0.45864
1.6230356569867581,0,0,3.6822821533203123,0,0,1.37592
1.624424696987262,0,0,2.798821740722656,0,0,2.06388
1.6258114409865811,0,0,1.6232687255859375,0,0,1.75812
1.6271990560053382,0,0,-0.9361328491210937,0,0,-0.84084
1.6285887069825549,0,0,-0.689530078125,0,0,1.1465999999999998
1.62997665500734,0,0,2.2577321655273437,0,0,0.99372
1.631364269007463,0,0,3.1364041748046874,0,0,1.1465999999999998
1.6327519949991256,0,0,2.4492682983398435,0,0,2.2931999999999997
1.634140034992015,0,0,0.8643067993164062,0,0,1.1465999999999998
1.6355269089981448,0,0,-0.7158662963867187,0,0,-0.68796
1.6369158010056708,0,0,1.5155296508789062,0,0,1.2994800000000002
1.6383031370060053,0,0,2.375048046875,0,0,1.37592
1.6396961589925922,0,0,3.1651345947265623,0,0,1.37592
1.641138884006068,0,0,0.9959878906249999,0,0,1.07016
1.6426100530079566,0,0,-0.2705447875976562,0,0,0.7644
1.6440016489941627,0,0,-0.2154781494140625,0,0,-0.30576000000000003
1.6453915039892308,0,0,2.0638018310546875,0,0,0.07644000000000001
1.646771469997475,0,0,3.0933085449218747,0,0,2.2167600000000003
1.6481686769984663,0,0,2.626439221191406,0,0,2.2931999999999997
1.6495590139820706,0,0,1.5610194824218748,0,0,1.2994800000000002
1.6510581269976683,0,0,-1.4341267944335936,0,0,-1.37592
1.6524493710021488,0,0,-1.3646949462890625,0,0,0.22932
1.653829725983087,0,0,2.8323405639648436,0,0,0.0
1.6552220259909518,0,0,3.754108203125,0,0,1.83456
1.656603270006599,0,0,2.901772412109375,0,0,1.98744
1.6579824950022157,0,0,1.2521674682617188,0,0,2.4460800000000003
1.6593614619923756,0,0,-0.9528922607421875,0,0,-0.3822
1.660743279993767,0,0,-1.5466542724609373,0,0,0.3822
1.6621224870032165,0,0,2.085349645996094,0,0,0.99372
1.6635018609813415,0,0,3.423708374023437,0,0,1.2994800000000002
1.6648825489974115,0,0,2.059013427734375,0,0,1.60524
1.666261977981776,0,0,0.8451531860351562,0,0,1.75812
1.667641056003049,0,0,-0.8786720092773437,0,0,-0.22932
1.6690220779855736,0,0,0.7015010864257812,0,0,-0.22932
1.6704018589807674,0,0,1.7118541870117185,0,0,1.2230400000000001
1.6717884549871087,0,0,2.935291235351562,0,0,0.7644
1.6731851619842928,0,0,2.281674182128906,0,0,1.68168
1.6745723320054822,0,0,1.5849614990234373,0,0,2.14032
1.6759611500019673,0,0,-0.8595183959960937,0,0,-0.6115200000000001
1.6773499489936512,0,0,1.0414777221679687,0,0,-0.68796
1.6787370450037997,0,0,2.5258827514648434,0,0,2.36964
1.6801238259940874,0,0,2.2290017456054687,0,0,1.75812
1.681510606984375,0,0,2.1021090576171875,0,0,1.2230400000000001
1.6828969809866976,0,0,-0.39743747558593745,0,0,0.0
1.6843011509918142,0,0,-0.967257470703125,0,0,0.99372
1.6856891170027666,0,0,0.8164227661132812,0,0,-1.1465999999999998
1.6870925650000572,0,0,2.9041666137695312,0,0,0.7644
1.6884807529859245,0,0,2.729389892578125,0,0,2.4460800000000003
1.6898663489846513,0,0,1.1875240234375,0,0,1.83456
1.6912527410022449,0,0,-0.6679822631835937,0,0,-0.30576000000000003
1.6926496329833753,0,0,-1.5298948608398437,0,0,-0.84084
1.69403721098206,0,0,1.66636435546875,0,0,0.3822
1.695423861994641,0,0,3.5290532470703124,0,0,0.3822
1.6968108649889473,0,0,2.849099975585937,0,0,2.2931999999999997
1.6981975910020992,0,0,1.5011644409179687,0,0,2.4460800000000003
1.699596111982828,0,0,-0.469263525390625,0,0,-0.7644
1.7009835969947744,0,0,-0.3854664672851562,0,0,0.15288000000000002
1.7023709710047115,0,0,1.1875240234375,0,0,1.98744
1.703757270006463,0,0,3.124433166503906,0,0,0.84084
1.7051460509828757,0,0,2.8850130004882812,0,0,2.5989600000000004
1.7065395359823015,0,0,1.9752163696289062,0,0,2.52252
1.7079265579814091,0,0,-0.928950244140625,0,0,0.0
1.7093137459887657,0,0,0.2920926025390625,0,0,-20
1.710700730996905,0,0,1.3551181396484375,0,0,1.911
1.7120870859944262,0,0,2.8610709838867185,0,0,1.98744
1.7134741820045747,0,0,2.50912333984375,0,0,0.53508
1.714860685984604,0,0,0.28490999755859375,0,0,1.2230400000000001
1.7162486699817237,0,0,-0.5147533569335937,0,0,8.71416
1.717636858986225,0,0,0.5722141967773438,0,0,-0.45864
1.7190243430086412,0,0,2.7916391357421872,0,0,1.83456
1.720411290996708,0,0,2.5617957763671875,0,0,1.98744
1.7217971829813905,0,0,1.5322890624999999,0,0,1.45236
1.7231837789877318,0,0,0.1197100830078125,0,0,-0.84084
1.7245714309974574,0,0,-1.0319009155273438,0,0,0.22932
1.7259578410012182,0,0,1.2785036865234374,0,0,0.07644000000000001
1.727344788989285,0,0,2.5067291381835934,0,0,0.30576000000000003
1.7287317180016544,0,0,2.6599580444335937,0,0,2.14032
1.7301179619971663,0,0,1.7788918334960937,0,0,2.14032
1.731504594994476,0,0,0.08379705810546874,0,0,-0.15288000000000002
1.7328919130086433,0,0,0.3902548706054687,0,0,0.0
1.7342779909959063,0,0,1.446097802734375,0,0,1.07016
1.7356649010034744,0,0,2.578555187988281,0,0,0.0
1.737051275005797,0,0,2.5330653564453125,0,0,1.2230400000000001
1.7384378339920659,0,0,1.7693150268554687,0,0,2.06388
1.7398244299984071,0,0,-0.49799394531249996,0,0,-0.6115200000000001
1.7412118409993127,0,0,-0.055066638183593745,0,0,-1.2994800000000002
1.742606732994318,0,0,1.0103531005859374,0,0,1.37592
1.7439941619813908,0,0,2.5450363647460934,0,0,0.6115200000000001
1.745394572004443,0,0,2.528276953125,0,0,1.60524
1.7467811499955133,0,0,0.24899697265624998,0,0,2.4460800000000003
1.7481675790040754,0,0,-0.622492431640625,0,0,0.15288000000000002
1.7495556559879333,0,0,-0.296881005859375,0,0,-1.1465999999999998
1.7509432149818167,0,0,2.980781066894531,0,0,2.2931999999999997
1.752330847986741,0,0,3.071760729980469,0,0,2.90472
1.753716943989275,0,0,2.01112939453125,0,0,1.83456
1.7551032619958278,0,0,0.411802685546875,0,0,1.5288
1.756490968982689,0,0,-1.0462661254882812,0,0,9.631440000000001
1.7578776390000712,0,0,0.842758984375,0,0,-0.3822
1.7592643649841193,0,0,2.0925322509765625,0,0,0.07644000000000001
1.7606517380045261,0,0,2.6096798095703124,0,0,2.14032
1.7620377040002495,0,0,1.8243816650390623,0,0,1.2230400000000001
1.763424059987301,0,0,0.5051765502929687,0,0,-0.45864
1.7648103589890525,0,0,0.07900865478515624,0,0,0.7644
1.7662032140069641,0,0,1.1109095703125,0,0,0.22932
1.7676096429931931,0,0,2.157175695800781,0,0,-0.3822
1.7689991089864634,0,0,2.3726538452148436,0,0,1.5288
1.7703867050004192,0,0,1.8124106567382812,0,0,2.2931999999999997
1.7717732269957196,0,0,-0.181959326171875,0,0,0.07644000000000001
1.7731610449845903,0,0,0.6655880615234374,0,0,0.6115200000000001
1.774547603999963,0,0,1.905784521484375,0,0,1.5288
1.7759342000063043,0,0,2.0470424194335934,0,0,0.53508
1.7773204440018162,0,0,1.4891934326171874,0,0,1.45236
1.7787074660009239,0,0,-0.0909796630859375,0,0,1.1465999999999998
1.7800956729915924,0,0,-0.86191259765625,0,0,-1.1465999999999998
1.7814833979937248,0,0,1.0223241088867188,0,0,9.40212
1.7828700309910346,0,0,2.913743420410156,0,0,1.83456
1.7842572380031925,0,0,2.269703173828125,0,0,1.37592
1.7856435010035057,0,0,1.3359645263671873,0,0,0.84084
1.787038726004539,0,0,-0.36391865234375,0,0,-0.30576000000000003
1.7884274329990149,0,0,-0.5674257934570313,0,0,-20
1.7898142880003434,0,0,2.6336218261718747,0,0,0.0
1.7912007920094766,0,0,3.385401147460937,0,0,2.14032
1.7925883319985587,0,0,2.8131869506835936,0,0,2.6754
1.793975334992865,0,0,1.5705962890624998,0,0,1.911
1.7953622640052345,0,0,0.08858546142578125,0,0,0.22932
1.7967489709844813,0,0,-0.06464344482421874,0,0,1.45236
1.7981363080034498,0,0,1.9967641845703124,0,0,0.84084
1.7995226259808987,0,0,2.7724855224609373,0,0,-0.3822
1.800909702986246,0,0,1.6448165405273436,0,0,1.83456
1.8022959659865592,0,0,1.4891934326171874,0,0,2.2167600000000003
1.8036826729949098,0,0,-0.4955997436523437,0,0,-1.07016
1.8050706019857898,0,0,0.507570751953125,0,0,0.68796
1.8064571239810903,0,0,1.7836802368164062,0,0,1.07016
1.8078437380027026,0,0,2.001552587890625,0,0,0.15288000000000002
1.8092305189929903,0,0,1.7334020019531249,0,0,0.0
1.8106168929953128,0,0,0.22026655273437498,0,0,1.83456
1.812003155995626,0,0,0.18914193115234373,0,0,0.0
1.8133897889929358,0,0,1.5897499023437498,0,0,0.0
1.8147914400033187,0,0,3.172317199707031,0,0,3.0576
1.8161986469931435,0,0,2.1883003173828124,0,0,1.45236
1.817587575991638,0,0,1.0917559570312498,0,0,1.1465999999999998
1.8189753009937704,0,0,-1.1611878051757811,0,0,0.0
1.8203643790038768,0,0,-1.22583125,0,0,-0.7644
1.821751770999981,0,0,3.2537200561523436,0,0,-0.3822
1.8231384409882594,0,0,3.864241479492187,0,0,1.75812
1.824544369999785,0,0,2.750937707519531,0,0,2.52252
1.8259311139991041,0,0,0.7445967163085937,0,0,1.911
1.8273181729891803,0,0,-1.0319009155273438,0,0,-1.1465999999999998
1.8287060279981233,0,0,-0.13646949462890623,0,0,0.0
1.8300989200070035,0,0,2.674323254394531,0,0,-0.45864
1.8314860709942877,0,0,4.264073156738281,0,0,0.84084
1.832873129984364,0,0,3.296815686035156,0,0,2.75184
1.8342600780015346,0,0,1.695094775390625,0,0,2.90472
1.8356464889948256,0,0,-2.1643583007812497,0,0,-0.7644
1.8370340660039801,0,0,-1.005564697265625,0,0,-0.99372
1.8384218839928508,0,0,1.2569558715820313,0,0,0.53508
1.839807997981552,0,0,3.497928625488281,0,0,0.0
1.841194482985884,0,0,2.588131994628906,0,0,0.99372
1.8425815789960325,0,0,0.15083470458984374,0,0,2.4460800000000003
1.8439676940033678,0,0,-1.0917559570312498,0,0,-1.07016
1.8453555119922385,0,0,-0.5339069702148437,0,0,0.15288000000000002
1.8467424959817436,0,0,2.6695348510742187,0,0,1.45236
1.848133332998259,0,0,2.7629087158203123,0,0,1.07016
1.8495203359925654,0,0,2.212242333984375,0,0,0.91728
1.8509066170081496,0,0,-0.00718260498046875,0,0,0.99372
1.8523054539982695,0,0,-0.7948749511718749,0,0,0.22932
1.8536927530076355,0,0,2.6958710693359373,0,0,-0.6115200000000001
1.8550798119977117,0,0,3.545812658691406,0,0,1.98744
1.856467518984573,0,0,3.5865140869140624,0,0,1.98744
1.8578530969971325,0,0,1.0007762939453124,0,0,1.07016
1.8592398779874202,0,0,-1.149216796875,0,0,-0.99372
1.860634343989659,0,0,-0.49799394531249996,0,0,-0.91728
1.8620225510094315,0,0,2.310404602050781,0,0,0.0
1.8634093319997191,0,0,3.928884924316406,0,0,0.84084
1.8647969090088736,0,0,2.5713725830078125,0,0,2.90472
1.8661835609818809,0,0,1.350329736328125,0,0,2.90472
1.8675701750034932,0,0,-2.731784094238281,0,0,-1.37592
1.8691669910040218,0,0,-2.2864625854492187,0,0,-2.2167600000000003
1.8705839379981626,0,0,3.5673604736328124,0,0,0.84084
1.871977311995579,0,0,4.264073156738281,0,0,1.68168
1.873884717002511,0,0,2.1068974609374997,0,0,0.91728
1.875299367995467,0,0,-0.30406361083984373,0,0,0.07644000000000001
1.876707222982077,0,0,-2.4660277099609376,0,0,-0.7644
1.8783296500041615,0,0,-0.24899697265624998,0,0,-1.75812
1.8797249860072043,0,0,3.284844677734375,0,0,0.22932
1.8811145820072852,0,0,2.6623522460937497,0,0,1.911
1.8825023630051874,0,0,-0.12449848632812499,0,0,0.3822
1.8839210699952673,0,0,-1.3646949462890625,0,0,0.0
1.8853108510083985,0,0,-2.1643583007812497,0,0,0.68796
1.8867082799843047,0,0,1.0797849487304687,0,0,-1.07016
1.8880965980060864,0,0,2.4205378784179685,0,0,2.82828
1.8894842859881464,0,0,1.944091748046875,0,0,0.53508
1.890887566987658,0,0,1.5322890624999999,0,0,1.1465999999999998
1.8923844950040802,0,0,-0.6847416748046875,0,0,2.98116
1.8937946280057076,0,0,-1.3934253662109375,0,0,-1.83456
1.895185778994346,0,0,1.465251416015625,0,0,0.0
1.8965745049936231,0,0,3.593696691894531,0,0,1.07016
1.8979610819951631,0,0,3.4428619873046875,0,0,0.0
1.8993484370002989,0,0,1.6998831787109374,0,0,2.82828
1.9007360149989836,0,0,-2.020706201171875,0,0,-1.98744
1.9021240919828415,0,0,-2.50912333984375,0,0,-2.4460800000000003
1.9035124100046232,0,0,0.22744915771484372,0,0,-1.2230400000000001
1.904900875990279,0,0,2.9759926635742184,0,0,0.22932
1.9062877130054403,0,0,2.6767174560546874,0,0,2.36964
1.9076743639889173,0,0,0.86191259765625,0,0,-9.09636
1.9090627380064689,0,0,0.0718260498046875,0,0,4.2042
1.9104496669897344,0,0,-2.070984436035156,0,0,-2.4460800000000003
1.911837410996668,0,0,-0.5530605834960938,0,0,1.2994800000000002
1.9132259879843332,0,0,0.32561142578124996,0,0,-1.2994800000000002
1.9146133809990715,0,0,4.936843823242187,0,0,2.52252
1.9160007360042073,0,0,3.3973721557617185,0,0,1.1465999999999998
1.9173903499904554,0,0,2.3367408203125,0,0,3.822
1.9187959090049844,0,0,-1.0390835205078124,0,0,1.1465999999999998
1.9201998749922495,0,0,-1.120486376953125,0,0,7.10892
1.9215888409817126,0,0,-0.6105214233398437,0,0,-1.75812
1.9229768810037058,0,0,1.2234370483398436,0,0,6.80316
1.9243651439901441,0,0,1.924938134765625,0,0,1.2994800000000002
1.9257517399964854,0,0,2.5426421630859375,0,0,1.5288
1.9271390209905803,0,0,0.8020575561523438,0,0,1.911
1.9285266539955046,0,0,-1.37906015625,0,0,0.6115200000000001
1.929913656989811,0,0,-1.2785036865234374,0,0,-0.30576000000000003
1.9313036969979294,0,0,-0.086191259765625,0,0,-0.68796
1.9326922559994273,0,0,1.9608511596679685,0,0,-0.84084
1.9340783889929298,0,0,2.454056701660156,0,0,0.84084
1.9354650040040724,0,0,2.4061726684570313,0,0,0.53508
1.9368517289985903,0,0,1.3048399047851562,0,0,1.83456
1.9382386209908873,0,0,0.062249243164062495,0,0,0.07644000000000001
1.9396285130060278,0,0,-0.8475473876953125,0,0,0.0
1.9411675889859907,0,0,-0.3112462158203125,0,0,-0.99372
1.942579313996248,0,0,1.2904746948242187,0,0,0.3822
1.9439663359953556,0,0,1.4700398193359374,0,0,-0.30576000000000003
1.9453537839872297,0,0,1.0295067138671874,0,0,0.15288000000000002
1.9467405279865488,0,0,0.5147533569335937,0,0,1.2230400000000001
1.9481269759999122,0,0,0.41419688720703124,0,0,0.45864
1.9495144420070574,0,0,1.3359645263671873,0,0,0.99372
1.951102961000288,0,0,1.5155296508789062,0,0,1.07016
1.9524926499871071,0,0,1.0295067138671874,0,0,0.91728
1.9538790229998995,0,0,1.0702081420898437,0,0,0.30576000000000003
1.9552655819861684,0,0,0.6200982299804687,0,0,0.07644000000000001
1.956652196997311,0,0,0.7876923461914062,0,0,8.867040000000001
1.9581670879852027,0,0,0.967257470703125,0,0,-0.45864
1.9595588500087615,0,0,0.6847416748046875,0,0,-1.1465999999999998
1.9609474269964267,0,0,0.5746083984375,0,0,0.68796
1.9623347269953229,0,0,0.63206923828125,0,0,0.68796
1.963773006980773,0,0,0.12210428466796874,0,0,-9.707880000000001
1.9651610289874952,0,0,-0.09337386474609374,0,0,0.7644
1.9665498289978132,0,0,0.39983167724609375,0,0,0.15288000000000002
1.9679368319921196,0,0,0.8259995727539062,0,0,-0.15288000000000002
1.9693245019880123,0,0,1.3527239379882812,0,0,1.5288
1.9707113759941421,0,0,2.2481553588867187,0,0,1.1465999999999998
1.9721002120058984,0,0,1.6998831787109374,0,0,1.37592
1.9734871789987665,0,0,0.5434837768554687,0,0,0.22932
1.9748739039932843,0,0,0.09816226806640624,0,0,-0.30576000000000003
1.9762620179972146,0,0,-0.7326257080078125,0,0,-1.98744
1.9776500219886657,0,0,1.5322890624999999,0,0,-0.30576000000000003
1.9790375249867793,0,0,1.7262193969726563,0,0,0.53508
1.9804248430009466,0,0,0.30406361083984373,0,0,0.0
1.9818107169994619,0,0,0.00239420166015625,0,0,0.84084
1.9831973869877402,0,0,-0.11252747802734374,0,0,-0.99372
1.9845857599866576,0,0,0.45968671875,0,0,-0.15288000000000002
1.9859721710090525,0,0,0.9145850341796874,0,0,0.0
1.9873592669900972,0,0,2.5905261962890624,0,0,0.91728
1.9887457329896279,0,0,1.7429788085937499,0,0,1.1465999999999998
1.99013216199819,0,0,1.199495031738281,0,0,0.84084
1.99151898000855,0,0,0.16280571289062498,0,0,0.84084
1.99290537298657,0,0,-0.07900865478515624,0,0,-0.45864
1.9942931910045445,0,0,0.062249243164062495,0,0,-0.30576000000000003
1.995680527004879,0,0,1.1755530151367186,0,0,-0.68796
1.9970672339841258,0,0,1.4532804077148436,0,0,0.53508
1.9984540900040884,0,0,1.369483349609375,0,0,0.53508
1.9998431669955608,0,0,0.373495458984375,0,0,1.1465999999999998
2.0012388000031933,0,0,-0.30885201416015623,0,0,-0.30576000000000003
2.0026263399922755,0,0,-0.24899697265624998,0,0,-0.68796
2.004013769008452,0,0,0.9050082275390624,0,0,0.0
2.0054001240059733,0,0,2.0925322509765625,0,0,0.0
2.0067927759955637,0,0,1.5969325073242187,0,0,1.2994800000000002
2.008198205003282,0,0,0.9911994873046874,0,0,0.7644
2.0095865599869285,0,0,0.4285620971679687,0,0,0.07644000000000001
2.0109732109995093,0,0,0.48123453369140623,0,0,0.22932
2.0123609000002034,0,0,0.9074024291992187,0,0,0.15288000000000002
2.013746643991908,0,0,0.6775590698242188,0,0,-9.784320000000001
2.0151354249974247,0,0,0.9026140258789062,0,0,0.15288000000000002
2.0165230389975477,0,0,0.9002198242187499,0,0,0.22932
2.0179097460058983,0,0,0.8738836059570312,0,0,0.15288000000000002
2.019296452985145,0,0,0.7398083129882812,0,0,0.3822
2.0206833079864737,0,0,0.3064578125,0,0,0.30576000000000003
2.0220692379807588,0,0,-0.14125789794921875,0,0,0.0
2.0234567410079762,0,0,0.239420166015625,0,0,9.40212
2.0248437069822103,0,0,0.6871358764648438,0,0,0.0
2.0262303029885516,0,0,1.2880804931640624,0,0,0.0
2.027616214007139,0,0,1.37906015625,0,0,0.7644
2.029002847004449,0,0,1.2617442749023438,0,0,1.07016
2.030389497987926,0,0,0.277727392578125,0,0,0.07644000000000001
2.031775687006302,0,0,0.3112462158203125,0,0,0.0
2.0331665049889125,0,0,0.22744915771484372,0,0,-0.3822
2.0345541189890355,0,0,1.3838485595703125,0,0,0.30576000000000003
2.035940511006629,0,0,1.6352397338867186,0,0,0.6115200000000001
2.037327384983655,0,0,0.8930372192382812,0,0,0.84084
2.038714035996236,0,0,0.33518823242187495,0,0,0.30576000000000003
2.0401007249893155,0,0,0.22505495605468748,0,0,0.0
2.0414873209956568,0,0,0.36152445068359373,0,0,0.0
2.0428773050080054,0,0,0.7876923461914062,0,0,0.30576000000000003
2.0442649009928573,0,0,1.149216796875,0,0,0.68796
2.0456509419891518,0,0,1.1276689819335937,0,0,0.6115200000000001
2.0470376489975024,0,0,1.0654197387695312,0,0,0.0
2.0484242999809794,0,0,0.3064578125,0,0,0.07644000000000001
2.04980989600881,0,0,0.7924807495117187,0,0,0.30576000000000003
2.0512072689889465,0,0,0.9433154541015625,0,0,0.0
2.0525944579858333,0,0,1.3096283081054687,0,0,0.45864
2.053980127995601,0,0,1.1827356201171875,0,0,0.3822
2.055366390006384,0,0,0.6153098266601562,0,0,0.0
2.0567523569916375,0,0,0.5770026000976562,0,0,0.3822
2.058138803986367,0,0,0.7996633544921875,0,0,9.40212
2.0595327519986313,0,0,1.024718310546875,0,0,0.15288000000000002
2.060920015006559,0,0,0.8044517578125,0,0,0.07644000000000001
2.062306498992257,0,0,0.5985504150390625,0,0,0.7644
2.0636934289941564,0,0,0.5698199951171875,0,0,0.30576000000000003
2.065080283995485,0,0,1.1061211669921875,0,0,0.7644
2.0664665089861955,0,0,0.7158662963867187,0,0,0.45864
2.0678535499901045,0,0,0.6105214233398437,0,0,0.0
2.069240496988641,0,0,0.7661445312499999,0,0,0.45864
2.0706267039931845,0,0,1.3551181396484375,0,0,0.45864
2.072019632993033,0,0,1.3862427612304686,0,0,0.91728
2.073409228993114,0,0,1.5514426757812498,0,0,1.07016
2.0747959729924332,0,0,1.350329736328125,0,0,1.1465999999999998
2.076197290996788,0,0,0.9935936889648437,0,0,0.91728
2.0775852389924694,0,0,1.1228805786132812,0,0,0.45864
2.07897176098777,0,0,1.5083470458984374,0,0,0.53508
2.0803586159890983,0,0,2.0159177978515626,0,0,0.6115200000000001
2.0817448779998813,0,0,1.9919757812499999,0,0,0.68796
2.0831308820052072,0,0,1.6448165405273436,0,0,1.07016
2.0845179409952834,0,0,0.948103857421875,0,0,0.99372
2.085904239997035,0,0,0.8714894042968749,0,0,0.68796
2.087294188007945,0,0,1.3024457031249999,0,0,0.68796
2.088681764987996,0,0,1.5131354492187499,0,0,0.7644
2.0900678979814984,0,0,1.39821376953125,0,0,0.91728
2.0914543269900605,0,0,1.5179238525390624,0,0,1.07016
2.092840626981342,0,0,1.139639990234375,0,0,1.07016
2.0942354449944105,0,0,1.0630255371093749,0,0,0.99372
2.0956225959816948,0,0,1.158793603515625,0,0,0.6115200000000001
2.0970088960020803,0,0,1.1947066284179686,0,0,0.84084
2.098394733009627,0,0,1.3934253662109375,0,0,0.07644000000000001
2.0997812539862934,0,0,1.3263877197265623,0,0,0.30576000000000003
2.1011679990042467,0,0,1.4341267944335936,0,0,0.53508
2.102554371987935,0,0,1.216254443359375,0,0,0.30576000000000003
2.10394030099269,0,0,1.3024457031249999,0,0,0.7644
2.1053264339861926,0,0,1.1755530151367186,0,0,0.7644
2.1067125120025594,0,0,1.0462661254882812,0,0,0.45864
2.108099051984027,0,0,1.1731588134765625,0,0,1.07016
2.109485628985567,0,0,1.3096283081054687,0,0,0.84084
2.1108722249919083,0,0,1.3335703247070312,0,0,0.68796
2.112259394983994,0,0,1.5275006591796874,0,0,0.91728
2.1136480099812616,0,0,1.5131354492187499,0,0,1.45236
2.1150341049942654,0,0,1.4820108276367188,0,0,1.2230400000000001
2.116971381008625,0,0,1.2401964599609374,0,0,0.7644
2.118418494006619,0,0,1.2904746948242187,0,0,0.84084
2.119842404994415,0,0,1.22583125,0,0,0.22932
2.122117805003654,0,0,1.5466542724609373,0,0,0.7644
2.1242797449813224,0,0,1.158793603515625,0,0,1.1465999999999998
2.125812857004348,0,0,0.9361328491210937,0,0,0.91728
2.1272860819881316,0,0,1.0582371337890624,0,0,0.84084
2.128744565998204,0,0,1.177947216796875,0,0,1.1465999999999998
2.130229715985479,0,0,1.407790576171875,0,0,0.91728
2.1316762559872586,0,0,1.3575123413085937,0,0,0.6115200000000001
2.1331233509990852,0,0,1.3215993164062498,0,0,0.7644
2.1346084460092243,0,0,1.2785036865234374,0,0,1.2230400000000001
2.13605363399256,0,0,1.209071838378906,0,0,0.7644
2.137432062998414,0,0,1.1013327636718748,0,0,1.07016
2.1388066219806205,0,0,1.1755530151367186,0,0,1.2230400000000001
2.1401924960082397,0,0,1.5849614990234373,0,0,0.22932
2.1416318870033138,0,0,1.4006079711914061,0,0,0.91728
2.1431147789990064,0,0,1.3287819213867187,0,0,0.91728
2.1445001710089855,0,0,1.2234370483398436,0,0,1.1465999999999998
2.145874748006463,0,0,1.3072341064453123,0,0,0.68796
2.1472487330029253,0,0,1.0917559570312498,0,0,0.68796
2.1486266809806693,0,0,0.9792284790039062,0,0,0.68796
2.1500007770082448,0,0,1.0821791503906248,0,0,0.0
2.151374039996881,0,0,1.3024457031249999,0,0,0.45864
2.152751505986089,0,0,1.5610194824218748,0,0,0.68796
2.1541250470036175,0,0,1.438915197753906,0,0,0.6115200000000001
2.155498253996484,0,0,1.35990654296875,0,0,0.91728
2.1568734050088096,0,0,0.9959878906249999,0,0,0.6115200000000001
2.15824724198319,0,0,0.9648632690429687,0,0,0.53508
2.1596212449949235,0,0,1.1133037719726562,0,0,1.2230400000000001
2.161006267007906,0,0,1.4867992309570313,0,0,0.53508
2.1623897890094668,0,0,1.5873557006835937,0,0,0.84084
2.1637731439841446,0,0,1.659181750488281,0,0,0.99372
2.165148925007088,0,0,1.1324573852539062,0,0,1.1465999999999998
2.166522151004756,0,0,0.9648632690429687,0,0,0.6115200000000001
2.167895655002212,0,0,1.1755530151367186,0,0,0.45864
2.1692702139844187,0,0,1.3287819213867187,0,0,0.3822
2.170656661008252,0,0,1.448492004394531,0,0,0.22932
2.172030460991664,0,0,1.4030021728515625,0,0,0.84084
2.1734159830084536,0,0,1.5897499023437498,0,0,0.99372
2.174798763997387,0,0,1.3742717529296875,0,0,0.6115200000000001
2.1761981929885224,0,0,1.0749965454101562,0,0,0.7644
2.177581789001124,0,0,1.1420341918945311,0,0,0.45864
2.1790550879959483,0,0,1.2042834350585936,0,0,0.84084
2.180440534983063,0,0,1.2785036865234374,0,0,0.68796
2.181814668001607,0,0,1.2641384765625,0,0,1.2230400000000001
2.1831884130078834,0,0,1.4437036010742186,0,0,0.45864
2.1845715460076462,0,0,1.4939818359375,0,0,0.68796
2.1859456969832536,0,0,1.254561669921875,0,0,1.2230400000000001
2.1873189600009937,0,0,1.216254443359375,0,0,1.07016
2.1886942040000577,0,0,1.3287819213867187,0,0,0.6115200000000001
2.190067652001744,0,0,1.2928688964843749,0,0,0.68796
2.191446302982513,0,0,1.4437036010742186,0,0,0.0
2.192830176994903,0,0,1.3551181396484375,0,0,0.53508
2.1942142540065106,0,0,1.5346832641601562,0,0,0.91728
2.195597738987999,0,0,1.2928688964843749,0,0,0.53508
2.1969817430072,0,0,1.254561669921875,0,0,0.84084
2.19836483799736,0,0,1.16837041015625,0,0,0.45864
2.199747804988874,0,0,1.180341418457031,0,0,0.22932
2.201124733983306,0,0,1.35990654296875,0,0,0.68796
2.202497588994447,0,0,1.4724340209960938,0,0,0.7644
2.203871370991692,0,0,1.3311761230468748,0,0,0.84084
2.2052528740023263,0,0,1.4101847778320311,0,0,0.91728
2.206634711008519,0,0,1.177947216796875,0,0,1.1465999999999998
2.2080933800025377,0,0,1.1923124267578125,0,0,1.1465999999999998
2.2094907719874755,0,0,1.0965443603515623,0,0,0.7644
2.2108651640010066,0,0,1.0749965454101562,0,0,0.68796
2.2122552969958633,0,0,1.4772224243164063,0,0,0.0
2.2136302999861073,0,0,1.3168109130859373,0,0,0.84084
2.2150030999910086,0,0,1.388636962890625,0,0,0.84084
2.2163803069852293,0,0,1.24498486328125,0,0,0.7644
2.2177533479989506,0,0,1.2593500732421874,0,0,0.45864
2.2191264809807763,0,0,1.1923124267578125,0,0,0.3822
2.2205026510055177,0,0,1.1372457885742187,0,0,0.53508
2.2218763020064216,0,0,1.2761094848632812,0,0,0.68796
2.2232496209908277,0,0,1.426944189453125,0,0,0.68796
2.2246257349906955,0,0,1.2569558715820313,0,0,0.3822
2.225998793990584,0,0,1.5634136840820312,0,0,0.45864
2.2273716680065263,0,0,1.39821376953125,0,0,1.2994800000000002
2.2287671710073482,0,0,1.2401964599609374,0,0,0.84084
2.230149896990042,0,0,1.13006318359375,0,0,0.7644
2.231532232981408,0,0,1.0941501586914062,0,0,0.68796
2.232914811000228,0,0,1.2689268798828124,0,0,0.0
2.2342968879966065,0,0,1.3120225097656248,0,0,0.84084
2.235679261997575,0,0,1.5394716674804687,0,0,0.91728
2.2370692100084852,0,0,1.1731588134765625,0,0,0.45864
2.238451787008671,0,0,1.199495031738281,0,0,0.3822
2.23983380899881,0,0,1.1923124267578125,0,0,0.45864
2.2412159229861572,0,0,1.158793603515625,0,0,0.22932
2.2425981120031793,0,0,1.2808978881835937,0,0,0.22932
2.2439802449953277,0,0,1.4772224243164063,0,0,1.07016
2.245362914982252,0,0,1.4245499877929686,0,0,0.6115200000000001
2.246745140000712,0,0,1.5538368774414062,0,0,0.45864
2.2481267179828137,0,0,1.3838485595703125,0,0,1.2230400000000001
2.249509018001845,0,0,1.1468225952148436,0,0,0.91728
2.2509008169872686,0,0,1.0941501586914062,0,0,1.07016
2.252300597989233,0,0,1.2378022583007813,0,0,1.45236
2.2536826569994446,0,0,1.4628572143554686,0,0,0.68796
2.255065122997621,0,0,1.2928688964843749,0,0,0.84084
2.2564487750059925,0,0,1.6065093139648436,0,0,1.07016
2.2578299079905264,0,0,1.39821376953125,0,0,0.7644
2.2592120039917063,0,0,1.2497732666015624,0,0,0.30576000000000003
2.2605947660049424,0,0,1.2928688964843749,0,0,0.84084
2.2619759179942776,0,0,1.199495031738281,0,0,0.45864
2.263357902003918,0,0,1.3646949462890625,0,0,0.15288000000000002
2.2647404430026654,0,0,1.4628572143554686,0,0,0.84084
2.2661224089970347,0,0,1.5538368774414062,0,0,0.6115200000000001
2.2675044309871737,0,0,1.39821376953125,0,0,0.30576000000000003
2.268885748984758,0,0,1.2521674682617188,0,0,1.1465999999999998
2.270265881990781,0,0,1.139639990234375,0,0,0.91728
2.2718289209879003,0,0,1.0965443603515623,0,0,0.53508
2.273207905003801,0,0,1.2737152832031249,0,0,1.37592
2.274582020007074,0,0,1.438915197753906,0,0,0.91728
2.2759557829995174,0,0,1.4891934326171874,0,0,0.6115200000000001
2.2773294530052226,0,0,1.39821376953125,0,0,0.99372
2.278720436996082,0,0,1.0319009155273438,0,0,0.91728
2.280092995992163,0,0,1.0486603271484374,0,0,1.2230400000000001
2.2814673149841838,0,0,1.254561669921875,0,0,0.30576000000000003
2.282840355008375,0,0,1.120486376953125,0,0,0.15288000000000002
2.2842156179831363,0,0,1.4628572143554686,0,0,0.45864
2.2855961580062285,0,0,1.4006079711914061,0,0,0.45864
2.287053531006677,0,0,1.6065093139648436,0,0,0.99372
2.2884360709867906,0,0,1.2880804931640624,0,0,0.53508
2.289809759997297,0,0,1.3335703247070312,0,0,0.7644
2.291183319000993,0,0,1.158793603515625,0,0,0.6115200000000001
2.2925585079938173,0,0,1.2114660400390624,0,0,0.91728
2.2939322519814596,0,0,1.2785036865234374,0,0,1.07016
2.295315125986235,0,0,1.3958195678710936,0,0,0.7644
2.296690185001353,0,0,1.2521674682617188,0,0,0.6115200000000001
2.298062724992633,0,0,1.39821376953125,0,0,1.07016
2.2994352279929444,0,0,1.1611878051757811,0,0,0.99372
2.3008171950059477,0,0,1.0845733520507812,0,0,0.84084
2.302199067984475,0,0,1.1659762084960936,0,0,0.53508
2.303581330983434,0,0,1.1516109985351561,0,0,0.53508
2.3049643529811874,0,0,1.3814543579101561,0,0,0.07644000000000001
2.306346541008679,0,0,1.2689268798828124,0,0,0.68796
2.3077287490013987,0,0,1.5179238525390624,0,0,0.45864
2.3091110670065973,0,0,1.2521674682617188,0,0,0.7644
2.3104927179811057,0,0,1.35990654296875,0,0,0.84084
2.3118750549911056,0,0,0.928950244140625,0,0,0.6115200000000001
2.313257261994295,0,0,1.1468225952148436,0,0,0.68796
2.3146325429843273,0,0,1.3742717529296875,0,0,0.91728
2.3160130830074195,0,0,1.3742717529296875,0,0,0.91728
2.317395919992123,0,0,1.2928688964843749,0,0,0.68796
2.3187780159933027,0,0,1.5801730957031248,0,0,0.84084
2.3201600379834417,0,0,1.2378022583007813,0,0,0.99372
2.3215419669868425,0,0,1.24498486328125,0,0,0.84084
2.322923636995256,0,0,1.197100830078125,0,0,0.68796
2.3243076780054253,0,0,1.24498486328125,0,0,0.6115200000000001
2.3256884590082336,0,0,1.3120225097656248,0,0,0.0
2.327070350991562,0,0,1.2234370483398436,0,0,1.07016
2.3284534649865236,0,0,1.6256629272460936,0,0,1.1465999999999998
2.3298344500071835,0,0,1.3144167114257812,0,0,0.53508
2.331216027989285,0,0,1.3120225097656248,0,0,0.6115200000000001
2.332607863994781,0,0,1.1516109985351561,0,0,0.68796
2.3339886449975893,0,0,1.1611878051757811,0,0,0.7644
2.3353707779897377,0,0,1.3192051147460937,0,0,0.68796
2.3367534299904946,0,0,1.4796166259765624,0,0,0.68796
2.3381350630079396,0,0,1.4772224243164063,0,0,0.84084
2.33951704800711,0,0,1.4867992309570313,0,0,0.6115200000000001
2.3408991250034887,0,0,1.2689268798828124,0,0,1.37592
2.3422811839845963,0,0,1.1851298217773436,0,0,0.91728
2.3436635760008357,0,0,1.3287819213867187,0,0,0.91728
2.3450458199949935,0,0,1.2832920898437499,0,0,1.07016
2.346427971991943,0,0,1.3551181396484375,0,0,0.0
2.347810086008394,0,0,1.3742717529296875,0,0,0.6115200000000001
2.349192182009574,0,0,1.6208745239257811,0,0,0.53508
2.3505736849911045,0,0,1.2497732666015624,0,0,0.6115200000000001
2.3519572259974666,0,0,1.149216796875,0,0,0.6115200000000001
2.3533470809925348,0,0,1.1563994018554686,0,0,0.53508
2.3547293430019636,0,0,1.0941501586914062,0,0,0.30576000000000003
2.3561111059971154,0,0,1.3263877197265623,0,0,0.6115200000000001
2.357493182993494,0,0,1.4987702392578124,0,0,0.7644
2.3588900940085296,0,0,1.6065093139648436,0,0,0.6115200000000001
2.36027324598399,0,0,1.4939818359375,0,0,0.6115200000000001
2.3616555449843872,0,0,1.3000515014648437,0,0,1.1465999999999998
2.3630379370006267,0,0,1.1180921752929687,0,0,0.99372
2.364421181002399,0,0,1.1109095703125,0,0,0.99372
2.365802332991734,0,0,1.0845733520507812,0,0,0.7644
2.3671842989861034,0,0,1.4125789794921875,0,0,0.22932
2.368566283985274,0,0,1.3192051147460937,0,0,1.1465999999999998
2.369944417005172,0,0,1.4891934326171874,0,0,1.1465999999999998
2.3713234390015714,0,0,1.1563994018554686,0,0,0.68796
2.3727548309834674,0,0,1.254561669921875,0,0,0.84084
2.3741385559842456,0,0,1.2306196533203124,0,0,0.45864
2.3755216709978413,0,0,1.1420341918945311,0,0,0.3822
2.376905580982566,0,0,1.4508862060546874,0,0,0.0
2.3782883810054045,0,0,1.43652099609375,0,0,0.53508
2.379671717993915,0,0,1.2880804931640624,0,0,0.45864
2.3810554429946933,0,0,1.3383587280273437,0,0,0.45864
2.382438464992447,0,0,1.2856862915039062,0,0,1.37592
2.383820746006677,0,0,1.22583125,0,0,1.2230400000000001
2.3852044160012156,0,0,1.1563994018554686,0,0,0.99372
2.386587252985919,0,0,0.9409212524414062,0,0,1.45236
2.3879706820007414,0,0,1.3263877197265623,0,0,0.45864
2.3893469629983883,0,0,1.2306196533203124,0,0,1.07016
2.390720003983006,0,0,1.6615759521484375,0,0,0.91728
2.3920957109949086,0,0,1.1540052001953125,0,0,0.84084
2.393536399002187,0,0,1.3263877197265623,0,0,0.7644
2.3951206959900446,0,0,1.2138602416992186,0,0,0.30576000000000003
2.396517661982216,0,0,1.1037269653320312,0,0,0.91728
2.397906239988515,0,0,1.3766659545898436,0,0,0.15288000000000002
2.3992937059956603,0,0,1.3192051147460937,0,0,0.53508
2.4006817280023824,0,0,1.5251064575195312,0,0,0.84084
2.4020672120095696,0,0,1.2138602416992186,0,0,0.6115200000000001
2.4034697900060564,0,0,1.2761094848632812,0,0,0.91728
2.40485527398414,0,0,1.2473790649414063,0,0,0.68796
2.4062565919884946,0,0,1.1420341918945311,0,0,0.3822
2.4076445770042483,0,0,1.2737152832031249,0,0,0.53508
2.4090330059989356,0,0,1.3718775512695311,0,0,0.3822
2.4104239539883565,0,0,1.2521674682617188,0,0,0.6115200000000001
2.411822235008003,0,0,1.2521674682617188,0,0,0.53508
2.4132106459874194,0,0,1.3239935180664062,0,0,1.1465999999999998
2.414595426991582,0,0,1.218648645019531,0,0,-8.71416
2.4159812449943274,0,0,1.1420341918945311,0,0,1.2230400000000001
2.417383580992464,0,0,1.0893617553710937,0,0,1.2230400000000001
2.418770158983534,0,0,1.4125789794921875,0,0,0.3822
2.4201562549860682,0,0,1.3527239379882812,0,0,0.6115200000000001
2.421547295001801,0,0,1.649604943847656,0,0,0.91728
2.422932964982465,0,0,1.149216796875,0,0,0.84084
2.424320041987812,0,0,1.0893617553710937,0,0,0.7644
2.425705822999589,0,0,1.0845733520507812,0,0,0.30576000000000003
2.427091029996518,0,0,1.1659762084960936,0,0,0.30576000000000003
2.428478458983591,0,0,1.3192051147460937,0,0,0.15288000000000002
2.429863369994564,0,0,1.2713210815429687,0,0,0.68796
2.4312486139824614,0,0,1.47482822265625,0,0,0.68796
2.4326351920026354,0,0,1.4724340209960938,0,0,0.6115200000000001
2.434020138985943,0,0,1.2521674682617188,0,0,0.7644
2.4354056059964933,0,0,1.0869675537109373,0,0,0.84084
2.43679120100569,0,0,1.1923124267578125,0,0,1.07016
2.438176741998177,0,0,1.3383587280273437,0,0,0.91728
2.439569467009278,0,0,1.675941162109375,0,0,-9.172799999999999
2.440956656006165,0,0,1.35990654296875,0,0,0.68796
2.442343065980822,0,0,1.5514426757812498,0,0,0.91728
2.4437284219893627,0,0,1.2976572998046874,0,0,0.68796
2.445117831986863,0,0,1.2234370483398436,0,0,0.6115200000000001
2.4465157800004818,0,0,1.2737152832031249,0,0,0.7644
2.447902376006823,0,0,1.1755530151367186,0,0,0.53508
2.4492876940057613,0,0,1.2282254516601563,0,0,0.30576000000000003
2.4506732529844157,0,0,1.4700398193359374,0,0,0.53508
2.452058403985575,0,0,1.5394716674804687,0,0,0.53508
2.453444110986311,0,0,1.3551181396484375,0,0,0.68796
2.454829577007331,0,0,1.177947216796875,0,0,1.07016
2.4562161729845684,0,0,1.2018892333984375,0,0,0.3822
2.457601194997551,0,0,1.1109095703125,0,0,0.6115200000000001
2.4589863840083126,0,0,1.3575123413085937,0,0,1.1465999999999998
2.4603730170056224,0,0,1.4939818359375,0,0,1.07016
2.461757630982902,0,0,1.4891934326171874,0,0,0.7644
2.4631428940047044,0,0,1.419761584472656,0,0,0.91728
2.464529101009248,0,0,1.2808978881835937,0,0,1.07016
2.4659147709899116,0,0,1.158793603515625,0,0,0.99372
2.4673010149854235,0,0,1.0821791503906248,0,0,0.68796
2.468687240005238,0,0,1.3718775512695311,0,0,0.91728
2.4700842250022106,0,0,1.3934253662109375,0,0,0.30576000000000003
2.471470043004956,0,0,1.2593500732421874,0,0,0.99372
2.4728662679845,0,0,1.5969325073242187,0,0,1.1465999999999998
2.4742514379904605,0,0,1.3048399047851562,0,0,0.6115200000000001
2.4756370339891873,0,0,1.2880804931640624,0,0,0.6115200000000001
2.477023426006781,0,0,1.1707646118164061,0,0,0.6115200000000001
2.4784084300044924,0,0,1.1085153686523437,0,0,0.3822
2.4797938769916072,0,0,1.448492004394531,0,0,0.7644
2.4811803069896996,0,0,1.4317325927734375,0,0,0.6115200000000001
2.4825659210036974,0,0,1.3359645263671873,0,0,0.6115200000000001
2.4839512209873646,0,0,1.2976572998046874,0,0,0.99372
2.485337519989116,0,0,1.1947066284179686,0,0,1.07016
2.486729172000196,0,0,1.199495031738281,0,0,0.91728
2.4881149340071715,0,0,1.1755530151367186,0,0,0.99372
2.489501456002472,0,0,1.1707646118164061,0,0,0.91728
2.490898699994432,0,0,1.4891934326171874,0,0,0.84084
2.492323184007546,0,0,1.2713210815429687,0,0,0.91728
2.493710057984572,0,0,1.4939818359375,0,0,0.84084
2.4950958199915476,0,0,1.209071838378906,0,0,0.99372
2.496481934998883,0,0,1.35990654296875,0,0,0.45864
2.4978673639998306,0,0,1.2282254516601563,0,0,0.30576000000000003
2.4992528120055795,0,0,1.13006318359375,0,0,0.68796
2.50063927800511,0,0,1.2689268798828124,0,0,0.07644000000000001
2.502024485002039,0,0,1.4413093994140624,0,0,0.6115200000000001
2.5034094879811164,0,0,1.4437036010742186,0,0,0.53508
2.504794918000698,0,0,1.235408056640625,0,0,0.53508
2.5061802539858036,0,0,1.2378022583007813,0,0,0.68796
2.5075655539985746,0,0,1.13006318359375,0,0,0.68796
2.5089510020043235,0,0,1.197100830078125,0,0,1.1465999999999998
2.510337209008867,0,0,1.3623007446289062,0,0,0.7644
2.5117222119879443,0,0,1.438915197753906,0,0,0.99372
2.513106308004353,0,0,1.3335703247070312,0,0,0.6115200000000001
2.514490051980829,0,0,1.6041151123046875,0,0,0.91728
2.5158735739823896,0,0,1.22583125,0,0,0.91728
2.517271280987188,0,0,1.3072341064453123,0,0,0.91728
2.5186584320035763,0,0,1.2425906616210938,0,0,0.53508
2.520044323988259,0,0,1.1827356201171875,0,0,0.45864
2.5214300499937963,0,0,1.2808978881835937,0,0,0.0
2.522815571981482,0,0,1.3072341064453123,0,0,0.99372
2.5242017039854545,0,0,1.62805712890625,0,0,0.68796
2.5255882079945877,0,0,1.3958195678710936,0,0,0.84084
2.526973544008797,0,0,1.2569558715820313,0,0,0.7644
2.5283693810051773,0,0,1.1085153686523437,0,0,0.91728
2.529754421004327,0,0,1.0989385620117187,0,0,0.7644
2.531140350009082,0,0,1.3575123413085937,0,0,0.91728
2.5325267800071742,0,0,1.3958195678710936,0,0,0.68796
2.5341144659905694,0,0,1.43652099609375,0,0,0.7644
2.535522061982192,0,0,1.4963760375976562,0,0,0.84084
2.5369097689981572,0,0,1.22583125,0,0,-8.71416
2.538297216000501,0,0,1.1851298217773436,0,0,0.99372
2.539683701004833,0,0,1.0749965454101562,0,0,0.91728
2.541068833990721,0,0,1.199495031738281,0,0,0.53508
2.5424549669842236,0,0,1.3814543579101561,0,0,0.53508
2.5438406739849597,0,0,1.2665326782226562,0,0,0.68796
2.5452281220059376,0,0,1.5897499023437498,0,0,1.2230400000000001
2.5466137919866014,0,0,1.2042834350585936,0,0,0.99372
2.548000017006416,0,0,1.1540052001953125,0,0,0.53508
2.549387965002097,0,0,1.139639990234375,0,0,0.22932
2.550780967983883,0,0,1.1563994018554686,0,0,0.53508
2.552167063986417,0,0,1.3263877197265623,0,0,0.53508
2.55355510400841,0,0,1.458068811035156,0,0,0.91728
2.5549408110091463,0,0,1.47482822265625,0,0,0.6115200000000001
2.5568915309850127,0,0,1.2330138549804688,0,0,0.7644
2.5584291800041683,0,0,1.1755530151367186,0,0,0.7644
2.56043610299821,0,0,1.2665326782226562,0,0,0.99372
2.5618594760017004,0,0,1.2617442749023438,0,0,0.99372
2.56324138698983,0,0,1.3168109130859373,0,0,0.91728
2.5646266679978,0,0,1.3527239379882812,0,0,0.7644
2.56600981898373,0,0,1.5586252807617187,0,0,1.1465999999999998
2.567394877987681,0,0,1.0773907470703123,0,0,0.6115200000000001
2.568777214997681,0,0,1.1755530151367186,0,0,0.6115200000000001
2.5701571439858526,0,0,1.1659762084960936,0,0,0.45864
2.5715369439858478,0,0,1.0773907470703123,0,0,0.30576000000000003
2.5729260579973925,0,0,1.4149731811523436,0,0,0.22932
2.5743137469980866,0,0,1.4700398193359374,0,0,0.45864
2.575703009002609,0,0,1.6352397338867186,0,0,0.7644
2.577101048984332,0,0,1.3096283081054687,0,0,0.53508
2.5784879050042946,0,0,1.2856862915039062,0,0,0.68796
2.5798948149895296,0,0,1.16837041015625,0,0,0.84084
2.581282465980621,0,0,1.1372457885742187,0,0,0.84084
2.5826696179865394,0,0,1.3718775512695311,0,0,1.2230400000000001
2.584057047002716,0,0,1.446097802734375,0,0,0.99372
2.5854441990086343,0,0,1.3766659545898436,0,0,0.68796
2.5868309430079535,0,0,1.4532804077148436,0,0,0.7644
2.588226945983479,0,0,1.199495031738281,0,0,1.1465999999999998
2.589614819007693,0,0,1.0941501586914062,0,0,0.7644
2.5910017669957597,0,0,1.1540052001953125,0,0,0.6115200000000001
2.592389325989643,0,0,1.199495031738281,0,0,0.68796
2.5937755889899563,0,0,1.4604630126953124,0,0,0.07644000000000001
2.5952107759949286,0,0,1.429338391113281,0,0,0.6115200000000001
2.596648815990193,0,0,1.5634136840820312,0,0,0.99372
2.5980540419986937,0,0,1.149216796875,0,0,0.53508
2.599441525992006,0,0,1.3383587280273437,0,0,0.53508
2.6008289179881103,0,0,1.2737152832031249,0,0,0.07644000000000001
2.602215458988212,0,0,1.1420341918945311,0,0,0.3822
2.603602091985522,0,0,1.3718775512695311,0,0,0.84084
2.6049905020045117,0,0,1.4125789794921875,0,0,0.99372
2.6063768949825317,0,0,1.2832920898437499,0,0,0.53508
2.6077632310043555,0,0,1.407790576171875,0,0,0.45864
2.6091504200012423,0,0,1.4939818359375,0,0,0.91728
2.610539533983683,0,0,1.180341418457031,0,0,1.1465999999999998
2.611929278005846,0,0,1.1180921752929687,0,0,0.91728
2.613316578004742,0,0,1.2138602416992186,0,0,1.2230400000000001
2.6147031179862097,0,0,1.5155296508789062,0,0,0.68796
2.616090046998579,0,0,1.2473790649414063,0,0,0.7644
2.6174774579994846,0,0,1.5921441040039062,0,0,0.84084
2.618863812997006,0,0,1.20667763671875,0,0,0.91728
2.620251426997129,0,0,1.1156979736328125,0,0,0.3822
2.621638245007489,0,0,1.1540052001953125,0,0,0.45864
2.6230420999927446,0,0,1.1516109985351561,0,0,0.53508
2.624431084987009,0,0,1.22583125,0,0,0.07644000000000001
2.625817663007183,0,0,1.3335703247070312,0,0,0.99372
2.6272040180047043,0,0,1.448492004394531,0,0,0.91728
2.628591465007048,0,0,1.158793603515625,0,0,0.53508
2.6299774319923017,0,0,1.3072341064453123,0,0,1.1465999999999998
2.6313638239807915,0,0,1.0821791503906248,0,0,0.7644
2.632750215998385,0,0,1.1659762084960936,0,0,0.84084
2.634137182001723,0,0,1.2306196533203124,0,0,1.2230400000000001
2.635523351986194,0,0,1.2713210815429687,0,0,0.7644
2.6369100410083774,0,0,1.24498486328125,0,0,0.53508
2.6382962290081196,0,0,1.5466542724609373,0,0,0.84084
2.6396823249815498,0,0,1.2808978881835937,0,0,0.68796
2.6410692729987204,0,0,1.0917559570312498,0,0,0.84084
2.642455572000472,0,0,1.2210428466796874,0,0,0.68796
2.6438810940016992,0,0,1.1707646118164061,0,0,0.30576000000000003
2.64532857798622,0,0,1.3311761230468748,0,0,0.30576000000000003
2.646737433009548,0,0,1.369483349609375,0,0,0.68796
2.6481249729986303,0,0,1.6735469604492186,0,0,0.53508
2.649516884004697,0,0,1.1563994018554686,0,0,0.6115200000000001
2.6509049799933564,0,0,1.2689268798828124,0,0,0.45864
2.6523175569891464,0,0,1.3359645263671873,0,0,0.7644
2.6537048379832413,0,0,1.1659762084960936,0,0,0.45864
2.6550922300084494,0,0,1.3862427612304686,0,0,0.68796
2.6564798440085724,0,0,1.3431471313476562,0,0,1.1465999999999998
2.6578660880040843,0,0,1.4245499877929686,0,0,0.7644
2.659252721001394,0,0,1.6136919189453125,0,0,0.53508
2.660640632006107,0,0,1.2617442749023438,0,0,1.07016
2.6620267829857767,0,0,1.13006318359375,0,0,0.84084
2.663413564005168,0,0,1.0989385620117187,0,0,0.91728
2.6648011049837805,0,0,1.2952630981445312,0,0,1.2230400000000001
2.6661877750011627,0,0,1.4006079711914061,0,0,0.6115200000000001
2.6675835189817008,0,0,1.3287819213867187,0,0,0.7644
2.66897020698525,0,0,1.697488977050781,0,0,0.91728
2.6703560809837654,0,0,1.3215993164062498,0,0,0.68796
2.6717419539927505,0,0,1.2617442749023438,0,0,0.68796
2.673146994988201,0,0,1.1827356201171875,0,0,0.6115200000000001
2.674535312980879,0,0,1.2952630981445312,0,0,0.3822
2.6759216119826306,0,0,1.4030021728515625,0,0,0.22932
2.6773108189809136,0,0,1.5083470458984374,0,0,0.53508
2.6786971559922677,0,0,1.5514426757812498,0,0,0.68796
2.680083195999032,0,0,1.4245499877929686,0,0,0.84084
2.6814697369991336,0,0,1.3407529296874998,0,0,1.2230400000000001
2.6828560729918536,0,0,1.1037269653320312,0,0,1.1465999999999998
2.6842442429915536,0,0,1.2138602416992186,0,0,0.91728
2.6856300240033306,0,0,1.2497732666015624,0,0,1.2994800000000002
2.687019971985137,0,0,1.4939818359375,0,0,0.6115200000000001
2.68840604898287,0,0,1.5442600708007812,0,0,0.68796
2.689797052007634,0,0,1.5682020874023437,0,0,0.91728
2.691183425980853,0,0,1.235408056640625,0,0,0.7644
2.6925709109927993,0,0,1.1156979736328125,0,0,0.6115200000000001
2.6939569329842925,0,0,1.2018892333984375,0,0,0.68796
2.6953430099820253,0,0,0.9504980590820312,0,0,0.30576000000000003
2.69672942100442,0,0,1.465251416015625,0,0,-0.15288000000000002
2.698118127998896,0,0,1.4963760375976562,0,0,0.53508
2.6995046499941964,0,0,1.6543933471679686,0,0,0.7644
2.7008914859907236,0,0,1.20667763671875,0,0,0.30576000000000003
2.702282712009037,0,0,1.3144167114257812,0,0,0.53508
2.703668714995729,0,0,1.2138602416992186,0,0,0.3822
2.7050704399880487,0,0,1.1276689819335937,0,0,0.84084
2.706457183987368,0,0,1.3551181396484375,0,0,1.2230400000000001
2.707843113981653,0,0,1.3958195678710936,0,0,0.99372
2.7092295059992466,0,0,1.1348515869140625,0,0,0.6115200000000001
2.710621526988689,0,0,1.3383587280273437,0,0,0.99372
2.7120091049873736,0,0,1.3096283081054687,0,0,-8.71416
2.7133965709945187,0,0,1.1611878051757811,0,0,1.1465999999999998
2.7147825559950434,0,0,1.2234370483398436,0,0,0.84084
2.7161690589855425,0,0,1.1468225952148436,0,0,0.3822
2.7175651919969823,0,0,1.455674609375,0,0,9.555
2.718951732007554,0,0,1.2785036865234374,0,0,1.07016
2.7203402910090517,0,0,1.4532804077148436,0,0,0.68796
2.7217251090041827,0,0,1.254561669921875,0,0,0.53508
2.723111297993455,0,0,1.0941501586914062,0,0,0.45864
2.7245022819843143,0,0,1.218648645019531,0,0,0.22932
2.725887785985833,0,0,1.180341418457031,0,0,0.53508
2.72727515900624,0,0,1.3718775512695311,0,0,0.7644
2.7286628109868616,0,0,1.407790576171875,0,0,0.91728
2.730047999008093,0,0,1.2928688964843749,0,0,0.84084
2.7314347799983807,0,0,1.2761094848632812,0,0,0.91728
2.7328222649812233,0,0,1.254561669921875,0,0,1.07016
2.7342082129907794,0,0,1.2282254516601563,0,0,0.91728
2.7355946419993415,0,0,1.1707646118164061,0,0,0.84084
2.7369815899874084,0,0,1.3551181396484375,0,0,0.91728
2.738367740996182,0,0,1.4508862060546874,0,0,0.84084
2.7397538739896845,0,0,1.2665326782226562,0,0,0.6115200000000001
2.7411541740002576,0,0,1.5514426757812498,0,0,0.91728
2.7425399179919623,0,0,1.2378022583007813,0,0,0.99372
2.7439257729856763,0,0,1.24498486328125,0,0,0.7644
2.745312238985207,0,0,1.2665326782226562,0,0,0.53508
2.746698167989962,0,0,1.2617442749023438,0,0,0.45864
2.7480842270015273,0,0,1.2665326782226562,0,0,0.0
2.749471063987585,0,0,1.20667763671875,0,0,0.53508
2.7508570489881095,0,0,1.3024457031249999,0,0,0.53508
2.7522444589994848,0,0,1.458068811035156,0,0,0.91728
2.7536314250028227,0,0,1.2641384765625,0,0,1.07016
2.755031114007579,0,0,1.1516109985351561,0,0,0.99372
2.7564181909838226,0,0,1.1540052001953125,0,0,0.91728
2.757804064982338,0,0,1.235408056640625,0,0,1.1465999999999998
2.7591904010041617,0,0,1.4532804077148436,0,0,1.2230400000000001
2.7605773310060613,0,0,1.4006079711914061,0,0,0.99372
2.7619627969979774,0,0,1.659181750488281,0,0,1.07016
2.7633563370036427,0,0,1.2856862915039062,0,0,1.1465999999999998
2.7647428959899116,0,0,1.20667763671875,0,0,0.6115200000000001
2.76612869600649,0,0,1.3144167114257812,0,0,0.68796
2.7675153839809354,0,0,1.2378022583007813,0,0,0.6115200000000001
2.7689027579908725,0,0,1.2401964599609374,0,0,0.22932
2.770315704983659,0,0,1.2976572998046874,0,0,0.3822
2.7717055229877587,0,0,1.5586252807617187,0,0,0.45864
2.7730927859956864,0,0,1.2330138549804688,0,0,0.7644
2.7744799369829707,0,0,1.3263877197265623,0,0,0.53508
2.775866699987091,0,0,1.2952630981445312,0,0,0.68796
2.7772530729998834,0,0,1.2737152832031249,0,0,0.6115200000000001
2.778639761992963,0,0,1.3096283081054687,0,0,0.3822
2.7800263579993043,0,0,1.484405029296875,0,0,0.7644
2.781412971991813,0,0,1.656787548828125,0,0,0.68796
2.782799623993924,0,0,1.5921441040039062,0,0,0.68796
2.784200349007733,0,0,1.2114660400390624,0,0,1.1465999999999998
2.785587944992585,0,0,1.0414777221679687,0,0,0.6115200000000001
2.7869742260081694,0,0,1.0989385620117187,0,0,0.91728
2.7883612659934442,0,0,1.3646949462890625,0,0,1.37592
2.789746694994392,0,0,1.5442600708007812,0,0,0.45864
2.791132698999718,0,0,1.4030021728515625,0,0,0.84084
2.7925196650030557,0,0,1.5251064575195312,0,0,0.84084
2.793905539001571,0,0,1.0893617553710937,0,0,0.99372
2.7952915049972944,0,0,1.2497732666015624,0,0,0.84084
2.7966779900016263,0,0,1.2521674682617188,0,0,0.6115200000000001
2.798075252008857,0,0,1.1659762084960936,0,0,0.07644000000000001
2.7994621440011542,0,0,1.3287819213867187,0,0,0.07644000000000001
2.8008490549982525,0,0,1.2856862915039062,0,0,0.7644
2.802235187991755,0,0,1.2234370483398436,0,0,0.68796
2.80362130200956,0,0,1.3096283081054687,0,0,0.84084
2.8050077130028512,0,0,1.0845733520507812,0,0,1.2994800000000002
2.806393475999357,0,0,1.218648645019531,0,0,0.91728
2.8077796459838282,0,0,1.1276689819335937,0,0,1.07016
2.8091662040096708,0,0,1.1180921752929687,0,0,1.2994800000000002
2.8105527629959397,0,0,1.4891934326171874,0,0,0.68796
2.811938784987433,0,0,1.37906015625,0,0,0.91728
2.813325213995995,0,0,1.429338391113281,0,0,0.99372
2.8147113469894975,0,0,1.1659762084960936,0,0,0.68796
2.816097553994041,0,0,1.0797849487304687,0,0,0.53508
2.817483891005395,0,0,1.1755530151367186,0,0,0.68796
2.8188698570011184,0,0,1.2330138549804688,0,0,0.68796
2.8202570639841724,0,0,1.5251064575195312,0,0,0.22932
2.821651492995443,0,0,1.350329736328125,0,0,0.22932
2.8230376259889454,0,0,1.2832920898437499,0,0,0.6115200000000001
2.824424147984246,0,0,1.24498486328125,0,0,0.53508
2.825812261988176,0,0,1.20667763671875,0,0,0.84084
2.8271986359904986,0,0,1.0821791503906248,0,0,0.68796
2.8285854359855875,0,0,1.2425906616210938,0,0,0.84084
2.8299707169935573,0,0,1.3048399047851562,0,0,1.07016
2.831356645998312,0,0,1.4317325927734375,0,0,0.91728
2.832743204984581,0,0,1.2497732666015624,0,0,0.7644
2.834129374998156,0,0,1.62805712890625,0,0,1.07016
2.8355157669866458,0,0,1.1851298217773436,0,0,1.07016
2.8369022519909777,0,0,1.0989385620117187,0,0,0.68796
2.838288311002543,0,0,1.235408056640625,0,0,0.84084
2.8396745729842223,0,0,1.1276689819335937,0,0,0.45864
2.841060984006617,0,0,1.2761094848632812,0,0,0.07644000000000001
2.8424537460086867,0,0,1.2928688964843749,0,0,0.68796
2.8438404529879335,0,0,1.6160861206054686,0,0,0.91728
2.8452266420063097,0,0,1.0965443603515623,0,0,0.68796
2.8466127749998122,0,0,1.1444283935546875,0,0,0.68796
2.8479986669844948,0,0,1.216254443359375,0,0,0.3822
2.8493851519888267,0,0,1.2330138549804688,0,0,0.68796
2.850854875985533,0,0,1.3072341064453123,0,0,1.1465999999999998
2.852244064997649,0,0,1.4173673828125,0,0,0.7644
2.853630900994176,0,0,1.3958195678710936,0,0,0.84084
2.85501681198366,0,0,1.5897499023437498,0,0,0.53508
2.8564045559905935,0,0,1.2617442749023438,0,0,1.07016
2.857796762982616,0,0,1.2282254516601563,0,0,0.68796
2.859182747983141,0,0,1.2497732666015624,0,0,0.91728
2.860570140008349,0,0,1.2138602416992186,0,0,1.1465999999999998
2.861967790988274,0,0,1.2497732666015624,0,0,0.91728
2.86335509098717,0,0,1.3120225097656248,0,0,0.91728
2.8647418530017603,0,0,1.7405846069335937,0,0,1.1465999999999998
2.8661288379807957,0,0,1.3766659545898436,0,0,0.91728
2.867515860009007,0,0,1.2713210815429687,0,0,0.45864
2.868902326008538,0,0,1.1851298217773436,0,0,0.3822
2.8703076069941744,0,0,1.2210428466796874,0,0,0.45864
2.8716949810041115,0,0,1.3311761230468748,0,0,0.53508
2.8730909650039393,0,0,1.3862427612304686,0,0,0.68796
2.8744776170060504,0,0,1.5753846923828123,0,0,0.99372
2.8758640269807074,0,0,1.419761584472656,0,0,0.45864
2.877250493998872,0,0,1.2713210815429687,0,0,0.84084
2.878637293004431,0,0,1.0893617553710937,0,0,0.7644
2.880038889008574,0,0,1.1540052001953125,0,0,0.7644
2.881425595987821,0,0,1.3263877197265623,0,0,1.1465999999999998
2.8828117469965946,0,0,1.4532804077148436,0,0,0.7644
2.884198676998494,0,0,1.4604630126953124,0,0,0.7644
2.8855919209891,0,0,1.5610194824218748,0,0,1.07016
2.886984719982138,0,0,1.216254443359375,0,0,0.91728
2.888371779001318,0,0,1.0295067138671874,0,0,0.6115200000000001
2.889757338009076,0,0,1.1013327636718748,0,0,0.45864
2.891143323009601,0,0,1.407790576171875,0,0,1.07016
2.8925300480041187,0,0,1.446097802734375,0,0,0.53508
2.893936181004392,0,0,1.3120225097656248,0,0,0.7644
2.8953946649853606,0,0,1.4987702392578124,0,0,1.1465999999999998
2.896786000987049,0,0,1.189918225097656,0,0,0.91728
2.8981724490004126,0,0,1.3096283081054687,0,0,0.6115200000000001
2.899558396980865,0,0,1.2138602416992186,0,0,0.6115200000000001
2.900945547997253,0,0,1.0917559570312498,0,0,0.45864
2.902331477991538,0,0,1.3934253662109375,0,0,0.68796
2.903718296001898,0,0,1.4413093994140624,0,0,0.7644
2.9051089099957608,0,0,1.5490484741210937,0,0,0.53508
2.9064951539912727,0,0,1.3670891479492187,0,0,0.6115200000000001
2.9078813979867846,0,0,1.2138602416992186,0,0,1.1465999999999998
2.9092673459963407,0,0,1.0797849487304687,0,0,0.68796
2.9106532750010956,0,0,1.1755530151367186,0,0,0.91728
2.9120397410006262,0,0,1.1755530151367186,0,0,1.07016
2.9134256889810786,0,0,1.5825672973632812,0,0,0.3822
2.9148118029988836,0,0,1.4173673828125,0,0,0.99372
2.91619904700201,0,0,1.4006079711914061,0,0,0.99372
2.917699345998699,0,0,1.2234370483398436,0,0,0.91728
2.919089126982726,0,0,1.1372457885742187,0,0,0.84084
2.92047687098966,0,0,1.2665326782226562,0,0,0.53508
2.921862652001437,0,0,1.1563994018554686,0,0,0.22932
2.923248932987917,0,0,1.2808978881835937,0,0,0.0
2.9246412880020216,0,0,1.1947066284179686,0,0,0.6115200000000001
2.9260276799905114,0,0,1.2904746948242187,0,0,1.07016
2.9274141839996446,0,0,1.3742717529296875,0,0,0.6115200000000001
2.9288005940034054,0,0,1.3311761230468748,0,0,0.99372
2.93021576400497,0,0,1.197100830078125,0,0,0.68796
2.9316024339932483,0,0,1.0821791503906248,0,0,0.6115200000000001
2.932988993008621,0,0,1.158793603515625,0,0,1.07016
2.934380366001278,0,0,1.4413093994140624,0,0,0.6115200000000001
2.935766757989768,0,0,1.2832920898437499,0,0,0.7644
2.937153890990885,0,0,1.426944189453125,0,0,0.68796
2.9385472459835,0,0,1.2042834350585936,0,0,0.68796
2.9399337680079043,0,0,1.1923124267578125,0,0,0.84084
2.9413201049901545,0,0,1.2042834350585936,0,0,0.53508
2.9427067379874643,0,0,1.2114660400390624,0,0,0.6115200000000001
2.9440928339899983,0,0,1.4987702392578124,0,0,0.30576000000000003
2.945478762994753,0,0,1.3766659545898436,0,0,0.99372
2.9468649509944953,0,0,1.2832920898437499,0,0,0.91728
2.948251880996395,0,0,1.2234370483398436,0,0,0.53508
2.9496446620032657,0,0,1.3072341064453123,0,0,0.6115200000000001
2.9510313689825125,0,0,1.0893617553710937,0,0,0.68796
2.952419667999493,0,0,1.2282254516601563,0,0,0.53508
2.953804171993397,0,0,1.3670891479492187,0,0,0.6115200000000001
2.955191063985694,0,0,1.369483349609375,0,0,0.6115200000000001
2.95657682599267,0,0,1.3383587280273437,0,0,0.68796
2.9579823660023976,0,0,1.599326708984375,0,0,1.07016
2.9593819069850724,0,0,1.3263877197265623,0,0,1.2994800000000002
2.96076892799465,0,0,1.1133037719726562,0,0,0.7644
2.96215574600501,0,0,1.199495031738281,0,0,0.91728
2.963542657002108,0,0,1.2330138549804688,0,0,0.84084
2.9649284569895826,0,0,1.5059528442382812,0,0,0.45864
2.9663139969925396,0,0,1.3311761230468748,0,0,0.84084
2.9677002409880515,0,0,1.6639701538085936,0,0,1.2230400000000001
2.9690863929863553,0,0,1.1635820068359375,0,0,0.84084
2.9704724139883183,0,0,1.1276689819335937,0,0,0.68796
2.971858472999884,0,0,1.2042834350585936,0,0,0.22932
2.9732568280014675,0,0,1.177947216796875,0,0,0.45864
2.974642460991163,0,0,1.2593500732421874,0,0,0.53508
2.9760286870005075,0,0,1.3168109130859373,0,0,0.68796
2.9774143940012436,0,0,1.5251064575195312,0,0,0.91728
2.97880010100198,0,0,1.3838485595703125,0,0,0.68796
2.9802058069908526,0,0,1.2928688964843749,0,0,1.07016
2.9815931439807173,0,0,1.0989385620117187,0,0,0.7644
2.982979146996513,0,0,1.2880804931640624,0,0,0.84084
2.984365798998624,0,0,1.1851298217773436,0,0,1.07016
2.985750858002575,0,0,1.4700398193359374,0,0,-9.172799999999999
2.9871384910074994,0,0,1.369483349609375,0,0,1.07016
2.988542122999206,0,0,1.6112977172851561,0,0,0.91728
2.98996647799504,0,0,1.2976572998046874,0,0,-8.63772
2.9913559810083825,0,0,1.139639990234375,0,0,0.7644
2.992742965987418,0,0,1.1133037719726562,0,0,0.3822
2.9941292099829298,0,0,1.3096283081054687,0,0,0.3822
2.9955147499858867,0,0,1.3455413330078123,0,0,0.22932
2.996918327989988,0,0,1.4724340209960938,0,0,0.68796
2.998304034990724,0,0,1.6711527587890624,0,0,0.68796
2.999690055992687,0,0,1.3000515014648437,0,0,0.68796
3.001076207990991,0,0,1.158793603515625,0,0,0.91728
3.0024619699979667,0,0,1.189918225097656,0,0,0.68796
3.003847454994684,0,0,1.3239935180664062,0,0,0.68796
3.0052337179949973,0,0,1.3287819213867187,0,0,1.2230400000000001
3.0066198139975313,0,0,1.4101847778320311,0,0,0.91728
3.0080054279824253,0,0,1.4604630126953124,0,0,0.7644
3.0093909679853823,0,0,1.3718775512695311,0,0,0.84084
3.0107767499866895,0,0,1.139639990234375,0,0,1.2230400000000001
3.0121624569874257,0,0,1.1133037719726562,0,0,0.99372
3.0135487749939784,0,0,1.1659762084960936,0,0,0.6115200000000001
3.014934684993932,0,0,1.1372457885742187,0,0,0.53508
3.0163223179988563,0,0,1.4413093994140624,0,0,0.68796
3.0177158209844492,0,0,1.350329736328125,0,0,0.91728
3.019101824989775,0,0,1.5251064575195312,0,0,0.99372
3.0204885129933245,0,0,1.2641384765625,0,0,0.68796
3.021874072001083,0,0,1.3000515014648437,0,0,0.6115200000000001
3.023260668007424,0,0,1.2378022583007813,0,0,0.45864
3.024647245008964,0,0,1.0821791503906248,0,0,0.6115200000000001
3.026032118999865,0,0,1.4221557861328125,0,0,0.22932
3.0274226589826867,0,0,1.465251416015625,0,0,0.53508
3.0288085700012743,0,0,1.2928688964843749,0,0,0.68796
3.030194257997209,0,0,1.3431471313476562,0,0,0.99372
3.0315800399985164,0,0,1.1851298217773436,0,0,1.1465999999999998
3.0329662279982585,0,0,1.1923124267578125,0,0,0.68796
3.034352046001004,0,0,1.1563994018554686,0,0,0.45864
3.0357378269836772,0,0,1.1540052001953125,0,0,0.68796
3.037123811984202,0,0,1.4867992309570313,0,0,0.68796
3.038509778009029,0,0,1.235408056640625,0,0,0.68796
3.0398955039854627,0,0,1.6400281372070311,0,0,0.68796
3.041281302983407,0,0,1.1707646118164061,0,0,0.91728
3.042679139995016,0,0,1.3431471313476562,0,0,0.45864
3.044064365007216,0,0,1.2665326782226562,0,0,0.6115200000000001
3.045450831996277,0,0,1.2425906616210938,0,0,0.68796
3.0468369089940097,0,0,1.2904746948242187,0,0,0.22932
3.0482400420005433,0,0,1.3287819213867187,0,0,0.84084
3.0496293229807634,0,0,1.3479355346679687,0,0,0.53508
3.0510158079850953,0,0,1.1851298217773436,0,0,0.68796
3.0524023289908655,0,0,1.2018892333984375,0,0,1.37592
3.053788869990967,0,0,1.1085153686523437,0,0,1.1465999999999998
3.0551851319905836,0,0,1.1851298217773436,0,0,0.68796
3.0565717649878934,0,0,1.3575123413085937,0,0,1.07016
3.0579577129974496,0,0,1.4317325927734375,0,0,0.45864
3.0593436610070057,0,0,1.2761094848632812,0,0,0.84084
3.0607362010050565,0,0,1.6136919189453125,0,0,0.68796
3.062122740986524,0,0,1.197100830078125,0,0,0.91728
3.0635084850073326,0,0,1.3455413330078123,0,0,0.68796
3.0648945629945956,0,0,1.2306196533203124,0,0,0.30576000000000003
3.06628060300136,0,0,1.2425906616210938,0,0,0.68796
3.0676662909972947,0,0,1.2497732666015624,0,0,0.07644000000000001
3.0690515720052645,0,0,1.1851298217773436,0,0,0.53508
3.0706515359925106,0,0,1.448492004394531,0,0,0.91728
3.0720404839958064,0,0,1.235408056640625,0,0,0.6115200000000001
3.073439950007014,0,0,1.3431471313476562,0,0,0.6115200000000001
3.074825619987678,0,0,1.0893617553710937,0,0,0.6115200000000001
3.076212068001041,0,0,1.1851298217773436,0,0,0.7644
3.0775983299827203,0,0,1.2785036865234374,0,0,0.3822
3.0789842600061093,0,0,1.4053963745117186,0,0,0.91728
3.0803708559833467,0,0,1.3263877197265623,0,0,0.53508
3.081756339990534,0,0,1.4508862060546874,0,0,0.84084
3.0831427880038973,0,0,1.235408056640625,0,0,1.2230400000000001
3.084529105981346,0,0,1.1947066284179686,0,0,1.1465999999999998
3.085914869006956,0,0,1.1348515869140625,0,0,0.3822
3.087304241984384,0,0,1.2928688964843749,0,0,0.45864
3.0886922829959076,0,0,1.2856862915039062,0,0,0.53508
3.0900776750058867,0,0,1.2282254516601563,0,0,0.68796
3.0914658079855144,0,0,1.448492004394531,0,0,0.99372
3.092852014990058,0,0,1.1013327636718748,0,0,0.91728
3.0942380180058535,0,0,1.1707646118164061,0,0,0.6115200000000001
3.0956240209925454,0,0,1.1013327636718748,0,0,0.68796
3.097009691002313,0,0,1.2378022583007813,0,0,0.68796
3.0983949539950117,0,0,1.3670891479492187,0,0,0.53508
3.099780752992956,0,0,1.4149731811523436,0,0,1.07016
3.1011667939892504,0,0,1.426944189453125,0,0,0.53508
3.102552778989775,0,0,1.5131354492187499,0,0,0.7644
3.103939355991315,0,0,1.2785036865234374,0,0,0.91728
3.105338933004532,0,0,1.1731588134765625,0,0,0.91728
3.106725085002836,0,0,1.3455413330078123,0,0,0.91728
3.108111420995556,0,0,1.2689268798828124,0,0,1.2994800000000002
3.109499443002278,0,0,1.37906015625,0,0,0.7644
3.110885205998784,0,0,1.3215993164062498,0,0,0.99372
3.11227250500815,0,0,1.5945383056640625,0,0,1.07016
3.11366356399958,0,0,1.2234370483398436,0,0,0.91728
3.115520450985059,0,0,1.1707646118164061,0,0,1.2230400000000001
3.1169227130012587,0,0,1.13006318359375,0,0,0.68796
3.1183099019981455,0,0,1.2665326782226562,0,0,0.84084
3.119696682988433,0,0,1.4125789794921875,0,0,0.07644000000000001
3.1210835939855315,0,0,1.3479355346679687,0,0,0.84084
3.1224698750011157,0,0,1.6615759521484375,0,0,0.99372
3.1240420429967344,0,0,1.1540052001953125,0,0,0.99372
3.1254358979931567,0,0,1.1731588134765625,0,0,0.68796
3.126822919002734,0,0,1.1707646118164061,0,0,0.30576000000000003
3.1282103300036397,0,0,1.158793603515625,0,0,0.53508
3.129599945008522,0,0,1.2785036865234374,0,0,0.0
3.1309871889825445,0,0,1.3311761230468748,0,0,0.6115200000000001
3.1323741920059547,0,0,1.5514426757812498,0,0,0.7644
3.1337696579867043,0,0,1.6615759521484375,0,0,0.45864
3.1351574760046788,0,0,1.3168109130859373,0,0,0.7644
3.1365455529885367,0,0,1.1420341918945311,0,0,0.99372
3.137930556986248,0,0,1.2042834350585936,0,0,0.7644
3.1393164490000345,0,0,1.2832920898437499,0,0,0.91728
3.1407035820011515,0,0,1.4700398193359374,0,0,0.6115200000000001
3.1420886959822383,0,0,1.3551181396484375,0,0,0.7644
3.1434741629927885,0,0,1.448492004394531,0,0,0.84084
3.144912942982046,0,0,1.2713210815429687,0,0,1.07016
3.1463715200079605,0,0,1.0821791503906248,0,0,0.68796
3.147772003983846,0,0,1.16837041015625,0,0,0.6115200000000001
3.1491836739878636,0,0,1.3287819213867187,0,0,0.6115200000000001
3.1506014920014422,0,0,1.5035586425781249,0,0,0.6115200000000001
3.151989161997335,0,0,1.2808978881835937,0,0,0.7644
3.1533767390064895,0,0,1.62805712890625,0,0,0.91728
3.15476320500602,0,0,1.16837041015625,0,0,0.68796
3.1561490969907027,0,0,1.20667763671875,0,0,0.7644
3.157535211998038,0,0,1.20667763671875,0,0,0.6115200000000001
3.158920752000995,0,0,1.2114660400390624,0,0,0.68796
3.160312421998242,0,0,1.2976572998046874,0,0,0.22932
3.1616989439935423,0,0,1.4915876342773438,0,0,0.68796
3.163084687985247,0,0,1.4772224243164063,0,0,0.53508
3.1644799500063527,0,0,1.4508862060546874,0,0,-9.09636
3.165864064998459,0,0,1.2928688964843749,0,0,1.1465999999999998
3.1672501239809208,0,0,1.1468225952148436,0,0,0.91728
3.1686371079995297,0,0,1.2880804931640624,0,0,0.99372
3.170021926984191,0,0,1.197100830078125,0,0,1.2994800000000002
3.1714075779891573,0,0,1.4532804077148436,0,0,0.68796
3.172804914007429,0,0,1.3192051147460937,0,0,0.84084
3.1741911770077422,0,0,1.6136919189453125,0,0,1.07016
3.175576902984176,0,0,1.3239935180664062,0,0,0.91728
3.1769637019897345,0,0,1.13006318359375,0,0,0.53508
3.178349353984231,0,0,1.1468225952148436,0,0,0.15288000000000002
3.1797350790002383,0,0,1.2521674682617188,0,0,0.53508
3.1811211009917315,0,0,1.4341267944335936,0,0,0.22932
3.182507085992256,0,0,1.4604630126953124,0,0,0.68796
3.1838924959884025,0,0,1.4772224243164063,0,0,0.84084
3.1852853699820116,0,0,1.3168109130859373,0,0,0.7644
3.1866712810005993,0,0,1.369483349609375,0,0,0.84084
3.1880575429822784,0,0,1.0965443603515623,0,0,0.91728
3.189443695009686,0,0,1.1923124267578125,0,0,0.84084
3.190829864994157,0,0,1.4030021728515625,0,0,1.07016
3.1922164789866656,0,0,1.5634136840820312,0,0,0.84084
3.193609779002145,0,0,1.2808978881835937,0,0,1.2994800000000002
3.1949956890020985,0,0,1.4221557861328125,0,0,0.99372
3.196382784983143,0,0,1.1085153686523437,0,0,0.91728
3.1977744179894216,0,0,1.0749965454101562,0,0,0.68796
3.1991615509905387,0,0,1.2497732666015624,0,0,0.30576000000000003
3.20054944299045,0,0,1.218648645019531,0,0,0.45864
3.2019332610070705,0,0,1.5322890624999999,0,0,0.07644000000000001
3.2033188389905263,0,0,1.4628572143554686,0,0,0.53508
3.2047067119856365,0,0,1.5873557006835937,0,0,0.6115200000000001
3.206092437991174,0,0,1.1851298217773436,0,0,0.68796
3.2074784039868973,0,0,1.1563994018554686,0,0,0.68796
3.208911777008325,0,0,1.1468225952148436,0,0,0.53508
3.2103009469865356,0,0,1.1061211669921875,0,0,0.6115200000000001
3.2116874319908675,0,0,1.4413093994140624,0,0,0.91728
3.2131016939820256,0,0,1.4963760375976562,0,0,0.91728
3.2144929569913074,0,0,1.216254443359375,0,0,0.53508
3.2158805709914304,0,0,1.4125789794921875,0,0,0.91728
3.2172701850067824,0,0,1.3766659545898436,0,0,0.91728
3.21865720700589,0,0,1.1276689819335937,0,0,0.84084
3.220044413988944,0,0,1.1659762084960936,0,0,0.84084
3.221432416990865,0,0,1.1444283935546875,0,0,0.6115200000000001
3.2228197539807297,0,0,1.3910311645507811,0,0,0.45864
3.2242070169886574,0,0,1.3215993164062498,0,0,0.91728
3.225593871989986,0,0,1.6352397338867186,0,0,0.91728
3.226981004991103,0,0,1.1324573852539062,0,0,0.6115200000000001
3.228369101008866,0,0,1.2808978881835937,0,0,0.6115200000000001
3.2297565669869073,0,0,1.2042834350585936,0,0,0.3822
3.2311587919830345,0,0,1.1468225952148436,0,0,0.30576000000000003
3.2325472770025954,0,0,1.3335703247070312,0,0,0.6115200000000001
3.233934205985861,0,0,1.5083470458984374,0,0,0.84084
3.235321671993006,0,0,1.4149731811523436,0,0,0.99372
3.2367171199875884,0,0,1.1276689819335937,0,0,0.91728
3.2381048270035535,0,0,1.1540052001953125,0,0,1.2230400000000001
3.239492218999658,0,0,1.139639990234375,0,0,0.7644
3.2408795740047935,0,0,1.1755530151367186,0,0,0.68796
3.242266410990851,0,0,1.216254443359375,0,0,1.07016
3.243653618003009,0,0,1.4628572143554686,0,0,0.68796
3.245040824986063,0,0,1.3431471313476562,0,0,0.7644
3.2464274390076753,0,0,1.407790576171875,0,0,1.2230400000000001
3.2478142759937327,0,0,1.199495031738281,0,0,0.84084
3.2492014089948498,0,0,1.197100830078125,0,0,0.68796
3.250588467984926,0,0,1.1947066284179686,0,0,0.30576000000000003
3.2519759889983106,0,0,1.218648645019531,0,0,0.45864
3.2533631219994277,0,0,1.2904746948242187,0,0,-9.47856
3.254751921980642,0,0,1.2737152832031249,0,0,0.53508
3.256139554985566,0,0,1.4987702392578124,0,0,0.53508
3.2575267989886925,0,0,1.39821376953125,0,0,0.45864
3.258913486992242,0,0,1.24498486328125,0,0,0.84084
3.260302378999768,0,0,1.1324573852539062,0,0,0.84084
3.261689437989844,0,0,1.0989385620117187,0,0,0.99372
3.263076626986731,0,0,1.3215993164062498,0,0,1.2230400000000001
3.264464667008724,0,0,1.4939818359375,0,0,0.68796
3.2658506520092487,0,0,1.3527239379882812,0,0,1.1465999999999998
3.2672377660055645,0,0,1.5777788940429687,0,0,1.1465999999999998
3.268625658005476,0,0,1.2138602416992186,0,0,0.68796
3.2700119579967577,0,0,1.1324573852539062,0,0,0.84084
3.271398312994279,0,0,1.1707646118164061,0,0,0.45864
3.272794630989665,0,0,1.2904746948242187,0,0,0.45864
3.2741814680048265,0,0,1.2569558715820313,0,0,0.0
3.275568156008376,0,0,1.4006079711914061,0,0,0.6115200000000001
3.2769612339907326,0,0,1.5921441040039062,0,0,0.99372
3.278347865998512,0,0,1.3670891479492187,0,0,0.68796
3.2797345549915917,0,0,1.2952630981445312,0,0,0.68796
3.2811313359998167,0,0,1.2641384765625,0,0,0.6115200000000001
3.282518321007956,0,0,1.1540052001953125,0,0,0.91728
3.2839053790085018,0,0,1.3239935180664062,0,0,0.84084
3.285292827000376,0,0,1.467645617675781,0,0,0.84084
3.2866794599976856,0,0,1.4604630126953124,0,0,0.99372
3.28807022300316,0,0,1.4030021728515625,0,0,0.84084
3.2894745960074943,0,0,1.16837041015625,0,0,0.99372
3.290861932997359,0,0,1.0678139404296874,0,0,0.7644
3.292251620994648,0,0,1.1563994018554686,0,0,0.84084
3.293638568982715,0,0,1.3551181396484375,0,0,0.91728
3.2950257569900714,0,0,1.4173673828125,0,0,0.30576000000000003
3.296413408999797,0,0,1.2497732666015624,0,0,0.68796
3.297799911990296,0,0,1.5059528442382812,0,0,0.45864
3.299186638003448,0,0,1.0917559570312498,0,0,0.68796
3.300574733002577,0,0,1.1420341918945311,0,0,0.7644
3.30196075499407,0,0,1.189918225097656,0,0,0.53508
3.3033478139841463,0,0,1.2473790649414063,0,0,0.53508
3.3047342250065412,0,0,1.350329736328125,0,0,0.45864
3.3061209690058604,0,0,1.4341267944335936,0,0,0.84084
3.307508213008987,0,0,1.3096283081054687,0,0,0.68796
3.3088954009872396,0,0,1.3718775512695311,0,0,0.53508
3.3102822930086404,0,0,1.1875240234375,0,0,1.2230400000000001
3.311676871002419,0,0,1.1923124267578125,0,0,0.68796
3.313063929992495,0,0,1.1635820068359375,0,0,0.68796
3.314450487989234,0,0,1.2378022583007813,0,0,1.07016
3.3158375659841113,0,0,1.5586252807617187,0,0,0.6115200000000001
3.3172251989890356,0,0,1.448492004394531,0,0,0.91728
3.318612461007433,0,0,1.4125789794921875,0,0,0.84084
3.3199994649912696,0,0,1.1540052001953125,0,0,0.91728
3.321386467985576,0,0,1.1540052001953125,0,0,0.7644
3.3227729159989394,0,0,1.2737152832031249,0,0,0.7644
3.3241672340082005,0,0,1.2617442749023438,0,0,0.3822
3.325556310999673,0,0,1.5203180541992187,0,0,0.53508
3.3269431660010014,0,0,1.438915197753906,0,0,0.7644
3.3283312429848593,0,0,1.3407529296874998,0,0,0.6115200000000001
3.329717468994204,0,0,1.1611878051757811,0,0,0.45864
3.3311043430003338,0,0,1.1923124267578125,0,0,0.91728
3.3324915129924193,0,0,1.0749965454101562,0,0,0.84084
3.333877589990152,0,0,1.20667763671875,0,0,0.84084
3.3352647779975086,0,0,1.2808978881835937,0,0,1.07016
3.3366524669982027,0,0,1.4915876342773438,0,0,0.91728
3.3380389329977334,0,0,1.2378022583007813,0,0,0.7644
3.339425621990813,0,0,1.5921441040039062,0,0,1.37592
3.3408126620051917,0,0,1.1252747802734375,0,0,0.91728
3.342199887003517,0,0,1.1444283935546875,0,0,0.84084
3.343586871982552,0,0,1.218648645019531,0,0,0.53508
3.3449739679927006,0,0,1.149216796875,0,0,0.30576000000000003
3.3463611190090887,0,0,1.3359645263671873,0,0,0.07644000000000001
3.347754807997262,0,0,1.3718775512695311,0,0,0.91728
3.349153958988609,0,0,1.3934253662109375,0,0,1.07016
3.3505411289806943,0,0,1.218648645019531,0,0,0.53508
3.3519282619818114,0,0,1.2928688964843749,0,0,1.07016
3.3533152650052216,0,0,1.1228805786132812,0,0,0.7644
3.354702490993077,0,0,1.2330138549804688,0,0,0.91728
3.3560891420056578,0,0,1.3120225097656248,0,0,1.2994800000000002
3.3574762569915038,0,0,1.4963760375976562,0,0,0.99372
3.3588632039900403,0,0,1.39821376953125,0,0,0.6115200000000001
3.360251097008586,0,0,1.618480322265625,0,0,0.91728
3.361637841007905,0,0,1.189918225097656,0,0,0.6115200000000001
3.3630247880064417,0,0,1.1324573852539062,0,0,0.99372
3.3644121990073472,0,0,1.3120225097656248,0,0,0.53508
3.3657986100006383,0,0,1.24498486328125,0,0,0.30576000000000003
3.367185723996954,0,0,1.4053963745117186,0,0,0.0
3.3685802459949628,0,0,1.2761094848632812,0,0,0.45864
3.3701765989826526,0,0,1.659181750488281,0,0,0.68796
3.3715676199935842,0,0,1.1420341918945311,0,0,0.7644
3.3729554009914864,0,0,1.2928688964843749,0,0,0.53508
3.374342107999837,0,0,1.0749965454101562,0,0,0.30576000000000003
3.37573272298323,0,0,1.1827356201171875,0,0,0.45864
3.3771197629976086,0,0,1.4915876342773438,0,0,0.3822
3.378506988985464,0,0,1.3670891479492187,0,0,0.7644
3.3798943249857984,0,0,1.448492004394531,0,0,0.30576000000000003
3.381281402980676,0,0,1.5251064575195312,0,0,0.68796
3.382668164995266,0,0,1.2713210815429687,0,0,1.1465999999999998
3.38405585399596,0,0,1.0917559570312498,0,0,0.84084
3.385442819999298,0,0,1.3359645263671873,0,0,0.7644
3.386829138005851,0,0,1.3551181396484375,0,0,1.2994800000000002
3.3882170300057624,0,0,1.4030021728515625,0,0,0.53508
3.3896039410028607,0,0,1.2689268798828124,0,0,0.84084
3.3909909070061985,0,0,1.5658078857421873,0,0,0.91728
3.3923784290091135,0,0,1.1276689819335937,0,0,0.84084
3.3937670619925484,0,0,1.2138602416992186,0,0,0.45864
3.3951679909951054,0,0,1.3024457031249999,0,0,0.53508
3.39661499299109,0,0,1.3168109130859373,0,0,0.3822
3.3980600149952807,0,0,1.5011644409179687,0,0,0.0
3.3994490359909832,0,0,1.2282254516601563,0,0,0.53508
3.4008423360064626,0,0,1.4987702392578124,0,0,0.68796
3.402229486993747,0,0,1.3311761230468748,0,0,0.68796
3.4036165649886243,0,0,1.2593500732421874,0,0,0.53508
3.4050041239825077,0,0,1.1755530151367186,0,0,0.68796
3.4064119039976504,0,0,1.2282254516601563,0,0,1.07016
3.407799296983285,0,0,1.3479355346679687,0,0,0.84084
3.4091872629942372,0,0,1.455674609375,0,0,0.6115200000000001
3.410574303008616,0,0,1.4413093994140624,0,0,0.7644
3.4119688989885617,0,0,1.484405029296875,0,0,0.99372
3.4133577729808167,0,0,1.3359645263671873,0,0,0.99372
3.4147447569994256,0,0,1.0462661254882812,0,0,0.7644
3.416132482991088,0,0,1.0749965454101562,0,0,0.53508
3.4175213009875733,0,0,1.2497732666015624,0,0,1.07016
3.4189084710087627,0,0,1.465251416015625,0,0,0.7644
3.420315880997805,0,0,1.3838485595703125,0,0,0.53508
3.4217031989828683,0,0,1.659181750488281,0,0,1.2994800000000002
3.423090055002831,0,0,1.3144167114257812,0,0,0.6115200000000001
3.424477669002954,0,0,1.139639990234375,0,0,0.45864
3.4258638760074973,0,0,1.3000515014648437,0,0,0.68796
3.427253064000979,0,0,1.0821791503906248,0,0,0.68796
3.4286501230089925,0,0,1.3910311645507811,0,0,0.84084
3.4300372379948385,0,0,1.5179238525390624,0,0,0.7644
3.4314243519911543,0,0,1.618480322265625,0,0,0.99372
3.43281152198324,0,0,1.3311761230468748,0,0,0.53508
3.4341980619938113,0,0,1.1420341918945311,0,0,1.1465999999999998
3.4355848619889002,0,0,1.2138602416992186,0,0,1.07016
3.4369672540051397,0,0,1.3120225097656248,0,0,0.84084
3.438346128008561,0,0,1.2138602416992186,0,0,0.68796
3.439724463998573,0,0,1.4724340209960938,0,0,0.45864
3.441122522985097,0,0,1.2785036865234374,0,0,0.7644
3.442509638000047,0,0,1.5538368774414062,0,0,0.91728
3.4438997889810707,0,0,1.1468225952148436,0,0,0.84084
3.4452894029964227,0,0,1.0749965454101562,0,0,0.7644
3.4466763329983223,0,0,1.2521674682617188,0,0,0.15288000000000002
3.448064725002041,0,0,1.1947066284179686,0,0,0.6115200000000001
3.449453190987697,0,0,1.3646949462890625,0,0,0.07644000000000001
3.4509873040078674,0,0,1.419761584472656,0,0,0.68796
3.452382121991832,0,0,1.5418658691406248,0,0,0.84084
3.453766644001007,0,0,1.2234370483398436,0,0,0.7644
3.4551534249912947,0,0,1.197100830078125,0,0,0.91728
3.456557964993408,0,0,1.2234370483398436,0,0,0.68796
3.457945764006581,0,0,1.0893617553710937,0,0,0.84084
3.459333045000676,0,0,1.3646949462890625,0,0,1.37592
3.4607396780047566,0,0,1.4628572143554686,0,0,1.1465999999999998
3.462126347993035,0,0,1.2880804931640624,0,0,0.91728
3.463512387999799,0,0,1.446097802734375,0,0,0.91728
3.4649076880014036,0,0,1.1635820068359375,0,0,0.99372
3.466294357989682,0,0,1.3527239379882812,0,0,1.07016
3.467680231988197,0,0,1.1947066284179686,0,0,0.45864
3.4690674009907525,0,0,1.1420341918945311,0,0,0.84084
3.470453460002318,0,0,1.419761584472656,0,0,0.07644000000000001
3.4718397599935997,0,0,1.3215993164062498,0,0,0.45864
3.473226503992919,0,0,1.5035586425781249,0,0,0.53508
3.4746183030074462,0,0,1.2928688964843749,0,0,0.7644
3.4760047879826743,0,0,1.1516109985351561,0,0,0.53508
3.4773921800078824,0,0,1.1611878051757811,0,0,0.7644
3.478778313001385,0,0,1.0893617553710937,0,0,0.45864
3.480164538981626,0,0,1.0917559570312498,0,0,0.91728
3.481551300996216,0,0,1.5203180541992187,0,0,1.2230400000000001
3.482946304982761,0,0,1.3144167114257812,0,0,0.7644
3.484333270986099,0,0,1.3048399047851562,0,0,0.91728
3.4857187370071188,0,0,1.218648645019531,0,0,0.91728
3.487110332993325,0,0,1.2737152832031249,0,0,1.07016
3.488496762001887,0,0,1.2330138549804688,0,0,0.53508
3.4898828949953895,0,0,1.2330138549804688,0,0,0.91728
3.491268712998135,0,0,1.3144167114257812,0,0,0.30576000000000003
3.492655456997454,0,0,1.2425906616210938,0,0,0.6115200000000001
3.494041552999988,0,0,1.5107412475585937,0,0,0.99372
3.495428111986257,0,0,1.1420341918945311,0,0,0.6115200000000001
3.4968145599996205,0,0,1.197100830078125,0,0,0.53508
3.498200784990331,0,0,1.20667763671875,0,0,0.6115200000000001
3.4995941770030186,0,0,1.1635820068359375,0,0,0.53508
3.5009812919888645,0,0,1.3239935180664062,0,0,0.3822
3.5023674620024394,0,0,1.3718775512695311,0,0,0.6115200000000001
3.5037531690031756,0,0,1.43652099609375,0,0,0.6115200000000001
3.5051580790022854,0,0,1.6304513305664061,0,0,0.84084
3.506543805007823,0,0,1.158793603515625,0,0,1.07016
3.507930160005344,0,0,0.9241618408203125,0,0,1.07016
3.5093160519900266,0,0,1.2042834350585936,0,0,0.91728
3.5107020550058223,0,0,1.3383587280273437,0,0,1.2994800000000002
3.512088187999325,0,0,1.4532804077148436,0,0,0.3822
3.513474524981575,0,0,1.2330138549804688,0,0,0.6115200000000001
3.5148603429843206,0,0,1.6041151123046875,0,0,0.99372
3.5162481979932636,0,0,1.3120225097656248,0,0,0.84084
3.517638700985117,0,0,1.209071838378906,0,0,0.45864
3.5190251309832092,0,0,1.3455413330078123,0,0,0.3822
3.520412337995367,0,0,1.1827356201171875,0,0,0.53508
3.5217976559943054,0,0,1.3239935180664062,0,0,0.6115200000000001
3.523192991997348,0,0,1.5179238525390624,0,0,1.07016
3.5245801440032665,0,0,1.5562310791015623,0,0,0.68796
3.52596586899017,0,0,1.39821376953125,0,0,0.53508
3.5273518720059656,0,0,1.2521674682617188,0,0,1.1465999999999998
3.528738708992023,0,0,1.1085153686523437,0,0,0.7644
3.530124471988529,0,0,1.199495031738281,0,0,0.91728
3.531510270986473,0,0,1.3072341064453123,0,0,0.99372
3.5328968490066472,0,0,1.5825672973632812,0,0,0.7644
3.5342824069957715,0,0,1.35990654296875,0,0,0.84084
3.535667596006533,0,0,1.5442600708007812,0,0,1.07016
3.5370549139915965,0,0,1.1516109985351561,0,0,0.91728
3.5384414730069693,0,0,1.0462661254882812,0,0,0.6115200000000001
3.539827772008721,0,0,1.1372457885742187,0,0,0.6115200000000001
3.5412309789971914,0,0,1.1707646118164061,0,0,0.07644000000000001
3.542616574995918,0,0,1.3623007446289062,0,0,-9.784320000000001
3.54401189298369,0,0,1.5298948608398437,0,0,0.84084
3.5453989149827976,0,0,1.5777788940429687,0,0,1.07016
3.546784992009634,0,0,1.2832920898437499,0,0,0.53508
3.548171236005146,0,0,1.1324573852539062,0,0,0.91728
3.549559128994588,0,0,1.2665326782226562,0,0,0.84084
3.5509492609999143,0,0,1.2114660400390624,0,0,0.7644
3.5523358570062555,0,0,1.3623007446289062,0,0,1.45236
