Time,AccelX1,AccelY1,AccelZ1,AccelX2,AccelY2,AccelZ2
3.850989742204547e-06,0,0,1.4053963745117186,0,0,0.7644
0.003327362996060401,0,0,1.4125789794921875,0,0,0.84084
0.006837243010522798,0,0,1.3455413330078123,0,0,0.45864
0.010435214993776754,0,0,1.388636962890625,0,0,1.1465999999999998
0.014029871003003791,0,0,1.5083470458984374,0,0,0.7644
0.0175762879953254,0,0,1.2617442749023438,0,0,1.2230400000000001
0.021216795983491465,0,0,1.4173673828125,0,0,0.7644
0.024739619984757155,0,0,1.20667763671875,0,0,1.1465999999999998
0.02830485100275837,0,0,1.0989385620117187,0,0,0.53508
0.03182417500647716,0,0,1.4700398193359374,0,0,0.84084
0.036475188011536375,0,0,1.1420341918945311,0,0,0.99372
0.040032085991697386,0,0,1.3239935180664062,0,0,0.6115200000000001
0.04355361399939284,0,0,1.4915876342773438,0,0,1.2994800000000002
0.047072697983821854,0,0,1.1420341918945311,0,0,0.84084
0.0505871330096852,0,0,1.2521674682617188,0,0,1.2230400000000001
0.054150752985151485,0,0,1.6304513305664061,0,0,0.84084
0.05766909598605707,0,0,1.3718775512695311,0,0,0.91728
0.061192808992927894,0,0,1.3766659545898436,0,0,0.99372
0.06470935500692576,0,0,1.2401964599609374,0,0,0.91728
0.06822782798553817,0,0,1.2042834350585936,0,0,0.30576000000000003
0.07204198199906386,0,0,1.448492004394531,0,0,1.07016
0.07572834100574255,0,0,1.2306196533203124,0,0,0.7644
0.07929057200090028,0,0,1.235408056640625,0,0,0.99372
0.08281233999878168,0,0,1.2737152832031249,0,0,1.07016
0.08633116498822346,0,0,1.0869675537109373,0,0,0.68796
0.08985374800977297,0,0,1.1133037719726562,0,0,1.1465999999999998
0.09337148000486195,0,0,1.5179238525390624,0,0,0.53508
0.09689043401158415,0,0,1.2689268798828124,0,0,0.53508
0.10040764699806459,0,0,1.2425906616210938,0,0,0.6115200000000001
0.10403859900543466,0,0,1.3958195678710936,0,0,1.1465999999999998
0.10723889101063833,0,0,1.2234370483398436,0,0,0.91728
0.11007085398887284,0,0,1.2378022583007813,0,0,0.99372
0.11285346499062143,0,0,1.2880804931640624,0,0,0.84084
0.11564013300812803,0,0,1.3287819213867187,0,0,0.7644
0.11843420699005947,0,0,1.2856862915039062,0,0,0.68796
0.12123450401122682,0,0,1.4245499877929686,0,0,0.45864
0.1240346519916784,0,0,1.4700398193359374,0,0,0.3822
0.12684106000233442,0,0,1.3287819213867187,0,0,0.68796
0.12964120801188983,0,0,1.2306196533203124,0,0,0.07644000000000001
0.1324461160111241,0,0,1.2593500732421874,0,0,0.6115200000000001
0.1352457090106327,0,0,1.254561669921875,0,0,0.99372
0.13807650498347357,0,0,1.209071838378906,0,0,0.91728
0.14087717200163752,0,0,1.3359645263671873,0,0,0.84084
0.14367633900837973,0,0,1.369483349609375,0,0,1.1465999999999998
0.1464802469999995,0,0,1.2234370483398436,0,0,1.2230400000000001
0.1492791729979217,0,0,1.3455413330078123,0,0,1.37592
0.15207911800825968,0,0,1.2641384765625,0,0,1.2230400000000001
0.15487913700053468,0,0,1.448492004394531,0,0,1.1465999999999998
0.157677915005479,0,0,1.2880804931640624,0,0,0.68796
0.16047717499895953,0,0,1.426944189453125,0,0,1.1465999999999998
0.16330469300737604,0,0,1.3766659545898436,0,0,1.07016
0.16611456399550661,0,0,1.3120225097656248,0,0,0.6115200000000001
0.1689155460044276,0,0,1.1516109985351561,0,0,0.45864
0.1717173979850486,0,0,1.455674609375,0,0,0.84084
0.1745179909921717,0,0,1.6208745239257811,0,0,0.84084
0.17731428699335083,0,0,1.149216796875,0,0,0.68796
0.18013008398702368,0,0,1.218648645019531,0,0,0.53508
0.18294980601058342,0,0,1.3024457031249999,0,0,0.68796
0.18575249199056998,0,0,1.2401964599609374,0,0,0.68796
0.18857788099558093,0,0,1.3766659545898436,0,0,0.84084
0.19137954799225554,0,0,1.4604630126953124,0,0,0.84084
0.19417873298516497,0,0,1.419761584472656,0,0,0.91728
0.1969892699853517,0,0,1.3287819213867187,0,0,1.07016
0.19979004800552502,0,0,1.1516109985351561,0,0,1.1465999999999998
0.20259319699835032,0,0,1.4125789794921875,0,0,0.99372
0.2054860850039404,0,0,1.22583125,0,0,0.99372
0.20856576701044105,0,0,1.1109095703125,0,0,0.6115200000000001
0.21168578098877333,0,0,1.2473790649414063,0,0,1.1465999999999998
0.21480453701224178,0,0,1.4772224243164063,0,0,1.07016
0.2179251629859209,0,0,1.1563994018554686,0,0,1.07016
0.22104345500702038,0,0,1.2641384765625,0,0,1.1465999999999998
0.22416180299478583,0,0,1.5059528442382812,0,0,0.53508
0.22728074400220066,0,0,1.3120225097656248,0,0,0.84084
0.2303976289986167,0,0,1.2401964599609374,0,0,0.53508
0.2335134950117208,0,0,1.2569558715820313,0,0,1.2994800000000002
0.23663049199967645,0,0,1.1851298217773436,0,0,1.07016
0.23974748799810186,0,0,1.3000515014648437,0,0,1.1465999999999998
0.2428715210116934,0,0,1.5203180541992187,0,0,0.68796
0.24599048000527546,0,0,1.3814543579101561,0,0,0.68796
0.24910618001013063,0,0,1.3048399047851562,0,0,0.84084
0.25222423201194033,0,0,1.47482822265625,0,0,0.7644
0.25534120900556445,0,0,1.4053963745117186,0,0,0.84084
0.2584845020028297,0,0,1.1923124267578125,0,0,0.84084
0.2616001649876125,0,0,1.2282254516601563,0,0,1.07016
0.2647168269904796,0,0,1.2593500732421874,0,0,0.7644
0.26785798999480903,0,0,1.3431471313476562,0,0,0.91728
0.2710735400032718,0,0,1.4891934326171874,0,0,1.1465999999999998
0.2742233510070946,0,0,1.3168109130859373,0,0,0.91728
0.2773510509869084,0,0,1.2473790649414063,0,0,0.91728
0.28046852798433974,0,0,1.1468225952148436,0,0,0.15288000000000002
0.2835748399957083,0,0,1.5298948608398437,0,0,0.68796
0.2866866510012187,0,0,1.2880804931640624,0,0,1.1465999999999998
0.2898025540052913,0,0,1.1420341918945311,0,0,1.60524
0.29294414300238714,0,0,1.388636962890625,0,0,0.99372
0.29605952798738144,0,0,1.2042834350585936,0,0,1.07016
0.2991752829984762,0,0,1.1037269653320312,0,0,0.7644
0.30228952001198195,0,0,1.2689268798828124,0,0,0.91728
0.30544127500616014,0,0,1.5251064575195312,0,0,0.91728
0.3085571230039932,0,0,1.1731588134765625,0,0,1.07016
0.3116720450052526,0,0,1.3215993164062498,0,0,1.07016
0.3147886710066814,0,0,1.235408056640625,0,0,0.99372
0.3179646850039717,0,0,1.1755530151367186,0,0,0.91728
0.3210827930015512,0,0,1.3575123413085937,0,0,0.22932
0.32419815901084803,0,0,1.3383587280273437,0,0,0.84084
0.3273134889896028,0,0,1.3335703247070312,0,0,0.99372
0.3304294850095175,0,0,1.2521674682617188,0,0,1.1465999999999998
0.3335466659918893,0,0,1.5155296508789062,0,0,0.91728
0.33666149599594064,0,0,1.2378022583007813,0,0,0.45864
0.3397778990038205,0,0,1.1276689819335937,0,0,0.7644
0.34289526598877273,0,0,1.4700398193359374,0,0,0.99372
0.34600946601131,0,0,1.3718775512695311,0,0,0.99372
0.34912427701056004,0,0,1.2832920898437499,0,0,0.7644
0.35223899499396794,0,0,1.2521674682617188,0,0,0.91728
0.3553720279887784,0,0,1.5131354492187499,0,0,0.6115200000000001
0.3584918020060286,0,0,1.3431471313476562,0,0,0.99372
0.36160420600208454,0,0,1.3239935180664062,0,0,0.91728
0.364719684002921,0,0,1.3192051147460937,0,0,1.37592
0.3678350689879153,0,0,1.2832920898437499,0,0,1.07016
0.3709522690041922,0,0,1.1731588134765625,0,0,0.22932
0.37410719000035897,0,0,1.3072341064453123,0,0,0.7644
0.3772216679935809,0,0,1.1180921752929687,0,0,0.53508
0.38033707201248035,0,0,1.2042834350585936,0,0,1.1465999999999998
0.38345254899468273,0,0,1.37906015625,0,0,1.1465999999999998
0.3865721939946525,0,0,1.467645617675781,0,0,0.99372
0.3896870969911106,0,0,1.1037269653320312,0,0,0.7644
0.39280216800398193,0,0,1.3311761230468748,0,0,0.6115200000000001
0.395917052985169,0,0,1.5945383056640625,0,0,0.68796
0.39906810398679227,0,0,1.158793603515625,0,0,0.91728
0.4022819880046882,0,0,1.218648645019531,0,0,0.91728
0.4054403720074333,0,0,1.3192051147460937,0,0,1.2230400000000001
0.40856425699894316,0,0,1.3407529296874998,0,0,0.68796
0.41168340199510567,0,0,1.177947216796875,0,0,0.91728
0.4148018049891107,0,0,1.3335703247070312,0,0,0.99372
0.4180243739974685,0,0,1.2928688964843749,0,0,0.99372
0.4211539069947321,0,0,1.3407529296874998,0,0,0.91728
0.4242725330113899,0,0,1.467645617675781,0,0,0.3822
0.4273973249946721,0,0,1.2665326782226562,0,0,0.6115200000000001
0.4305132660083473,0,0,1.1156979736328125,0,0,1.68168
0.43363005900755525,0,0,1.24498486328125,0,0,0.99372
0.43674672101042233,0,0,1.3048399047851562,0,0,0.99372
0.4398629030038137,0,0,1.209071838378906,0,0,0.91728
0.4429809360008221,0,0,1.235408056640625,0,0,0.68796
0.4460972840024624,0,0,1.4006079711914061,0,0,0.7644
0.44926231700810604,0,0,1.2114660400390624,0,0,0.84084
0.45237977599026635,0,0,1.2473790649414063,0,0,1.37592
0.45551280898507684,0,0,1.3120225097656248,0,0,0.99372
0.4586312129977159,0,0,1.16837041015625,0,0,1.1465999999999998
0.4617450049845502,0,0,1.0749965454101562,0,0,0.15288000000000002
0.46486164900125004,0,0,1.3215993164062498,0,0,0.3822
0.4680145900056232,0,0,1.2401964599609374,0,0,0.53508
0.4711323819938116,0,0,1.2928688964843749,0,0,1.07016
0.4742495630052872,0,0,1.254561669921875,0,0,-8.48484
0.47738441100227647,0,0,1.3024457031249999,0,0,1.1465999999999998
0.4805003149958793,0,0,1.2138602416992186,0,0,0.84084
0.48361675499472767,0,0,1.2880804931640624,0,0,0.3822
0.4867342890065629,0,0,1.4628572143554686,0,0,1.07016
0.4898524330055807,0,0,1.158793603515625,0,0,0.7644
0.4929674289887771,0,0,1.2665326782226562,0,0,1.2230400000000001
0.49616436898941174,0,0,1.2713210815429687,0,0,0.68796
0.49946504799299873,0,0,1.3311761230468748,0,0,0.68796
0.5025933590077329,0,0,1.3168109130859373,0,0,1.2230400000000001
0.5153018400014844,0,0,1.3263877197265623,0,0,0.6115200000000001
0.5214120199962053,0,0,1.2808978881835937,0,0,1.37592
0.5245858109847177,0,0,1.37906015625,0,0,1.1465999999999998
0.5276920479955152,0,0,1.120486376953125,0,0,0.91728
0.5313303709845059,0,0,1.2210428466796874,0,0,1.2994800000000002
0.5344572190078907,0,0,1.3383587280273437,0,0,1.2230400000000001
0.5375689750071615,0,0,1.3862427612304686,0,0,1.45236
0.5406799890042748,0,0,1.0893617553710937,0,0,0.84084
0.5437909669999499,0,0,1.5179238525390624,0,0,0.6115200000000001
0.546900112007279,0,0,1.5203180541992187,0,0,0.45864
0.5500082369835582,0,0,1.2378022583007813,0,0,1.37592
0.5531165860011242,0,0,1.24498486328125,0,0,1.2994800000000002
0.5562295079871546,0,0,1.3766659545898436,0,0,1.2994800000000002
0.5593377999903169,0,0,1.2785036865234374,0,0,1.1465999999999998
0.5624484260042664,0,0,1.2641384765625,0,0,0.07644000000000001
0.5655861260020174,0,0,1.2665326782226562,0,0,0.99372
0.5686938819999341,0,0,1.3718775512695311,0,0,0.91728
0.5718032110016793,0,0,1.2880804931640624,0,0,1.5288
0.5749677990097553,0,0,1.446097802734375,0,0,0.7644
0.5781212020083331,0,0,1.2976572998046874,0,0,0.7644
0.5814429179881699,0,0,1.139639990234375,0,0,1.5288
0.5850007600092795,0,0,1.4508862060546874,0,0,0.53508
0.5883869199897163,0,0,1.3263877197265623,0,0,0.7644
0.5915058229875285,0,0,1.16837041015625,0,0,0.45864
0.5946481899882201,0,0,1.5251064575195312,0,0,0.99372
0.597758777992567,0,0,1.4006079711914061,0,0,1.1465999999999998
0.6008695710042957,0,0,1.35990654296875,0,0,0.91728
0.6040168259933125,0,0,1.3766659545898436,0,0,0.6115200000000001
0.6072335059870966,0,0,1.3766659545898436,0,0,0.68796
0.6101844490040094,0,0,1.3407529296874998,0,0,0.53508
0.6129763379867654,0,0,1.350329736328125,0,0,0.15288000000000002
0.6157683760102373,0,0,1.2569558715820313,0,0,0.91728
0.6188365579873789,0,0,1.177947216796875,0,0,0.91728
0.6216460209980141,0,0,1.3287819213867187,0,0,0.30576000000000003
0.6246613519906532,0,0,1.3934253662109375,0,0,0.84084
0.6275601469969843,0,0,1.4867992309570313,0,0,-0.15288000000000002
0.6303796099964529,0,0,1.2952630981445312,0,0,0.6115200000000001
0.6331718509900384,0,0,1.2761094848632812,0,0,0.22932
0.6359648329962511,0,0,1.4963760375976562,0,0,1.07016
0.6387574079853948,0,0,1.197100830078125,0,0,1.1465999999999998
0.6415469269850291,0,0,1.2497732666015624,0,0,0.91728
0.6444586479919963,0,0,1.3263877197265623,0,0,0.7644
0.647277629992459,0,0,1.35990654296875,0,0,-8.63772
0.6500729999970645,0,0,1.2330138549804688,0,0,1.07016
0.652862204995472,0,0,1.3192051147460937,0,0,1.68168
0.6556543160113506,0,0,1.455674609375,0,0,0.91728
0.6584440020087641,0,0,1.4317325927734375,0,0,1.1465999999999998
0.6614110000082292,0,0,1.1827356201171875,0,0,0.84084
0.6643141290114727,0,0,1.3239935180664062,0,0,1.2230400000000001
0.6672313679882791,0,0,1.3024457031249999,0,0,1.2230400000000001
0.6701969399873633,0,0,1.218648645019531,0,0,0.91728
0.6731244759866968,0,0,1.2569558715820313,0,0,0.84084
0.676066585991066,0,0,1.2928688964843749,0,0,0.68796
0.6791047129954677,0,0,1.3192051147460937,0,0,0.84084
0.6821604869910516,0,0,1.2018892333984375,0,0,0.68796
0.6850216909951996,0,0,1.4006079711914061,0,0,0.7644
0.6879677260003518,0,0,1.5873557006835937,0,0,0.15288000000000002
0.6908369849843439,0,0,1.1755530151367186,0,0,0.7644
0.6936440590070561,0,0,1.24498486328125,0,0,0.30576000000000003
0.6964258750085719,0,0,1.5011644409179687,0,0,0.99372
0.69922191198566,0,0,1.3000515014648437,0,0,0.84084
0.7020114680053666,0,0,1.0941501586914062,0,0,0.53508
0.7048027649871074,0,0,1.2976572998046874,0,0,0.99372
0.7075887100072578,0,0,1.407790576171875,0,0,0.91728
0.7102486930089071,0,0,1.2737152832031249,0,0,0.6115200000000001
0.7127842339978088,0,0,1.3168109130859373,0,0,0.53508
0.7153467559837736,0,0,1.2737152832031249,0,0,1.07016
0.7178819449909497,0,0,1.467645617675781,0,0,1.2230400000000001
0.720419374993071,0,0,1.1731588134765625,0,0,0.68796
0.7229456939967349,0,0,1.3646949462890625,0,0,0.91728
0.7255807520123199,0,0,1.37906015625,0,0,0.6115200000000001
0.7281196629919577,0,0,1.2761094848632812,0,0,0.91728
0.7306586669874378,0,0,1.3646949462890625,0,0,0.84084
0.7331932259839959,0,0,1.1468225952148436,0,0,0.91728
0.7357257109833881,0,0,1.2785036865234374,0,0,0.6115200000000001
0.7383484180027153,0,0,1.5179238525390624,0,0,0.91728
0.7408865510078613,0,0,1.1635820068359375,0,0,1.07016
0.743423703010194,0,0,1.24498486328125,0,0,1.2994800000000002
0.7459810219879728,0,0,1.3359645263671873,0,0,0.30576000000000003
0.7485182480013464,0,0,1.5155296508789062,0,0,1.07016
0.7510548069840297,0,0,1.3144167114257812,0,0,0.7644
0.7535905700060539,0,0,1.2641384765625,0,0,1.75812
0.7561299439985305,0,0,1.5179238525390624,0,0,1.07016
0.7586677439976484,0,0,1.3910311645507811,0,0,0.99372
0.7612018779909704,0,0,1.3287819213867187,0,0,1.07016
0.7637397329963278,0,0,1.2976572998046874,0,0,1.2994800000000002
0.7662771629984491,0,0,1.2569558715820313,0,0,0.99372
0.7688292780076154,0,0,1.4221557861328125,0,0,0.7644
0.771428336011013,0,0,1.197100830078125,0,0,0.68796
0.7740091909945477,0,0,1.35990654296875,0,0,1.2230400000000001
0.7771787609963212,0,0,1.2689268798828124,0,0,0.45864
0.779751967987977,0,0,1.2401964599609374,0,0,1.37592
0.7822848790092394,0,0,1.01514150390625,0,0,0.7644
0.7848035680071916,0,0,1.22583125,0,0,0.07644000000000001
0.7874592739972286,0,0,1.3239935180664062,0,0,0.68796
0.7899959629867226,0,0,1.2210428466796874,0,0,1.1465999999999998
0.7925178009900264,0,0,1.1468225952148436,0,0,1.1465999999999998
0.7950805629952811,0,0,1.3311761230468748,0,0,0.99372
0.7976171039917972,0,0,1.2689268798828124,0,0,0.99372
0.8001404420065228,0,0,1.2401964599609374,0,0,0.84084
0.8030536629958078,0,0,1.1563994018554686,0,0,0.53508
0.8058855510025751,0,0,1.3862427612304686,0,0,1.1465999999999998
0.8085258869978134,0,0,1.5562310791015623,0,0,0.91728
0.8113539429905359,0,0,1.3000515014648437,0,0,0.91728
0.8144599579973146,0,0,1.2952630981445312,0,0,0.15288000000000002
0.8175585280114319,0,0,1.2282254516601563,0,0,1.1465999999999998
0.8206598210090306,0,0,1.2808978881835937,0,0,0.7644
0.8237860579974949,0,0,1.2832920898437499,0,0,1.2994800000000002
0.8269113319984172,0,0,1.4053963745117186,0,0,1.2230400000000001
0.830358712002635,0,0,1.3575123413085937,0,0,0.84084
0.8334683940047398,0,0,1.2521674682617188,0,0,1.60524
0.8365955190092791,0,0,1.5059528442382812,0,0,1.45236
0.8397162189939991,0,0,1.3048399047851562,0,0,1.07016
0.8428288080031052,0,0,1.1611878051757811,0,0,0.84084
0.8459956180013251,0,0,1.2689268798828124,0,0,-9.47856
0.8491207810002379,0,0,1.4915876342773438,0,0,0.53508
0.8522400369984098,0,0,1.2904746948242187,0,0,0.68796
0.8553592920070514,0,0,1.2665326782226562,0,0,1.37592
0.8584706590045244,0,0,1.467645617675781,0,0,0.99372
0.8615678029891569,0,0,1.0989385620117187,0,0,0.91728
0.8646868919895496,0,0,1.158793603515625,0,0,0.45864
0.8678099249955267,0,0,1.43652099609375,0,0,0.84084
0.8709299769834615,0,0,1.2904746948242187,0,0,0.53508
0.8740470100019593,0,0,1.2569558715820313,0,0,1.83456
0.8772143209935166,0,0,1.5275006591796874,0,0,2.4460800000000003
0.8803357429860625,0,0,1.9656395629882812,0,0,2.14032
0.8834563129930757,0,0,2.1068974609374997,0,0,1.98744
0.886574661009945,0,0,2.6719290527343746,0,0,1.07016
0.889689953008201,0,0,1.8435352783203125,0,0,1.07016
0.8928064499923494,0,0,1.4221557861328125,0,0,1.07016
0.8959229270112701,0,0,1.3527239379882812,0,0,1.60524
0.8990766819915734,0,0,1.9009961181640624,0,0,1.75812
0.9021936779899988,0,0,2.114080065917969,0,0,1.5288
0.9053376000083517,0,0,1.898601916503906,0,0,1.2994800000000002
0.9085178549867123,0,0,1.8842367065429686,0,0,1.45236
0.911640220991103,0,0,1.8195932617187498,0,0,1.1465999999999998
0.9147617359994911,0,0,1.7525556152343749,0,0,1.45236
0.9178801579982974,0,0,2.2481553588867187,0,0,1.2230400000000001
0.9210053950082511,0,0,1.7453730102539062,0,0,0.6115200000000001
0.9241240950068459,0,0,1.5682020874023437,0,0,2.06388
0.927242090983782,0,0,2.2768857788085937,0,0,1.45236
0.9303641240112484,0,0,1.3646949462890625,0,0,1.2230400000000001
0.9334808609855827,0,0,1.9823989746093749,0,0,0.68796
0.9365990789956413,0,0,1.3742717529296875,0,0,1.37592
0.9397175569902174,0,0,1.9943699829101562,0,0,1.98744
0.9428365899948403,0,0,2.0302830078125,0,0,1.911
0.9460021230042912,0,0,2.389413256835937,0,0,1.2994800000000002
0.9491228229890112,0,0,1.8914193115234375,0,0,1.83456
0.9522447449853644,0,0,1.2282254516601563,0,0,0.99372
0.95536192599684,0,0,1.1252747802734375,0,0,0.7644
0.9584815709968098,0,0,1.5251064575195312,0,0,1.98744
0.9615967329882551,0,0,2.133233679199219,0,0,1.911
0.9647150629898533,0,0,1.8842367065429686,0,0,1.2230400000000001
0.9678323740081396,0,0,2.1930887207031247,0,0,1.75812
0.970951444003731,0,0,2.0350714111328125,0,0,-8.943480000000001
0.9741398649930488,0,0,0.612915625,0,0,0.91728
0.9772580649878364,0,0,2.7078420776367187,0,0,2.4460800000000003
0.98037857998861,0,0,1.697488977050781,0,0,0.7644
0.9834958539868239,0,0,1.8507178833007811,0,0,0.91728
0.9866176460054703,0,0,2.3918074584960936,0,0,1.37592
0.9897348829836119,0,0,0.8595183959960937,0,0,0.84084
0.9928560089902021,0,0,1.9728221679687499,0,0,1.68168
0.996010542003205,0,0,1.5705962890624998,0,0,-9.01992
0.999133315985091,0,0,2.7437551025390623,0,0,0.7644
1.002285533992108,0,0,1.7286135986328124,0,0,1.07016
1.0054988439951558,0,0,1.8818425048828125,0,0,0.22932
1.008794688998023,0,0,1.7286135986328124,0,0,1.1465999999999998
1.0120570540020708,0,0,2.6958710693359373,0,0,1.2994800000000002
1.0152634189871605,0,0,1.4101847778320311,0,0,2.82828
1.0184979510086123,0,0,1.47482822265625,0,0,0.53508
1.02234177099308,0,0,1.7501614135742187,0,0,1.45236
1.0257090230006725,0,0,2.0877438476562498,0,0,2.6754
1.0288804449955933,0,0,2.3439234252929686,0,0,0.07644000000000001
1.0322355490061454,0,0,1.608903515625,0,0,-1.1465999999999998
1.035423136985628,0,0,2.4133552734375,0,0,4.12776
1.0385871139878873,0,0,2.454056701660156,0,0,2.75184
1.041700703004608,0,0,0.7541735229492187,0,0,-1.2230400000000001
1.044821273011621,0,0,1.484405029296875,0,0,3.13404
1.0479474540043157,0,0,3.7397429931640622,0,0,2.4460800000000003
1.0510850060090888,0,0,0.7230489013671875,0,0,0.0
1.0543195930076763,0,0,1.3479355346679687,0,0,2.2167600000000003
1.0575282920035534,0,0,2.779668127441406,0,0,2.14032
1.0606727690028492,0,0,1.0510545288085937,0,0,-0.22932
1.0638192459882703,0,0,1.5083470458984374,0,0,2.6754
1.0670247969974298,0,0,3.7397429931640622,0,0,-8.63772
1.0701945149921812,0,0,-0.277727392578125,0,0,-9.784320000000001
1.073496619996149,0,0,2.4660277099609376,0,0,0.91728
1.076824593998026,0,0,1.2330138549804688,0,0,0.0
1.0801785129879136,0,0,0.9864110839843749,0,0,2.06388
1.0834569709841162,0,0,2.5426421630859375,0,0,1.60524
1.0867826489848085,0,0,-0.2059013427734375,0,0,0.99372
1.090256066992879,0,0,3.3542765258789062,0,0,1.60524
1.0936629849893507,0,0,0.3950432739257812,0,0,-0.53508
1.096921571996063,0,0,0.7613561279296874,0,0,1.07016
1.1001024929864798,0,0,2.3535002319335936,0,0,1.83456
1.1032915439864155,0,0,-0.8020575561523438,0,0,0.22932
1.1065361129876692,0,0,2.85388837890625,0,0,0.45864
1.1103781730053015,0,0,-0.105344873046875,0,0,0.30576000000000003
1.112878993008053,0,0,0.373495458984375,0,0,0.07644000000000001
1.114376009994885,0,0,2.152387292480469,0,0,0.3822
1.1158516939904075,0,0,2.35589443359375,0,0,1.1465999999999998
1.1173311010061298,0,0,0.8259995727539062,0,0,1.45236
1.118807321996428,0,0,0.0718260498046875,0,0,-0.22932
1.120278950984357,0,0,1.608903515625,0,0,1.45236
1.1217365250049625,0,0,2.5953145996093747,0,0,2.98116
1.1231256919854786,0,0,2.4396914916992185,0,0,2.2167600000000003
1.124507876986172,0,0,1.7645266235351562,0,0,0.30576000000000003
1.1258897479856387,0,0,0.9074024291992187,0,0,0.07644000000000001
1.1272703600116074,0,0,0.1197100830078125,0,0,0.0
1.1286508970079012,0,0,1.8243816650390623,0,0,0.15288000000000002
1.1300336940039415,0,0,2.427720483398437,0,0,1.911
1.131413805007469,0,0,2.1787235107421874,0,0,2.14032
1.132794434990501,0,0,1.1252747802734375,0,0,0.6115200000000001
1.1341746209945995,0,0,-0.689530078125,0,0,-1.07016
1.1355766399938148,0,0,-0.6416460449218749,0,0,9.47856
1.136960973002715,0,0,1.1133037719726562,0,0,0.7644
1.1383598810061812,0,0,2.8275521606445313,0,0,1.2994800000000002
1.139740178012289,0,0,2.710236279296875,0,0,2.5989600000000004
1.14112078899052,0,0,1.1755530151367186,0,0,1.68168
1.142502937989775,0,0,-0.0047884033203125,0,0,-0.53508
1.1438836599991191,0,0,-0.5267243652343749,0,0,0.22932
1.1452644759847317,0,0,2.003946789550781,0,0,0.3822
1.1466506609867793,0,0,2.8610709838867185,0,0,1.68168
1.148030624986859,0,0,2.4061726684570313,0,0,1.07016
1.1494104029843584,0,0,1.37906015625,0,0,1.83456
1.1507915509864688,0,0,-0.1484405029296875,0,0,-0.53508
1.1521723670011852,0,0,0.34237083740234375,0,0,-0.53508
1.153552422998473,0,0,0.967257470703125,0,0,0.91728
1.1549341820064,0,0,1.7190367919921874,0,0,1.2994800000000002
1.1563137379998807,0,0,1.8148048583984373,0,0,1.60524
1.157694219989935,0,0,1.1563994018554686,0,0,2.06388
1.1590754429926164,0,0,0.3495534423828125,0,0,0.30576000000000003
1.16045468399534,0,0,1.369483349609375,0,0,0.53508
1.1618350920034572,0,0,2.032677209472656,0,0,1.5288
1.1632157409912907,0,0,2.157175695800781,0,0,2.2167600000000003
1.1645951110112946,0,0,1.7980454467773437,0,0,0.3822
1.1659765930089634,0,0,0.6536170532226562,0,0,0.91728
1.1673560010094661,0,0,-0.13168109130859373,0,0,-0.7644
1.1687369460123591,0,0,1.2928688964843749,0,0,0.30576000000000003
1.1701242240087595,0,0,1.9847931762695312,0,0,0.99372
1.1715154279954731,0,0,2.099714855957031,0,0,1.68168
1.1729037429904565,0,0,1.5011644409179687,0,0,0.53508
1.1742975210072473,0,0,0.105344873046875,0,0,-0.6115200000000001
1.1756917439925019,0,0,-0.4070142822265625,0,0,0.7644
1.17708235498867,0,0,1.8435352783203125,0,0,1.45236
1.1784725410107058,0,0,2.250549560546875,0,0,1.2230400000000001
1.1798610219848342,0,0,2.300827795410156,0,0,1.68168
1.1812496519996785,0,0,1.4508862060546874,0,0,1.1465999999999998
1.1826386339962482,0,0,0.74699091796875,0,0,-9.784320000000001
1.1840274679998402,0,0,1.4963760375976562,0,0,0.99372
1.1854159680078737,0,0,2.1116858642578125,0,0,1.83456
1.1868107460031752,0,0,2.212242333984375,0,0,1.1465999999999998
1.1881994319846854,0,0,1.3144167114257812,0,0,-8.48484
1.1895890989981126,0,0,1.01514150390625,0,0,1.37592
1.1909779690031428,0,0,0.09816226806640624,0,0,-0.45864
1.1923661729961168,0,0,1.484405029296875,0,0,0.3822
1.1937542110099457,0,0,1.8052280517578123,0,0,1.83456
1.1951421189878602,0,0,1.2880804931640624,0,0,0.7644
1.1965299889852758,0,0,0.7709329345703124,0,0,0.30576000000000003
1.1979407299950253,0,0,0.43574470214843747,0,0,1.5288
1.199329638009658,0,0,0.5865794067382812,0,0,1.2994800000000002
1.200717267987784,0,0,2.1643583007812497,0,0,1.07016
1.202105712989578,0,0,2.578555187988281,0,0,2.4460800000000003
1.2034933799877763,0,0,1.8100164550781248,0,0,1.07016
1.2048815469897818,0,0,0.928950244140625,0,0,0.45864
1.206270658003632,0,0,0.3064578125,0,0,-0.15288000000000002
1.207658528990578,0,0,0.5985504150390625,0,0,0.3822
1.2090473439893685,0,0,2.365471240234375,0,0,0.6115200000000001
1.2104389549931511,0,0,2.408566870117187,0,0,1.37592
1.2118265669851098,0,0,1.7286135986328124,0,0,1.1465999999999998
1.2132148259843234,0,0,-0.02154781494140625,0,0,0.84084
1.2146041599917226,0,0,-0.3327940307617187,0,0,-1.37592
1.2159931790083647,0,0,1.7214309936523438,0,0,1.2230400000000001
1.2173813830013387,0,0,2.365471240234375,0,0,1.2994800000000002
1.2187809569877572,0,0,2.987963671875,0,0,0.6115200000000001
1.2201685129839461,0,0,1.7118541870117185,0,0,1.2230400000000001
1.221556086995406,0,0,1.446097802734375,0,0,1.68168
1.2229447359859478,0,0,-0.38786066894531246,0,0,-0.15288000000000002
1.2243338660045993,0,0,1.0582371337890624,0,0,0.15288000000000002
1.225721884984523,0,0,1.668758557128906,0,0,1.37592
1.2271039040060714,0,0,2.2074539306640624,0,0,0.99372
1.2284837189945392,0,0,1.2617442749023438,0,0,0.6115200000000001
1.2298814409878105,0,0,0.9193734375,0,0,0.91728
1.2312690159888007,0,0,-0.1292868896484375,0,0,0.22932
1.2326568310090806,0,0,1.5634136840820312,0,0,0.7644
1.2340449240000453,0,0,2.4133552734375,0,0,2.06388
1.2354314239928499,0,0,2.0781670410156248,0,0,0.91728
1.2368195730086882,0,0,1.1133037719726562,0,0,0.30576000000000003
1.2382069799932651,0,0,0.21068974609375,0,0,0.0
1.2395933700026944,0,0,0.45010991210937495,0,0,1.45236
1.2409804629860446,0,0,2.310404602050781,0,0,1.83456
1.2423677039914764,0,0,2.70065947265625,0,0,2.06388
1.2437541669933125,0,0,1.879448303222656,0,0,1.07016
1.2451416300027631,0,0,-0.03591302490234375,0,0,0.15288000000000002
1.246529185998952,0,0,-0.5027823486328125,0,0,-1.2230400000000001
1.2479176489869133,0,0,2.0254946044921875,0,0,0.84084
1.2493056129897013,0,0,3.1387983764648437,0,0,1.37592
1.2506921869935468,0,0,3.6583401367187496,0,0,2.2167600000000003
1.252079131983919,0,0,1.2378022583007813,0,0,1.37592
1.2534670399909373,0,0,0.047884033203124995,0,0,0.84084
1.2548553179949522,0,0,-0.9337386474609375,0,0,-1.5288
1.2562435400031973,0,0,1.1013327636718748,0,0,0.30576000000000003
1.2576305409893394,0,0,2.4109610717773435,0,0,1.68168
1.2590174110082444,0,0,3.124433166503906,0,0,1.2230400000000001
1.26040422701044,0,0,1.8507178833007811,0,0,1.68168
1.2617910600092728,0,0,0.7685387329101562,0,0,1.60524
1.2631778010108974,0,0,-1.0414777221679687,0,0,0.0
1.2645653020008467,0,0,0.9026140258789062,0,0,0.30576000000000003
1.2659526719944552,0,0,3.447650390625,0,0,1.83456
1.267337191005936,0,0,3.0023288818359375,0,0,1.60524
1.2687226549896877,0,0,1.9129671264648436,0,0,-0.99372
1.2720005380106159,0,0,1.0965443603515623,0,0,0.0
1.2734022600052413,0,0,2.0159177978515626,0,0,1.2230400000000001
1.2747921679983847,0,0,2.940079638671875,0,0,1.5288
1.2761806130001787,0,0,1.6998831787109374,0,0,1.75812
1.2775691869901493,0,0,0.9528922607421875,0,0,0.68796
1.2789571130124386,0,0,-0.6775590698242188,0,0,-0.84084
1.2803470389917493,0,0,1.0797849487304687,0,0,0.15288000000000002
1.2817347990057897,0,0,2.2074539306640624,0,0,1.83456
1.2831222809909377,0,0,2.8131869506835936,0,0,1.98744
1.2845099289843347,0,0,1.6735469604492186,0,0,1.37592
1.2858985959901474,0,0,-0.6607996582031249,0,0,0.0
1.287286762992153,0,0,-0.9433154541015625,0,0,-0.30576000000000003
1.2886753930069972,0,0,0.9840168823242187,0,0,0.53508
1.290064375003567,0,0,3.3399113159179685,0,0,1.98744
1.2914510979899205,0,0,2.8898014038085935,0,0,2.2931999999999997
1.2928380609955639,0,0,0.93852705078125,0,0,1.37592
1.2942262100114021,0,0,-1.0127473022460938,0,0,-0.3822
1.2956140619935468,0,0,-1.656787548828125,0,0,-0.53508
1.2970033769961447,0,0,1.8435352783203125,0,0,0.45864
1.298390802985523,0,0,3.277662072753906,0,0,1.83456
1.299778543994762,0,0,3.289633081054687,0,0,1.1465999999999998
1.3011660079937428,0,0,1.62805712890625,0,0,2.2167600000000003
1.3025535449851304,0,0,-0.02633621826171875,0,0,-0.30576000000000003
1.3039423229929525,0,0,-0.1292868896484375,0,0,0.15288000000000002
1.3053302860062104,0,0,1.3766659545898436,0,0,0.99372
1.30671748999157,0,0,2.980781066894531,0,0,1.07016
1.308105231000809,0,0,2.626439221191406,0,0,1.37592
1.3094919729919638,0,0,2.0757728393554684,0,0,1.1465999999999998
1.3108788430108689,0,0,-0.8882488159179687,0,0,-0.53508
1.312267287983559,0,0,0.3950432739257812,0,0,-0.6115200000000001
1.3136547509930097,0,0,1.0821791503906248,0,0,1.68168
1.3150416589924134,0,0,2.2768857788085937,0,0,0.99372
1.3164288630068768,0,0,1.9752163696289062,0,0,1.68168
1.3178380669851322,0,0,0.0718260498046875,0,0,0.68796
1.3192264559911564,0,0,-0.5051765502929687,0,0,0.22932
1.3206143639981747,0,0,0.7852981445312499,0,0,0.45864
1.322002049011644,0,0,2.844311572265625,0,0,2.14032
1.3233885130030103,0,0,2.597708801269531,0,0,1.911
1.3247759389923885,0,0,1.9800047729492187,0,0,1.2230400000000001
1.3261636059905868,0,0,0.076614453125,0,0,-0.53508
1.3275844019954093,0,0,-0.612915625,0,0,0.15288000000000002
1.328972902992973,0,0,1.9225439331054686,0,0,0.91728
1.3303599579958245,0,0,2.7341782958984373,0,0,1.60524
1.3317467739980202,0,0,2.50912333984375,0,0,2.2167600000000003
1.33313392198761,0,0,1.2737152832031249,0,0,1.2994800000000002
1.334524051984772,0,0,-0.39743747558593745,0,0,-0.45864
1.335912977985572,0,0,0.4070142822265625,0,0,-0.22932
1.3373007189948112,0,0,1.5705962890624998,0,0,0.7644
1.3386900899931788,0,0,2.5163059448242184,0,0,1.2994800000000002
1.3400793129985686,0,0,2.3415292236328122,0,0,1.60524
1.3414670540078077,0,0,1.9823989746093749,0,0,1.911
1.3428548689989839,0,0,-0.3064578125,0,0,-0.22932
1.3442430360009894,0,0,0.08140285644531249,0,0,-0.68796
1.3456304440042004,0,0,1.01514150390625,0,0,0.68796
1.347017980995588,0,0,2.592920397949219,0,0,0.68796
1.348404814983951,0,0,2.7365724975585937,0,0,1.1465999999999998
1.3497917040076572,0,0,0.7661445312499999,0,0,1.83456
1.3511788710020483,0,0,-0.48123453369140623,0,0,-0.15288000000000002
1.352566722984193,0,0,-0.22744915771484372,0,0,-0.45864
1.3539579270000104,0,0,1.426944189453125,0,0,1.07016
1.355345538991969,0,0,1.9536685546875,0,0,1.1465999999999998
1.3567333350074477,0,0,1.9704279663085937,0,0,0.91728
1.358120910008438,0,0,0.7829039428710937,0,0,0.91728
1.3595077990030404,0,0,0.4381389038085937,0,0,1.2230400000000001
1.3608947809843812,0,0,2.2385785522460937,0,0,1.75812
1.3622826699865982,0,0,2.3582886352539063,0,0,1.98744
1.363669188984204,0,0,1.8507178833007811,0,0,1.60524
1.3650565780117176,0,0,0.8667010009765624,0,0,0.68796
1.3664438010018785,0,0,0.3950432739257812,0,0,-0.99372
1.3678317079902627,0,0,1.388636962890625,0,0,0.30576000000000003
1.3692183569946792,0,0,2.5163059448242184,0,0,1.45236
1.3706050789915025,0,0,2.8514941772460936,0,0,1.45236
1.3719919319846667,0,0,1.5442600708007812,0,0,1.60524
1.3733785059885122,0,0,0.7158662963867187,0,0,1.2230400000000001
1.374781302001793,0,0,-0.833182177734375,0,0,-1.2230400000000001
1.3761701360053848,0,0,0.38786066894531246,0,0,-0.53508
1.3775575440085959,0,0,1.8219874633789062,0,0,1.2994800000000002
1.3789449890027754,0,0,2.7653029174804686,0,0,1.5288
1.380332211003406,0,0,2.070984436035156,0,0,1.2994800000000002
1.3817194149887655,0,0,1.6065093139648436,0,0,2.06388
1.3831073599867523,0,0,0.06703764648437499,0,0,0.0
1.3844944720040075,0,0,0.5003881469726562,0,0,0.07644000000000001
1.3858826009964105,0,0,2.2266075439453124,0,0,1.2994800000000002
1.3872740459919441,0,0,2.205059729003906,0,0,1.2230400000000001
1.3886619719851296,0,0,1.6065093139648436,0,0,0.45864
1.3900492689863313,0,0,0.488417138671875,0,0,0.0
1.391436009987956,0,0,0.016759411621093748,0,0,0.22932
1.3928227699943818,0,0,1.8938135131835936,0,0,0.22932
1.3942178809957113,0,0,2.020706201171875,0,0,1.68168
1.3956122889940161,0,0,1.6352397338867186,0,0,1.45236
1.3969993820064701,0,0,0.9145850341796874,0,0,1.37592
1.398388214991428,0,0,0.5985504150390625,0,0,0.15288000000000002
1.399775381985819,0,0,1.7621324218749999,0,0,1.83456
1.4011624380073044,0,0,2.5354595581054684,0,0,2.36964
1.402548698009923,0,0,2.2744915771484373,0,0,0.7644
1.4039509939902928,0,0,0.9792284790039062,0,0,0.84084
1.4053396609961055,0,0,0.4261678955078125,0,0,1.1465999999999998
1.4067279580049217,0,0,0.22505495605468748,0,0,-1.1465999999999998
1.4081172359874472,0,0,1.177947216796875,0,0,0.68796
1.4095055699872319,0,0,2.243366955566406,0,0,2.4460800000000003
1.4108959029836114,0,0,2.1619640991210938,0,0,1.5288
1.4122840329946484,0,0,1.1755530151367186,0,0,1.07016
1.4136710710008629,0,0,0.41898529052734373,0,0,0.99372
1.4150570159836207,0,0,-0.4644751220703125,0,0,-0.22932
1.4164812749950215,0,0,0.9433154541015625,0,0,1.07016
1.418672430998413,0,0,3.2824504760742186,0,0,1.60524
1.420060153992381,0,0,2.250549560546875,0,0,2.36964
1.4214494499901775,0,0,0.9959878906249999,0,0,1.75812
1.4228280989918858,0,0,-0.9409212524414062,0,0,-1.37592
1.4242063770070672,0,0,0.4740519287109375,0,0,0.0
1.4255805810098536,0,0,1.8818425048828125,0,0,1.75812
1.4269645999884233,0,0,2.6695348510742187,0,0,0.91728
1.4283479709993117,0,0,1.7956512451171873,0,0,0.7644
1.4297308420063928,0,0,-0.16759411621093748,0,0,1.60524
1.4311149900022428,0,0,-0.5506663818359374,0,0,0.0
1.4324983060068917,0,0,0.6512228515624999,0,0,0.3822
1.4338812129863072,0,0,2.731784094238281,0,0,1.5288
1.4352690289961174,0,0,2.4779987182617185,0,0,0.91728
1.436651714000618,0,0,1.7190367919921874,0,0,0.45864
1.4380360289942473,0,0,0.08858546142578125,0,0,0.6115200000000001
1.439417658984894,0,0,-0.02633621826171875,0,0,0.07644000000000001
1.4408028080069926,0,0,2.789244934082031,0,0,0.84084
1.4421867709897924,0,0,2.9640216552734375,0,0,2.2167600000000003
1.4435686979850288,0,0,2.2361843505859373,0,0,1.83456
1.4449516799941193,0,0,0.30406361083984373,0,0,0.0
1.446336680004606,0,0,-0.47884033203125,0,0,-0.45864
1.447721217002254,0,0,1.0606313354492187,0,0,0.30576000000000003
1.44910479200189,0,0,2.7557261108398436,0,0,1.1465999999999998
1.450487811001949,0,0,2.9640216552734375,0,0,1.45236
1.45187025598716,0,0,1.2665326782226562,0,0,2.06388
1.4532530889846385,0,0,0.28012159423828126,0,0,0.84084
1.454636866983492,0,0,-0.8906430175781249,0,0,-1.5288
1.4560204980080016,0,0,0.93852705078125,0,0,0.53508
1.4574036090052687,0,0,2.8730419921875,0,0,1.75812
1.4587872579868417,0,0,3.3877953491210935,0,0,1.2994800000000002
1.4601754799950868,0,0,2.1930887207031247,0,0,2.2167600000000003
1.461558517999947,0,0,0.9648632690429687,0,0,2.06388
1.4629413330112584,0,0,-1.3623007446289062,0,0,-1.2230400000000001
1.4643248890060931,0,0,0.4860229370117187,0,0,-0.07644000000000001
1.4657079819880892,0,0,3.3542765258789062,0,0,1.911
1.467091241007438,0,0,3.1100679565429687,0,0,1.2230400000000001
1.4684737419884186,0,0,2.0159177978515626,0,0,1.2230400000000001
1.469868612010032,0,0,-0.46208092041015625,0,0,1.1465999999999998
1.4712530759861693,0,0,-1.0534487304687499,0,0,0.0
1.4726369089912623,0,0,1.6639701538085936,0,0,0.0
1.4740209279989358,0,0,2.863465185546875,0,0,1.98744
1.4754239289904945,0,0,2.7365724975585937,0,0,1.75812
1.4768078729975969,0,0,1.4173673828125,0,0,1.45236
1.4781910959864035,0,0,0.30885201416015623,0,0,0.7644
1.479574077995494,0,0,-0.6105214233398437,0,0,0.68796
1.4809572999947704,0,0,1.7764976318359373,0,0,0.30576000000000003
1.4823534860042855,0,0,2.463633508300781,0,0,1.07016
1.4837362639955245,0,0,2.2553379638671873,0,0,1.68168
1.4851182640122715,0,0,1.5131354492187499,0,0,1.2230400000000001
1.4865003390004858,0,0,0.1771709228515625,0,0,-0.22932
1.4878843020123895,0,0,0.45968671875,0,0,0.7644
1.489266635995591,0,0,1.9201497314453124,0,0,0.7644
1.4906499329954386,0,0,2.9759926635742184,0,0,1.1465999999999998
1.4920325069979299,0,0,2.1930887207031247,0,0,1.911
1.4934147300082259,0,0,1.2808978881835937,0,0,1.45236
1.4947981009900104,0,0,-1.3096283081054687,0,0,-1.45236
1.4961885079974309,0,0,-0.17477672119140625,0,0,0.0
1.4975716379994992,0,0,1.4006079711914061,0,0,1.07016
1.4989550650061574,0,0,3.124433166503906,0,0,1.5288
1.5003381579881534,0,0,2.729389892578125,0,0,2.14032
1.5017211950034834,0,0,0.3687070556640625,0,0,3.13404
1.5031037330045365,0,0,-1.419761584472656,0,0,-1.5288
1.5044876589963678,0,0,-0.7206546997070312,0,0,-0.84084
1.5058855669922195,0,0,3.421314172363281,0,0,1.911
1.507268474000739,0,0,4.132392065429687,0,0,1.1465999999999998
1.5086508079839405,0,0,1.7310078002929687,0,0,1.83456
1.5100341789948288,0,0,-0.1149216796875,0,0,0.91728
1.5114165309933014,0,0,-1.936909143066406,0,0,-0.30576000000000003
1.5128000869881362,0,0,0.7230489013671875,0,0,-0.53508
1.5141846989863552,0,0,2.2457611572265623,0,0,0.6115200000000001
1.5155665689962916,0,0,2.8945898071289062,0,0,1.2230400000000001
1.5169484030047897,0,0,2.511517541503906,0,0,1.5288
1.5183373109903187,0,0,1.149216796875,0,0,1.2994800000000002
1.5197237189859152,0,0,-0.7541735229492187,0,0,-9.32568
1.5211537739960477,0,0,1.3575123413085937,0,0,0.6115200000000001
1.522599347983487,0,0,3.095702746582031,0,0,0.84084
1.5239862370071933,0,0,2.750937707519531,0,0,2.06388
1.525369145005243,0,0,2.123656872558594,0,0,1.911
1.526753293001093,0,0,-0.4860229370117187,0,0,-0.68796
1.5281563489988912,0,0,-0.16519991455078123,0,0,0.0
1.5295587930013426,0,0,1.254561669921875,0,0,1.2230400000000001
1.5309426090097986,0,0,2.5617957763671875,0,0,0.6115200000000001
1.5323252390080597,0,0,2.142810485839844,0,0,1.1465999999999998
1.533707238995703,0,0,0.63206923828125,0,0,1.75812
1.5350894249859266,0,0,-0.51714755859375,0,0,0.0
1.5364725920080673,0,0,-0.14125789794921875,0,0,0.6115200000000001
1.5378568329906557,0,0,2.0374656127929685,0,0,1.5288
1.5392402219877113,0,0,2.858676782226562,0,0,1.07016
1.5406230369990226,0,0,1.924938134765625,0,0,1.75812
1.542006167001091,0,0,0.8690952026367187,0,0,1.2230400000000001
1.543388796999352,0,0,-0.6967126831054687,0,0,-0.3822
1.544772927009035,0,0,1.6472107421875,0,0,1.45236
1.5461568720056675,0,0,2.5809493896484375,0,0,1.2994800000000002
1.5475386129983235,0,0,2.8467057739257813,0,0,1.45236
1.5489209659863263,0,0,1.5011644409179687,0,0,1.1465999999999998
1.550304595992202,0,0,0.3711012573242187,0,0,-0.3822
1.5516886149998754,0,0,-0.38786066894531246,0,0,0.0
1.5530715409840923,0,0,1.1851298217773436,0,0,0.0
1.5544562819995917,0,0,2.195482922363281,0,0,1.07016
1.5558397450076882,0,0,2.5713725830078125,0,0,2.06388
1.55722226400394,0,0,2.300827795410156,0,0,2.4460800000000003
1.558605135011021,0,0,-0.1867477294921875,0,0,0.7644
1.5599881910020486,0,0,-0.5770026000976562,0,0,0.91728
1.561371005984256,0,0,0.74699091796875,0,0,0.15288000000000002
1.5627622840111144,0,0,2.4205378784179685,0,0,0.0
1.5641447289963253,0,0,2.370259643554687,0,0,0.45864
1.565527247992577,0,0,2.4109610717773435,0,0,2.2167600000000003
1.5669098409998696,0,0,0.009576806640625,0,0,0.07644000000000001
1.5682916560035665,0,0,0.02633621826171875,0,0,0.91728
1.5696739720006008,0,0,1.2210428466796874,0,0,1.45236
1.5710563239990734,0,0,1.7310078002929687,0,0,1.2230400000000001
1.572438917006366,0,0,1.3263877197265623,0,0,0.6115200000000001
1.5738224730012007,0,0,1.2761094848632812,0,0,1.5288
1.575205047003692,0,0,0.7781155395507812,0,0,-0.22932
1.5765878809907008,0,0,2.5450363647460934,0,0,1.1465999999999998
1.5780793429876212,0,0,2.4684219116210935,0,0,1.45236
1.5794664539862424,0,0,2.4133552734375,0,0,1.60524
1.5808494729863014,0,0,0.584185205078125,0,0,1.07016
1.5822337699937634,0,0,-0.4261678955078125,0,0,-0.91728
1.583616677991813,0,0,0.6943184814453125,0,0,0.0
1.5849997889890801,0,0,2.5809493896484375,0,0,1.07016
1.586382642009994,0,0,2.786850732421875,0,0,1.2994800000000002
1.5877813640108798,0,0,1.4149731811523436,0,0,1.75812
1.5891653269936796,0,0,0.612915625,0,0,1.60524
1.5905511429882608,0,0,-0.7350199096679687,0,0,-1.37592
1.5919312170008197,0,0,0.6200982299804687,0,0,0.22932
1.5933052919863258,0,0,2.578555187988281,0,0,0.91728
1.5946834399946965,0,0,3.1268273681640624,0,0,0.68796
1.5960569960006978,0,0,1.8435352783203125,0,0,1.2230400000000001
1.5974307380092796,0,0,1.1563994018554686,0,0,1.75812
1.5988140710105654,0,0,-0.3327940307617187,0,0,-0.53508
1.6001983130117878,0,0,0.5147533569335937,0,0,0.22932
1.6015812020050362,0,0,2.224213342285156,0,0,0.91728
1.6029637019964866,0,0,2.3726538452148436,0,0,0.91728
1.6043463140085805,0,0,1.4772224243164063,0,0,0.3822
1.6057372959912755,0,0,0.29448680419921874,0,0,2.06388
1.6071202399907634,0,0,-0.2561795776367187,0,0,0.7644
1.60850370398839,0,0,2.042254016113281,0,0,0.7644
1.609912093001185,0,0,2.0183119995117185,0,0,1.75812
1.6112982599879615,0,0,2.2361843505859373,0,0,1.68168
1.612679815996671,0,0,1.1516109985351561,0,0,0.91728
1.614118852012325,0,0,0.1771709228515625,0,0,-9.47856
1.6155684260011185,0,0,1.4939818359375,0,0,1.5288
1.6169481670076493,0,0,2.6982652709960937,0,0,0.91728
1.618331556004705,0,0,2.6096798095703124,0,0,1.45236
1.6197145379846916,0,0,1.1420341918945311,0,0,1.37592
1.6210988349921536,0,0,0.5339069702148437,0,0,1.68168
1.6224848350102548,0,0,-1.005564697265625,0,0,-1.75812
1.6238617429917213,0,0,0.7709329345703124,0,0,0.7644
1.6252357439952902,0,0,2.959233251953125,0,0,1.75812
1.6266171890019905,0,0,3.248931652832031,0,0,1.2994800000000002
1.6279995779914316,0,0,1.8171990600585937,0,0,1.5288
1.6293828559864778,0,0,0.9744400756835937,0,0,2.36964
1.6307761159841903,0,0,-1.407790576171875,0,0,-0.68796
1.6321603569958825,0,0,0.5674257934570313,0,0,-0.53508
1.6335432089981623,0,0,3.1771056030273437,0,0,1.2994800000000002
1.6349265059980098,0,0,3.497928625488281,0,0,0.68796
1.6363178209867328,0,0,2.2290017456054687,0,0,1.1465999999999998
1.6377002469962463,0,0,-0.38307226562499996,0,0,1.60524
1.6390838219958823,0,0,-1.3718775512695311,0,0,-0.68796
1.6404673219949473,0,0,2.157175695800781,0,0,0.3822
1.6418509339855518,0,0,2.858676782226562,0,0,1.83456
1.6432331379910465,0,0,2.925714428710937,0,0,1.2994800000000002
1.644615545985289,0,0,0.8690952026367187,0,0,0.68796
1.6460162489966024,0,0,-0.30406361083984373,0,0,0.0
1.647399639012292,0,0,-0.7996633544921875,0,0,1.07016
1.6487830280093476,0,0,2.3391350219726563,0,0,0.3822
1.6501733059994876,0,0,2.987963671875,0,0,2.2931999999999997
1.6515699540032074,0,0,1.9847931762695312,0,0,2.75184
1.652953176992014,0,0,1.3024457031249999,0,0,1.68168
1.654338269989239,0,0,-0.42377369384765623,0,0,-0.6115200000000001
1.6557230110047385,0,0,0.5267243652343749,0,0,0.53508
1.6571054369851481,0,0,2.2649147705078123,0,0,0.3822
1.65848862301209,0,0,3.268085266113281,0,0,0.84084
1.6598766969982535,0,0,1.9943699829101562,0,0,1.83456
1.6613550299953204,0,0,1.7214309936523438,0,0,2.36964
1.6628746950009372,0,0,-1.4628572143554686,0,0,0.0
1.6643111020093784,0,0,-0.3950432739257812,0,0,0.0
1.665732453984674,0,0,3.0334535034179684,0,0,2.2167600000000003
1.6671200660057366,0,0,3.1004911499023438,0,0,1.45236
1.6685043619945645,0,0,1.5825672973632812,0,0,1.1465999999999998
1.669887325988384,0,0,-0.076614453125,0,0,0.99372
1.671262455987744,0,0,-1.2904746948242187,0,0,0.0
1.672637512005167,0,0,1.1923124267578125,0,0,-0.91728
1.6740231970034074,0,0,2.540247961425781,0,0,0.84084
1.675406808994012,0,0,3.308786694335937,0,0,1.2230400000000001
1.6767892350035254,0,0,2.2864625854492187,0,0,1.37592
1.6781720499857329,0,0,0.7015010864257812,0,0,0.91728
1.679554828995606,0,0,-0.430956298828125,0,0,0.22932
1.6809386069944594,0,0,1.2330138549804688,0,0,-0.6115200000000001
1.6823230889858678,0,0,2.530671154785156,0,0,1.911
1.6837183109892067,0,0,2.224213342285156,0,0,1.83456
1.6851016629952937,0,0,2.1835119140624997,0,0,1.911
1.686484701000154,0,0,-0.7589619262695312,0,0,-0.3822
1.6878675530024339,0,0,-0.33758243408203126,0,0,0.53508
1.6892511089972686,0,0,0.9935936889648437,0,0,0.68796
1.69063392400858,0,0,2.760514514160156,0,0,0.84084
1.6920164430048317,0,0,2.068590234375,0,0,2.2167600000000003
1.6934165359998588,0,0,0.8355763793945312,0,0,2.6754
1.6949755710083991,0,0,-0.9145850341796874,0,0,8.867040000000001
1.6963619419839233,0,0,-0.4525041137695312,0,0,-1.45236
1.6977459240006283,0,0,2.6982652709960937,0,0,2.5989600000000004
1.6991292760067154,0,0,3.497928625488281,0,0,0.99372
1.7005116649961565,0,0,2.3247698120117186,0,0,2.06388
1.7018948319891933,0,0,0.3280056274414062,0,0,2.2931999999999997
1.7032773329992779,0,0,-1.2425906616210938,0,0,-0.15288000000000002
1.7046730919973925,0,0,0.6679822631835937,0,0,-1.07016
1.7060581109835766,0,0,2.5570073730468748,0,0,1.37592
1.707440055994084,0,0,3.019088293457031,0,0,1.75812
1.7088224820035975,0,0,2.5330653564453125,0,0,1.68168
1.710206649004249,0,0,0.7541735229492187,0,0,-8.102640000000001
1.7115886679966934,0,0,-1.2665326782226562,0,0,0.45864
1.7129717429925222,0,0,0.8690952026367187,0,0,-0.45864
1.7143563730060123,0,0,2.2481553588867187,0,0,1.07016
1.715738742990652,0,0,3.153163586425781,0,0,2.4460800000000003
1.7171210960077588,0,0,2.5450363647460934,0,0,2.36964
1.7185107069963124,0,0,-0.44532150878906246,0,0,0.7644
1.7198943000112195,0,0,-1.2856862915039062,0,0,0.0
1.721277597011067,0,0,0.4070142822265625,0,0,9.172799999999999
1.7226609679928515,0,0,3.1842882080078123,0,0,-0.3822
1.7240816160046961,0,0,3.076549133300781,0,0,2.36964
1.7255456520069856,0,0,1.3766659545898436,0,0,2.6754
1.7269332080031745,0,0,-0.45010991210937495,0,0,-0.53508
1.7283200600068085,0,0,-1.0989385620117187,0,0,-0.3822
1.7297141529852524,0,0,1.4053963745117186,0,0,0.84084
1.7310908760118764,0,0,2.327164013671875,0,0,0.84084
1.7324646349879913,0,0,2.5330653564453125,0,0,1.45236
1.7338545249949675,0,0,1.3670891479492187,0,0,2.2167600000000003
1.7352366549894214,0,0,-0.0430956298828125,0,0,1.07016
1.7366185069840867,0,0,1.2808978881835937,0,0,-0.45864
1.7380495989928022,0,0,1.7525556152343749,0,0,1.98744
1.7394387290114537,0,0,1.867477294921875,0,0,1.07016
1.7408220999932382,0,0,2.1883003173828124,0,0,0.68796
1.742206933995476,0,0,0.9864110839843749,0,0,0.45864
1.7435873599897604,0,0,-0.35194764404296874,0,0,0.30576000000000003
1.744970656989608,0,0,0.9888052856445312,0,0,-0.84084
1.7463544539932627,0,0,2.7629087158203123,0,0,0.99372
1.7477368609979749,0,0,2.0733786376953125,0,0,2.06388
1.749119157990208,0,0,2.214636535644531,0,0,1.83456
1.7505019549862482,0,0,-0.3950432739257812,0,0,0.0
1.751885436999146,0,0,-0.9528922607421875,0,0,0.3822
1.7532692519889679,0,0,0.7445967163085937,0,0,-0.30576000000000003
1.7546551970008295,0,0,3.265691064453125,0,0,0.30576000000000003
1.7560371040017344,0,0,3.1675287963867187,0,0,2.2931999999999997
1.7574112160073128,0,0,1.3527239379882812,0,0,20
1.7587948459840845,0,0,0.055066638183593745,0,0,0.0
1.760177513002418,0,0,-1.0103531005859374,0,0,-9.631440000000001
1.761561179999262,0,0,1.120486376953125,0,0,0.22932
1.762944107002113,0,0,2.291250988769531,0,0,-0.99372
1.7643369959841948,0,0,2.612074011230469,0,0,1.2994800000000002
1.765719885006547,0,0,1.4628572143554686,0,0,2.75184
1.767102904006606,0,0,0.32082302246093747,0,0,0.3822
1.7684850149962585,0,0,0.7924807495117187,0,0,0.15288000000000002
1.7698803679959383,0,0,1.2569558715820313,0,0,0.6115200000000001
1.7717525099869817,0,0,1.9393033447265624,0,0,1.98744
1.7731935459887609,0,0,2.3870190551757813,0,0,0.91728
1.774758304003626,0,0,0.5434837768554687,0,0,-1.2230400000000001
1.7761372299864888,0,0,0.13407529296874998,0,0,0.6115200000000001
1.7775113229872659,0,0,2.1212626708984375,0,0,1.45236
1.778887027001474,0,0,2.4947581298828125,0,0,0.6115200000000001
1.7802611200022511,0,0,1.6831237670898436,0,0,1.45236
1.7816524539957754,0,0,0.1292868896484375,0,0,1.2230400000000001
1.7830287319957279,0,0,-0.6943184814453125,0,0,-2.2167600000000003
1.7844055290042888,0,0,1.89620771484375,0,0,-0.22932
1.785780103993602,0,0,2.8730419921875,0,0,2.2167600000000003
1.787164473993471,0,0,3.0310593017578125,0,0,1.5288
1.7885531969950534,0,0,1.5251064575195312,0,0,1.5288
1.7899587900028564,0,0,0.22026655273437498,0,0,1.83456
1.7913432900095358,0,0,-0.6344634399414062,0,0,-0.6115200000000001
1.7927287349884864,0,0,1.6735469604492186,0,0,-0.22932
1.7941100689931773,0,0,2.7748797241210936,0,0,1.98744
1.7954840880120173,0,0,2.6719290527343746,0,0,1.45236
1.7968574590049684,0,0,2.4516625,0,0,1.07016
1.7982381809852086,0,0,0.82360537109375,0,0,0.91728
1.7996203849907033,0,0,-0.7996633544921875,0,0,-0.53508
1.8010034410108346,0,0,0.8643067993164062,0,0,-20
1.802400755987037,0,0,2.6671406494140624,0,0,0.91728
1.8037827200023457,0,0,2.1356278808593747,0,0,1.75812
1.8051649789849762,0,0,2.0063409912109376,0,0,1.1465999999999998
1.806547257991042,0,0,-0.03591302490234375,0,0,-0.22932
1.807929572998546,0,0,-0.5195417602539062,0,0,0.84084
1.8093130550114438,0,0,1.7094599853515624,0,0,0.7644
1.8106977959978394,0,0,2.2457611572265623,0,0,0.53508
1.8120867219986394,0,0,1.7381904052734374,0,0,1.60524
1.8134705369884614,0,0,1.0295067138671874,0,0,1.68168
1.8148464639962185,0,0,0.16519991455078123,0,0,-1.45236
1.8162211120070424,0,0,0.3184288208007812,0,0,1.1465999999999998
1.8176279829931445,0,0,2.7437551025390623,0,0,2.90472
1.819031463994179,0,0,3.0430303100585934,0,0,1.2994800000000002
1.8204168720112648,0,0,1.0558429321289062,0,0,1.60524
1.8218354650016408,0,0,-0.33758243408203126,0,0,0.99372
1.8232326130091678,0,0,-1.5011644409179687,0,0,-1.45236
1.8246085399878211,0,0,2.2361843505859373,0,0,-0.6115200000000001
1.8260250210005324,0,0,3.268085266113281,0,0,2.4460800000000003
1.8274104470037855,0,0,1.9728221679687499,0,0,1.75812
1.8287942440074403,0,0,1.4772224243164063,0,0,2.36964
1.8301749480015133,0,0,0.0430956298828125,0,0,0.99372
1.8315480599994771,0,0,-1.2617442749023438,0,0,9.172799999999999
1.832923004985787,0,0,1.1061211669921875,0,0,0.0
1.8343042089836672,0,0,4.139574670410156,0,0,1.5288
1.835687060985947,0,0,3.1794998046874996,0,0,2.90472
1.8370705989946146,0,0,2.748543505859375,0,0,1.45236
1.8384542099956889,0,0,-1.2976572998046874,0,0,-0.7644
1.83983843299211,0,0,-1.7190367919921874,0,0,-0.7644
1.8412231180118397,0,0,0.5243301635742187,0,0,-0.45864
1.8426061559875961,0,0,3.6200329101562496,0,0,0.6115200000000001
1.8439895999908913,0,0,2.6048914062499997,0,0,1.75812
1.8453727120067924,0,0,0.507570751953125,0,0,1.5288
1.8467614719993435,0,0,-0.5099649536132812,0,0,-1.5288
1.84814604598796,0,0,-1.0271125122070313,0,0,-0.30576000000000003
1.849530120001873,0,0,2.4756045166015626,0,0,1.2994800000000002
1.8509138619992882,0,0,2.9544448486328125,0,0,0.84084
1.852296787983505,0,0,1.5035586425781249,0,0,1.911
1.8536799369903747,0,0,0.076614453125,0,0,1.68168
1.8550657700106967,0,0,-1.0438719238281249,0,0,-1.37592
1.8564502889930736,0,0,1.898601916503906,0,0,0.22932
1.8578349929885007,0,0,3.6679169433593746,0,0,2.06388
1.859208215988474,0,0,4.398148449707031,0,0,2.36964
1.8605817350035068,0,0,2.0638018310546875,0,0,1.98744
1.8619623649865389,0,0,-0.181959326171875,0,0,1.75812
1.863346031983383,0,0,-2.0781670410156248,0,0,-1.75812
1.8647301809978671,0,0,0.6248866333007812,0,0,-1.2230400000000001
1.8661142739874776,0,0,3.3016040893554686,0,0,1.75812
1.8674968850100413,0,0,3.5338416503906247,0,0,1.83456
1.8688881080015562,0,0,2.176329309082031,0,0,2.06388
1.8702726269839332,0,0,-1.9129671264648436,0,0,0.3822
1.8716559229942504,0,0,-3.0166940917968748,0,0,-0.68796
1.8730391639983281,0,0,-1.01514150390625,0,0,-1.98744
1.8744235349877272,0,0,4.388571643066406,0,0,0.0
1.8758067020098679,0,0,3.907337109375,0,0,2.2931999999999997
1.8771895919926465,0,0,3.1076737548828124,0,0,0.99372
1.878572999004973,0,0,-0.9050082275390624,0,0,1.2994800000000002
1.8799566109955776,0,0,-2.4133552734375,0,0,0.0
1.881349389004754,0,0,0.39743747558593745,0,0,-1.98744
1.8827335739915725,0,0,2.3247698120117186,0,0,0.0
1.8841167599894106,0,0,2.473210314941406,0,0,0.30576000000000003
1.8854997789894696,0,0,1.1276689819335937,0,0,-20
1.8868841129879002,0,0,-0.3112462158203125,0,0,0.22932
1.8882679090020247,0,0,-1.6639701538085936,0,0,-1.2230400000000001
1.8896516879904084,0,0,0.9720458740234375,0,0,-1.2994800000000002
1.8910354659892619,0,0,1.4915876342773438,0,0,2.98116
1.8924184110073838,0,0,1.7310078002929687,0,0,0.0
1.8938013179867994,0,0,1.917755529785156,0,0,1.75812
1.895185819012113,0,0,-0.699106884765625,0,0,2.36964
1.8965697450039443,0,0,-0.9792284790039062,0,0,7.10892
1.8979551529919263,0,0,-0.04548983154296875,0,0,1.83456
1.899337837996427,0,0,2.9185318237304685,0,0,8.7906
1.9007204500085209,0,0,3.83072265625,0,0,1.07016
1.9021047840069514,0,0,1.917755529785156,0,0,1.98744
1.9034862469998188,0,0,-0.7493851196289062,0,0,20
1.904869839985622,0,0,-2.250549560546875,0,0,-9.47856
1.906255321984645,0,0,-1.2497732666015624,0,0,6.497400000000001
1.9076381000049878,0,0,2.1499930908203124,0,0,1.1465999999999998
1.9090210819849744,0,0,2.3223756103515623,0,0,-20
1.9104050449968781,0,0,1.7980454467773437,0,0,1.1465999999999998
1.9117879529949278,0,0,0.4213794921875,0,0,2.75184
1.9131780460011214,0,0,-1.3958195678710936,0,0,0.0
1.9145621949865017,0,0,-1.448492004394531,0,0,0.68796
1.9159456949855667,0,0,-0.23702596435546874,0,0,7.03248
1.917329380987212,0,0,4.314351391601562,0,0,2.2931999999999997
1.9187128439953085,0,0,3.6463691284179687,0,0,-0.45864
1.9200958439905662,0,0,3.1771056030273437,0,0,4.8921600000000005
1.9214791219856124,0,0,-0.2705447875976562,0,0,0.0
1.922863548999885,0,0,-0.7661445312499999,0,0,0.45864
1.9242471790057607,0,0,-1.6256629272460936,0,0,6.34452
1.9256312719953712,0,0,0.32082302246093747,0,0,-1.2994800000000002
1.9270171420066617,0,0,1.024718310546875,0,0,-0.3822
1.928400734992465,0,0,2.9640216552734375,0,0,1.68168
1.9297837360063568,0,0,1.946485949707031,0,0,1.2994800000000002
1.931168365990743,0,0,-0.5123591552734374,0,0,2.36964
1.932543884991901,0,0,-1.5251064575195312,0,0,0.07644000000000001
1.9339366070053075,0,0,-1.01514150390625,0,0,-0.30576000000000003
1.935320237011183,0,0,1.0702081420898437,0,0,-0.53508
1.9367040529905353,0,0,2.214636535644531,0,0,0.6115200000000001
1.9382112919993233,0,0,2.3630770385742186,0,0,1.07016
1.9395974219951313,0,0,1.68551796875,0,0,2.36964
1.9409921629994642,0,0,1.0175357055664063,0,0,0.84084
1.9423756820033304,0,0,-0.82360537109375,0,0,0.0
1.9437594419869129,0,0,-0.6248866333007812,0,0,20
1.9451437940006144,0,0,1.0989385620117187,0,0,-0.45864
1.9465279979922343,0,0,1.5729904907226562,0,0,-0.22932
1.9479110350075644,0,0,1.6519991455078125,0,0,0.7644
1.9492947399849072,0,0,0.4644751220703125,0,0,9.24924
1.9506783329998143,0,0,0.22744915771484372,0,0,0.30576000000000003
1.9520614439970814,0,0,0.25139117431640623,0,0,0.07644000000000001
1.9534453329979442,0,0,1.4006079711914061,0,0,1.07016
1.9548336669977289,0,0,1.6400281372070311,0,0,0.07644000000000001
1.9562622589874081,0,0,0.8882488159179687,0,0,0.3822
1.9576477599912323,0,0,1.0821791503906248,0,0,0.6115200000000001
1.9590314450033475,0,0,0.8355763793945312,0,0,-0.3822
1.96041520498693,0,0,0.8906430175781249,0,0,-0.84084
1.9617989829857834,0,0,0.7852981445312499,0,0,0.3822
1.9631825019896496,0,0,0.33039982910156246,0,0,-1.2230400000000001
1.9645652059989516,0,0,0.8786720092773437,0,0,-0.53508
1.965950262005208,0,0,0.86191259765625,0,0,0.45864
1.9673327440104913,0,0,0.12689268798828124,0,0,0.15288000000000002
1.9687185960065108,0,0,0.258573779296875,0,0,0.53508
1.970102819002932,0,0,0.36152445068359373,0,0,0.68796
1.971484874986345,0,0,0.6631938598632812,0,0,-0.30576000000000003
1.9728678750107065,0,0,1.446097802734375,0,0,0.91728
1.9742526159971021,0,0,1.8100164550781248,0,0,-9.09636
1.9756351539981551,0,0,1.6543933471679686,0,0,1.5288
1.9770184319932014,0,0,1.1085153686523437,0,0,0.7644
1.9784027290006634,0,0,-0.32561142578124996,0,0,-0.3822
1.979786840005545,0,0,-0.6560112548828124,0,0,-0.7644
1.9811707669869065,0,0,1.3718775512695311,0,0,-1.07016
1.9825545999919996,0,0,1.944091748046875,0,0,1.2994800000000002
1.9839380079938564,0,0,1.1109095703125,0,0,0.0
1.9853214710019529,0,0,0.6416460449218749,0,0,0.99372
1.9867046010040212,0,0,-0.06703764648437499,0,0,0.45864
1.9881312490033451,0,0,0.354341845703125,0,0,-0.3822
1.9895154350087978,0,0,1.1133037719726562,0,0,0.3822
1.9908993800054304,0,0,2.1930887207031247,0,0,0.30576000000000003
1.9922818990016822,0,0,1.2832920898437499,0,0,0.99372
1.9936646400019526,0,0,0.3591302490234375,0,0,0.84084
1.9951484719931614,0,0,0.3591302490234375,0,0,-0.3822
1.996524454007158,0,0,0.32561142578124996,0,0,-0.68796
1.9979494909930509,0,0,0.852335791015625,0,0,9.631440000000001
1.9993481950077694,0,0,0.9145850341796874,0,0,-0.15288000000000002
2.0007389730017167,0,0,1.419761584472656,0,0,0.45864
2.002123307000147,0,0,0.6703764648437499,0,0,0.91728
2.003507121989969,0,0,-0.05985504150390625,0,0,0.07644000000000001
2.0048930479970295,0,0,-0.22744915771484372,0,0,-0.84084
2.0062792339886073,0,0,1.0749965454101562,0,0,0.0
2.00766177100013,0,0,1.8770541015625,0,0,0.45864
2.009045493992744,0,0,1.1947066284179686,0,0,0.68796
2.0104327170120087,0,0,0.699106884765625,0,0,0.99372
2.0118188470078167,0,0,0.3902548706054687,0,0,0.45864
2.0132024949998595,0,0,0.8643067993164062,0,0,0.22932
2.014580310002202,0,0,1.2018892333984375,0,0,0.15288000000000002
2.015953755006194,0,0,1.455674609375,0,0,0.15288000000000002
2.017330033995677,0,0,0.8188169677734375,0,0,0.07644000000000001
2.0187143860093784,0,0,0.7350199096679687,0,0,-0.15288000000000002
2.0200990159937646,0,0,0.7398083129882812,0,0,0.45864
2.0214833130012266,0,0,0.8403647827148437,0,0,0.0
2.0241605369956233,0,0,0.23702596435546874,0,0,0.6115200000000001
2.025572240992915,0,0,0.0526724365234375,0,0,0.0
2.0269625560031272,0,0,0.18435352783203124,0,0,0.22932
2.028352018998703,0,0,1.3479355346679687,0,0,0.30576000000000003
2.0297409080085345,0,0,1.388636962890625,0,0,0.68796
2.0311290939862374,0,0,1.1252747802734375,0,0,0.7644
2.0325170760042965,0,0,0.8068459594726562,0,0,0.7644
2.0339036310033407,0,0,0.27293898925781246,0,0,0.22932
2.0352838909893762,0,0,0.2609679809570312,0,0,-0.53508
2.036665372987045,0,0,0.7038952880859375,0,0,-0.3822
2.0380526880035177,0,0,1.9512743530273435,0,0,0.3822
2.039443170011509,0,0,1.467645617675781,0,0,0.6115200000000001
2.0408342070004437,0,0,1.0510545288085937,0,0,0.45864
2.042230318998918,0,0,-0.07900865478515624,0,0,0.30576000000000003
2.0436183380079456,0,0,-0.21787235107421873,0,0,-0.45864
2.045098800008418,0,0,0.6392518432617187,0,0,-0.91728
2.0464910219889134,0,0,1.2138602416992186,0,0,-0.3822
2.047880152007565,0,0,1.5969325073242187,0,0,0.15288000000000002
2.0492685409844853,0,0,1.0366893188476562,0,0,0.7644
2.050652097008424,0,0,0.6679822631835937,0,0,1.1465999999999998
2.052032172010513,0,0,0.12210428466796874,0,0,0.7644
2.0534113020112272,0,0,0.488417138671875,0,0,0.3822
2.054830117005622,0,0,1.0438719238281249,0,0,-0.15288000000000002
2.056217912991997,0,0,1.5131354492187499,0,0,0.45864
2.057604858011473,0,0,1.2401964599609374,0,0,0.91728
2.0590013210021425,0,0,0.7900865478515624,0,0,0.0
2.0603879140107892,0,0,0.6775590698242188,0,0,0.99372
2.0617742849863134,0,0,0.4213794921875,0,0,-0.6115200000000001
2.063162692997139,0,0,0.6368576416015624,0,0,1.07016
2.064548989001196,0,0,0.5482721801757812,0,0,0.0
2.065936322993366,0,0,0.6200982299804687,0,0,0.45864
2.0673222309851553,0,0,1.1252747802734375,0,0,0.3822
2.068708898004843,0,0,1.4772224243164063,0,0,0.6115200000000001
2.0700961760012433,0,0,0.5770026000976562,0,0,0.68796
2.071547138999449,0,0,0.2825157958984375,0,0,0.3822
2.072959676006576,0,0,0.967257470703125,0,0,0.45864
2.074526173993945,0,0,1.3527239379882812,0,0,0.91728
2.075916600006167,0,0,1.5394716674804687,0,0,1.1465999999999998
2.077304581995122,0,0,1.5658078857421873,0,0,1.2230400000000001
2.0786931379989255,0,0,1.4628572143554686,0,0,1.1465999999999998
2.080081379011972,0,0,1.0079588989257813,0,0,0.84084
2.081468785996549,0,0,1.0342951171875,0,0,0.53508
2.082851804996608,0,0,1.2952630981445312,0,0,1.07016
2.084230843000114,0,0,1.608903515625,0,0,0.3822
2.085609879984986,0,0,1.6472107421875,0,0,0.53508
2.0869985659956,0,0,1.2234370483398436,0,0,0.45864
2.088386510993587,0,0,1.2473790649414063,0,0,0.53508
2.0897899919946212,0,0,1.2401964599609374,0,0,0.3822
2.091177380993031,0,0,1.407790576171875,0,0,0.53508
2.0925650110002607,0,0,1.3646949462890625,0,0,1.2230400000000001
2.093952992989216,0,0,1.189918225097656,0,0,0.53508
2.0953397339908406,0,0,1.2761094848632812,0,0,0.07644000000000001
2.096727160998853,0,0,1.2928688964843749,0,0,0.6115200000000001
2.0981122170051094,0,0,1.5251064575195312,0,0,0.68796
2.0994904580002185,0,0,1.4125789794921875,0,0,0.7644
2.1008693469921127,0,0,1.4245499877929686,0,0,1.2230400000000001
2.1022542550053913,0,0,1.120486376953125,0,0,1.2230400000000001
2.1036409589869436,0,0,0.9959878906249999,0,0,0.53508
2.1050277370086405,0,0,1.1109095703125,0,0,0.3822
2.1064141819952056,0,0,1.3144167114257812,0,0,0.99372
2.1078007190080825,0,0,1.3168109130859373,0,0,0.6115200000000001
2.1091874050034676,0,0,1.438915197753906,0,0,0.84084
2.110574219987029,0,0,1.3239935180664062,0,0,1.2230400000000001
2.1119606829888653,0,0,1.0869675537109373,0,0,0.84084
2.1133473689842504,0,0,1.1516109985351561,0,0,0.7644
2.1147332029941026,0,0,1.1420341918945311,0,0,1.37592
2.1161179619957693,0,0,1.458068811035156,0,0,0.99372
2.1175242770113982,0,0,1.5035586425781249,0,0,0.45864
2.1189129629929084,0,0,1.5466542724609373,0,0,0.91728
2.1202993699989747,0,0,1.3479355346679687,0,0,0.7644
2.122364306007512,0,0,1.0702081420898437,0,0,0.7644
2.12381010199897,0,0,1.13006318359375,0,0,0.68796
2.1252788979909383,0,0,1.2952630981445312,0,0,0.91728
2.127528979006456,0,0,1.3024457031249999,0,0,0.53508
2.1289954420062713,0,0,1.3575123413085937,0,0,0.7644
2.13048405200243,0,0,1.1659762084960936,0,0,0.84084
2.1319866249978077,0,0,1.0773907470703123,0,0,0.84084
2.133448272012174,0,0,1.0917559570312498,0,0,0.91728
2.1349730670044664,0,0,1.2234370483398436,0,0,1.37592
2.136469472985482,0,0,1.24498486328125,0,0,0.91728
2.1379732500063255,0,0,1.5777788940429687,0,0,1.07016
2.1394699160009623,0,0,1.6328455322265625,0,0,0.7644
2.140962915000273,0,0,1.407790576171875,0,0,0.84084
2.1423804700025357,0,0,1.2856862915039062,0,0,0.99372
2.1437647670099977,0,0,1.120486376953125,0,0,0.68796
2.145143914996879,0,0,1.180341418457031,0,0,0.91728
2.146536879008636,0,0,1.3455413330078123,0,0,1.1465999999999998
2.1479176199936774,0,0,1.4221557861328125,0,0,0.6115200000000001
2.1492969910032116,0,0,1.6615759521484375,0,0,0.7644
2.1506812130101025,0,0,1.37906015625,0,0,0.7644
2.152060991007602,0,0,1.1156979736328125,0,0,0.45864
2.1534404550038744,0,0,0.9433154541015625,0,0,0.6115200000000001
2.1548241399868857,0,0,1.0031704956054688,0,0,1.1465999999999998
2.156203436985379,0,0,1.2952630981445312,0,0,0.45864
2.1576340479950886,0,0,1.448492004394531,0,0,0.68796
2.1590397330000997,0,0,1.6615759521484375,0,0,0.68796
2.1604202890011948,0,0,1.2713210815429687,0,0,0.91728
2.161799660010729,0,0,1.3263877197265623,0,0,0.68796
2.1631825499935076,0,0,1.0103531005859374,0,0,0.84084
2.1645623089862056,0,0,0.9648632690429687,0,0,0.6115200000000001
2.165954847005196,0,0,1.4867992309570313,0,0,0.07644000000000001
2.1673336619860493,0,0,1.5131354492187499,0,0,0.53508
2.1687128659978043,0,0,1.3934253662109375,0,0,0.30576000000000003
2.170093291992089,0,0,1.1420341918945311,0,0,0.84084
2.1714725519996136,0,0,1.158793603515625,0,0,1.07016
2.1728515530121513,0,0,1.1875240234375,0,0,0.91728
2.174233183002798,0,0,1.2497732666015624,0,0,0.6115200000000001
2.175612052989891,0,0,1.235408056640625,0,0,0.45864
2.1769907390116714,0,0,1.3192051147460937,0,0,1.2230400000000001
2.178390017012134,0,0,1.3000515014648437,0,0,0.6115200000000001
2.1797764060029294,0,0,1.448492004394531,0,0,0.99372
2.1811554069863632,0,0,1.3431471313476562,0,0,0.99372
2.182537148008123,0,0,1.3646949462890625,0,0,0.99372
2.1839161480020266,0,0,1.158793603515625,0,0,0.6115200000000001
2.1852953149937093,0,0,1.1875240234375,0,0,1.1465999999999998
2.186686853005085,0,0,1.3000515014648437,0,0,0.91728
2.18808255699696,0,0,1.3048399047851562,0,0,0.84084
2.1894704650039785,0,0,1.4006079711914061,0,0,0.7644
2.190852631989401,0,0,1.407790576171875,0,0,0.91728
2.1922315770061687,0,0,1.3168109130859373,0,0,0.84084
2.1936107619840186,0,0,1.2138602416992186,0,0,0.45864
2.1949997810006607,0,0,1.218648645019531,0,0,1.2994800000000002
2.196387689007679,0,0,1.3239935180664062,0,0,0.53508
2.1977753560058773,0,0,1.3718775512695311,0,0,0.45864
2.199156596994726,0,0,1.5514426757812498,0,0,0.53508
2.2005357639864087,0,0,1.448492004394531,0,0,0.68796
2.2019515419960953,0,0,1.1851298217773436,0,0,0.99372
2.20333846801077,0,0,1.1156979736328125,0,0,0.45864
2.2047253199853003,0,0,1.005564697265625,0,0,0.53508
2.206112395011587,0,0,1.3215993164062498,0,0,0.0
2.207498820993351,0,0,1.2521674682617188,0,0,0.6115200000000001
2.2088854140019976,0,0,1.438915197753906,0,0,0.6115200000000001
2.210276044002967,0,0,1.2976572998046874,0,0,0.6115200000000001
2.2116636550053954,0,0,1.2521674682617188,0,0,1.07016
2.213050933001796,0,0,1.1252747802734375,0,0,0.99372
2.214433712011669,0,0,1.180341418457031,0,0,0.7644
2.2158125819987617,0,0,1.3311761230468748,0,0,0.68796
2.2171916759980377,0,0,1.3646949462890625,0,0,1.2230400000000001
2.2185786759946495,0,0,1.4125789794921875,0,0,0.53508
2.2199649910035077,0,0,1.4341267944335936,0,0,1.07016
2.2213515840121545,0,0,1.2832920898437499,0,0,0.84084
2.2227448069897946,0,0,1.2808978881835937,0,0,1.07016
2.224386173998937,0,0,1.189918225097656,0,0,0.7644
2.2257753220037557,0,0,1.2832920898437499,0,0,0.53508
2.2271658969984856,0,0,1.3407529296874998,0,0,0.91728
2.2285538419964723,0,0,1.2856862915039062,0,0,0.6115200000000001
2.2299438230111264,0,0,1.4245499877929686,0,0,0.84084
2.23133073101053,0,0,1.350329736328125,0,0,1.1465999999999998
2.2327179170097224,0,0,1.1540052001953125,0,0,0.68796
2.234106657997472,0,0,1.0773907470703123,0,0,0.45864
2.235493027983466,0,0,1.1875240234375,0,0,0.7644
2.2368893059901893,0,0,1.3646949462890625,0,0,0.99372
2.2382777880120557,0,0,1.4053963745117186,0,0,0.7644
2.2396645109984092,0,0,1.6639701538085936,0,0,0.91728
2.241052381985355,0,0,1.3048399047851562,0,0,0.91728
2.2424396600108594,0,0,1.2282254516601563,0,0,0.68796
2.2438267710094806,0,0,1.158793603515625,0,0,0.7644
2.245213715999853,0,0,1.2641384765625,0,0,1.2994800000000002
2.246601197985001,0,0,1.3239935180664062,0,0,0.45864
2.2479923279897776,0,0,1.3455413330078123,0,0,0.6115200000000001
2.2493794389883988,0,0,1.5658078857421873,0,0,0.84084
2.250781643000664,0,0,1.4006079711914061,0,0,0.7644
2.252168642997276,0,0,1.2904746948242187,0,0,0.91728
2.2535559399984777,0,0,1.1923124267578125,0,0,0.99372
2.2549436999834143,0,0,1.218648645019531,0,0,0.53508
2.256331404001685,0,0,1.2785036865234374,0,0,0.22932
2.257718810986262,0,0,1.2713210815429687,0,0,-9.24924
2.259108775004279,0,0,1.4915876342773438,0,0,0.91728
2.2604961640026886,0,0,1.6208745239257811,0,0,0.7644
2.2618845719844103,0,0,1.3623007446289062,0,0,1.2994800000000002
2.2632721459958702,0,0,1.1348515869140625,0,0,0.91728
2.264659220993053,0,0,1.120486376953125,0,0,0.68796
2.2660470730043016,0,0,1.16837041015625,0,0,0.3822
2.267441128991777,0,0,1.3718775512695311,0,0,0.84084
2.268828128988389,0,0,1.5442600708007812,0,0,0.3822
2.270216036995407,0,0,1.4413093994140624,0,0,0.84084
2.271602796012303,0,0,1.2880804931640624,0,0,1.1465999999999998
2.2730137039907277,0,0,1.1037269653320312,0,0,1.1465999999999998
2.274536053999327,0,0,1.1348515869140625,0,0,0.68796
2.275931813986972,0,0,1.2856862915039062,0,0,0.84084
2.2773199249932077,0,0,1.3144167114257812,0,0,0.91728
2.2787130549841095,0,0,1.438915197753906,0,0,0.84084
2.280100370000582,0,0,1.3958195678710936,0,0,0.7644
2.2814879450015724,0,0,1.3048399047851562,0,0,0.99372
2.28287548199296,0,0,1.3000515014648437,0,0,0.99372
2.2842627599893603,0,0,1.3000515014648437,0,0,0.6115200000000001
2.2856501119968016,0,0,1.1228805786132812,0,0,1.2230400000000001
2.287031241983641,0,0,1.3215993164062498,0,0,0.99372
2.288410834997194,0,0,1.2306196533203124,0,0,0.53508
2.2897899659874383,0,0,1.467645617675781,0,0,0.84084
2.2911794100073166,0,0,1.3527239379882812,0,0,0.91728
2.292567077005515,0,0,1.5610194824218748,0,0,1.07016
2.293954874010524,0,0,1.3455413330078123,0,0,1.07016
2.2953941700106952,0,0,1.180341418457031,0,0,1.07016
2.2967844110098667,0,0,1.3168109130859373,0,0,0.22932
2.298174800002016,0,0,1.2761094848632812,0,0,0.45864
2.2995604859897867,0,0,1.4245499877929686,0,0,0.53508
2.300948412012076,0,0,1.4030021728515625,0,0,0.68796
2.302333653002279,0,0,1.22583125,0,0,0.99372
2.3037132649915293,0,0,1.2282254516601563,0,0,1.2994800000000002
2.305092672992032,0,0,1.1420341918945311,0,0,0.3822
2.306480191007722,0,0,1.1444283935546875,0,0,0.07644000000000001
2.3078671180119272,0,0,1.2856862915039062,0,0,0.45864
2.3092540809884667,0,0,1.4987702392578124,0,0,0.6115200000000001
2.3106481549912132,0,0,1.2306196533203124,0,0,0.7644
2.3120347849908285,0,0,1.3479355346679687,0,0,1.1465999999999998
2.3134210999996867,0,0,1.2761094848632812,0,0,0.99372
2.314807879010914,0,0,1.1563994018554686,0,0,0.45864
2.3161947859916836,0,0,1.1923124267578125,0,0,0.7644
2.3175810459943023,0,0,1.3215993164062498,0,0,1.2994800000000002
2.318967786995927,0,0,1.3910311645507811,0,0,0.68796
2.320362712984206,0,0,1.465251416015625,0,0,0.7644
2.3217512689880095,0,0,1.4173673828125,0,0,0.99372
2.323139843996614,0,0,1.3144167114257812,0,0,0.53508
2.324528269993607,0,0,1.3239935180664062,0,0,0.7644
2.325933788000839,0,0,1.2018892333984375,0,0,1.07016
2.3273222699936014,0,0,1.350329736328125,0,0,0.84084
2.328709419001825,0,0,1.3311761230468748,0,0,0.45864
2.330094659992028,0,0,1.5083470458984374,0,0,0.7644
2.331472660007421,0,0,1.3192051147460937,0,0,0.84084
2.332851382991066,0,0,1.2114660400390624,0,0,0.6115200000000001
2.334237253991887,0,0,1.209071838378906,0,0,0.7644
2.3356250129872933,0,0,1.1947066284179686,0,0,1.1465999999999998
2.3370123470085673,0,0,1.2497732666015624,0,0,0.99372
2.338727583992295,0,0,1.2617442749023438,0,0,0.6115200000000001
2.340117879997706,0,0,1.4532804077148436,0,0,0.99372
2.341498177003814,0,0,1.3287819213867187,0,0,0.68796
2.342879678006284,0,0,1.2138602416992186,0,0,0.45864
2.344259030011017,0,0,1.2401964599609374,0,0,0.68796
2.345638160011731,0,0,1.177947216796875,0,0,0.68796
2.3470187349885236,0,0,1.3287819213867187,0,0,0.3822
2.348398197995266,0,0,1.3407529296874998,0,0,0.7644
2.34977732799598,0,0,1.5107412475585937,0,0,0.68796
2.3511606800020672,0,0,1.22583125,0,0,0.53508
2.3525399589852896,0,0,1.47482822265625,0,0,0.84084
2.3539510880073067,0,0,1.180341418457031,0,0,0.91728
2.3553469220059924,0,0,1.2401964599609374,0,0,0.7644
2.356735495995963,0,0,1.3407529296874998,0,0,0.15288000000000002
2.358124182006577,0,0,1.407790576171875,0,0,0.68796
2.3595106639841106,0,0,1.2306196533203124,0,0,0.53508
2.3608983120066114,0,0,1.2952630981445312,0,0,0.99372
2.3622861829935573,0,0,1.3120225097656248,0,0,0.91728
2.3636729980062228,0,0,1.2210428466796874,0,0,1.07016
2.3650608870084397,0,0,1.2641384765625,0,0,0.7644
2.366443609993439,0,0,1.1755530151367186,0,0,0.45864
2.367822555010207,0,0,1.3144167114257812,0,0,1.1465999999999998
2.369201517984038,0,0,1.2401964599609374,0,0,0.91728
2.370588369987672,0,0,1.3958195678710936,0,0,-8.71416
2.3719774080091156,0,0,1.2473790649414063,0,0,0.84084
2.3733645750035066,0,0,1.197100830078125,0,0,0.91728
2.37494611000875,0,0,1.20667763671875,0,0,0.84084
2.3763345910119824,0,0,1.2521674682617188,0,0,0.99372
2.3777218509931117,0,0,1.3335703247070312,0,0,1.1465999999999998
2.379108869994525,0,0,1.2785036865234374,0,0,0.6115200000000001
2.380495240999153,0,0,1.5658078857421873,0,0,1.07016
2.381882758985739,0,0,1.3000515014648437,0,0,0.84084
2.3832690749841277,0,0,1.1444283935546875,0,0,0.7644
2.3846554640040267,0,0,1.158793603515625,0,0,0.99372
2.386042408994399,0,0,1.1635820068359375,0,0,1.2230400000000001
2.387428390007699,0,0,1.3263877197265623,0,0,0.0
2.3888202430098318,0,0,1.2928688964843749,0,0,0.6115200000000001
2.39020791000803,0,0,1.6041151123046875,0,0,0.7644
2.3915940209990367,0,0,1.3120225097656248,0,0,0.91728
2.392980317992624,0,0,1.2665326782226562,0,0,0.91728
2.3943758370005526,0,0,1.1707646118164061,0,0,1.07016
2.395762317988556,0,0,1.1851298217773436,0,0,0.53508
2.3971486520022154,0,0,1.2378022583007813,0,0,0.0
2.398546540993266,0,0,1.3311761230468748,0,0,0.45864
2.3999335969856475,0,0,1.5442600708007812,0,0,0.7644
2.4013199679902755,0,0,1.2593500732421874,0,0,0.53508
2.4027063570101745,0,0,1.2425906616210938,0,0,1.07016
2.4040930240007583,0,0,1.2042834350585936,0,0,0.84084
2.4054790619993582,0,0,1.20667763671875,0,0,0.84084
2.40686582098715,0,0,1.2808978881835937,0,0,0.3822
2.408251932996791,0,0,1.2593500732421874,0,0,0.7644
2.4096389889891725,0,0,1.4820108276367188,0,0,0.68796
2.4110273589903954,0,0,1.4724340209960938,0,0,0.99372
2.4124233780021314,0,0,1.2761094848632812,0,0,0.7644
2.4138658219890203,0,0,1.2234370483398436,0,0,0.99372
2.4152542850060854,0,0,1.1755530151367186,0,0,0.68796
2.4166405079886317,0,0,1.2330138549804688,0,0,0.84084
2.4180522119859233,0,0,1.4149731811523436,0,0,0.91728
2.419459470984293,0,0,1.2401964599609374,0,0,0.6115200000000001
2.4208470819867216,0,0,1.4867992309570313,0,0,0.91728
2.422234267985914,0,0,1.2832920898437499,0,0,0.84084
2.4236203790060245,0,0,1.1348515869140625,0,0,0.6115200000000001
2.425006787001621,0,0,1.1563994018554686,0,0,0.68796
2.426393231988186,0,0,1.218648645019531,0,0,0.6115200000000001
2.427779140009079,0,0,1.3814543579101561,0,0,0.99372
2.4291652879910544,0,0,1.2976572998046874,0,0,0.7644
2.4305527890101075,0,0,1.5011644409179687,0,0,0.68796
2.431939047994092,0,0,1.2282254516601563,0,0,0.84084
2.433325252000941,0,0,1.2641384765625,0,0,0.84084
2.4347115859854966,0,0,1.1276689819335937,0,0,0.99372
2.436097808997147,0,0,1.1707646118164061,0,0,0.53508
2.437484291003784,0,0,1.3527239379882812,0,0,0.30576000000000003
2.4388708650076296,0,0,1.3455413330078123,0,0,0.68796
2.4402567539946176,0,0,1.5203180541992187,0,0,0.53508
2.441642605990637,0,0,1.2832920898437499,0,0,0.53508
2.443042939994484,0,0,1.2856862915039062,0,0,0.7644
2.4444288660015445,0,0,1.177947216796875,0,0,0.99372
2.445833069999935,0,0,1.2737152832031249,0,0,0.7644
2.4472201819880866,0,0,1.2569558715820313,0,0,0.30576000000000003
2.4486114410101436,0,0,1.2928688964843749,0,0,0.53508
2.4499989410105627,0,0,1.407790576171875,0,0,0.6115200000000001
2.451384201005567,0,0,1.6448165405273436,0,0,0.91728
2.4527700530015863,0,0,1.3144167114257812,0,0,1.37592
2.454157256986946,0,0,1.1635820068359375,0,0,1.2230400000000001
2.455543554009637,0,0,1.209071838378906,0,0,0.68796
2.456929609994404,0,0,1.158793603515625,0,0,0.53508
2.4583164069917984,0,0,1.1707646118164061,0,0,1.07016
2.4597022219968494,0,0,1.4939818359375,0,0,1.07016
2.4610884439898655,0,0,1.6424223388671875,0,0,0.84084
2.4624744259926956,0,0,1.3431471313476562,0,0,1.07016
2.4638605559885036,0,0,1.1755530151367186,0,0,0.30576000000000003
2.4652462789963465,0,0,1.1420341918945311,0,0,0.68796
2.4666325569851324,0,0,1.2306196533203124,0,0,1.2994800000000002
2.468018576008035,0,0,1.3742717529296875,0,0,0.84084
2.469404798001051,0,0,1.3239935180664062,0,0,0.68796
2.4708004650019575,0,0,1.5729904907226562,0,0,0.84084
2.4721871319925413,0,0,1.369483349609375,0,0,0.91728
2.4735730219981633,0,0,1.2665326782226562,0,0,0.7644
2.4749577440088615,0,0,1.218648645019531,0,0,0.99372
2.4763644479971845,0,0,1.2042834350585936,0,0,1.5288
2.4777526709949598,0,0,1.2928688964843749,0,0,0.45864
2.4791392819897737,0,0,1.2378022583007813,0,0,0.53508
2.4805603190034162,0,0,1.5634136840820312,0,0,0.68796
2.4819509490043856,0,0,1.3072341064453123,0,0,0.84084
2.4833391339925583,0,0,1.3144167114257812,0,0,0.6115200000000001
2.4847267089935485,0,0,1.218648645019531,0,0,0.68796
2.4861284680082463,0,0,1.1731588134765625,0,0,0.45864
2.4875157460046466,0,0,1.4149731811523436,0,0,0.07644000000000001
2.4889035990054253,0,0,1.2785036865234374,0,0,0.6115200000000001
2.490291542984778,0,0,1.2593500732421874,0,0,0.53508
2.491677598998649,0,0,1.2497732666015624,0,0,0.6115200000000001
2.493064913986018,0,0,1.2521674682617188,0,0,0.91728
2.4944525260070805,0,0,1.24498486328125,0,0,0.84084
2.4958397859882098,0,0,1.0845733520507812,0,0,0.84084
2.4972275639884174,0,0,1.1228805786132812,0,0,0.30576000000000003
2.4986153229838237,0,0,1.3359645263671873,0,0,0.6115200000000001
2.500002601009328,0,0,1.35990654296875,0,0,0.7644
2.501390249992255,0,0,1.5083470458984374,0,0,0.7644
2.50277987998561,0,0,1.3120225097656248,0,0,1.2230400000000001
2.50416769500589,0,0,1.2306196533203124,0,0,0.6115200000000001
2.505554714007303,0,0,1.2234370483398436,0,0,0.68796
2.5069416769838426,0,0,1.2138602416992186,0,0,0.7644
2.5083288259920664,0,0,1.3575123413085937,0,0,0.84084
2.5097165670013055,0,0,1.4125789794921875,0,0,0.68796
2.511104086006526,0,0,1.5753846923828123,0,0,0.84084
2.5124914379848633,0,0,1.2042834350585936,0,0,0.91728
2.5138801599969156,0,0,1.1324573852539062,0,0,0.7644
2.5152672530093696,0,0,1.13006318359375,0,0,0.99372
2.516654439008562,0,0,1.1755530151367186,0,0,1.1465999999999998
2.518042012990918,0,0,1.2761094848632812,0,0,0.53508
2.5194283470045775,0,0,1.3766659545898436,0,0,0.53508
2.520815402996959,0,0,1.5227122558593749,0,0,0.45864
2.522203736996744,0,0,1.2880804931640624,0,0,0.3822
2.5236414399987552,0,0,1.2689268798828124,0,0,0.68796
2.5251245689869393,0,0,1.3623007446289062,0,0,0.84084
2.5265239760046825,0,0,1.2282254516601563,0,0,0.68796
2.527911902987398,0,0,1.3144167114257812,0,0,0.53508
2.5293291620037053,0,0,1.3551181396484375,0,0,0.30576000000000003
2.5307247180026025,0,0,1.43652099609375,0,0,0.68796
2.532113050983753,0,0,1.2785036865234374,0,0,0.7644
2.5335006440000143,0,0,1.2904746948242187,0,0,0.99372
2.534882662992459,0,0,1.2808978881835937,0,0,1.07016
2.536262367008021,0,0,1.1372457885742187,0,0,0.53508
2.5377622919913847,0,0,1.2952630981445312,0,0,-0.3822
2.5391592549858615,0,0,1.3359645263671873,0,0,0.30576000000000003
2.5405471260019112,0,0,1.5514426757812498,0,0,0.99372
2.5419359040097333,0,0,1.2569558715820313,0,0,0.84084
2.5433232559880707,0,0,1.3766659545898436,0,0,0.91728
2.5447110339882784,0,0,1.1659762084960936,0,0,1.07016
2.546096312988084,0,0,1.254561669921875,0,0,0.68796
2.547475127998041,0,0,1.2138602416992186,0,0,0.30576000000000003
2.548854165012017,0,0,1.4341267944335936,0,0,0.91728
2.550240851007402,0,0,1.4796166259765624,0,0,1.07016
2.551628961984534,0,0,1.4125789794921875,0,0,0.7644
2.5530162770010065,0,0,1.467645617675781,0,0,0.99372
2.5544051110045984,0,0,1.2018892333984375,0,0,0.6115200000000001
2.5557929819915444,0,0,1.20667763671875,0,0,0.68796
2.5571809819957707,0,0,1.3192051147460937,0,0,1.07016
2.558568353008013,0,0,1.3766659545898436,0,0,1.1465999999999998
2.5599562790011987,0,0,1.3335703247070312,0,0,1.07016
2.5613440570014063,0,0,1.39821376953125,0,0,0.68796
2.5627270019904245,0,0,1.39821376953125,0,0,1.2994800000000002
2.5641060209891293,0,0,1.3551181396484375,0,0,0.68796
2.5654852990119252,0,0,1.218648645019531,0,0,0.84084
2.5668751699849963,0,0,1.1635820068359375,0,0,1.2230400000000001
2.5682639669976197,0,0,1.0965443603515623,0,0,0.6115200000000001
2.569651967001846,0,0,1.2114660400390624,0,0,0.53508
2.5710397269867826,0,0,1.43652099609375,0,0,0.53508
2.572426708007697,0,0,1.3551181396484375,0,0,0.7644
2.5738482080050744,0,0,1.3718775512695311,0,0,0.6115200000000001
2.5752385790110566,0,0,1.2018892333984375,0,0,-9.01992
2.5766267089929897,0,0,1.2018892333984375,0,0,0.6115200000000001
2.578094486001646,0,0,1.3718775512695311,0,0,0.07644000000000001
2.579483874986181,0,0,1.2928688964843749,0,0,0.53508
2.5808717090112623,0,0,1.5346832641601562,0,0,0.84084
2.5822999119991437,0,0,1.6017209106445311,0,0,0.7644
2.583686005003983,0,0,1.2856862915039062,0,0,0.84084
2.585073413007194,0,0,1.2042834350585936,0,0,0.7644
2.586460710008396,0,0,1.1923124267578125,0,0,0.84084
2.587895190983545,0,0,1.3718775512695311,0,0,-9.172799999999999
2.5893306719954126,0,0,1.3814543579101561,0,0,0.15288000000000002
2.5907212650054134,0,0,1.5131354492187499,0,0,0.6115200000000001
2.5923391329997685,0,0,1.3383587280273437,0,0,0.91728
2.594000999990385,0,0,1.24498486328125,0,0,0.45864
2.595704940991709,0,0,1.2018892333984375,0,0,1.07016
2.597083497006679,0,0,1.1707646118164061,0,0,1.2994800000000002
2.598577402997762,0,0,1.2737152832031249,0,0,0.91728
2.6001530310022645,0,0,1.254561669921875,0,0,0.84084
2.6015404750069138,0,0,1.4245499877929686,0,0,0.68796
2.602924865001114,0,0,1.139639990234375,0,0,0.84084
2.6043083459953777,0,0,1.2641384765625,0,0,0.68796
2.6056916799861938,0,0,1.2210428466796874,0,0,0.7644
2.6070755689870566,0,0,1.1516109985351561,0,0,1.2230400000000001
2.6084590509999543,0,0,1.369483349609375,0,0,0.22932
2.6098424780066125,0,0,1.369483349609375,0,0,0.30576000000000003
2.611231588991359,0,0,1.3048399047851562,0,0,0.68796
2.612614477984607,0,0,1.1707646118164061,0,0,0.53508
2.613999700988643,0,0,1.3263877197265623,0,0,0.99372
2.6153835899895057,0,0,1.2521674682617188,0,0,1.2230400000000001
2.616767516999971,0,0,1.2042834350585936,0,0,0.3822
2.618149332003668,0,0,1.2976572998046874,0,0,0.07644000000000001
2.6195354250085074,0,0,1.2330138549804688,0,0,0.30576000000000003
2.620909369987203,0,0,1.4173673828125,0,0,0.68796
2.6222911849908996,0,0,1.22583125,0,0,0.68796
2.6236741300090216,0,0,1.3048399047851562,0,0,0.91728
2.6250567600072827,0,0,1.197100830078125,0,0,0.91728
2.6264402229862753,0,0,1.1923124267578125,0,0,0.68796
2.627822593989549,0,0,1.3168109130859373,0,0,1.07016
2.6292052429926116,0,0,1.369483349609375,0,0,0.7644
2.6305899650033098,0,0,1.3215993164062498,0,0,0.68796
2.6319729470124003,0,0,1.4245499877929686,0,0,0.53508
2.633355633006431,0,0,1.419761584472656,0,0,1.1465999999999998
2.6347389289876446,0,0,1.2761094848632812,0,0,0.7644
2.6361219479877036,0,0,1.1755530151367186,0,0,0.84084
2.637504523008829,0,0,1.2401964599609374,0,0,1.37592
2.6388878749858122,0,0,1.37906015625,0,0,0.91728
2.6402705420041457,0,0,1.3958195678710936,0,0,0.84084
2.641652691003401,0,0,1.5418658691406248,0,0,0.91728
2.6430351359886117,0,0,1.3239935180664062,0,0,0.84084
2.6445312459836714,0,0,1.2114660400390624,0,0,0.6115200000000001
2.646061354986159,0,0,1.218648645019531,0,0,0.68796
2.6474637810024433,0,0,1.1444283935546875,0,0,1.07016
2.648848448006902,0,0,1.2808978881835937,0,0,0.53508
2.6502299119892996,0,0,1.4149731811523436,0,0,0.84084
2.6516043200099375,0,0,1.5801730957031248,0,0,0.91728
2.6529780240089167,0,0,1.2425906616210938,0,0,0.53508
2.6543814679898787,0,0,1.2569558715820313,0,0,-9.172799999999999
2.655766635987675,0,0,1.197100830078125,0,0,0.7644
2.657149931997992,0,0,1.1659762084960936,0,0,0.84084
2.658528172993101,0,0,1.3144167114257812,0,0,0.0
2.659901859005913,0,0,1.0917559570312498,0,0,2.14032
2.661694020993309,0,0,1.4700398193359374,0,0,1.07016
2.6632584999897517,0,0,1.3670891479492187,0,0,1.1465999999999998
2.6647459809901193,0,0,1.2976572998046874,0,0,0.6115200000000001
2.6661750549974386,0,0,1.1875240234375,0,0,0.68796
2.6675581659947056,0,0,1.1540052001953125,0,0,1.1465999999999998
2.668939536990365,0,0,1.3455413330078123,0,0,0.7644
2.670322315010708,0,0,1.2689268798828124,0,0,0.91728
2.6717026679834817,0,0,1.5753846923828123,0,0,0.7644
2.673082224006066,0,0,1.2617442749023438,0,0,0.45864
2.674482002010336,0,0,1.199495031738281,0,0,0.53508
2.675861113006249,0,0,1.177947216796875,0,0,0.7644
2.677240538992919,0,0,1.2737152832031249,0,0,0.91728
2.678632335999282,0,0,1.3623007446289062,0,0,0.0
2.6800194100069348,0,0,1.429338391113281,0,0,0.15288000000000002
2.6814067630039062,0,0,1.5490484741210937,0,0,0.6115200000000001
2.6827938740025274,0,0,1.22583125,0,0,0.68796
2.6841800969850738,0,0,1.4413093994140624,0,0,0.99372
2.6855669119977392,0,0,1.2497732666015624,0,0,0.7644
2.686962764011696,0,0,1.2617442749023438,0,0,0.91728
2.688347986986628,0,0,1.3263877197265623,0,0,0.30576000000000003
2.6897347460035235,0,0,1.4341267944335936,0,0,0.7644
2.6911215980071574,0,0,1.2880804931640624,0,0,0.53508
2.6925080619985238,0,0,1.4053963745117186,0,0,0.7644
2.693896507000318,0,0,1.2617442749023438,0,0,1.07016
2.6952835989941377,0,0,1.1635820068359375,0,0,0.91728
2.6966702849895228,0,0,1.180341418457031,0,0,0.68796
2.6980574149929453,0,0,1.0965443603515623,0,0,0.7644
2.6994433969957754,0,0,1.2330138549804688,0,0,0.7644
2.7008340639877133,0,0,1.2330138549804688,0,0,0.45864
2.7022620819916483,0,0,1.4245499877929686,0,0,0.84084
2.7036518050008453,0,0,1.3120225097656248,0,0,0.91728
2.7050383419846185,0,0,1.2832920898437499,0,0,0.84084
2.706448434997583,0,0,1.2641384765625,0,0,0.45864
2.707843823998701,0,0,1.3383587280273437,0,0,1.2230400000000001
2.7092309540021233,0,0,1.3431471313476562,0,0,0.91728
2.7106177319947165,0,0,1.1851298217773436,0,0,0.7644
2.7120047319913283,0,0,1.5059528442382812,0,0,0.68796
2.713391566008795,0,0,1.3431471313476562,0,0,0.68796
2.7147793440090027,0,0,1.35990654296875,0,0,0.53508
2.7161663259903435,0,0,1.0797849487304687,0,0,0.84084
2.717552493006224,0,0,1.0366893188476562,0,0,0.45864
2.718939529993804,0,0,1.3335703247070312,0,0,0.15288000000000002
2.7203261789982207,0,0,1.3862427612304686,0,0,0.68796
2.7217151790100615,0,0,1.3958195678710936,0,0,0.6115200000000001
2.723101920011686,0,0,1.4532804077148436,0,0,0.99372
2.724488809995819,0,0,1.3766659545898436,0,0,0.7644
2.725876698998036,0,0,1.254561669921875,0,0,0.99372
2.7272639950097073,0,0,1.3215993164062498,0,0,0.53508
2.7286507739918306,0,0,1.3120225097656248,0,0,0.22932
2.7300376440107357,0,0,1.3670891479492187,0,0,0.3822
2.731423625984462,0,0,1.43652099609375,0,0,0.45864
2.732810088986298,0,0,1.407790576171875,0,0,0.84084
2.734197348996531,0,0,1.3575123413085937,0,0,1.07016
2.7355837569921277,0,0,1.2210428466796874,0,0,0.99372
2.736970238998765,0,0,1.3287819213867187,0,0,0.6115200000000001
2.738359645998571,0,0,1.2497732666015624,0,0,0.84084
2.7397460360080004,0,0,1.5131354492187499,0,0,0.84084
2.741132702998584,0,0,1.4724340209960938,0,0,0.3822
2.7425196100084577,0,0,1.4724340209960938,0,0,0.7644
2.7439057400042657,0,0,1.3192051147460937,0,0,1.07016
2.7452920190116856,0,0,1.1731588134765625,0,0,1.07016
2.7466833340004086,0,0,1.180341418457031,0,0,0.6115200000000001
2.748069427005248,0,0,1.216254443359375,0,0,1.37592
2.7494556680030655,0,0,1.3215993164062498,0,0,1.07016
2.7508527979953215,0,0,1.2617442749023438,0,0,1.07016
2.752239686989924,0,0,1.3958195678710936,0,0,0.7644
2.753626001998782,0,0,1.2713210815429687,0,0,0.6115200000000001
2.7550144100096077,0,0,1.3407529296874998,0,0,0.45864
2.7564055399852805,0,0,1.2569558715820313,0,0,0.91728
2.757792113989126,0,0,1.3742717529296875,0,0,0.91728
2.75917896599276,0,0,1.2880804931640624,0,0,0.0
2.760565484990366,0,0,1.2665326782226562,0,0,0.3822
2.7619529670046177,0,0,1.465251416015625,0,0,0.45864
2.7633382820058614,0,0,1.3000515014648437,0,0,0.91728
2.7647326159931254,0,0,1.35990654296875,0,0,0.68796
2.766119671985507,0,0,1.2282254516601563,0,0,1.07016
2.767505894007627,0,0,1.1659762084960936,0,0,0.68796
2.7688919689971954,0,0,1.1516109985351561,0,0,0.07644000000000001
2.770278395008063,0,0,1.3239935180664062,0,0,0.45864
2.7716627290064935,0,0,1.5298948608398437,0,0,0.68796
2.77405499399174,0,0,1.2497732666015624,0,0,1.45236
2.775681639002869,0,0,0.9816226806640624,0,0,0.84084
2.777072305994807,0,0,1.149216796875,0,0,0.6115200000000001
2.778466435993323,0,0,1.235408056640625,0,0,0.91728
2.779854713997338,0,0,1.5251064575195312,0,0,0.7644
2.7812433810031507,0,0,1.4317325927734375,0,0,0.68796
2.782631529989885,0,0,1.5131354492187499,0,0,0.84084
2.7840192889852915,0,0,1.2306196533203124,0,0,0.99372
2.7854067150037736,0,0,1.2330138549804688,0,0,0.53508
2.786788716010051,0,0,1.120486376953125,0,0,0.99372
2.788167846010765,0,0,1.197100830078125,0,0,0.99372
2.7895529569941573,0,0,1.2808978881835937,0,0,0.6115200000000001
2.7909457359928638,0,0,1.235408056640625,0,0,0.6115200000000001
2.7923338469990995,0,0,1.5658078857421873,0,0,0.84084
2.7937216440041084,0,0,1.2952630981445312,0,0,0.6115200000000001
2.7951098660123535,0,0,1.1659762084960936,0,0,0.7644
2.7965136069979053,0,0,1.1827356201171875,0,0,0.53508
2.797902199992677,0,0,1.1348515869140625,0,0,0.91728
2.7992898669908755,0,0,1.3263877197265623,0,0,-0.15288000000000002
2.8006793670065235,0,0,1.2401964599609374,0,0,0.6115200000000001
2.802063701004954,0,0,1.5155296508789062,0,0,0.99372
2.8034431640116964,0,0,1.2378022583007813,0,0,0.6115200000000001
2.8048224429949187,0,0,1.3359645263671873,0,0,0.6115200000000001
2.8062081100069918,0,0,1.2832920898437499,0,0,1.07016
2.8075954990054015,0,0,1.2617442749023438,0,0,0.53508
2.808981721987948,0,0,1.2976572998046874,0,0,0.22932
2.810368276986992,0,0,1.3311761230468748,0,0,0.7644
2.8117595369985793,0,0,1.3383587280273437,0,0,0.6115200000000001
2.813146130007226,0,0,1.3239935180664062,0,0,0.68796
2.814533297001617,0,0,1.3096283081054687,0,0,1.1465999999999998
2.815919741988182,0,0,1.0917559570312498,0,0,0.6115200000000001
2.8173060750123113,0,0,1.1444283935546875,0,0,0.53508
2.818693187000463,0,0,1.1540052001953125,0,0,0.84084
2.820085149985971,0,0,1.3048399047851562,0,0,0.91728
2.8214718909875955,0,0,1.3431471313476562,0,0,0.84084
2.82285911400686,0,0,1.6232687255859375,0,0,0.91728
2.824256724998122,0,0,1.3934253662109375,0,0,0.68796
2.8256431510089897,0,0,1.2689268798828124,0,0,0.7644
2.827031688997522,0,0,1.20667763671875,0,0,0.53508
2.828417985991109,0,0,1.3527239379882812,0,0,1.1465999999999998
2.8299018729885574,0,0,1.467645617675781,0,0,1.1465999999999998
2.8312891329987906,0,0,1.35990654296875,0,0,0.91728
2.832676096004434,0,0,1.6065093139648436,0,0,0.7644
2.8340637079963926,0,0,1.35990654296875,0,0,0.68796
2.8354491899954155,0,0,1.1563994018554686,0,0,0.68796
2.836835672002053,0,0,1.1013327636718748,0,0,0.84084
2.838374095998006,0,0,1.2856862915039062,0,0,1.07016
2.8397747999988496,0,0,1.3742717529296875,0,0,0.68796
2.841157132992521,0,0,1.3718775512695311,0,0,0.84084
2.8425471340015065,0,0,1.6160861206054686,0,0,0.84084
2.8439345420047175,0,0,1.3383587280273437,0,0,0.6115200000000001
2.8453221340023447,0,0,1.2689268798828124,0,0,0.84084
2.846709486999316,0,0,1.20667763671875,0,0,1.07016
2.8480969869997352,0,0,1.1420341918945311,0,0,0.99372
2.8494840239873156,0,0,1.3072341064453123,0,0,0.07644000000000001
2.8508711910108104,0,0,1.3479355346679687,0,0,0.3822
2.8522587470069993,0,0,1.5682020874023437,0,0,0.53508
2.8536467110097874,0,0,1.3623007446289062,0,0,0.45864
2.8550275070010684,0,0,1.189918225097656,0,0,0.99372
2.8564065450045746,0,0,1.197100830078125,0,0,0.84084
2.8577858970093075,0,0,1.2401964599609374,0,0,0.7644
2.8591743980068713,0,0,1.3623007446289062,0,0,0.15288000000000002
2.8605618239962496,0,0,1.465251416015625,0,0,0.53508
2.8619500279892236,0,0,1.2713210815429687,0,0,-9.172799999999999
2.8633386949950363,0,0,1.3048399047851562,0,0,0.68796
2.864725824998459,0,0,1.2425906616210938,0,0,1.1465999999999998
2.8661137699964456,0,0,1.1875240234375,0,0,0.6115200000000001
2.8675004550023004,0,0,1.2210428466796874,0,0,0.45864
2.86888765898766,0,0,1.2713210815429687,0,0,0.68796
2.8702755300037097,0,0,1.3479355346679687,0,0,0.7644
2.871662327001104,0,0,1.2904746948242187,0,0,0.84084
2.8730496969947126,0,0,1.4891934326171874,0,0,0.91728
2.874437049002154,0,0,1.3215993164062498,0,0,0.7644
2.875824457005365,0,0,1.2330138549804688,0,0,0.53508
2.877211623999756,0,0,1.1827356201171875,0,0,0.84084
2.8785988279851153,0,0,1.1659762084960936,0,0,1.1465999999999998
2.8799866430053953,0,0,1.4053963745117186,0,0,0.91728
2.8813740329933353,0,0,1.3335703247070312,0,0,0.68796
2.882771959004458,0,0,1.62805712890625,0,0,0.68796
2.8841664959909394,0,0,1.218648645019531,0,0,0.7644
2.885553700005403,0,0,1.0726023437499999,0,0,0.84084
2.8869409229955636,0,0,1.2521674682617188,0,0,0.84084
2.888328127010027,0,0,1.1875240234375,0,0,0.68796
2.889714571996592,0,0,1.2378022583007813,0,0,0.30576000000000003
2.8911016460042447,0,0,1.369483349609375,0,0,0.6115200000000001
2.89248938698438,0,0,1.599326708984375,0,0,0.91728
2.893877610011259,0,0,1.465251416015625,0,0,0.6115200000000001
2.895275127986679,0,0,1.2976572998046874,0,0,0.84084
2.8966628139896784,0,0,1.2234370483398436,0,0,1.07016
2.898052517994074,0,0,1.209071838378906,0,0,0.53508
2.8994377040071413,0,0,1.2665326782226562,0,0,0.0
2.900825166987488,0,0,1.3024457031249999,0,0,0.7644
2.902213149005547,0,0,1.484405029296875,0,0,0.91728
2.903600149002159,0,0,1.3934253662109375,0,0,0.53508
2.904987390007591,0,0,1.3024457031249999,0,0,0.91728
2.906374409009004,0,0,1.1420341918945311,0,0,0.84084
2.9077613539993763,0,0,1.0941501586914062,0,0,0.7644
2.9091489469865337,0,0,1.2521674682617188,0,0,0.7644
2.9105357799853664,0,0,1.446097802734375,0,0,0.91728
2.911923336010659,0,0,1.3263877197265623,0,0,0.7644
2.9133107629895676,0,0,1.426944189453125,0,0,0.99372
2.9146982439851854,0,0,1.2569558715820313,0,0,1.07016
2.9160856890084688,0,0,1.199495031738281,0,0,0.7644
2.917472875007661,0,0,1.2521674682617188,0,0,0.68796
2.918964521988528,0,0,1.1755530151367186,0,0,1.2994800000000002
2.920356985006947,0,0,1.3024457031249999,0,0,0.84084
2.9217441889923066,0,0,1.2904746948242187,0,0,0.6115200000000001
2.9231314299977385,0,0,1.4437036010742186,0,0,0.7644
2.924518634012202,0,0,1.180341418457031,0,0,0.6115200000000001
2.925907338008983,0,0,1.254561669921875,0,0,0.3822
2.9273082459985744,0,0,1.1133037719726562,0,0,0.6115200000000001
2.928696079994552,0,0,1.0821791503906248,0,0,0.99372
2.930084321007598,0,0,1.4628572143554686,0,0,0.53508
2.9314709510072134,0,0,1.407790576171875,0,0,0.6115200000000001
2.9328582659945823,0,0,1.47482822265625,0,0,0.84084
2.9342463219945785,0,0,1.2832920898437499,0,0,0.7644
2.935633526009042,0,0,1.3335703247070312,0,0,0.45864
2.937020693003433,0,0,1.2210428466796874,0,0,0.99372
2.938407785986783,0,0,1.1875240234375,0,0,0.6115200000000001
2.9397953049920034,0,0,1.2114660400390624,0,0,0.0
2.941190582991112,0,0,1.3623007446289062,0,0,0.07644000000000001
2.94257830499555,0,0,1.419761584472656,0,0,0.68796
2.9439653060107958,0,0,1.3263877197265623,0,0,0.91728
2.9453523620031774,0,0,1.4915876342773438,0,0,0.99372
2.9467393799859565,0,0,1.3215993164062498,0,0,0.53508
2.9481265289941803,0,0,1.0965443603515623,0,0,0.6115200000000001
2.9495137140038423,0,0,1.1085153686523437,0,0,0.68796
2.950901270000031,0,0,1.3646949462890625,0,0,0.7644
2.95237743598409,0,0,1.47482822265625,0,0,0.68796
2.953760954987956,0,0,1.47482822265625,0,0,0.68796
2.955143547995249,0,0,1.3479355346679687,0,0,1.2230400000000001
2.9565235300105996,0,0,1.1133037719726562,0,0,0.99372
2.957903604983585,0,0,1.0989385620117187,0,0,0.7644
2.95928256798652,0,0,1.1540052001953125,0,0,1.07016
2.9606613279902376,0,0,1.2569558715820313,0,0,0.68796
2.9620427360059693,0,0,1.4413093994140624,0,0,0.53508
2.963421199005097,0,0,1.5777788940429687,0,0,0.53508
2.9648003109905403,0,0,1.3263877197265623,0,0,0.7644
2.9661861440108623,0,0,1.216254443359375,0,0,0.6115200000000001
2.967574089008849,0,0,1.1659762084960936,0,0,0.7644
2.9689618489937857,0,0,1.2425906616210938,0,0,0.7644
2.9703627380076796,0,0,1.3263877197265623,0,0,0.68796
2.9718054969853256,0,0,1.3263877197265623,0,0,0.53508
2.97319277501083,0,0,1.5227122558593749,0,0,0.68796
2.974586664000526,0,0,1.2665326782226562,0,0,0.91728
2.9759726639895234,0,0,1.2401964599609374,0,0,0.7644
2.977359887008788,0,0,1.158793603515625,0,0,0.6115200000000001
2.978743071987992,0,0,1.0773907470703123,0,0,0.45864
2.980121850996511,0,0,1.3239935180664062,0,0,0.22932
2.9815006850112695,0,0,1.4149731811523436,0,0,0.6115200000000001
2.9828928700007964,0,0,1.6017209106445311,0,0,0.3822
2.9842801479971968,0,0,1.3024457031249999,0,0,0.84084
2.9856675190094393,0,0,1.2856862915039062,0,0,0.91728
2.9870547039899975,0,0,1.1875240234375,0,0,0.7644
2.9884417229914106,0,0,1.1133037719726562,0,0,0.6115200000000001
2.9898343159875367,0,0,1.3455413330078123,0,0,-20
2.9912519269855693,0,0,1.39821376953125,0,0,0.6115200000000001
2.9926393530040514,0,0,1.39821376953125,0,0,0.6115200000000001
2.9940269090002403,0,0,1.3910311645507811,0,0,0.84084
2.9954137059976347,0,0,1.4221557861328125,0,0,1.1465999999999998
2.9968007059942465,0,0,1.3096283081054687,0,0,0.91728
2.998188798985211,0,0,1.1635820068359375,0,0,0.68796
2.9995882810035255,0,0,1.0917559570312498,0,0,0.6115200000000001
3.000975967006525,0,0,1.4341267944335936,0,0,1.07016
3.0023631890071556,0,0,1.4245499877929686,0,0,0.7644
3.003750226984266,0,0,1.6328455322265625,0,0,0.6115200000000001
3.0051371339941397,0,0,1.3862427612304686,0,0,0.91728
3.006523930991534,0,0,1.3287819213867187,0,0,0.30576000000000003
3.0079107089841273,0,0,1.2210428466796874,0,0,0.84084
3.009297690994572,0,0,1.2234370483398436,0,0,1.1465999999999998
3.0106859510124195,0,0,1.2785036865234374,0,0,0.84084
3.0120734139927663,0,0,1.37906015625,0,0,0.45864
3.0134599879966117,0,0,1.6328455322265625,0,0,0.91728
3.0148552850005217,0,0,1.24498486328125,0,0,0.68796
3.016245192993665,0,0,1.218648645019531,0,0,0.7644
3.0176318410085514,0,0,1.1611878051757811,0,0,0.91728
3.019018897000933,0,0,1.199495031738281,0,0,0.99372
3.020406285999343,0,0,1.2665326782226562,0,0,0.30576000000000003
3.0217927870107815,0,0,1.3814543579101561,0,0,0.68796
3.023180230986327,0,0,1.455674609375,0,0,0.45864
3.024575860996265,0,0,1.3000515014648437,0,0,0.6115200000000001
3.02603123098379,0,0,1.3359645263671873,0,0,0.99372
3.0274608049949165,0,0,1.180341418457031,0,0,1.2230400000000001
3.028858212986961,0,0,1.1516109985351561,0,0,0.45864
3.030249545990955,0,0,1.2521674682617188,0,0,0.0
3.0316383430035785,0,0,1.2378022583007813,0,0,0.3822
3.0330257689929567,0,0,1.5155296508789062,0,0,0.84084
3.034413102985127,0,0,1.3072341064453123,0,0,0.84084
3.0358102879836224,0,0,1.2330138549804688,0,0,1.1465999999999998
3.0372111219912767,0,0,1.149216796875,0,0,1.07016
3.0385938260005787,0,0,1.3623007446289062,0,0,0.53508
3.0399725860042963,0,0,1.2306196533203124,0,0,0.6115200000000001
3.0413517899869476,0,0,1.3910311645507811,0,0,0.68796
3.0427416230086237,0,0,1.3335703247070312,0,0,0.68796
3.044128549983725,0,0,1.3263877197265623,0,0,0.68796
3.0455164760060143,0,0,1.2378022583007813,0,0,1.07016
3.046903698996175,0,0,1.149216796875,0,0,0.91728
3.0482905140088405,0,0,1.177947216796875,0,0,0.6115200000000001
3.0496776069921907,0,0,1.20667763671875,0,0,1.37592
3.0510650330106728,0,0,1.446097802734375,0,0,0.68796
3.052451588999247,0,0,1.3838485595703125,0,0,0.6115200000000001
3.053839608008275,0,0,1.3718775512695311,0,0,0.68796
3.0552385519840755,0,0,1.3551181396484375,0,0,0.6115200000000001
3.0566193310078233,0,0,1.2785036865234374,0,0,0.6115200000000001
3.0580248860060237,0,0,1.197100830078125,0,0,0.91728
3.0594287010026164,0,0,1.1276689819335937,0,0,0.84084
3.0608153310022317,0,0,1.3479355346679687,0,0,0.68796
3.062203406007029,0,0,1.3215993164062498,0,0,0.6115200000000001
3.063589053985197,0,0,1.43652099609375,0,0,0.6115200000000001
3.06497496200609,0,0,1.2378022583007813,0,0,0.7644
3.066361222008709,0,0,1.3120225097656248,0,0,0.45864
3.067747444001725,0,0,1.199495031738281,0,0,1.07016
3.069133740995312,0,0,1.2114660400390624,0,0,0.84084
3.070520186010981,0,0,1.2808978881835937,0,0,0.0
3.071953870996367,0,0,1.2785036865234374,0,0,0.68796
3.073337112000445,0,0,1.3000515014648437,0,0,0.68796
3.0747197970049456,0,0,1.4317325927734375,0,0,0.68796
3.0761185009905603,0,0,1.3168109130859373,0,0,0.91728
3.0774989089986775,0,0,1.0845733520507812,0,0,0.84084
3.0788792799867224,0,0,1.1755530151367186,0,0,0.68796
3.080259168986231,0,0,1.197100830078125,0,0,0.45864
3.0816380589967594,0,0,1.3120225097656248,0,0,0.68796
3.0830189480038825,0,0,1.4101847778320311,0,0,0.6115200000000001
3.084398411010625,0,0,1.5083470458984374,0,0,1.07016
3.08577718999004,0,0,1.235408056640625,0,0,0.84084
3.0871572089963593,0,0,1.1659762084960936,0,0,0.84084
3.0885364130081143,0,0,1.3048399047851562,0,0,0.7644
3.0899518390069716,0,0,1.2306196533203124,0,0,1.37592
3.0913398019911256,0,0,1.4915876342773438,0,0,0.84084
3.0927271909895353,0,0,1.4341267944335936,0,0,0.84084
3.0941174140025396,0,0,1.4915876342773438,0,0,0.84084
3.0955033589852974,0,0,1.2521674682617188,0,0,0.68796
3.096890099986922,0,0,1.1611878051757811,0,0,0.53508
3.0982777669851203,0,0,1.149216796875,0,0,0.53508
3.09966428601183,0,0,1.1133037719726562,0,0,1.1465999999999998
3.1010507119935937,0,0,1.3431471313476562,0,0,0.68796
3.102446915989276,0,0,1.2785036865234374,0,0,0.53508
3.103826120001031,0,0,1.4987702392578124,0,0,0.7644
3.1052048609999474,0,0,1.35990654296875,0,0,0.53508
3.106591343006585,0,0,1.3263877197265623,0,0,0.53508
3.107978120999178,0,0,1.1851298217773436,0,0,0.6115200000000001
3.109364269999787,0,0,1.3192051147460937,0,0,0.7644
3.110752621985739,0,0,1.3646949462890625,0,0,-9.555
3.112140974000795,0,0,1.3718775512695311,0,0,0.30576000000000003
3.113527123001404,0,0,1.426944189453125,0,0,0.99372
3.1149139929912053,0,0,1.3024457031249999,0,0,0.7644
3.1163069939939305,0,0,1.3120225097656248,0,0,1.07016
3.1176936609845143,0,0,1.2521674682617188,0,0,0.91728
3.119079772004625,0,0,1.20667763671875,0,0,0.7644
3.120464976003859,0,0,1.3215993164062498,0,0,0.6115200000000001
3.1218512909836136,0,0,1.2928688964843749,0,0,0.68796
3.1232379210123327,0,0,1.3646949462890625,0,0,0.84084
3.1246236989973113,0,0,1.637633935546875,0,0,0.68796
3.1260101810039487,0,0,1.2521674682617188,0,0,1.1465999999999998
3.1273957369849086,0,0,1.1180921752929687,0,0,0.7644
3.1287834779941477,0,0,1.1252747802734375,0,0,0.68796
3.1301693489949685,0,0,1.177947216796875,0,0,1.1465999999999998
3.13155529400683,0,0,1.1228805786132812,0,0,1.07016
3.132940609008074,0,0,1.3000515014648437,0,0,0.84084
3.1343269429926295,0,0,1.4891934326171874,0,0,0.99372
3.1357120540051255,0,0,1.2952630981445312,0,0,0.7644
3.137097647006158,0,0,1.2617442749023438,0,0,0.6115200000000001
3.1384824620035943,0,0,1.1444283935546875,0,0,0.53508
3.139866796002025,0,0,1.1755530151367186,0,0,1.07016
3.1412664630042855,0,0,1.369483349609375,0,0,0.7644
3.1426560370018706,0,0,1.3431471313476562,0,0,0.68796
3.1440431119990535,0,0,1.5418658691406248,0,0,0.68796
3.1454291859990917,0,0,1.3287819213867187,0,0,0.68796
3.1468349829956423,0,0,1.2234370483398436,0,0,0.7644
3.148223389987834,0,0,1.2114660400390624,0,0,0.7644
3.1496107800048776,0,0,1.218648645019531,0,0,0.45864
3.1509988729958422,0,0,1.3646949462890625,0,0,0.0
3.1523867989890277,0,0,1.4987702392578124,0,0,0.30576000000000003
3.1537740399944596,0,0,1.6304513305664061,0,0,0.99372
3.155161817994667,0,0,1.3646949462890625,0,0,0.91728
3.156548652012134,0,0,1.2761094848632812,0,0,0.84084
3.157936800009338,0,0,1.199495031738281,0,0,1.07016
3.159323133993894,0,0,1.0869675537109373,0,0,0.99372
3.1607103749993257,0,0,1.2282254516601563,0,0,0.15288000000000002
3.162098375003552,0,0,1.3383587280273437,0,0,0.7644
3.16348480200395,0,0,1.3766659545898436,0,0,0.84084
3.164871246990515,0,0,1.3575123413085937,0,0,0.91728
3.166259394987719,0,0,1.3072341064453123,0,0,0.99372
3.167645784007618,0,0,1.0821791503906248,0,0,1.07016
3.1690323220100254,0,0,1.2042834350585936,0,0,0.84084
3.1704196739883628,0,0,1.3215993164062498,0,0,1.2230400000000001
3.1718068039917853,0,0,1.2928688964843749,0,0,0.91728
3.1731936009891797,0,0,1.2785036865234374,0,0,0.53508
3.174588378984481,0,0,1.455674609375,0,0,0.91728
3.1759760639979504,0,0,1.2737152832031249,0,0,0.7644
3.1773630270035937,0,0,1.1444283935546875,0,0,0.6115200000000001
3.1787504350068048,0,0,1.1180921752929687,0,0,0.91728
3.1801370100001805,0,0,1.2425906616210938,0,0,0.7644
3.181523676990764,0,0,1.2976572998046874,0,0,0.84084
3.182910936011467,0,0,1.3383587280273437,0,0,0.45864
3.1842978069907986,0,0,1.5179238525390624,0,0,0.84084
3.185684306983603,0,0,1.2713210815429687,0,0,0.53508
3.187074010987999,0,0,1.2856862915039062,0,0,0.3822
3.188460956007475,0,0,1.3718775512695311,0,0,0.91728
3.189863678999245,0,0,1.149216796875,0,0,0.6115200000000001
3.1912540679913945,0,0,1.3766659545898436,0,0,0.0
3.1926412349857856,0,0,1.3239935180664062,0,0,0.68796
3.194028456986416,0,0,1.4772224243164063,0,0,0.68796
3.195420717005618,0,0,1.4006079711914061,0,0,0.45864
3.196808273001807,0,0,1.2785036865234374,0,0,0.99372
3.198196476994781,0,0,1.0917559570312498,0,0,0.7644
3.1995835329871625,0,0,1.2378022583007813,0,0,0.84084
3.2009705700038467,0,0,1.2617442749023438,0,0,0.0
3.2023575709899887,0,0,1.3048399047851562,0,0,0.7644
3.203744366997853,0,0,1.6112977172851561,0,0,1.07016
3.205131144990446,0,0,1.5227122558593749,0,0,0.84084
3.2065185719984584,0,0,1.120486376953125,0,0,1.07016
3.2079051090113353,0,0,1.1013327636718748,0,0,0.99372
3.209292627987452,0,0,1.189918225097656,0,0,0.84084
3.210679832001915,0,0,1.1755530151367186,0,0,0.6115200000000001
3.212070517009124,0,0,1.35990654296875,0,0,0.99372
3.213458129001083,0,0,1.2976572998046874,0,0,0.84084
3.2148457219882403,0,0,1.4820108276367188,0,0,0.7644
3.2162326670077164,0,0,1.1252747802734375,0,0,1.07016
3.2176200000103563,0,0,1.149216796875,0,0,0.7644
3.2190072599914856,0,0,1.1923124267578125,0,0,0.6115200000000001
3.220394222997129,0,0,1.0965443603515623,0,0,1.37592
3.2217812050075736,0,0,1.4125789794921875,0,0,0.84084
3.223168872005772,0,0,1.24498486328125,0,0,0.68796
3.2245552979875356,0,0,1.467645617675781,0,0,0.91728
3.2259428539837245,0,0,1.2952630981445312,0,0,0.68796
3.2273300210072193,0,0,1.3527239379882812,0,0,0.68796
3.228717391990358,0,0,1.2473790649414063,0,0,1.1465999999999998
3.2301056520082057,0,0,1.2234370483398436,0,0,0.45864
3.2314921710058115,0,0,1.22583125,0,0,0.22932
3.232889818988042,0,0,1.3407529296874998,0,0,0.22932
3.234285466984147,0,0,1.4939818359375,0,0,-9.01992
3.235673504997976,0,0,1.3215993164062498,0,0,0.7644
3.237060912011657,0,0,1.3910311645507811,0,0,0.7644
3.238448246003827,0,0,1.1061211669921875,0,0,1.07016
3.239835006010253,0,0,1.189918225097656,0,0,0.6115200000000001
3.2412220429978333,0,0,1.218648645019531,0,0,0.15288000000000002
3.2426099320000503,0,0,1.3311761230468748,0,0,0.68796
3.243996839999454,0,0,1.3718775512695311,0,0,0.6115200000000001
3.24538354401011,0,0,1.4125789794921875,0,0,0.91728
3.2467885809892323,0,0,1.3527239379882812,0,0,0.91728
3.2481759889924433,0,0,1.0797849487304687,0,0,0.6115200000000001
3.24956239698804,0,0,1.2401964599609374,0,0,0.6115200000000001
3.250949823006522,0,0,1.3479355346679687,0,0,0.68796
3.2523366939858533,0,0,1.5251064575195312,0,0,0.84084
3.2537233239854686,0,0,1.467645617675781,0,0,0.91728
3.255110934987897,0,0,1.467645617675781,0,0,0.99372
3.2564980470051523,0,0,1.2856862915039062,0,0,1.07016
3.2578859179920983,0,0,1.1947066284179686,0,0,0.53508
3.259272658993723,0,0,1.2425906616210938,0,0,0.53508
3.2606597889971454,0,0,1.3168109130859373,0,0,1.2994800000000002
3.2620477709861007,0,0,1.3359645263671873,0,0,0.84084
3.263434271008009,0,0,1.3335703247070312,0,0,0.53508
3.2648220300034154,0,0,1.5849614990234373,0,0,0.7644
3.266210197005421,0,0,1.3527239379882812,0,0,0.3822
3.267596493999008,0,0,1.199495031738281,0,0,0.68796
3.2689834389893804,0,0,1.2593500732421874,0,0,0.99372
3.270370512997033,0,0,1.2401964599609374,0,0,0.6115200000000001
3.2717574579874054,0,0,1.2880804931640624,0,0,0.22932
3.2731449590064585,0,0,1.3670891479492187,0,0,0.0
3.2745362549903803,0,0,1.5705962890624998,0,0,0.7644
3.275936069985619,0,0,1.3479355346679687,0,0,-9.01992
3.2775438079843298,0,0,1.2234370483398436,0,0,0.6115200000000001
3.278942548990017,0,0,1.1659762084960936,0,0,0.91728
3.280330289999256,0,0,1.2952630981445312,0,0,0.53508
3.2817174019874074,0,0,1.2569558715820313,0,0,0.07644000000000001
3.283105050009908,0,0,1.465251416015625,0,0,0.30576000000000003
3.2844918099872302,0,0,1.5729904907226562,0,0,0.7644
3.2858780509850476,0,0,1.37906015625,0,0,0.68796
3.287257180985762,0,0,1.448492004394531,0,0,0.99372
3.288635756005533,0,0,1.2521674682617188,0,0,0.6115200000000001
3.2900215889967512,0,0,1.22583125,0,0,0.6115200000000001
3.2914157749910373,0,0,1.254561669921875,0,0,0.45864
3.292803719989024,0,0,1.2737152832031249,0,0,0.84084
3.294192256988026,0,0,1.3000515014648437,0,0,0.99372
3.295578554010717,0,0,1.3359645263671873,0,0,0.53508
3.296965702000307,0,0,1.3551181396484375,0,0,1.1465999999999998
3.2983549060008954,0,0,1.3239935180664062,0,0,0.7644
3.2997421470063273,0,0,1.2737152832031249,0,0,0.68796
3.3011287589906715,0,0,1.158793603515625,0,0,1.2994800000000002
3.302511593006784,0,0,1.3239935180664062,0,0,1.2230400000000001
3.303890223003691,0,0,1.3287819213867187,0,0,0.68796
3.3052690559998155,0,0,1.637633935546875,0,0,1.07016
3.3066565379849635,0,0,1.2737152832031249,0,0,0.3822
3.308042946009664,0,0,1.3431471313476562,0,0,0.53508
3.309429001994431,0,0,1.2042834350585936,0,0,0.7644
3.3108151129854377,0,0,1.1563994018554686,0,0,0.53508
3.3122012990061194,0,0,1.20667763671875,0,0,0.68796
3.3135868179961108,0,0,1.3575123413085937,0,0,0.53508
3.3149731520097703,0,0,1.5586252807617187,0,0,0.6115200000000001
3.316358484997181,0,0,1.24498486328125,0,0,0.53508
3.317744022991974,0,0,1.2306196533203124,0,0,0.53508
3.3191304680076428,0,0,1.216254443359375,0,0,1.1465999999999998
3.3205165049876086,0,0,1.1659762084960936,0,0,0.68796
3.321910024009412,0,0,1.2521674682617188,0,0,0.22932
3.3233026539965067,0,0,1.3958195678710936,0,0,0.30576000000000003
3.3246901909878943,0,0,1.4772224243164063,0,0,0.7644
3.3260783400037326,0,0,1.4341267944335936,0,0,0.6115200000000001
3.3274643209879287,0,0,1.2713210815429687,0,0,0.91728
3.3288518030021805,0,0,1.0869675537109373,0,0,0.91728
3.3302395440114196,0,0,1.2234370483398436,0,0,0.84084
3.3316259710118175,0,0,1.2928688964843749,0,0,0.84084
3.3330130639951676,0,0,1.2976572998046874,0,0,0.99372
3.3343956010066904,0,0,1.2904746948242187,0,0,0.7644
3.3357743420056067,0,0,1.4413093994140624,0,0,0.99372
3.3371534910111222,0,0,1.3048399047851562,0,0,0.99372
3.3385404169966932,0,0,1.1276689819335937,0,0,0.53508
3.3399275470001157,0,0,1.235408056640625,0,0,0.53508
3.341314824996516,0,0,1.1252747802734375,0,0,1.2230400000000001
3.3427019549999386,0,0,1.35990654296875,0,0,0.91728
3.3440944559988566,0,0,1.3575123413085937,0,0,0.84084
3.345481436990667,0,0,1.4867992309570313,0,0,0.84084
3.3468684009858407,0,0,1.2138602416992186,0,0,0.99372
3.348254863987677,0,0,1.2785036865234374,0,0,0.7644
3.349649623996811,0,0,1.197100830078125,0,0,0.84084
3.351031067984877,0,0,1.2042834350585936,0,0,0.6115200000000001
3.3524099760106765,0,0,1.446097802734375,0,0,0.45864
3.353788568987511,0,0,1.3910311645507811,0,0,0.30576000000000003
3.355176754994318,0,0,1.4820108276367188,0,0,0.84084
3.356563125998946,0,0,1.218648645019531,0,0,0.6115200000000001
3.357949903991539,0,0,1.3575123413085937,0,0,0.91728
3.3593349599977955,0,0,1.0917559570312498,0,0,0.99372
3.3607205529988278,0,0,1.2282254516601563,0,0,0.3822
3.3621077569841873,0,0,1.3263877197265623,0,0,0.0
3.363492589996895,0,0,1.2976572998046874,0,0,0.45864
3.3648846829892136,0,0,1.4173673828125,0,0,0.53508
3.366271720995428,0,0,1.3862427612304686,0,0,0.7644
3.3676574249984697,0,0,1.4221557861328125,0,0,0.91728
3.3690431659924798,0,0,1.0845733520507812,0,0,1.1465999999999998
3.3704290369933005,0,0,1.1563994018554686,0,0,0.68796
3.371814963000361,0,0,1.199495031738281,0,0,0.99372
3.373201186012011,0,0,1.3742717529296875,0,0,0.91728
3.3745869820122607,0,0,1.4772224243164063,0,0,0.84084
3.3759726120042615,0,0,1.5897499023437498,0,0,0.91728
3.3773580199922435,0,0,1.3766659545898436,0,0,0.68796
3.378744168992853,0,0,1.2042834350585936,0,0,0.68796
3.3801297059981152,0,0,1.1037269653320312,0,0,0.68796
3.3815151320013683,0,0,1.2808978881835937,0,0,1.2994800000000002
3.3829008920001797,0,0,1.3144167114257812,0,0,1.2994800000000002
3.3842865400074515,0,0,1.3718775512695311,0,0,0.7644
3.3856718000024557,0,0,1.465251416015625,0,0,0.68796
3.387057782005286,0,0,1.1755530151367186,0,0,0.6115200000000001
3.388443375006318,0,0,1.2737152832031249,0,0,0.91728
3.3898356900026556,0,0,1.2761094848632812,0,0,0.53508
3.39122218999546,0,0,1.3479355346679687,0,0,0.6115200000000001
3.392610209004488,0,0,1.43652099609375,0,0,0.6115200000000001
3.3939959130075295,0,0,1.4891934326171874,0,0,0.6115200000000001
3.3953812469844706,0,0,1.608903515625,0,0,0.6115200000000001
3.3967671550053637,0,0,1.3215993164062498,0,0,0.84084
3.3981543589907233,0,0,1.2976572998046874,0,0,0.84084
3.3995390629861504,0,0,1.1372457885742187,0,0,1.07016
3.400925174006261,0,0,1.20667763671875,0,0,0.53508
3.4023106189852115,0,0,1.2856862915039062,0,0,-9.32568
3.4036981009994633,0,0,1.39821376953125,0,0,0.22932
3.4050843979930505,0,0,1.5035586425781249,0,0,0.6115200000000001
3.4064707680081483,0,0,1.2473790649414063,0,0,0.53508
3.4078658240032382,0,0,1.3479355346679687,0,0,1.07016
3.4092584169993643,0,0,1.3407529296874998,0,0,0.99372
3.41064652899513,0,0,1.180341418457031,0,0,0.99372
3.412033028987935,0,0,1.16837041015625,0,0,1.07016
3.4134183439891785,0,0,1.4221557861328125,0,0,1.1465999999999998
3.4148047149938066,0,0,1.388636962890625,0,0,0.7644
3.416190307994839,0,0,1.675941162109375,0,0,0.99372
3.417576048988849,0,0,1.2952630981445312,0,0,0.99372
3.418978086003335,0,0,1.2234370483398436,0,0,0.53508
3.4203879380074795,0,0,1.1540052001953125,0,0,0.6115200000000001
3.4217754380078986,0,0,1.218648645019531,0,0,0.91728
3.4231637909833807,0,0,1.2761094848632812,0,0,0.99372
3.4245505500002764,0,0,1.2808978881835937,0,0,0.99372
3.4259368279890623,0,0,1.4963760375976562,0,0,0.91728
3.4273252729908563,0,0,1.3192051147460937,0,0,0.99372
3.42871107000974,0,0,1.2904746948242187,0,0,0.45864
3.4300981999840587,0,0,1.35990654296875,0,0,0.6115200000000001
3.4314846449997276,0,0,1.2210428466796874,0,0,0.7644
3.432870088989148,0,0,1.2880804931640624,0,0,0.30576000000000003
3.4342559420038015,0,0,1.5107412475585937,0,0,0.45864
3.435641885997029,0,0,1.5753846923828123,0,0,0.68796
3.437027590989601,0,0,1.4867992309570313,0,0,0.68796
3.438413202005904,0,0,1.2234370483398436,0,0,0.68796
3.4397986650001258,0,0,1.2018892333984375,0,0,0.84084
3.4411842029949185,0,0,1.235408056640625,0,0,0.91728
3.4425698879931588,0,0,1.2904746948242187,0,0,0.22932
3.4439558149897493,0,0,1.3215993164062498,0,0,0.68796
3.4453413889859803,0,0,1.5298948608398437,0,0,0.7644
3.446727278002072,0,0,1.4006079711914061,0,0,0.84084
3.4481132790097035,0,0,1.3431471313476562,0,0,1.07016
3.449498945992673,0,0,1.139639990234375,0,0,0.91728
3.4508832239953335,0,0,0.9720458740234375,0,0,0.53508
3.45229250198463,0,0,1.0845733520507812,0,0,0.68796
3.4536958539974876,0,0,1.3024457031249999,0,0,1.2994800000000002
3.4550861319876276,0,0,1.2378022583007813,0,0,0.91728
3.4564737800101284,0,0,1.5035586425781249,0,0,0.91728
3.4578792059910484,0,0,1.4628572143554686,0,0,1.2994800000000002
3.4592583919875324,0,0,1.3215993164062498,0,0,0.53508
3.460637818003306,0,0,1.1851298217773436,0,0,0.53508
3.462024078005925,0,0,1.1947066284179686,0,0,0.99372
3.463411022996297,0,0,1.3479355346679687,0,0,0.53508
3.464824522990966,0,0,1.3215993164062498,0,0,0.53508
3.4662306160025764,0,0,1.448492004394531,0,0,0.91728
3.4676172269973904,0,0,1.3383587280273437,0,0,0.84084
3.4690046159958,0,0,1.2521674682617188,0,0,0.45864
3.470392654009629,0,0,1.158793603515625,0,0,0.84084
3.47177963599097,0,0,1.16837041015625,0,0,0.91728
3.473166340001626,0,0,1.2904746948242187,0,0,0.53508
3.474553451000247,0,0,1.3048399047851562,0,0,0.45864
3.4759409140096977,0,0,1.6711527587890624,0,0,0.7644
3.47732767398702,0,0,1.3048399047851562,0,0,0.7644
3.4787153780052904,0,0,1.3120225097656248,0,0,1.07016
3.480102192988852,0,0,1.1827356201171875,0,0,0.99372
3.481488896999508,0,0,1.1228805786132812,0,0,0.7644
3.4828769529995043,0,0,1.369483349609375,0,0,0.07644000000000001
3.4842639910057187,0,0,1.3311761230468748,0,0,0.84084
3.4856507499935105,0,0,1.4508862060546874,0,0,0.84084
3.487037935992703,0,0,1.6112977172851561,0,0,0.84084
3.4884245099965483,0,0,1.3527239379882812,0,0,0.91728
3.489827529003378,0,0,1.1276689819335937,0,0,0.6115200000000001
3.491215826012194,0,0,1.120486376953125,0,0,0.6115200000000001
3.4926030109927524,0,0,1.2593500732421874,0,0,0.53508
3.4939902889891528,0,0,1.4939818359375,0,0,0.7644
3.495381140994141,0,0,1.5179238525390624,0,0,0.91728
3.4967780860024504,0,0,1.5370774658203123,0,0,0.91728
3.498166159988614,0,0,1.2976572998046874,0,0,1.1465999999999998
3.4995514570036903,0,0,1.1707646118164061,0,0,0.68796
3.5009391799976584,0,0,1.3670891479492187,0,0,0.45864
3.502327105990844,0,0,1.2665326782226562,0,0,1.45236
3.503713716985658,0,0,1.3814543579101561,0,0,0.84084
3.5051000329840463,0,0,1.3311761230468748,0,0,-9.01992
3.5064886629988905,0,0,1.5777788940429687,0,0,0.53508
3.5078759960015304,0,0,1.3144167114257812,0,0,0.84084
3.5092625340039376,0,0,1.2018892333984375,0,0,0.84084
3.5106495159852784,0,0,1.158793603515625,0,0,0.68796
3.5120366830087733,0,0,1.0989385620117187,0,0,0.68796
3.5134237009915523,0,0,1.3623007446289062,0,0,0.3822
3.514810535009019,0,0,1.3359645263671873,0,0,0.07644000000000001
3.516197775985347,0,0,1.2976572998046874,0,0,0.91728
3.5175847949867602,0,0,1.197100830078125,0,0,0.91728
3.518971869983943,0,0,1.5275006591796874,0,0,0.99372
3.520358981011668,0,0,1.0893617553710937,0,0,1.07016
3.5217456110112835,0,0,1.1827356201171875,0,0,0.68796
3.5231330189853907,0,0,1.3335703247070312,0,0,0.30576000000000003
3.524526371009415,0,0,1.3766659545898436,0,0,0.53508
3.525942796986783,0,0,1.24498486328125,0,0,0.45864
3.5273945739900228,0,0,1.2306196533203124,0,0,0.84084
3.5288929250091314,0,0,1.350329736328125,0,0,0.68796
3.5302877209906,0,0,1.2282254516601563,0,0,0.68796
3.531675276986789,0,0,1.2521674682617188,0,0,0.84084
3.5330628330120817,0,0,1.3742717529296875,0,0,0.07644000000000001
3.534450184990419,0,0,1.3455413330078123,0,0,0.7644
3.5358370379835833,0,0,1.3670891479492187,0,0,0.7644
3.537224167987006,0,0,1.2880804931640624,0,0,0.84084
3.53860648299451,0,0,1.3814543579101561,0,0,1.2230400000000001
3.540003556990996,0,0,1.3455413330078123,0,0,0.68796
3.541383058007341,0,0,1.1324573852539062,0,0,-9.32568
3.542813704989385,0,0,1.0726023437499999,0,0,0.84084
3.544201020995388,0,0,1.5107412475585937,0,0,1.07016
3.545588058012072,0,0,1.4125789794921875,0,0,0.84084
3.546975039993413,0,0,1.5370774658203123,0,0,0.68796
3.548362002999056,0,0,1.2569558715820313,0,0,0.6115200000000001
3.549748521996662,0,0,1.1659762084960936,0,0,0.6115200000000001
3.551135929999873,0,0,1.0941501586914062,0,0,0.6115200000000001
