Time,AccelX1,AccelY1,AccelZ1,AccelX2,AccelY2,AccelZ2
5.351990694180131e-06,0,0,1.3383587280273437,0,0,0.7644
0.0032477389904670417,0,0,1.2832920898437499,0,0,0.6115200000000001
0.006753475987352431,0,0,1.2114660400390624,0,0,0.84084
0.010077046987134963,0,0,1.43652099609375,0,0,0.7644
0.013286731002153829,0,0,1.2330138549804688,0,0,0.91728
0.01639550901018083,0,0,1.1563994018554686,0,0,0.99372
0.01949450999381952,0,0,1.2234370483398436,0,0,1.68168
0.022594640002353117,0,0,1.5275006591796874,0,0,0.68796
0.02612444999977015,0,0,1.0438719238281249,0,0,0.53508
0.029573111998615786,0,0,1.2904746948242187,0,0,1.2230400000000001
0.03275362998829223,0,0,1.4030021728515625,0,0,0.30576000000000003
0.0359942399954889,0,0,1.0414777221679687,0,0,0.53508
0.0391090179909952,0,0,1.1013327636718748,0,0,0.6115200000000001
0.04222594399470836,0,0,1.4006079711914061,0,0,0.15288000000000002
0.04534277701168321,0,0,1.5514426757812498,0,0,0.91728
0.04845764799392782,0,0,1.2521674682617188,0,0,0.68796
0.05160672101192176,0,0,1.177947216796875,0,0,0.7644
0.05472811000072397,0,0,1.0821791503906248,0,0,0.99372
0.05784231401048601,0,0,1.20667763671875,0,0,0.84084
0.06095740699674934,0,0,1.3239935180664062,0,0,0.99372
0.0640753699990455,0,0,1.235408056640625,0,0,0.91728
0.0671911480021663,0,0,1.1707646118164061,0,0,0.84084
0.07030505500733852,0,0,1.0989385620117187,0,0,0.45864
0.07354501698864624,0,0,1.3958195678710936,0,0,1.07016
0.0767478859925177,0,0,1.5658078857421873,0,0,0.99372
0.07986364600947127,0,0,1.235408056640625,0,0,0.91728
0.0829817570047453,0,0,1.3718775512695311,0,0,0.84084
0.08619536701007746,0,0,1.6208745239257811,0,0,0.45864
0.08928362600272521,0,0,1.1372457885742187,0,0,0.53508
0.09208701900206506,0,0,1.1707646118164061,0,0,0.99372
0.09488598600728437,0,0,1.4053963745117186,0,0,0.7644
0.09768421199987642,0,0,1.6615759521484375,0,0,0.84084
0.10048173399991356,0,0,1.1707646118164061,0,0,0.68796
0.10327875701477751,0,0,1.2521674682617188,0,0,0.7644
0.10607603800599463,0,0,1.350329736328125,0,0,0.68796
0.10887195001123473,0,0,1.177947216796875,0,0,0.3822
0.1117064350110013,0,0,1.0917559570312498,0,0,0.6115200000000001
0.11450427200179547,0,0,1.37906015625,0,0,0.7644
0.11738975599291734,0,0,1.4820108276367188,0,0,0.53508
0.12023555600899272,0,0,1.3335703247070312,0,0,0.53508
0.12302037500194274,0,0,1.2497732666015624,0,0,0.84084
0.12581737799337134,0,0,1.3479355346679687,0,0,0.68796
0.12867589999223128,0,0,1.426944189453125,0,0,1.07016
0.13146486700861715,0,0,1.0726023437499999,0,0,0.84084
0.13425338998786174,0,0,1.3335703247070312,0,0,0.30576000000000003
0.13704054200206883,0,0,1.3120225097656248,0,0,0.91728
0.1398276010004338,0,0,1.1563994018554686,0,0,0.68796
0.1426137530070264,0,0,1.1324573852539062,0,0,0.3822
0.14540092399693094,0,0,1.39821376953125,0,0,0.6115200000000001
0.14818890899186954,0,0,1.438915197753906,0,0,0.6115200000000001
0.15097457999945618,0,0,1.2617442749023438,0,0,0.7644
0.15375797299202532,0,0,1.0773907470703123,0,0,1.2230400000000001
0.1567323449999094,0,0,1.4508862060546874,0,0,0.6115200000000001
0.15996495500439778,0,0,1.216254443359375,0,0,0.68796
0.16275679200771265,0,0,1.2306196533203124,0,0,0.53508
0.16570785001385957,0,0,1.24498486328125,0,0,0.91728
0.16851722399587743,0,0,1.3192051147460937,0,0,0.99372
0.17129948700312525,0,0,1.0749965454101562,0,0,0.7644
0.17410217600991018,0,0,1.0821791503906248,0,0,-9.555
0.1769238089909777,0,0,1.429338391113281,0,0,1.07016
0.1797774420119822,0,0,1.426944189453125,0,0,0.99372
0.18257572400034405,0,0,1.3623007446289062,0,0,0.3822
0.18537481999373995,0,0,1.197100830078125,0,0,0.3822
0.1881920649902895,0,0,1.4413093994140624,0,0,0.45864
0.19125193599029444,0,0,1.1540052001953125,0,0,0.68796
0.1943739170092158,0,0,1.1947066284179686,0,0,0.68796
0.19749106600647792,0,0,1.4867992309570313,0,0,0.99372
0.20060812099836767,0,0,1.448492004394531,0,0,1.1465999999999998
0.20372510299785063,0,0,1.2497732666015624,0,0,0.7644
0.2068436400149949,0,0,1.2880804931640624,0,0,1.07016
0.2099592509912327,0,0,1.5251064575195312,0,0,0.6115200000000001
0.21307432500179857,0,0,1.3766659545898436,0,0,0.91728
0.21619069599546492,0,0,1.2114660400390624,0,0,0.0
0.2193020289996639,0,0,1.2737152832031249,0,0,0.99372
0.222427158994833,0,0,1.1875240234375,0,0,0.84084
0.22554686199873686,0,0,1.3239935180664062,0,0,0.99372
0.2286563809902873,0,0,1.467645617675781,0,0,0.84084
0.23178936299518682,0,0,1.3646949462890625,0,0,1.07016
0.2349068440089468,0,0,1.0749965454101562,0,0,0.0
0.238022252015071,0,0,1.24498486328125,0,0,0.7644
0.2411369740148075,0,0,1.39821376953125,0,0,0.6115200000000001
0.2442529549880419,0,0,1.2473790649414063,0,0,0.15288000000000002
0.2473655299982056,0,0,1.1563994018554686,0,0,0.15288000000000002
0.250505603995407,0,0,1.5298948608398437,0,0,0.84084
0.25362186299753375,0,0,1.2569558715820313,0,0,0.84084
0.25673980699502863,0,0,1.1180921752929687,0,0,1.1465999999999998
0.2598524930072017,0,0,1.458068811035156,0,0,0.99372
0.2629592150042299,0,0,1.254561669921875,0,0,0.91728
0.26610675200936384,0,0,1.1156979736328125,0,0,0.68796
0.26922401099000126,0,0,1.2425906616210938,0,0,0.68796
0.27233469698694535,0,0,1.426944189453125,0,0,0.7644
0.27542714099399745,0,0,1.2593500732421874,0,0,0.45864
0.27854604899766855,0,0,1.1252747802734375,0,0,0.3822
0.2816619380027987,0,0,1.1372457885742187,0,0,0.99372
0.28480841900454834,0,0,1.2018892333984375,0,0,0.7644
0.287930493010208,0,0,1.1755530151367186,0,0,1.2230400000000001
0.29103986400878057,0,0,1.4532804077148436,0,0,0.7644
0.2941548080125358,0,0,1.3407529296874998,0,0,0.84084
0.2972686050052289,0,0,1.1659762084960936,0,0,0.84084
0.30038553100894205,0,0,1.350329736328125,0,0,0.91728
0.3034978270006832,0,0,1.4413093994140624,0,0,0.68796
0.3066340119985398,0,0,1.197100830078125,0,0,0.7644
0.30974856799002737,0,0,1.2425906616210938,0,0,0.45864
0.312863383005606,0,0,1.3048399047851562,0,0,0.91728
0.3159791979996953,0,0,1.1707646118164061,0,0,0.84084
0.3190929380070884,0,0,1.1180921752929687,0,0,1.1465999999999998
0.3222082350112032,0,0,1.4221557861328125,0,0,0.68796
0.3253229570109397,0,0,1.5011644409179687,0,0,0.91728
0.3284385130100418,0,0,1.0726023437499999,0,0,0.3822
0.33158521601581015,0,0,1.5203180541992187,0,0,1.07016
0.3347033640020527,0,0,1.5107412475585937,0,0,1.1465999999999998
0.33781684600398876,0,0,1.1085153686523437,0,0,0.99372
0.3409302160143852,0,0,1.2761094848632812,0,0,0.91728
0.344046290992992,0,0,1.2138602416992186,0,0,0.84084
0.3471595869923476,0,0,1.218648645019531,0,0,0.53508
0.35028941999189556,0,0,1.235408056640625,0,0,-8.943480000000001
0.35340793899376877,0,0,1.4030021728515625,0,0,0.84084
0.35659727099118754,0,0,1.189918225097656,0,0,0.7644
0.3600218420033343,0,0,1.1731588134765625,0,0,1.1465999999999998
0.3632040260126814,0,0,1.4221557861328125,0,0,0.45864
0.36643074700259604,0,0,1.0965443603515623,0,0,0.84084
0.36955285898875445,0,0,1.3623007446289062,0,0,0.6115200000000001
0.3726624700066168,0,0,1.5227122558593749,0,0,0.3822
0.3757836180157028,0,0,1.5298948608398437,0,0,0.53508
0.3789005260041449,0,0,1.0726023437499999,0,0,0.6115200000000001
0.38201584000489675,0,0,1.3144167114257812,0,0,0.3822
0.38513537700055167,0,0,1.2497732666015624,0,0,0.99372
0.3883023399976082,0,0,1.189918225097656,0,0,0.7644
0.3914161729917396,0,0,1.2832920898437499,0,0,0.91728
0.39453495098860003,0,0,1.3670891479492187,0,0,0.68796
0.39765200699912384,0,0,1.1109095703125,0,0,0.53508
0.4008009879908059,0,0,1.369483349609375,0,0,0.53508
0.4039169700117782,0,0,1.4030021728515625,0,0,0.84084
0.4070824139926117,0,0,1.419761584472656,0,0,0.84084
0.4102676350157708,0,0,1.1755530151367186,0,0,0.53508
0.4133875420084223,0,0,1.5298948608398437,0,0,0.99372
0.4165054130135104,0,0,1.446097802734375,0,0,0.68796
0.41962048699497245,0,0,1.3670891479492187,0,0,0.84084
0.42273632099386305,0,0,1.235408056640625,0,0,0.07644000000000001
0.4258511539956089,0,0,1.2856862915039062,0,0,0.91728
0.42896576499333605,0,0,1.139639990234375,0,0,0.53508
0.4320820430002641,0,0,1.2832920898437499,0,0,0.53508
0.4351937469909899,0,0,1.407790576171875,0,0,0.7644
0.4383458759984933,0,0,1.3120225097656248,0,0,1.07016
0.44146133901085705,0,0,1.1875240234375,0,0,0.53508
0.44457659899489954,0,0,1.2952630981445312,0,0,0.68796
0.4477420609910041,0,0,1.4532804077148436,0,0,0.53508
0.4508600799890701,0,0,1.2569558715820313,0,0,0.53508
0.45397491299081594,0,0,1.1372457885742187,0,0,0.22932
0.45730037399334833,0,0,1.2641384765625,0,0,1.07016
0.46045168800628744,0,0,1.3263877197265623,0,0,0.84084
0.46375170501414686,0,0,1.189918225097656,0,0,0.84084
0.4668724639923312,0,0,1.5059528442382812,0,0,0.84084
0.46997651999117807,0,0,1.2928688964843749,0,0,0.68796
0.47309290900011547,0,0,1.0917559570312498,0,0,0.22932
0.4762106490088627,0,0,1.4724340209960938,0,0,0.68796
0.4793257050041575,0,0,1.438915197753906,0,0,0.84084
0.48243994600488804,0,0,1.0893617553710937,0,0,0.68796
0.4855531500070356,0,0,1.24498486328125,0,0,1.1465999999999998
0.4887033720151521,0,0,1.0726023437499999,0,0,0.6115200000000001
0.49184735299786553,0,0,1.3431471313476562,0,0,0.53508
0.4949617969978135,0,0,1.218648645019531,0,0,0.15288000000000002
0.4980778350145556,0,0,1.5251064575195312,0,0,0.7644
0.5011922419944312,0,0,1.2832920898437499,0,0,0.68796
0.5156360150140245,0,0,1.1827356201171875,0,0,0.0
0.5188695510150865,0,0,1.2378022583007813,0,0,1.2230400000000001
0.5220254760060925,0,0,1.1156979736328125,0,0,0.91728
0.5251269949949346,0,0,1.209071838378906,0,0,0.99372
0.5282281439867802,0,0,1.4867992309570313,0,0,0.7644
0.5314581980055664,0,0,1.2808978881835937,0,0,0.84084
0.5348247879883274,0,0,1.1156979736328125,0,0,0.53508
0.537923880998278,0,0,1.2808978881835937,0,0,0.6115200000000001
0.5410235479939729,0,0,1.3383587280273437,0,0,0.7644
0.5441280110098887,0,0,1.216254443359375,0,0,0.91728
0.5472244920092635,0,0,1.3072341064453123,0,0,0.68796
0.550322603987297,0,0,1.3551181396484375,0,0,0.91728
0.5534214930085,0,0,1.1659762084960936,0,0,0.91728
0.5566082329896744,0,0,1.0869675537109373,0,0,1.5288
0.5597467329935171,0,0,1.5011644409179687,0,0,0.68796
0.562849843990989,0,0,1.2689268798828124,0,0,0.68796
0.5659816400147974,0,0,1.1420341918945311,0,0,0.30576000000000003
0.5690841219911817,0,0,1.2306196533203124,0,0,1.07016
0.5721955669869203,0,0,1.5131354492187499,0,0,1.07016
0.5753099000139628,0,0,1.2234370483398436,0,0,0.91728
0.5786024169938173,0,0,1.4987702392578124,0,0,0.68796
0.5819953950121999,0,0,1.3551181396484375,0,0,2.14032
0.585121320997132,0,0,1.1659762084960936,0,0,0.30576000000000003
0.588240951008629,0,0,1.2880804931640624,0,0,0.30576000000000003
0.5914596719958354,0,0,1.2018892333984375,0,0,0.91728
0.59431276700343,0,0,1.180341418457031,0,0,0.84084
0.5971110120008234,0,0,1.2114660400390624,0,0,0.45864
0.5999109790136572,0,0,1.3072341064453123,0,0,0.30576000000000003
0.6027082230139058,0,0,1.438915197753906,0,0,0.7644
0.6055095049960073,0,0,1.2761094848632812,0,0,0.84084
0.6083099720126484,0,0,1.1444283935546875,0,0,0.91728
0.6111060869880021,0,0,1.3359645263671873,0,0,0.91728
0.6139052759972401,0,0,1.6639701538085936,0,0,0.84084
0.6166931129992008,0,0,1.0726023437499999,0,0,0.91728
0.6194718210026622,0,0,1.2737152832031249,0,0,0.6115200000000001
0.6222707880078815,0,0,1.2401964599609374,0,0,0.91728
0.6250758100068197,0,0,1.2234370483398436,0,0,0.7644
0.6278789619973395,0,0,1.218648645019531,0,0,0.22932
0.6306740590080153,0,0,1.5227122558593749,0,0,0.6115200000000001
0.6334693400131073,0,0,1.5179238525390624,0,0,0.53508
0.6362662510073278,0,0,1.20667763671875,0,0,0.91728
0.639060810994124,0,0,1.2138602416992186,0,0,0.53508
0.6418567410146352,0,0,1.5275006591796874,0,0,0.84084
0.6446827260078862,0,0,1.656787548828125,0,0,0.99372
0.6474783960147761,0,0,1.1755530151367186,0,0,0.3822
0.6502925480017439,0,0,1.2473790649414063,0,0,0.0
0.6530902190133929,0,0,1.0941501586914062,0,0,0.91728
0.655889574001776,0,0,1.2856862915039062,0,0,0.30576000000000003
0.6587849470088258,0,0,1.1516109985351561,0,0,0.53508
0.6616167470056098,0,0,1.2641384765625,0,0,0.6115200000000001
0.664461398991989,0,0,1.3431471313476562,0,0,0.45864
0.6672626250074245,0,0,1.2306196533203124,0,0,1.1465999999999998
0.6700602209893987,0,0,1.1061211669921875,0,0,1.2994800000000002
0.6728572430147324,0,0,1.4125789794921875,0,0,1.2230400000000001
0.6756858580047265,0,0,1.668758557128906,0,0,0.84084
0.6784831580007449,0,0,1.1540052001953125,0,0,0.53508
0.6812789030082058,0,0,1.2737152832031249,0,0,0.15288000000000002
0.6840752589923795,0,0,1.2497732666015624,0,0,0.99372
0.686877984990133,0,0,1.3168109130859373,0,0,0.6115200000000001
0.6897702470014337,0,0,1.1252747802734375,0,0,0.6115200000000001
0.6926476939988788,0,0,1.2497732666015624,0,0,0.84084
0.6957647310046013,0,0,1.4006079711914061,0,0,0.84084
0.6988778049999382,0,0,1.0941501586914062,0,0,0.91728
0.7020271939982194,0,0,1.2689268798828124,0,0,2.6754
0.7051442679949105,0,0,1.2832920898437499,0,0,0.99372
0.7082594899984542,0,0,1.369483349609375,0,0,20
0.7113726389943622,0,0,1.0726023437499999,0,0,0.0
0.7144864170113578,0,0,1.5131354492187499,0,0,0.53508
0.71760597199318,0,0,1.2497732666015624,0,0,0.68796
0.7207262500014622,0,0,1.2282254516601563,0,0,0.22932
0.7238416390027851,0,0,1.2904746948242187,0,0,0.99372
0.7269553609949071,0,0,1.5298948608398437,0,0,0.99372
0.7300690840056632,0,0,1.216254443359375,0,0,1.07016
0.7331827500020154,0,0,1.3742717529296875,0,0,0.7644
0.7362980100151617,0,0,1.2473790649414063,0,0,0.84084
0.739407916989876,0,0,1.1516109985351561,0,0,0.53508
0.742522120999638,0,0,1.3335703247070312,0,0,0.3822
0.7456554360105656,0,0,1.419761584472656,0,0,0.91728
0.7489312489924487,0,0,1.2904746948242187,0,0,0.7644
0.752047804009635,0,0,1.177947216796875,0,0,0.84084
0.7551430269959383,0,0,1.4341267944335936,0,0,0.99372
0.7582807680009864,0,0,1.3910311645507811,0,0,0.91728
0.7613868599873967,0,0,1.1468225952148436,0,0,0.91728
0.7646523400035221,0,0,1.2785036865234374,0,0,0.6115200000000001
0.7678620610095095,0,0,1.608903515625,0,0,0.68796
0.770986338990042,0,0,1.0726023437499999,0,0,0.45864
0.7741041360131931,0,0,1.3287819213867187,0,0,0.91728
0.7779797010007314,0,0,1.4173673828125,0,0,0.68796
0.7811314040154684,0,0,1.235408056640625,0,0,0.22932
0.784252423007274,0,0,1.3670891479492187,0,0,0.45864
0.7873649410030339,0,0,1.2713210815429687,0,0,0.91728
0.790520940994611,0,0,0.9504980590820312,0,0,0.7644
0.7936371630057693,0,0,1.1827356201171875,0,0,1.60524
0.7967546079889871,0,0,1.2593500732421874,0,0,0.68796
0.7998719039896969,0,0,1.1659762084960936,0,0,-9.01992
0.8029873489867896,0,0,1.3287819213867187,0,0,0.3822
0.8061001079913694,0,0,1.4604630126953124,0,0,1.07016
0.8092185340065043,0,0,1.5897499023437498,0,0,0.84084
0.8123367560037877,0,0,1.218648645019531,0,0,0.84084
0.8154487189895008,0,0,1.22583125,0,0,1.07016
0.8185631269880105,0,0,1.2785036865234374,0,0,0.53508
0.8216782750096172,0,0,1.13006318359375,0,0,0.91728
0.8247964599868283,0,0,1.180341418457031,0,0,0.53508
0.827910886000609,0,0,1.3287819213867187,0,0,0.99372
0.8310245900065638,0,0,1.2210428466796874,0,0,0.68796
0.8341433680034243,0,0,1.254561669921875,0,0,0.3822
0.8372580530121922,0,0,1.3359645263671873,0,0,0.53508
0.8403775719925761,0,0,1.5586252807617187,0,0,1.1465999999999998
0.843488571990747,0,0,1.197100830078125,0,0,0.99372
0.8466026280075312,0,0,1.1444283935546875,0,0,0.68796
0.849756293988321,0,0,1.4987702392578124,0,0,0.53508
0.8528675720153842,0,0,1.0749965454101562,0,0,0.15288000000000002
0.8560250159935094,0,0,1.2378022583007813,0,0,0.22932
0.859140312008094,0,0,1.35990654296875,0,0,0.84084
0.8622567570128012,0,0,1.199495031738281,0,0,0.6115200000000001
0.8653752199898008,0,0,1.209071838378906,0,0,0.99372
0.8684951459872536,0,0,1.2282254516601563,0,0,0.53508
0.8716098679869901,0,0,1.5682020874023437,0,0,0.84084
0.874724127992522,0,0,1.1444283935546875,0,0,0.68796
0.8778382570017129,0,0,1.5251064575195312,0,0,0.68796
0.8809508320118766,0,0,1.4772224243164063,0,0,0.53508
0.8840634429943748,0,0,1.3239935180664062,0,0,0.3822
0.8871996279922314,0,0,1.3335703247070312,0,0,0.0
0.8903171650017612,0,0,1.2401964599609374,0,0,1.07016
0.8934644609980751,0,0,1.0821791503906248,0,0,0.99372
0.8965832940011751,0,0,1.3215993164062498,0,0,1.45236
0.8997289979888592,0,0,1.2880804931640624,0,0,0.68796
0.9028453679929953,0,0,1.1420341918945311,0,0,0.45864
0.9059610909898765,0,0,1.13006318359375,0,0,0.6115200000000001
0.9091288679919671,0,0,1.3910311645507811,0,0,0.68796
0.9126552699890453,0,0,1.458068811035156,0,0,0.7644
0.9158286589954514,0,0,0.9648632690429687,0,0,0.45864
0.9189465660019778,0,0,1.3287819213867187,0,0,0.99372
0.9220471589942463,0,0,1.4724340209960938,0,0,0.7644
0.9251651040103752,0,0,1.24498486328125,0,0,0.6115200000000001
0.9282880479877349,0,0,1.209071838378906,0,0,0.0
0.9314028630033135,0,0,1.2641384765625,0,0,0.99372
0.9345189740124624,0,0,1.2210428466796874,0,0,0.6115200000000001
0.9376283999881707,0,0,1.1827356201171875,0,0,0.99372
0.9407417149923276,0,0,1.4413093994140624,0,0,0.84084
0.9438578080153093,0,0,1.2952630981445312,0,0,0.84084
0.9469693640130572,0,0,1.16837041015625,0,0,0.30576000000000003
0.950082344992552,0,0,1.235408056640625,0,0,0.7644
0.9531913269893266,0,0,1.3958195678710936,0,0,0.91728
0.9563673629891127,0,0,1.3335703247070312,0,0,0.53508
0.9594901230011601,0,0,1.13006318359375,0,0,0.6115200000000001
0.9626182889915071,0,0,1.4053963745117186,0,0,0.91728
0.965738789003808,0,0,1.189918225097656,0,0,0.53508
0.9691327670007013,0,0,1.1252747802734375,0,0,0.3822
0.9722532859886996,0,0,1.4413093994140624,0,0,1.1465999999999998
0.9753690639918204,0,0,1.369483349609375,0,0,0.53508
0.9784703789919149,0,0,1.2497732666015624,0,0,0.99372
0.9815885460120626,0,0,1.4317325927734375,0,0,1.07016
0.984706360992277,0,0,1.3862427612304686,0,0,0.84084
0.9882042079989333,0,0,1.2210428466796874,0,0,0.53508
0.9913211530074477,0,0,1.3096283081054687,0,0,0.91728
0.994459301000461,0,0,1.455674609375,0,0,0.7644
0.9975772819889244,0,0,1.3407529296874998,0,0,0.7644
1.0007225779991131,0,0,1.3742717529296875,0,0,0.84084
1.0039984470058698,0,0,1.2425906616210938,0,0,0.68796
1.0072188710037153,0,0,1.216254443359375,0,0,0.53508
1.0104615740128793,0,0,1.1947066284179686,0,0,1.2994800000000002
1.0136785909999162,0,0,1.0726023437499999,0,0,0.91728
1.0169336080143694,0,0,1.1133037719726562,0,0,1.2230400000000001
1.0201738470059354,0,0,1.13006318359375,0,0,1.2230400000000001
1.0234096980129834,0,0,1.4006079711914061,0,0,0.68796
1.0265731789986603,0,0,1.158793603515625,0,0,0.6115200000000001
1.0297895109979436,0,0,1.218648645019531,0,0,0.3822
1.032983028999297,0,0,1.2928688964843749,0,0,1.07016
1.036134713998763,0,0,1.43652099609375,0,0,1.1465999999999998
1.0392617140023503,0,0,1.3670891479492187,0,0,0.99372
1.0423986770038027,0,0,1.3263877197265623,0,0,0.7644
1.0455275280110072,0,0,1.407790576171875,0,0,0.7644
1.0486585100006778,0,0,1.1037269653320312,0,0,0.68796
1.0517961950099561,0,0,1.3144167114257812,0,0,-0.22932
1.0549608980072662,0,0,1.3311761230468748,0,0,1.07016
1.058105861011427,0,0,1.1061211669921875,0,0,0.53508
1.0612468420004006,0,0,1.235408056640625,0,0,1.2994800000000002
1.064415064000059,0,0,1.3239935180664062,0,0,1.2994800000000002
1.0681705189927015,0,0,1.350329736328125,0,0,0.6115200000000001
1.0713942589936778,0,0,1.0965443603515623,0,0,0.91728
1.0746135910158046,0,0,1.5179238525390624,0,0,0.7644
1.0778589230030775,0,0,1.3239935180664062,0,0,0.99372
1.0810806810040958,0,0,1.1923124267578125,0,0,0.53508
1.0843175310001243,0,0,1.5298948608398437,0,0,0.6115200000000001
1.0875232710095588,0,0,1.4915876342773438,0,0,0.91728
1.0922284749976825,0,0,1.0821791503906248,0,0,1.1465999999999998
1.0955185100028757,0,0,1.2521674682617188,0,0,0.68796
1.098085275007179,0,0,1.5801730957031248,0,0,0.30576000000000003
1.1002238059882075,0,0,1.1420341918945311,0,0,0.6115200000000001
1.1016960100096185,0,0,1.1540052001953125,0,0,0.6115200000000001
1.1031468640139792,0,0,1.0941501586914062,0,0,0.3822
1.1047021599952132,0,0,1.4317325927734375,0,0,0.22932
1.1061616800143383,0,0,1.4413093994140624,0,0,0.68796
1.1076246070151683,0,0,1.5275006591796874,0,0,0.68796
1.1090893860091455,0,0,1.3168109130859373,0,0,0.6115200000000001
1.110480406001443,0,0,1.3311761230468748,0,0,0.7644
1.1118696859921329,0,0,1.149216796875,0,0,0.68796
1.1132565400039311,0,0,1.1516109985351561,0,0,0.99372
1.114643987006275,0,0,1.254561669921875,0,0,0.68796
1.1160343590017874,0,0,1.448492004394531,0,0,0.7644
1.117421953997109,0,0,1.4221557861328125,0,0,0.68796
1.1188087330083363,0,0,1.5514426757812498,0,0,0.99372
1.1201969019894022,0,0,1.1013327636718748,0,0,1.2994800000000002
1.1215839970100205,0,0,1.1755530151367186,0,0,0.99372
1.1229714060027618,0,0,1.180341418457031,0,0,0.53508
1.1243546119949315,0,0,1.2952630981445312,0,0,0.3822
1.1257336509879678,0,0,1.4053963745117186,0,0,0.22932
1.1271130609966349,0,0,1.24498486328125,0,0,0.68796
1.128503248008201,0,0,1.668758557128906,0,0,0.84084
1.1298949350020848,0,0,1.2330138549804688,0,0,0.7644
1.1312816409918014,0,0,1.1875240234375,0,0,0.53508
1.132669068989344,0,0,1.2018892333984375,0,0,0.45864
1.1340559230011422,0,0,1.0797849487304687,0,0,0.91728
1.1354423880111426,0,0,1.3742717529296875,0,0,0.30576000000000003
1.1368295199936256,0,0,1.419761584472656,0,0,0.84084
1.1382159659988247,0,0,1.2737152832031249,0,0,0.91728
1.1396152270026505,0,0,1.3096283081054687,0,0,0.6115200000000001
1.1410032669955399,0,0,1.0869675537109373,0,0,1.07016
1.1423899910005275,0,0,1.177947216796875,0,0,0.84084
1.1437769189942628,0,0,1.20667763671875,0,0,0.68796
1.1451641430030577,0,0,1.3144167114257812,0,0,1.2994800000000002
1.1465505709929857,0,0,1.4724340209960938,0,0,0.7644
1.1479373140027747,0,0,1.3407529296874998,0,0,0.84084
1.1493241490097716,0,0,1.4221557861328125,0,0,0.84084
1.1507107260113116,0,0,1.158793603515625,0,0,0.91728
1.15209844999481,0,0,1.149216796875,0,0,0.45864
1.1534911190101411,0,0,1.2401964599609374,0,0,0.22932
1.1548773059912492,0,0,1.1156979736328125,0,0,0.07644000000000001
1.1562740860099439,0,0,1.4101847778320311,0,0,0.0
1.157666662009433,0,0,1.4006079711914061,0,0,-9.24924
1.1591259220149368,0,0,1.467645617675781,0,0,1.07016
1.1606180160015356,0,0,1.2282254516601563,0,0,0.22932
1.162010461994214,0,0,1.0869675537109373,0,0,0.68796
1.1633974080032203,0,0,1.2306196533203124,0,0,0.45864
1.1647864659898914,0,0,1.3287819213867187,0,0,0.99372
1.1661740239942446,0,0,1.2689268798828124,0,0,1.5288
1.167565359006403,0,0,1.426944189453125,0,0,0.91728
1.1689454540028237,0,0,1.0941501586914062,0,0,0.7644
1.1703240670030937,0,0,1.3215993164062498,0,0,0.91728
1.1717104949930217,0,0,1.1276689819335937,0,0,0.99372
1.1730980339925736,0,0,1.2617442749023438,0,0,0.6115200000000001
1.1744876659940928,0,0,1.1540052001953125,0,0,0.6115200000000001
1.1758751310117077,0,0,1.3048399047851562,0,0,0.0
1.177261484990595,0,0,1.43652099609375,0,0,0.84084
1.1786486170021817,0,0,1.2306196533203124,0,0,0.6115200000000001
1.1800362110079732,0,0,1.3072341064453123,0,0,0.84084
1.181423175992677,0,0,1.0821791503906248,0,0,0.45864
1.1828099930135068,0,0,1.2641384765625,0,0,0.6115200000000001
1.1841916989942547,0,0,1.1228805786132812,0,0,0.68796
1.1855701089953072,0,0,1.16837041015625,0,0,0.68796
1.1869481109897606,0,0,1.3239935180664062,0,0,1.1465999999999998
1.188335704995552,0,0,1.2737152832031249,0,0,0.68796
1.189721411006758,0,0,1.24498486328125,0,0,0.6115200000000001
1.1911071730137337,0,0,1.426944189453125,0,0,1.1465999999999998
1.1924933599948417,0,0,1.1228805786132812,0,0,1.1465999999999998
1.1938792880100664,0,0,1.0989385620117187,0,0,0.91728
1.1952651790052187,0,0,1.1755530151367186,0,0,0.7644
1.196651161997579,0,0,1.2521674682617188,0,0,0.7644
1.1980368870135862,0,0,1.2689268798828124,0,0,0.6115200000000001
1.19942250000895,0,0,1.2138602416992186,0,0,0.84084
1.2008091319876257,0,0,1.3838485595703125,0,0,0.84084
1.2021946519962512,0,0,1.1109095703125,0,0,0.84084
1.20358145100181,0,0,1.20667763671875,0,0,0.6115200000000001
1.2049680640047882,0,0,1.0797849487304687,0,0,0.30576000000000003
1.206353602989111,0,0,1.197100830078125,0,0,0.22932
1.2077479379950091,0,0,1.3168109130859373,0,0,-0.22932
1.2091358480101917,0,0,1.2761094848632812,0,0,0.3822
1.2105216089985333,0,0,1.3670891479492187,0,0,0.45864
1.2119080550037324,0,0,1.3718775512695311,0,0,0.6115200000000001
1.2132937610149384,0,0,1.2378022583007813,0,0,0.91728
1.2147997799911536,0,0,1.3024457031249999,0,0,0.68796
1.2161901160143316,0,0,1.180341418457031,0,0,0.68796
1.2175774700008333,0,0,1.2761094848632812,0,0,1.45236
1.218963805004023,0,0,1.2880804931640624,0,0,1.2994800000000002
1.2203510109975468,0,0,1.3623007446289062,0,0,0.99372
1.2217383650131524,0,0,1.6400281372070311,0,0,0.68796
1.223124756012112,0,0,1.180341418457031,0,0,0.84084
1.224522517004516,0,0,1.177947216796875,0,0,0.91728
1.2259008900146,0,0,1.1372457885742187,0,0,0.68796
1.2272790579881985,0,0,1.3168109130859373,0,0,0.84084
1.2286676160001662,0,0,1.5107412475585937,0,0,0.15288000000000002
1.23005482199369,0,0,1.5035586425781249,0,0,0.53508
1.2314411939878482,0,0,1.5251064575195312,0,0,1.07016
1.2328295299957972,0,0,1.2114660400390624,0,0,0.68796
1.234216754004592,0,0,1.2904746948242187,0,0,0.7644
1.2356161079951562,0,0,1.2473790649414063,0,0,0.84084
1.2370023319963366,0,0,1.2042834350585936,0,0,0.6115200000000001
1.2383895750099327,0,0,1.39821376953125,0,0,0.91728
1.2397736510029063,0,0,1.4939818359375,0,0,0.84084
1.2411515790154226,0,0,1.448492004394531,0,0,0.68796
1.242529804003425,0,0,1.3646949462890625,0,0,0.6115200000000001
1.2439138240006287,0,0,1.0941501586914062,0,0,1.2230400000000001
1.2453013820049819,0,0,1.209071838378906,0,0,0.68796
1.2466879209969193,0,0,1.1707646118164061,0,0,0.7644
1.248074570990866,0,0,1.3263877197265623,0,0,1.07016
1.2494597950135358,0,0,1.4030021728515625,0,0,0.7644
1.2508454270137008,0,0,1.3144167114257812,0,0,0.91728
1.2522312809887808,0,0,1.5179238525390624,0,0,1.1465999999999998
1.2536165610072203,0,0,1.199495031738281,0,0,0.84084
1.255002321995562,0,0,1.1611878051757811,0,0,0.3822
1.2563884909905028,0,0,1.2138602416992186,0,0,0.68796
1.2577734930091538,0,0,1.3000515014648437,0,0,0.45864
1.2591591800155584,0,0,1.4341267944335936,0,0,0.22932
1.2605453119904269,0,0,1.4221557861328125,0,0,0.68796
1.2619306110136677,0,0,1.3072341064453123,0,0,0.6115200000000001
1.2633161309931893,0,0,1.2473790649414063,0,0,0.68796
1.2647032809909433,0,0,1.1468225952148436,0,0,1.07016
1.2660890239931177,0,0,1.2114660400390624,0,0,0.7644
1.267474137013778,0,0,1.1875240234375,0,0,0.68796
1.2688601019908674,0,0,1.2785036865234374,0,0,1.07016
1.2702459559950512,0,0,1.448492004394531,0,0,0.84084
1.2716323290078435,0,0,1.2641384765625,0,0,1.2230400000000001
1.2730179610080086,0,0,1.4915876342773438,0,0,0.91728
1.2744034439965617,0,0,1.1156979736328125,0,0,1.1465999999999998
1.2757898720155936,0,0,1.1348515869140625,0,0,0.91728
1.2771751150139607,0,0,1.1731588134765625,0,0,0.6115200000000001
1.2785609870043118,0,0,1.218648645019531,0,0,0.3822
1.279946877999464,0,0,1.2282254516601563,0,0,0.0
1.2813317510008346,0,0,1.3646949462890625,0,0,0.45864
1.282717883004807,0,0,1.5035586425781249,0,0,0.84084
1.2841037739999592,0,0,1.180341418457031,0,0,0.84084
1.2854893679905217,0,0,1.2856862915039062,0,0,0.84084
1.2871074049908202,0,0,1.1372457885742187,0,0,0.6115200000000001
1.288495184009662,0,0,1.2521674682617188,0,0,0.6115200000000001
1.2898821120033972,0,0,1.2832920898437499,0,0,0.68796
1.2912698180007283,0,0,1.3910311645507811,0,0,0.91728
1.2926556169986725,0,0,1.1156979736328125,0,0,0.7644
1.29404215599061,0,0,1.2138602416992186,0,0,0.6115200000000001
1.2954278239922132,0,0,1.1444283935546875,0,0,0.84084
1.2968139380100183,0,0,1.139639990234375,0,0,0.68796
1.2982001430063974,0,0,1.2401964599609374,0,0,0.6115200000000001
1.299586053006351,0,0,1.2473790649414063,0,0,0.84084
1.3009720550035127,0,0,1.4867992309570313,0,0,0.6115200000000001
1.3023577239946462,0,0,1.2952630981445312,0,0,0.99372
1.3037441890046466,0,0,1.4101847778320311,0,0,1.07016
1.3051296350022312,0,0,1.0797849487304687,0,0,0.99372
1.3065156739903614,0,0,1.2234370483398436,0,0,0.68796
1.3079017690033652,0,0,1.369483349609375,0,0,0.53508
1.3092871230037417,0,0,1.369483349609375,0,0,0.45864
1.3106734770117328,0,0,1.3239935180664062,0,0,0.30576000000000003
1.312059924006462,0,0,1.2378022583007813,0,0,0.68796
1.3134451849909965,0,0,1.4628572143554686,0,0,0.68796
1.314831260999199,0,0,1.4532804077148436,0,0,0.6115200000000001
1.316217282001162,0,0,1.189918225097656,0,0,0.99372
1.3176033209892921,0,0,1.120486376953125,0,0,0.99372
1.3189892120135482,0,0,1.1180921752929687,0,0,0.91728
1.3203753429988865,0,0,1.3048399047851562,0,0,1.2994800000000002
1.3217619009956252,0,0,1.429338391113281,0,0,1.07016
1.3231474590138532,0,0,1.3263877197265623,0,0,1.07016
1.3245332940132357,0,0,1.5107412475585937,0,0,0.99372
1.3259187590156216,0,0,1.216254443359375,0,0,0.91728
1.3273045209934935,0,0,1.1659762084960936,0,0,0.6115200000000001
1.3286911709874403,0,0,1.2761094848632812,0,0,0.53508
1.330076303012902,0,0,1.2665326782226562,0,0,0.22932
1.3314618229924235,0,0,1.446097802734375,0,0,-0.15288000000000002
1.3328484359954018,0,0,1.3838485595703125,0,0,0.3822
1.3342359010130167,0,0,1.5777788940429687,0,0,0.22932
1.3356225889874622,0,0,1.5179238525390624,0,0,0.53508
1.337008534988854,0,0,1.2856862915039062,0,0,0.45864
1.33839424100006,0,0,1.197100830078125,0,0,0.84084
1.3397808730078395,0,0,1.0726023437499999,0,0,0.91728
1.3411663190054242,0,0,1.3144167114257812,0,0,1.2230400000000001
1.3425524510093965,0,0,1.4915876342773438,0,0,1.2230400000000001
1.343938915990293,0,0,1.5370774658203123,0,0,0.7644
1.34532439900795,0,0,1.4532804077148436,0,0,0.99372
1.346709789999295,0,0,1.1037269653320312,0,0,0.84084
1.3480976260034367,0,0,1.149216796875,0,0,0.68796
1.3494839800114278,0,0,1.120486376953125,0,0,0.45864
1.3508697230136022,0,0,1.2689268798828124,0,0,0.84084
1.3522558539989404,0,0,1.4532804077148436,0,0,0.3822
1.353641449008137,0,0,1.2928688964843749,0,0,1.07016
1.3550266730017029,0,0,1.4724340209960938,0,0,0.91728
1.356503729999531,0,0,1.2042834350585936,0,0,1.98744
1.3580495080095716,0,0,1.1947066284179686,0,0,0.6115200000000001
1.3595095280034002,0,0,1.3455413330078123,0,0,0.68796
1.361112193990266,0,0,1.3048399047851562,0,0,0.45864
1.3624961769965012,0,0,1.3742717529296875,0,0,0.6115200000000001
1.363916956994217,0,0,1.2425906616210938,0,0,0.6115200000000001
1.3652964220091235,0,0,1.5801730957031248,0,0,0.7644
1.3667097759898752,0,0,1.254561669921875,0,0,0.84084
1.3681043150136247,0,0,1.2138602416992186,0,0,0.6115200000000001
1.3694833170156926,0,0,1.216254443359375,0,0,0.3822
1.3708615970099345,0,0,1.1156979736328125,0,0,0.45864
1.372242173005361,0,0,1.3359645263671873,0,0,0.30576000000000003
1.3736207309993915,0,0,1.3910311645507811,0,0,0.68796
1.3749991590157151,0,0,1.4772224243164063,0,0,0.68796
1.3763789760123473,0,0,1.3575123413085937,0,0,0.84084
1.3777578480076045,0,0,1.0989385620117187,0,0,1.07016
1.3791361649928149,0,0,1.1372457885742187,0,0,0.68796
1.380530741007533,0,0,1.158793603515625,0,0,0.7644
1.3819175579992589,0,0,1.3910311645507811,0,0,0.84084
1.3833034679992124,0,0,1.5179238525390624,0,0,0.7644
1.3846876730094664,0,0,1.2713210815429687,0,0,1.07016
1.3860920639999676,0,0,1.4221557861328125,0,0,0.91728
1.3874794369912706,0,0,1.2210428466796874,0,0,1.1465999999999998
1.3888600310019683,0,0,1.218648645019531,0,0,0.45864
1.3902381449879613,0,0,1.2617442749023438,0,0,0.30576000000000003
1.391670423996402,0,0,1.13006318359375,0,0,0.7644
1.3930579629959539,0,0,1.3814543579101561,0,0,-0.30576000000000003
1.394444873003522,0,0,1.3335703247070312,0,0,0.6115200000000001
1.3958323750121053,0,0,1.5155296508789062,0,0,-8.943480000000001
1.3972182660072576,0,0,1.2306196533203124,0,0,0.91728
1.3986041379976086,0,0,1.1755530151367186,0,0,0.68796
1.3999914359883405,0,0,1.218648645019531,0,0,0.91728
1.401376235007774,0,0,1.1563994018554686,0,0,0.99372
1.4027619959961157,0,0,1.0797849487304687,0,0,1.1465999999999998
1.404148369008908,0,0,1.3551181396484375,0,0,0.91728
1.4055340560153127,0,0,1.199495031738281,0,0,1.2230400000000001
1.4069197989883833,0,0,1.3814543579101561,0,0,0.91728
1.4083068380132318,0,0,1.1085153686523437,0,0,0.68796
1.4097340989974327,0,0,1.2497732666015624,0,0,0.6115200000000001
1.4112190440064296,0,0,1.177947216796875,0,0,0.7644
1.4126534159877338,0,0,1.2473790649414063,0,0,0.6115200000000001
1.4140731770021375,0,0,1.446097802734375,0,0,0.53508
1.4154610309924465,0,0,1.2593500732421874,0,0,1.1465999999999998
1.4168484219990205,0,0,1.4796166259765624,0,0,0.99372
1.4182355910015758,0,0,1.1755530151367186,0,0,0.91728
1.4196235559938941,0,0,1.2497732666015624,0,0,0.84084
1.4210099279880524,0,0,1.2401964599609374,0,0,0.15288000000000002
1.4223964670090936,0,0,1.1707646118164061,0,0,0.6115200000000001
1.4237806730088778,0,0,1.5083470458984374,0,0,0.22932
1.425158341997303,0,0,1.3527239379882812,0,0,0.6115200000000001
1.4265369740023743,0,0,1.0773907470703123,0,0,0.68796
1.427921716007404,0,0,1.2880804931640624,0,0,0.84084
1.429308441001922,0,0,1.1923124267578125,0,0,0.91728
1.4306942760013044,0,0,1.0845733520507812,0,0,0.91728
1.4320808149932418,0,0,1.2018892333984375,0,0,0.7644
1.433466873015277,0,0,1.3096283081054687,0,0,0.91728
1.4348537079931702,0,0,1.4173673828125,0,0,0.91728
1.4363063760101795,0,0,1.1707646118164061,0,0,0.99372
1.4377184149925597,0,0,1.4245499877929686,0,0,0.68796
1.4391058800101746,0,0,1.0749965454101562,0,0,0.91728
1.4404884559917264,0,0,1.3192051147460937,0,0,0.6115200000000001
1.4418675700144377,0,0,1.197100830078125,0,0,0.6115200000000001
1.4432459050149191,0,0,1.2713210815429687,0,0,0.68796
1.4446330920036417,0,0,1.4939818359375,0,0,0.0
1.4460193169943523,0,0,1.2880804931640624,0,0,0.6115200000000001
1.4474053930025548,0,0,1.3120225097656248,0,0,0.45864
1.448791691014776,0,0,1.1635820068359375,0,0,0.45864
1.450177804013947,0,0,1.2569558715820313,0,0,0.99372
1.4515645840147045,0,0,1.1659762084960936,0,0,0.7644
1.452950882987352,0,0,1.2114660400390624,0,0,0.7644
1.4543368479935452,0,0,1.2473790649414063,0,0,1.2994800000000002
1.455723757011583,0,0,1.438915197753906,0,0,0.91728
1.4571899989969097,0,0,1.2665326782226562,0,0,0.7644
1.4586438520054799,0,0,1.3862427612304686,0,0,0.99372
1.4600308730150573,0,0,1.1923124267578125,0,0,0.84084
1.4614367820031475,0,0,1.3623007446289062,0,0,0.68796
1.4628255059942603,0,0,1.1563994018554686,0,0,0.6115200000000001
1.4642140270152595,0,0,1.2210428466796874,0,0,0.84084
1.4656010839971714,0,0,1.446097802734375,0,0,0.15288000000000002
1.466989161010133,0,0,1.16837041015625,0,0,1.2994800000000002
1.4683769590046722,0,0,1.458068811035156,0,0,0.99372
1.4697638310026377,0,0,1.0582371337890624,0,0,0.68796
1.4711510560009629,0,0,1.209071838378906,0,0,0.53508
1.4725380949967075,0,0,1.1085153686523437,0,0,0.30576000000000003
1.473924485995667,0,0,1.2665326782226562,0,0,0.22932
1.475311562011484,0,0,1.2952630981445312,0,0,0.84084
1.4766984340094496,0,0,1.218648645019531,0,0,0.53508
1.4780855099961627,0,0,1.4053963745117186,0,0,0.68796
1.4794726049876772,0,0,1.4030021728515625,0,0,0.7644
1.4808594410133082,0,0,1.3910311645507811,0,0,1.1465999999999998
1.4822458869894035,0,0,1.2401964599609374,0,0,0.7644
1.483632685005432,0,0,1.2018892333984375,0,0,0.84084
1.4850191320001613,0,0,1.2042834350585936,0,0,1.2230400000000001
1.486405375006143,0,0,1.5179238525390624,0,0,1.07016
1.487792117986828,0,0,1.2832920898437499,0,0,1.1465999999999998
1.4891788969980553,0,0,1.5753846923828123,0,0,0.99372
1.4905652510060463,0,0,1.0941501586914062,0,0,0.7644
1.4919521789997816,0,0,1.180341418457031,0,0,0.7644
1.4933388849894982,0,0,1.16837041015625,0,0,0.3822
1.494725461001508,0,0,1.3144167114257812,0,0,0.30576000000000003
1.4961120749940164,0,0,1.4437036010742186,0,0,0.22932
1.4974990029877517,0,0,1.3838485595703125,0,0,0.3822
1.4988854489929508,0,0,1.5873557006835937,0,0,0.30576000000000003
1.5002724330115598,0,0,1.3024457031249999,0,0,0.45864
1.5016593420004938,0,0,1.1444283935546875,0,0,0.68796
1.5030461399874184,0,0,1.0510545288085937,0,0,0.84084
1.5044328090152703,0,0,1.1875240234375,0,0,0.84084
1.5058210889983457,0,0,1.3407529296874998,0,0,1.45236
1.5072074799973052,0,0,1.5346832641601562,0,0,0.91728
1.5085939640121069,0,0,1.4341267944335936,0,0,0.68796
1.509980483999243,0,0,1.3287819213867187,0,0,1.1465999999999998
1.511366819991963,0,0,1.0845733520507812,0,0,1.1465999999999998
1.5127539510140195,0,0,1.1252747802734375,0,0,0.91728
1.514140638988465,0,0,1.0893617553710937,0,0,0.68796
1.5155272150004748,0,0,1.1348515869140625,0,0,0.6115200000000001
1.516913513012696,0,0,1.448492004394531,0,0,0.53508
1.5183000520046335,0,0,1.2976572998046874,0,0,0.84084
1.519683646998601,0,0,1.5682020874023437,0,0,0.7644
1.5210612420050893,0,0,1.20667763671875,0,0,0.6115200000000001
1.5224394850083627,0,0,1.24498486328125,0,0,0.68796
1.52382443100214,0,0,1.2497732666015624,0,0,0.53508
1.5252263029979076,0,0,1.1420341918945311,0,0,0.45864
1.5266125090129208,0,0,1.254561669921875,0,0,0.3822
1.5279991409915965,0,0,1.448492004394531,0,0,0.6115200000000001
1.5293841430102475,0,0,1.2617442749023438,0,0,0.91728
1.5307699039985891,0,0,1.2689268798828124,0,0,0.91728
1.5321557210118044,0,0,1.1420341918945311,0,0,1.07016
1.5335415010049473,0,0,1.1731588134765625,0,0,0.91728
1.5349276330089197,0,0,1.139639990234375,0,0,0.84084
1.536313838994829,0,0,1.0797849487304687,0,0,0.68796
1.5376995439874008,0,0,1.426944189453125,0,0,0.53508
1.5390987310092896,0,0,1.2210428466796874,0,0,1.07016
1.5405075850139838,0,0,1.4796166259765624,0,0,-8.867040000000001
1.541895531991031,0,0,1.1109095703125,0,0,0.7644
1.5432815520034637,0,0,1.2856862915039062,0,0,0.7644
1.5446690169919748,0,0,1.1276689819335937,0,0,0.7644
1.546057611994911,0,0,1.2617442749023438,0,0,0.6115200000000001
1.547443391988054,0,0,1.5251064575195312,0,0,0.22932
1.5488298939890228,0,0,1.350329736328125,0,0,0.6115200000000001
1.5502156919974368,0,0,1.4963760375976562,0,0,0.6115200000000001
1.5516175829980057,0,0,1.1731588134765625,0,0,0.68796
1.5530024929903448,0,0,1.254561669921875,0,0,0.99372
1.5543866060033906,0,0,1.16837041015625,0,0,0.84084
1.5558149040152784,0,0,1.1827356201171875,0,0,0.91728
1.5571960539964493,0,0,1.2856862915039062,0,0,1.1465999999999998
1.5585877039993647,0,0,1.3862427612304686,0,0,0.91728
1.559967687993776,0,0,1.218648645019531,0,0,0.84084
1.5615140399895608,0,0,1.4796166259765624,0,0,0.7644
1.5628980420005973,0,0,1.1372457885742187,0,0,0.91728
1.564280618011253,0,0,1.0773907470703123,0,0,0.91728
1.5656601199880242,0,0,1.1923124267578125,0,0,0.53508
1.5670391780149657,0,0,1.235408056640625,0,0,0.6115200000000001
1.5684184019919485,0,0,1.5298948608398437,0,0,0.15288000000000002
1.5697969050088432,0,0,1.2785036865234374,0,0,0.91728
1.5711753699870314,0,0,1.407790576171875,0,0,0.91728
1.5725552049989346,0,0,1.1372457885742187,0,0,0.68796
1.573934151994763,0,0,1.235408056640625,0,0,0.6115200000000001
1.5753123390022665,0,0,1.1875240234375,0,0,0.45864
1.576691619004123,0,0,1.1923124267578125,0,0,0.7644
1.5780697689915542,0,0,1.3527239379882812,0,0,1.07016
1.5794480860058684,0,0,1.4987702392578124,0,0,1.07016
1.5808276259922422,0,0,1.369483349609375,0,0,0.7644
1.5822060169884935,0,0,1.458068811035156,0,0,0.84084
1.5835981850104872,0,0,1.3359645263671873,0,0,0.7644
1.5849861690076068,0,0,1.197100830078125,0,0,0.7644
1.5866545749886427,0,0,1.2210428466796874,0,0,0.91728
1.5880472990102135,0,0,1.2832920898437499,0,0,1.2994800000000002
1.5894413749920204,0,0,1.4772224243164063,0,0,0.7644
1.5908287850033958,0,0,1.3359645263671873,0,0,1.07016
1.5922162870119791,0,0,1.6615759521484375,0,0,1.07016
1.593602548004128,0,0,1.2330138549804688,0,0,0.84084
1.5949894209916238,0,0,1.2282254516601563,0,0,0.68796
1.5963765520136803,0,0,1.3120225097656248,0,0,0.6115200000000001
1.597763425001176,0,0,1.2785036865234374,0,0,0.45864
1.5991502229881007,0,0,1.2641384765625,0,0,0.15288000000000002
1.6005369290069211,0,0,1.22583125,0,0,0.84084
1.6019230789970607,0,0,1.5777788940429687,0,0,0.68796
1.6033211740141269,0,0,1.426944189453125,0,0,0.45864
1.6047076570102945,0,0,1.3215993164062498,0,0,0.84084
1.6060943450138438,0,0,1.2737152832031249,0,0,0.6115200000000001
1.6074813650047872,0,0,1.3718775512695311,0,0,0.91728
1.6088681450055446,0,0,1.2808978881835937,0,0,1.45236
1.6102548690105323,0,0,1.4915876342773438,0,0,0.68796
1.6116430750116706,0,0,1.3958195678710936,0,0,0.7644
1.613029855012428,0,0,1.5179238525390624,0,0,0.91728
1.6144161529955454,0,0,1.3407529296874998,0,0,0.7644
1.6158046369964723,0,0,1.1947066284179686,0,0,0.53508
1.6171905089868233,0,0,1.189918225097656,0,0,0.68796
1.6185767890128773,0,0,1.2856862915039062,0,0,0.53508
1.6199644209991675,0,0,1.455674609375,0,0,0.07644000000000001
1.621350108005572,0,0,1.429338391113281,0,0,0.7644
1.6227364809892606,0,0,1.5370774658203123,0,0,0.91728
1.6241236309870146,0,0,1.3455413330078123,0,0,0.53508
1.625510022015078,0,0,1.216254443359375,0,0,0.7644
1.6268964310002048,0,0,1.1755530151367186,0,0,0.3822
1.6282832300057635,0,0,1.0773907470703123,0,0,0.7644
1.6296699719969183,0,0,1.3910311645507811,0,0,1.07016
1.6310566600004677,0,0,1.5275006591796874,0,0,0.99372
1.6324434579873923,0,0,1.197100830078125,0,0,0.6115200000000001
1.633829700993374,0,0,1.3263877197265623,0,0,0.91728
1.6352158699883148,0,0,1.1085153686523437,0,0,0.7644
1.636596019990975,0,0,1.2306196533203124,0,0,0.7644
1.6379744849982671,0,0,1.199495031738281,0,0,0.84084
1.6393528020125814,0,0,1.120486376953125,0,0,1.1465999999999998
1.6407409340026788,0,0,1.3862427612304686,0,0,0.30576000000000003
1.642150194995338,0,0,1.3239935180664062,0,0,0.84084
1.6435368079983164,0,0,1.47482822265625,0,0,0.68796
1.644923773012124,0,0,1.1324573852539062,0,0,0.84084
1.6463164789893199,0,0,1.2713210815429687,0,0,0.91728
1.6477075729926582,0,0,1.2521674682617188,0,0,0.15288000000000002
1.6490929640131071,0,0,1.149216796875,0,0,0.84084
1.6504790399922058,0,0,1.484405029296875,0,0,0.68796
1.6518661910085939,0,0,1.388636962890625,0,0,0.6115200000000001
1.6532518040039577,0,0,1.3551181396484375,0,0,0.6115200000000001
1.6546377500053495,0,0,1.1444283935546875,0,0,0.68796
1.6560246229928453,0,0,1.0773907470703123,0,0,0.99372
1.6574094950046856,0,0,1.2114660400390624,0,0,0.91728
1.6587951089895796,0,0,1.1348515869140625,0,0,0.53508
1.6602250919968355,0,0,1.3024457031249999,0,0,1.1465999999999998
1.6616915370104834,0,0,1.4796166259765624,0,0,1.1465999999999998
1.663081112987129,0,0,1.1563994018554686,0,0,0.91728
1.664469929994084,0,0,1.3072341064453123,0,0,0.84084
1.6658568579878192,0,0,1.1372457885742187,0,0,0.7644
1.6673140820057597,0,0,1.3431471313476562,0,0,0.53508
1.668705249991035,0,0,1.149216796875,0,0,0.6115200000000001
1.6700928079953883,0,0,1.1659762084960936,0,0,0.68796
1.6714799210021738,0,0,1.3934253662109375,0,0,0.30576000000000003
1.6728600900096353,0,0,1.3048399047851562,0,0,0.68796
1.6742386289988644,0,0,1.43652099609375,0,0,0.84084
1.6756516860041302,0,0,1.1420341918945311,0,0,0.53508
1.6770390220044646,0,0,1.0726023437499999,0,0,0.99372
1.6784255050006323,0,0,1.1923124267578125,0,0,0.68796
1.6798132479889318,0,0,1.1348515869140625,0,0,0.45864
1.6811989909911063,0,0,1.2761094848632812,0,0,0.99372
1.682585400994867,0,0,1.35990654296875,0,0,0.91728
1.683972625003662,0,0,1.2808978881835937,0,0,0.6115200000000001
1.6853586820070632,0,0,1.5801730957031248,0,0,1.2994800000000002
1.6867450730060227,0,0,1.1947066284179686,0,0,0.99372
1.6881275569903664,0,0,1.1923124267578125,0,0,0.91728
1.689505652000662,0,0,1.1707646118164061,0,0,0.68796
1.6909031720133498,0,0,1.2785036865234374,0,0,1.07016
1.6922897479962558,0,0,1.2306196533203124,0,0,0.45864
1.6936755469942,0,0,1.1109095703125,0,0,1.07016
1.6950608449988067,0,0,1.5011644409179687,0,0,0.99372
1.6964464769989718,0,0,1.1228805786132812,0,0,0.7644
1.6978323489893228,0,0,1.24498486328125,0,0,0.68796
1.6992180550005287,0,0,1.197100830078125,0,0,0.30576000000000003
1.7006119829893578,0,0,1.2018892333984375,0,0,0.7644
1.7019978369935416,0,0,1.5083470458984374,0,0,0.3822
1.7033835609909147,0,0,1.2785036865234374,0,0,1.07016
1.7047694339998998,0,0,1.4030021728515625,0,0,0.68796
1.7061556029948406,0,0,1.4628572143554686,0,0,0.45864
1.7075414750142954,0,0,1.2138602416992186,0,0,0.7644
1.708928976993775,0,0,1.1731588134765625,0,0,0.84084
1.7103157009987626,0,0,1.1875240234375,0,0,0.68796
1.7117027030035388,0,0,1.2976572998046874,0,0,0.84084
1.713087946001906,0,0,1.3455413330078123,0,0,0.45864
1.7144736709888093,0,0,1.2401964599609374,0,0,1.37592
1.7158599690010305,0,0,1.5897499023437498,0,0,1.1465999999999998
1.7172532299882732,0,0,1.2928688964843749,0,0,0.91728
1.718641157989623,0,0,1.2306196533203124,0,0,0.7644
1.720029104995774,0,0,1.1875240234375,0,0,0.53508
1.721414809988346,0,0,1.2641384765625,0,0,0.3822
1.7228017940069549,0,0,1.4006079711914061,0,0,0.15288000000000002
1.7241887029958889,0,0,1.426944189453125,0,0,0.6115200000000001
1.7255751870106906,0,0,1.5777788940429687,0,0,0.53508
1.7269619849976152,0,0,1.3862427612304686,0,0,0.6115200000000001
1.7283436169964261,0,0,1.2114660400390624,0,0,1.07016
1.7297219340107404,0,0,1.2856862915039062,0,0,0.99372
1.7311004550138023,0,0,1.350329736328125,0,0,0.91728
1.7324874750047456,0,0,1.3192051147460937,0,0,1.37592
1.7338820889999624,0,0,1.4891934326171874,0,0,0.6115200000000001
1.7352693680149969,0,0,1.2569558715820313,0,0,1.07016
1.7366563150135335,0,0,1.4772224243164063,0,0,1.07016
1.7380427239986602,0,0,1.216254443359375,0,0,0.7644
1.7394294299883768,0,0,1.1947066284179686,0,0,0.6115200000000001
1.7408164690132253,0,0,1.1755530151367186,0,0,0.45864
1.742204526992282,0,0,1.1731588134765625,0,0,0.30576000000000003
1.7435915480018593,0,0,1.4437036010742186,0,0,0.0
1.7449704199971166,0,0,1.2785036865234374,0,0,0.53508
1.7463483850006014,0,0,1.6424223388671875,0,0,0.84084
1.7477593309886288,0,0,1.20667763671875,0,0,0.84084
1.7491712589981034,0,0,1.209071838378906,0,0,0.68796
1.7505585199978668,0,0,1.22583125,0,0,0.3822
1.7519452259875834,0,0,1.3359645263671873,0,0,0.91728
1.7533316359913442,0,0,1.419761584472656,0,0,1.2230400000000001
1.754717581992736,0,0,1.39821376953125,0,0,0.7644
1.7561302690010052,0,0,1.1324573852539062,0,0,0.68796
1.7575123640126549,0,0,1.3192051147460937,0,0,1.07016
1.75890677300049,0,0,1.1444283935546875,0,0,0.91728
1.7602872750139795,0,0,1.2138602416992186,0,0,0.84084
1.7616865180025343,0,0,1.1827356201171875,0,0,0.84084
1.763065817009192,0,0,1.1755530151367186,0,0,0.6115200000000001
1.764446837012656,0,0,1.4604630126953124,0,0,0.6115200000000001
1.7658259320014622,0,0,1.429338391113281,0,0,1.07016
1.7672043050115462,0,0,1.448492004394531,0,0,0.91728
1.7685847510001622,0,0,1.1659762084960936,0,0,0.68796
1.7699633089941926,0,0,1.3383587280273437,0,0,0.84084
1.7713420889922418,0,0,1.2018892333984375,0,0,0.53508
1.7727210540033411,0,0,1.2138602416992186,0,0,0.68796
1.7740990750025958,0,0,1.2665326782226562,0,0,0.7644
1.7754774469940457,0,0,1.3072341064453123,0,0,0.6115200000000001
1.7768648380006198,0,0,1.3575123413085937,0,0,0.53508
1.7782613399904221,0,0,1.1659762084960936,0,0,0.7644
1.779647360992385,0,0,1.2138602416992186,0,0,1.1465999999999998
1.781033789011417,0,0,1.1851298217773436,0,0,0.91728
1.782419346011011,0,0,1.1731588134765625,0,0,0.84084
1.7838062559894752,0,0,1.2952630981445312,0,0,0.99372
1.7851908690063283,0,0,1.4317325927734375,0,0,0.84084
1.7865761120046955,0,0,1.218648645019531,0,0,0.68796
1.7879628730006516,0,0,1.5083470458984374,0,0,0.91728
1.789348301012069,0,0,1.2569558715820313,0,0,0.91728
1.790733285015449,0,0,1.2617442749023438,0,0,0.45864
1.7921209170017391,0,0,1.2808978881835937,0,0,0.3822
1.7935067150101531,0,0,1.2521674682617188,0,0,0.45864
1.7948927539982833,0,0,1.3144167114257812,0,0,0.0
1.7962788119912148,0,0,1.2569558715820313,0,0,0.30576000000000003
1.7976641659915913,0,0,1.438915197753906,0,0,0.91728
1.799050019995775,0,0,1.4101847778320311,0,0,0.91728
1.8004360400082078,0,0,1.189918225097656,0,0,0.84084
1.8018215610063635,0,0,1.0821791503906248,0,0,1.07016
1.8032074889924843,0,0,1.0678139404296874,0,0,0.7644
1.8045933980029076,0,0,1.3359645263671873,0,0,1.75812
1.8059791040141135,0,0,1.5035586425781249,0,0,1.2994800000000002
1.807366588007426,0,0,1.2497732666015624,0,0,1.1465999999999998
1.8087525159935467,0,0,1.484405029296875,0,0,1.2994800000000002
1.810138017986901,0,0,1.1827356201171875,0,0,0.99372
1.81152340900735,0,0,1.1635820068359375,0,0,0.99372
1.812908947991673,0,0,1.1947066284179686,0,0,20
1.8142950239998754,0,0,1.3359645263671873,0,0,0.0
1.8156811190128792,0,0,1.5179238525390624,0,0,0.0
1.8170748059928883,0,0,1.618480322265625,0,0,0.6115200000000001
1.818461844988633,0,0,1.5849614990234373,0,0,0.68796
1.819848532002652,0,0,1.3120225097656248,0,0,0.53508
1.821240052988287,0,0,1.2401964599609374,0,0,0.91728
1.8226260730007198,0,0,1.180341418457031,0,0,0.91728
1.8240125570155215,0,0,1.1540052001953125,0,0,0.91728
1.8253978920110967,0,0,1.3718775512695311,0,0,0.68796
1.8267838940082584,0,0,1.5155296508789062,0,0,0.84084
1.8281698600039817,0,0,1.4221557861328125,0,0,0.7644
1.8295557879901025,0,0,1.3431471313476562,0,0,1.07016
1.830941549007548,0,0,1.0893617553710937,0,0,1.1465999999999998
1.8323285689984914,0,0,1.2042834350585936,0,0,0.6115200000000001
1.8337140530056786,0,0,1.3383587280273437,0,0,0.7644
1.8350998139940202,0,0,1.1611878051757811,0,0,1.2230400000000001
1.8364857790002134,0,0,1.3814543579101561,0,0,0.45864
1.837871707015438,0,0,1.4987702392578124,0,0,0.91728
1.839257006009575,0,0,1.5298948608398437,0,0,0.84084
1.84064263800974,0,0,1.1923124267578125,0,0,0.7644
1.8420282879960723,0,0,1.350329736328125,0,0,0.91728
1.843414308008505,0,0,1.1635820068359375,0,0,0.53508
1.8448004400124773,0,0,1.0797849487304687,0,0,0.7644
1.8461859789968003,0,0,1.37906015625,0,0,0.22932
1.8475722960138228,0,0,1.3575123413085937,0,0,0.91728
1.8489584650087636,0,0,1.2880804931640624,0,0,0.53508
1.8503437080071308,0,0,1.2880804931640624,0,0,0.84084
1.8517299320083112,0,0,1.0893617553710937,0,0,0.99372
1.8531147670000792,0,0,1.1707646118164061,0,0,0.91728
1.854500546993222,0,0,1.1540052001953125,0,0,0.7644
1.8558865489903837,0,0,1.3431471313476562,0,0,1.5288
1.8572719770018011,0,0,1.4341267944335936,0,0,1.07016
1.8586577019887045,0,0,1.3479355346679687,0,0,1.2994800000000002
1.860044092987664,0,0,1.4221557861328125,0,0,0.84084
1.8614290209952742,0,0,1.1109095703125,0,0,0.84084
1.8628145779948682,0,0,1.3455413330078123,0,0,0.53508
1.8642003400018439,0,0,1.199495031738281,0,0,0.15288000000000002
1.8655951750115491,0,0,1.209071838378906,0,0,0.53508
1.8669808809936512,0,0,1.3455413330078123,0,0,0.45864
1.8683663829870056,0,0,1.3287819213867187,0,0,0.84084
1.8697519779962022,0,0,1.2401964599609374,0,0,0.84084
1.8711374060076196,0,0,1.0797849487304687,0,0,0.30576000000000003
1.872523241007002,0,0,1.1947066284179686,0,0,0.91728
1.8739091689931229,0,0,1.2330138549804688,0,0,0.91728
1.875302227010252,0,0,1.1755530151367186,0,0,0.99372
1.876688099000603,0,0,1.4724340209960938,0,0,1.2994800000000002
1.8780743050156161,0,0,1.4245499877929686,0,0,0.91728
1.8794599740067497,0,0,1.209071838378906,0,0,0.7644
1.880845642008353,0,0,1.5634136840820312,0,0,0.91728
1.8822316809964832,0,0,1.1707646118164061,0,0,1.07016
1.8836183690000325,0,0,1.1468225952148436,0,0,0.7644
1.885002833994804,0,0,1.1444283935546875,0,0,0.45864
1.886682684009429,0,0,1.2761094848632812,0,0,0.99372
1.8880763709894381,0,0,1.5227122558593749,0,0,0.84084
1.8894630399881862,0,0,1.3168109130859373,0,0,0.99372
1.8908502089907415,0,0,1.4939818359375,0,0,0.99372
1.8922374889953062,0,0,1.149216796875,0,0,1.1465999999999998
1.8936245090153534,0,0,1.2497732666015624,0,0,0.6115200000000001
1.8950116600026377,0,0,1.3335703247070312,0,0,0.53508
1.8963982909917831,0,0,1.2138602416992186,0,0,0.7644
1.8977851640083827,0,0,1.3120225097656248,0,0,0.30576000000000003
1.899171536002541,0,0,1.369483349609375,0,0,0.45864
1.9005582609970588,0,0,1.3263877197265623,0,0,0.7644
1.901945021993015,0,0,1.4772224243164063,0,0,0.7644
1.903331782988971,0,0,1.2018892333984375,0,0,0.91728
1.9047186739917379,0,0,1.218648645019531,0,0,1.07016
1.9061049350129906,0,0,1.209071838378906,0,0,0.68796
1.9074924380111042,0,0,1.3383587280273437,0,0,0.99372
1.9088903839874547,0,0,1.5155296508789062,0,0,0.91728
1.910307385987835,0,0,1.2378022583007813,0,0,0.68796
1.9118726449960377,0,0,1.5801730957031248,0,0,1.07016
1.9132668139936868,0,0,1.22583125,0,0,0.84084
1.9146538529894315,0,0,1.2832920898437499,0,0,0.84084
1.9160428920004051,0,0,1.1013327636718748,0,0,0.6115200000000001
1.9174287269997876,0,0,1.1516109985351561,0,0,0.30576000000000003
1.9188159329933114,0,0,1.455674609375,0,0,0.07644000000000001
1.9202028420113493,0,0,1.2114660400390624,0,0,0.68796
1.9215896780078765,0,0,1.4915876342773438,0,0,0.6115200000000001
1.9229766800126527,0,0,1.1109095703125,0,0,0.53508
1.9243591820122674,0,0,1.1611878051757811,0,0,0.6115200000000001
1.925737832003506,0,0,1.2234370483398436,0,0,0.30576000000000003
1.9271160750067793,0,0,1.2904746948242187,0,0,0.7644
1.9285036879882682,0,0,1.3862427612304686,0,0,0.99372
1.929890819999855,0,0,1.4939818359375,0,0,0.68796
1.9312773779965937,0,0,1.3407529296874998,0,0,0.7644
1.932795600994723,0,0,1.6041151123046875,0,0,0.45864
1.934208362014033,0,0,1.2785036865234374,0,0,0.99372
1.9356229930126574,0,0,1.2689268798828124,0,0,0.99372
1.9370090140146203,0,0,1.1540052001953125,0,0,1.2230400000000001
1.9383959599945229,0,0,1.3263877197265623,0,0,1.37592
1.9397805359913036,0,0,1.4053963745117186,0,0,0.68796
1.9411581869935617,0,0,1.1707646118164061,0,0,0.7644
1.9425362999900244,0,0,1.6424223388671875,0,0,0.91728
1.9439211350108963,0,0,1.2976572998046874,0,0,0.53508
1.9453072480100673,0,0,1.2521674682617188,0,0,0.6115200000000001
1.946692750992952,0,0,1.3718775512695311,0,0,0.3822
1.9480786600033753,0,0,1.2785036865234374,0,0,0.15288000000000002
1.9494647730025463,0,0,1.3838485595703125,0,0,0.15288000000000002
1.950849960994674,0,0,1.3814543579101561,0,0,0.68796
1.952234814001713,0,0,1.4963760375976562,0,0,0.68796
1.9536723160126712,0,0,1.3120225097656248,0,0,0.68796
1.955057596002007,0,0,1.2976572998046874,0,0,0.6115200000000001
1.95660268899519,0,0,1.1635820068359375,0,0,0.6115200000000001
1.957984745997237,0,0,1.199495031738281,0,0,0.91728
1.959363989008125,0,0,1.3670891479492187,0,0,0.6115200000000001
1.9607761949882843,0,0,1.4006079711914061,0,0,0.91728
1.96224780700868,0,0,1.3623007446289062,0,0,0.68796
1.9636301239952445,0,0,1.4891934326171874,0,0,0.68796
1.9650100150029175,0,0,1.235408056640625,0,0,1.2230400000000001
1.9667091800074559,0,0,1.158793603515625,0,0,0.99372
1.9681106820062269,0,0,1.1923124267578125,0,0,0.53508
1.9695956640061922,0,0,1.2856862915039062,0,0,0.99372
1.97097466600826,0,0,1.3311761230468748,0,0,0.68796
1.9723564280138817,0,0,1.2928688964843749,0,0,0.68796
1.973735948005924,0,0,1.5346832641601562,0,0,0.7644
1.9751149140065536,0,0,1.216254443359375,0,0,1.07016
1.9764946190116461,0,0,1.24498486328125,0,0,0.91728
1.9778728249948472,0,0,1.350329736328125,0,0,0.53508
1.979251031007152,0,0,1.2641384765625,0,0,0.53508
1.9806315519963391,0,0,1.3838485595703125,0,0,0.30576000000000003
1.982010164996609,0,0,1.2976572998046874,0,0,0.84084
1.9833881120139267,0,0,1.5466542724609373,0,0,0.84084
1.9848354459973052,0,0,1.5298948608398437,0,0,0.84084
1.9862605959933717,0,0,1.199495031738281,0,0,0.7644
1.9876497460063547,0,0,1.180341418457031,0,0,0.53508
1.989037248014938,0,0,1.1707646118164061,0,0,0.30576000000000003
1.9904245650104713,0,0,1.3814543579101561,0,0,-9.40212
1.9918138819921296,0,0,1.4341267944335936,0,0,0.68796
1.9932286250113975,0,0,1.4604630126953124,0,0,0.68796
1.994615886011161,0,0,1.4772224243164063,0,0,0.7644
1.996000240003923,0,0,1.2114660400390624,0,0,0.84084
1.997384593996685,0,0,1.120486376953125,0,0,1.2230400000000001
1.9987637070007622,0,0,1.3144167114257812,0,0,0.7644
2.0001484130043536,0,0,1.2976572998046874,0,0,1.07016
2.0015329890011344,0,0,1.5107412475585937,0,0,0.6115200000000001
2.0029603609873448,0,0,1.3479355346679687,0,0,0.91728
2.0043496229918674,0,0,1.4939818359375,0,0,0.91728
2.0057363839878235,0,0,1.158793603515625,0,0,1.2230400000000001
2.0071229969908018,0,0,1.199495031738281,0,0,0.7644
2.008526054007234,0,0,1.3551181396484375,0,0,0.45864
2.009912631008774,0,0,1.2785036865234374,0,0,0.45864
2.011299687990686,0,0,1.388636962890625,0,0,0.0
2.012686523987213,0,0,1.5107412475585937,0,0,0.7644
2.014072785008466,0,0,1.5514426757812498,0,0,0.3822
2.0154600829991978,0,0,1.2401964599609374,0,0,0.84084
2.016846548009198,0,0,1.1947066284179686,0,0,0.91728
2.0182333840057254,0,0,1.218648645019531,0,0,0.7644
2.0196242009988055,0,0,1.1420341918945311,0,0,0.84084
2.0210107029997744,0,0,1.4006079711914061,0,0,1.2230400000000001
2.022397371008992,0,0,1.3958195678710936,0,0,0.99372
2.0237850029952824,0,0,1.2689268798828124,0,0,0.99372
2.025170856999466,0,0,1.446097802734375,0,0,1.07016
2.026557100005448,0,0,1.2042834350585936,0,0,0.99372
2.027944564993959,0,0,1.0869675537109373,0,0,0.68796
2.029336030012928,0,0,1.1635820068359375,0,0,0.3822
2.030723088013474,0,0,1.1013327636718748,0,0,0.68796
2.03210984900943,0,0,1.5490484741210937,0,0,0.3822
2.0334985550143756,0,0,1.4508862060546874,0,0,0.91728
2.0348882600083016,0,0,1.467645617675781,0,0,0.7644
2.036275188002037,0,0,1.1276689819335937,0,0,0.68796
2.037661615991965,0,0,1.1252747802734375,0,0,0.30576000000000003
2.039047803991707,0,0,1.2234370483398436,0,0,0.68796
2.0404346020077355,0,0,1.158793603515625,0,0,0.45864
2.0418336970033124,0,0,1.446097802734375,0,0,0.6115200000000001
2.0432201249932405,0,0,1.4317325927734375,0,0,0.84084
2.044606607989408,0,0,1.3215993164062498,0,0,-9.01992
2.0459938879939727,0,0,1.2401964599609374,0,0,0.84084
2.0473810379917268,0,0,1.3383587280273437,0,0,1.1465999999999998
2.048767022002721,0,0,1.177947216796875,0,0,0.99372
2.05015328299487,0,0,1.2617442749023438,0,0,0.68796
2.0515469149977434,0,0,1.3623007446289062,0,0,1.2230400000000001
2.0529918239917606,0,0,1.4006079711914061,0,0,0.53508
2.0543789000075776,0,0,1.3096283081054687,0,0,0.84084
2.0557664569932967,0,0,1.388636962890625,0,0,1.07016
2.0571521449892316,0,0,1.180341418457031,0,0,0.99372
2.0585385730082635,0,0,1.3742717529296875,0,0,0.6115200000000001
2.0599259450100362,0,0,1.2569558715820313,0,0,0.6115200000000001
2.0613118920009583,0,0,1.2569558715820313,0,0,0.45864
2.062698875000933,0,0,1.2832920898437499,0,0,-0.22932
2.064104265999049,0,0,1.2904746948242187,0,0,0.7644
2.0654912859899923,0,0,1.39821376953125,0,0,0.84084
2.0668779920088127,0,0,1.2138602416992186,0,0,0.45864
2.068264734989498,0,0,1.2689268798828124,0,0,0.91728
2.069650958990678,0,0,1.1180921752929687,0,0,0.84084
2.0710378130024765,0,0,1.2473790649414063,0,0,1.07016
2.0724243150034454,0,0,1.3168109130859373,0,0,1.1465999999999998
2.0738104099873453,0,0,1.3910311645507811,0,0,0.68796
2.0751967639953364,0,0,1.2497732666015624,0,0,0.68796
2.076583543996094,0,0,1.6831237670898436,0,0,0.91728
2.0779700269922614,0,0,1.1923124267578125,0,0,0.7644
2.079356733011082,0,0,1.1947066284179686,0,0,0.7644
2.080743569007609,0,0,1.2234370483398436,0,0,0.7644
2.082130088994745,0,0,1.2641384765625,0,0,0.45864
2.083516517013777,0,0,1.2713210815429687,0,0,0.22932
2.0849342969886493,0,0,1.2330138549804688,0,0,0.84084
2.0863199649902526,0,0,1.4987702392578124,0,0,0.7644
2.0878879280062392,0,0,1.1540052001953125,0,0,0.53508
2.0892857080034446,0,0,1.20667763671875,0,0,0.3822
2.0906732289877255,0,0,1.0965443603515623,0,0,0.45864
2.0920617489900906,0,0,1.2114660400390624,0,0,0.53508
2.093449806998251,0,0,1.3311761230468748,0,0,0.45864
2.0948363640054595,0,0,1.4173673828125,0,0,0.99372
2.096223533008015,0,0,1.429338391113281,0,0,-8.7906
2.097611108998535,0,0,1.438915197753906,0,0,0.68796
2.0989977779972833,0,0,1.24498486328125,0,0,1.1465999999999998
2.100384410005063,0,0,1.1037269653320312,0,0,1.1465999999999998
2.1017711159947794,0,0,1.1827356201171875,0,0,0.7644
2.1031578769907355,0,0,1.3407529296874998,0,0,0.99372
2.104545083013363,0,0,1.5011644409179687,0,0,0.68796
2.1059313809964806,0,0,1.2569558715820313,0,0,0.84084
2.107318235008279,0,0,1.6472107421875,0,0,0.99372
2.1087054960080422,0,0,1.1516109985351561,0,0,0.99372
2.1101524049881846,0,0,1.1707646118164061,0,0,0.6115200000000001
2.1116095730103552,0,0,1.2018892333984375,0,0,0.68796
2.113082925992785,0,0,1.3144167114257812,0,0,0.7644
2.1145262980135158,0,0,1.47482822265625,0,0,0.53508
2.1159809840028174,0,0,1.3263877197265623,0,0,0.84084
2.117463984992355,0,0,1.668758557128906,0,0,0.91728
2.1192986670066603,0,0,1.2401964599609374,0,0,1.07016
2.1207757419906557,0,0,1.2282254516601563,0,0,0.68796
2.122287206002511,0,0,1.3000515014648437,0,0,0.68796
2.1237863730057143,0,0,1.3168109130859373,0,0,1.37592
2.1252553559897933,0,0,1.446097802734375,0,0,0.99372
2.1267303570057265,0,0,1.419761584472656,0,0,0.7644
2.128213821008103,0,0,1.4413093994140624,0,0,1.2230400000000001
2.1296956920123193,0,0,1.3192051147460937,0,0,1.2230400000000001
2.131092157011153,0,0,1.149216796875,0,0,1.07016
2.132479213993065,0,0,1.2832920898437499,0,0,0.68796
2.1338592350075487,0,0,1.2282254516601563,0,0,0.30576000000000003
2.1352379040035885,0,0,1.4173673828125,0,0,0.68796
2.1366185169899836,0,0,1.4221557861328125,0,0,1.07016
2.1379970189882442,0,0,1.4772224243164063,0,0,0.68796
2.139375761995325,0,0,1.1563994018554686,0,0,0.68796
2.1407555240148213,0,0,1.1875240234375,0,0,0.6115200000000001
2.1421340630040504,0,0,1.1659762084960936,0,0,0.45864
2.1435153979982715,0,0,1.13006318359375,0,0,0.45864
2.144899234001059,0,0,1.3814543579101561,0,0,0.0
2.146277513995301,0,0,1.4891934326171874,0,0,0.6115200000000001
2.147672552993754,0,0,1.4820108276367188,0,0,0.7644
2.149052110995399,0,0,1.254561669921875,0,0,1.07016
2.1504315200145356,0,0,1.0797849487304687,0,0,0.91728
2.151814132987056,0,0,1.1276689819335937,0,0,1.07016
2.153192913014209,0,0,1.0989385620117187,0,0,0.91728
2.1545715449901763,0,0,1.3527239379882812,0,0,0.99372
2.1559522509924136,0,0,1.5035586425781249,0,0,1.07016
2.1573341420153156,0,0,1.35990654296875,0,0,0.99372
2.1587122000055388,0,0,1.37906015625,0,0,1.07016
2.1601112020143773,0,0,1.0821791503906248,0,0,1.2230400000000001
2.161586055008229,0,0,1.1947066284179686,0,0,0.6115200000000001
2.162996908009518,0,0,1.2306196533203124,0,0,0.30576000000000003
2.164398724999046,0,0,1.1372457885742187,0,0,0.53508
2.165779264003504,0,0,1.3455413330078123,0,0,0.15288000000000002
2.167158191994531,0,0,1.3144167114257812,0,0,0.7644
2.1685382869909517,0,0,1.3287819213867187,0,0,0.53508
2.1699333070137072,0,0,1.1755530151367186,0,0,0.53508
2.1713140690117143,0,0,1.2880804931640624,0,0,0.45864
2.172702404001029,0,0,1.209071838378906,0,0,0.7644
2.1740965170029085,0,0,1.1611878051757811,0,0,0.6115200000000001
2.1754838339984417,0,0,1.3455413330078123,0,0,0.6115200000000001
2.1768704290152527,0,0,1.4508862060546874,0,0,0.91728
2.1782565790053923,0,0,1.2880804931640624,0,0,0.68796
2.1796431179973297,0,0,1.2378022583007813,0,0,0.7644
2.1810288800043054,0,0,1.2497732666015624,0,0,1.2230400000000001
2.182414159004111,0,0,1.3479355346679687,0,0,0.84084
2.1838007910118904,0,0,1.1827356201171875,0,0,0.3822
2.1851861079921946,0,0,1.1923124267578125,0,0,0.7644
2.186577035987284,0,0,1.4101847778320311,0,0,0.22932
2.1879681489954237,0,0,1.3048399047851562,0,0,0.91728
2.1893534479895607,0,0,1.4628572143554686,0,0,0.99372
2.1907440980139654,0,0,1.1348515869140625,0,0,0.6115200000000001
2.1921313409984577,0,0,1.180341418457031,0,0,0.6115200000000001
2.193516750005074,0,0,1.216254443359375,0,0,0.45864
2.1949022710032295,0,0,1.2401964599609374,0,0,0.68796
2.1962883840024006,0,0,1.3000515014648437,0,0,0.53508
2.1976740900136065,0,0,1.3527239379882812,0,0,0.91728
2.199060240003746,0,0,1.3670891479492187,0,0,0.84084
2.200446408998687,0,0,1.4221557861328125,0,0,0.68796
2.20183231800911,0,0,1.254561669921875,0,0,0.84084
2.2032180239912122,0,0,1.0989385620117187,0,0,1.1465999999999998
2.2046043039881624,0,0,1.3192051147460937,0,0,0.99372
2.205995972006349,0,0,1.3718775512695311,0,0,1.2994800000000002
2.2073813999886625,0,0,1.4101847778320311,0,0,0.84084
2.2087674209906254,0,0,1.1875240234375,0,0,0.91728
2.210153496998828,0,0,1.4149731811523436,0,0,0.84084
2.2115392400010023,0,0,1.2856862915039062,0,0,0.91728
2.2129268159915227,0,0,1.20667763671875,0,0,0.6115200000000001
2.2143123369896784,0,0,1.1540052001953125,0,0,0.53508
2.215698506013723,0,0,1.2282254516601563,0,0,0.22932
2.217083341005491,0,0,1.4125789794921875,0,0,-0.15288000000000002
2.2184828059980646,0,0,1.4053963745117186,0,0,0.68796
2.219869177992223,0,0,1.6017209106445311,0,0,0.6115200000000001
2.221257124998374,0,0,1.3455413330078123,0,0,0.45864
2.222643331013387,0,0,1.2114660400390624,0,0,0.99372
2.2240372959931847,0,0,1.1707646118164061,0,0,0.6115200000000001
2.2254235750006046,0,0,1.2282254516601563,0,0,0.84084
2.226809299987508,0,0,1.2737152832031249,0,0,1.07016
2.228207061009016,0,0,1.4245499877929686,0,0,-8.943480000000001
2.229594303993508,0,0,1.3910311645507811,0,0,0.99372
2.2309803800017107,0,0,1.4006079711914061,0,0,0.91728
2.2323665670119226,0,0,1.1324573852539062,0,0,1.07016
2.233752216998255,0,0,1.177947216796875,0,0,0.84084
2.235138015996199,0,0,1.1755530151367186,0,0,0.7644
2.2365237589983735,0,0,1.3096283081054687,0,0,0.68796
2.237909426999977,0,0,1.465251416015625,0,0,0.22932
2.239295559003949,0,0,1.4604630126953124,0,0,1.07016
2.2406861539930105,0,0,1.5131354492187499,0,0,0.91728
2.2420717109926045,0,0,1.1875240234375,0,0,0.84084
2.2434580470144283,0,0,1.0941501586914062,0,0,0.91728
2.244844197004568,0,0,1.2737152832031249,0,0,0.3822
2.246229440002935,0,0,1.2042834350585936,0,0,0.6115200000000001
2.2476167200074997,0,0,1.4604630126953124,0,0,0.91728
2.249003166012699,0,0,1.3623007446289062,0,0,0.91728
2.2503889279905707,0,0,1.20667763671875,0,0,20
2.251775726006599,0,0,1.235408056640625,0,0,0.0
2.2531614690087736,0,0,1.2138602416992186,0,0,1.1465999999999998
2.254547212010948,0,0,1.16837041015625,0,0,0.91728
2.2559343249886297,0,0,1.197100830078125,0,0,1.07016
2.2573194750002585,0,0,1.2856862915039062,0,0,1.07016
2.2587051070004236,0,0,1.5059528442382812,0,0,0.68796
2.2600909789907746,0,0,1.2569558715820313,0,0,0.99372
2.2614834629930556,0,0,1.4508862060546874,0,0,0.7644
2.2628684279916342,0,0,1.0845733520507812,0,0,0.68796
2.2642892439907882,0,0,1.2832920898437499,0,0,0.84084
2.26567572800559,0,0,1.20667763671875,0,0,0.53508
2.2670684340118896,0,0,1.1516109985351561,0,0,0.3822
2.268455120996805,0,0,1.5155296508789062,0,0,0.22932
2.2698406229901593,0,0,1.3479355346679687,0,0,0.68796
2.2712262730055954,0,0,1.3215993164062498,0,0,0.6115200000000001
2.2726116460107733,0,0,1.2234370483398436,0,0,0.6115200000000001
2.273997796000913,0,0,1.1851298217773436,0,0,0.7644
2.275383761007106,0,0,1.1875240234375,0,0,0.99372
2.276769632997457,0,0,1.1875240234375,0,0,0.68796
2.278155320993392,0,0,1.235408056640625,0,0,1.37592
2.2795414149877615,0,0,1.4101847778320311,0,0,0.84084
2.280928916996345,0,0,1.2976572998046874,0,0,0.68796
2.2823152900091372,0,0,1.5322890624999999,0,0,1.1465999999999998
2.283700847008731,0,0,1.1348515869140625,0,0,0.91728
2.2850861639890354,0,0,1.180341418457031,0,0,0.7644
2.286485091986833,0,0,1.2018892333984375,0,0,0.3822
2.2878714090038557,0,0,1.2737152832031249,0,0,0.22932
2.2892564850044437,0,0,1.4125789794921875,0,0,0.45864
2.290642301988555,0,0,1.2018892333984375,0,0,0.7644
2.2920286190055776,0,0,1.6017209106445311,0,0,0.99372
2.293413492006948,0,0,1.2497732666015624,0,0,0.6115200000000001
2.2947999199968763,0,0,1.3215993164062498,0,0,0.53508
2.2961855879984796,0,0,1.16837041015625,0,0,0.53508
2.297570941998856,0,0,1.2593500732421874,0,0,0.68796
2.2989561299909838,0,0,1.3862427612304686,0,0,1.2230400000000001
2.300342039001407,0,0,1.426944189453125,0,0,0.68796
2.3017270780110266,0,0,1.2832920898437499,0,0,0.3822
2.3031126169953495,0,0,1.467645617675781,0,0,0.84084
2.3044984159932937,0,0,1.2928688964843749,0,0,1.07016
2.3058907139929943,0,0,1.1659762084960936,0,0,1.1465999999999998
2.307276309002191,0,0,1.1133037719726562,0,0,0.7644
2.3086625699943397,0,0,1.3479355346679687,0,0,0.7644
2.3100479610147886,0,0,1.3814543579101561,0,0,0.91728
2.311433388997102,0,0,1.3000515014648437,0,0,0.91728
2.3128193730080966,0,0,1.5610194824218748,0,0,0.84084
2.314205060014501,0,0,1.3215993164062498,0,0,0.6115200000000001
2.3155904689920135,0,0,1.197100830078125,0,0,0.53508
2.3169766569917556,0,0,1.3287819213867187,0,0,0.45864
2.3183623070071917,0,0,1.3144167114257812,0,0,0.30576000000000003
2.319748364010593,0,0,1.4125789794921875,0,0,0.15288000000000002
2.3211333669896703,0,0,1.3814543579101561,0,0,0.30576000000000003
2.3225184429902583,0,0,1.6041151123046875,0,0,0.91728
2.323904610995669,0,0,1.3192051147460937,0,0,0.84084
2.325289688014891,0,0,1.120486376953125,0,0,0.6115200000000001
2.326675468008034,0,0,1.2306196533203124,0,0,0.6115200000000001
2.3280613959941547,0,0,1.0773907470703123,0,0,0.7644
2.3294465460057836,0,0,1.3383587280273437,0,0,1.37592
2.330831566010602,0,0,1.4149731811523436,0,0,0.99372
2.3322172540065367,0,0,1.3048399047851562,0,0,1.07016
2.333602514991071,0,0,1.4987702392578124,0,0,1.07016
2.334988165006507,0,0,1.189918225097656,0,0,1.2994800000000002
2.3363742229994386,0,0,1.120486376953125,0,0,0.7644
2.337759576999815,0,0,1.1875240234375,0,0,0.45864
2.3391450789931696,0,0,1.0797849487304687,0,0,-9.24924
2.340531377005391,0,0,1.39821376953125,0,0,0.0
2.3419172870053444,0,0,1.3670891479492187,0,0,0.45864
2.343305343994871,0,0,1.2808978881835937,0,0,0.7644
2.3446990129887126,0,0,1.1923124267578125,0,0,0.6115200000000001
2.346085144992685,0,0,1.149216796875,0,0,0.68796
2.347473164991243,0,0,1.20667763671875,0,0,0.53508
2.348865667008795,0,0,1.2210428466796874,0,0,0.7644
2.350251780997496,0,0,1.254561669921875,0,0,0.45864
2.3516388009884395,0,0,1.3551181396484375,0,0,1.07016
2.3530242849956267,0,0,1.3072341064453123,0,0,0.84084
2.354409805004252,0,0,1.2928688964843749,0,0,1.1465999999999998
2.3557962519989815,0,0,1.1731588134765625,0,0,0.91728
2.3571827539999504,0,0,1.2401964599609374,0,0,0.84084
2.358785808988614,0,0,1.2330138549804688,0,0,1.2230400000000001
2.3602727729885373,0,0,1.2401964599609374,0,0,0.68796
2.363509179005632,0,0,1.5107412475585937,0,0,0.6115200000000001
2.3649818650155794,0,0,1.2737152832031249,0,0,0.6115200000000001
2.366363164008362,0,0,1.216254443359375,0,0,0.91728
2.367744721006602,0,0,1.158793603515625,0,0,1.07016
2.369123631011462,0,0,1.1851298217773436,0,0,0.7644
2.3705019849876408,0,0,1.2234370483398436,0,0,1.07016
2.371933598013129,0,0,1.3287819213867187,0,0,0.91728
2.373355766001623,0,0,1.3814543579101561,0,0,0.68796
2.374735471996246,0,0,1.465251416015625,0,0,0.91728
2.3761176409898326,0,0,1.218648645019531,0,0,0.91728
2.377496069006156,0,0,1.1875240234375,0,0,0.91728
2.3788741629978176,0,0,1.1875240234375,0,0,0.7644
2.3802553880086634,0,0,1.1516109985351561,0,0,0.45864
2.3816423160023987,0,0,1.4867992309570313,0,0,0.07644000000000001
2.383020632987609,0,0,1.4987702392578124,0,0,0.91728
2.384401468007127,0,0,1.4987702392578124,0,0,0.84084
2.3857795069925487,0,0,1.1563994018554686,0,0,0.7644
2.3871990090119652,0,0,1.0749965454101562,0,0,0.7644
2.3885915669961832,0,0,1.2234370483398436,0,0,0.6115200000000001
2.3899792729935143,0,0,1.0917559570312498,0,0,0.3822
2.391366071009543,0,0,1.446097802734375,0,0,1.07016
2.392753313994035,0,0,1.429338391113281,0,0,0.84084
2.3941405570076313,0,0,1.3192051147460937,0,0,0.6115200000000001
2.3955463920137845,0,0,1.3311761230468748,0,0,1.07016
2.396950338006718,0,0,1.218648645019531,0,0,0.84084
2.398337246995652,0,0,1.1061211669921875,0,0,0.99372
2.399721824011067,0,0,1.1180921752929687,0,0,0.7644
2.4010997700097505,0,0,1.1947066284179686,0,0,0.99372
2.402478328003781,0,0,1.4604630126953124,0,0,0.91728
2.403863885992905,0,0,1.3096283081054687,0,0,1.45236
2.4052609429927543,0,0,1.43652099609375,0,0,0.99372
2.4066483530041296,0,0,1.1611878051757811,0,0,0.91728
2.4080362069944385,0,0,1.3335703247070312,0,0,0.45864
2.4094219309918117,0,0,1.177947216796875,0,0,0.45864
2.410809099994367,0,0,1.2234370483398436,0,0,0.30576000000000003
2.412244194012601,0,0,1.4149731811523436,0,0,-0.22932
2.413704731996404,0,0,1.4053963745117186,0,0,0.6115200000000001
2.415094271011185,0,0,1.235408056640625,0,0,0.99372
2.4164868840016425,0,0,1.1563994018554686,0,0,0.53508
2.4178737380134407,0,0,1.2880804931640624,0,0,0.68796
2.419260424998356,0,0,1.189918225097656,0,0,1.07016
2.4206472609948833,0,0,1.2282254516601563,0,0,0.68796
2.422033929004101,0,0,1.2282254516601563,0,0,1.68168
2.423420895007439,0,0,1.446097802734375,0,0,1.07016
2.424801007990027,0,0,1.1947066284179686,0,0,1.07016
2.426184195006499,0,0,1.3479355346679687,0,0,1.45236
2.427596882014768,0,0,1.1827356201171875,0,0,1.07016
2.4290597350045573,0,0,1.1061211669921875,0,0,0.7644
2.4304491450020578,0,0,1.1468225952148436,0,0,0.68796
2.431838238990167,0,0,1.2282254516601563,0,0,0.6115200000000001
2.4332234080065973,0,0,1.455674609375,0,0,0.0
2.4346096880035475,0,0,1.3048399047851562,0,0,0.91728
2.435997263994068,0,0,1.5729904907226562,0,0,0.7644
2.4373831730044913,0,0,1.149216796875,0,0,0.6115200000000001
2.4387891379883513,0,0,1.350329736328125,0,0,0.84084
2.440172603004612,0,0,1.2928688964843749,0,0,0.45864
2.4415504570060875,0,0,1.3048399047851562,0,0,0.53508
2.4429282000055537,0,0,1.4173673828125,0,0,0.68796
2.444315053988248,0,0,1.2952630981445312,0,0,0.7644
2.4457016669912264,0,0,1.3910311645507811,0,0,0.6115200000000001
2.447087836015271,0,0,1.3862427612304686,0,0,0.84084
2.448474634991726,0,0,1.24498486328125,0,0,1.07016
2.4498608029971365,0,0,1.1085153686523437,0,0,0.7644
2.451247027987847,0,0,1.2282254516601563,0,0,1.07016
2.452633456006879,0,0,1.3359645263671873,0,0,1.37592
2.454019494995009,0,0,1.4604630126953124,0,0,1.2230400000000001
2.4554055519984104,0,0,1.235408056640625,0,0,0.91728
2.456785962014692,0,0,1.5753846923828123,0,0,0.91728
2.4582210929947905,0,0,1.1611878051757811,0,0,0.91728
2.4596870570094325,0,0,1.2234370483398436,0,0,0.7644
2.461068744014483,0,0,1.1516109985351561,0,0,0.30576000000000003
2.4624473210133146,0,0,1.218648645019531,0,0,0.7644
2.463842082011979,0,0,1.4796166259765624,0,0,0.0
2.465221399004804,0,0,1.177947216796875,0,0,0.91728
2.466599623003276,0,0,1.5179238525390624,0,0,0.6115200000000001
2.467979125009151,0,0,1.2928688964843749,0,0,0.68796
2.4693580539897084,0,0,1.2713210815429687,0,0,0.84084
2.470735999988392,0,0,1.209071838378906,0,0,0.53508
2.472123724000994,0,0,1.22583125,0,0,0.84084
2.4735107450105716,0,0,1.3311761230468748,0,0,0.7644
2.4748976360133383,0,0,1.426944189453125,0,0,0.91728
2.4762845640070736,0,0,1.4963760375976562,0,0,0.91728
2.477671344007831,0,0,1.4915876342773438,0,0,1.1465999999999998
2.4790586610033643,0,0,1.177947216796875,0,0,1.2994800000000002
2.4804453300021123,0,0,1.1085153686523437,0,0,0.84084
2.48183157198946,0,0,1.139639990234375,0,0,0.7644
2.483225981995929,0,0,1.3215993164062498,0,0,1.2230400000000001
2.4846127800119575,0,0,1.448492004394531,0,0,0.6115200000000001
2.4859995039878413,0,0,1.35990654296875,0,0,1.2230400000000001
2.4876836329931393,0,0,1.6639701538085936,0,0,1.1465999999999998
2.489072190015577,0,0,1.0941501586914062,0,0,1.07016
2.490459747990826,0,0,1.1659762084960936,0,0,0.84084
2.491847991012037,0,0,1.3000515014648437,0,0,0.45864
2.4932343260152265,0,0,1.3287819213867187,0,0,0.22932
2.494621198013192,0,0,1.5466542724609373,0,0,0.07644000000000001
2.496008812013315,0,0,1.4820108276367188,0,0,0.45864
2.4973944800149184,0,0,1.5227122558593749,0,0,0.91728
2.49878164898837,0,0,1.3383587280273437,0,0,0.53508
2.50016387400683,0,0,1.2785036865234374,0,0,0.68796
2.5015420610143337,0,0,1.1851298217773436,0,0,0.45864
2.5029203220037743,0,0,1.218648645019531,0,0,0.91728
2.5043005099869333,0,0,1.369483349609375,0,0,0.68796
2.505678401008481,0,0,1.4173673828125,0,0,0.99372
2.507056439993903,0,0,1.4820108276367188,0,0,0.68796
2.508436478994554,0,0,1.446097802734375,0,0,0.99372
2.5098144999938086,0,0,1.0773907470703123,0,0,1.07016
2.5111925209930632,0,0,1.2042834350585936,0,0,0.45864
2.5125719489878975,0,0,1.20667763671875,0,0,0.6115200000000001
2.5139492659945972,0,0,1.3024457031249999,0,0,0.45864
2.515326341992477,0,0,1.4532804077148436,0,0,0.22932
2.516705899994122,0,0,1.3096283081054687,0,0,0.91728
2.5180844760034233,0,0,1.5777788940429687,0,0,0.99372
2.5194790700043086,0,0,1.0965443603515623,0,0,0.68796
2.520868869003607,0,0,1.2114660400390624,0,0,0.6115200000000001
2.5222711479873396,0,0,1.1947066284179686,0,0,0.68796
2.523680890997639,0,0,1.1324573852539062,0,0,0.68796
2.5250700780015904,0,0,1.3742717529296875,0,0,0.22932
2.526467710005818,0,0,1.3024457031249999,0,0,0.84084
2.5278529709903523,0,0,1.2713210815429687,0,0,0.91728
2.5292302510060836,0,0,1.158793603515625,0,0,0.84084
2.5306082350143697,0,0,1.1156979736328125,0,0,0.84084
2.5319937549938913,0,0,1.2880804931640624,0,0,0.99372
2.533381182991434,0,0,1.180341418457031,0,0,0.7644
2.5347674080112483,0,0,1.2114660400390624,0,0,1.1465999999999998
2.5361540759913623,0,0,1.4317325927734375,0,0,1.2230400000000001
2.537540727003943,0,0,1.2521674682617188,0,0,0.99372
2.5389272840111516,0,0,1.5849614990234373,0,0,1.07016
2.540344601002289,0,0,1.16837041015625,0,0,0.91728
2.5417714359937236,0,0,1.3455413330078123,0,0,0.53508
2.5431658640154637,0,0,1.22583125,0,0,0.45864
2.544552957988344,0,0,1.218648645019531,0,0,0.6115200000000001
2.5459396640071645,0,0,1.369483349609375,0,0,0.07644000000000001
2.5473264250031207,0,0,1.3072341064453123,0,0,0.45864
2.548713205003878,0,0,1.4006079711914061,0,0,0.6115200000000001
2.5500997999915853,0,0,1.1324573852539062,0,0,0.7644
2.5514861720148474,0,0,1.199495031738281,0,0,0.7644
2.5528664710000157,0,0,1.2138602416992186,0,0,0.7644
2.554244955012109,0,0,1.0941501586914062,0,0,0.91728
2.555651975009823,0,0,1.3239935180664062,0,0,0.7644
2.5570401069999207,0,0,1.39821376953125,0,0,0.99372
2.5584323309885804,0,0,1.3838485595703125,0,0,0.6115200000000001
2.559819537011208,0,0,1.637633935546875,0,0,0.7644
2.5612055019882973,0,0,1.2210428466796874,0,0,1.37592
2.562596206989838,0,0,1.2138602416992186,0,0,0.91728
2.5639845429977868,0,0,1.1444283935546875,0,0,1.07016
2.5653709520120174,0,0,1.235408056640625,0,0,1.1465999999999998
2.56706008000765,0,0,1.4317325927734375,0,0,1.07016
2.5684478050097823,0,0,1.2952630981445312,0,0,0.68796
2.5698268440028187,0,0,1.429338391113281,0,0,0.7644
2.57121927200933,0,0,1.2018892333984375,0,0,1.1465999999999998
2.5726084029884078,0,0,1.1755530151367186,0,0,0.7644
2.5739955349999946,0,0,1.177947216796875,0,0,0.30576000000000003
2.5753822970145848,0,0,1.3000515014648437,0,0,0.91728
2.5767692429944873,0,0,1.3072341064453123,0,0,0.0
2.578155577997677,0,0,1.1875240234375,0,0,0.3822
2.5795427660050336,0,0,1.5083470458984374,0,0,0.91728
2.5809386940090917,0,0,1.189918225097656,0,0,0.7644
2.5823326029931195,0,0,1.2689268798828124,0,0,0.7644
2.5837246050068643,0,0,1.0821791503906248,0,0,0.84084
2.585116736998316,0,0,1.22583125,0,0,0.53508
2.5865034050075337,0,0,1.254561669921875,0,0,0.99372
2.5878874819900375,0,0,1.5155296508789062,0,0,0.99372
2.5892659650126006,0,0,1.4341267944335936,0,0,0.99372
2.5906445040018298,0,0,1.5275006591796874,0,0,0.7644
2.5920307660126127,0,0,1.218648645019531,0,0,0.91728
2.5934174720023293,0,0,1.2210428466796874,0,0,0.91728
2.5948038260103203,0,0,1.3718775512695311,0,0,0.91728
2.5961854199995287,0,0,1.2689268798828124,0,0,1.1465999999999998
2.5975632930058055,0,0,1.4173673828125,0,0,0.53508
2.5989414429932367,0,0,1.2737152832031249,0,0,0.99372
2.600328630011063,0,0,1.4987702392578124,0,0,1.1465999999999998
2.6017156690068077,0,0,1.2832920898437499,0,0,0.99372
2.603102411987493,0,0,1.2018892333984375,0,0,0.6115200000000001
2.6044892850040924,0,0,1.2018892333984375,0,0,0.53508
2.6058758980070706,0,0,1.1085153686523437,0,0,0.53508
2.6072624560038093,0,0,1.4030021728515625,0,0,0.07644000000000001
2.608865529007744,0,0,1.3718775512695311,0,0,0.68796
2.610283474990865,0,0,1.5298948608398437,0,0,0.7644
2.6116876440064516,0,0,1.2952630981445312,0,0,0.7644
2.613074830995174,0,0,1.1947066284179686,0,0,0.6115200000000001
2.6144786110089626,0,0,1.1923124267578125,0,0,0.6115200000000001
2.615866982989246,0,0,1.177947216796875,0,0,0.53508
2.6172529670002405,0,0,1.2737152832031249,0,0,0.91728
2.618639210006222,0,0,1.4700398193359374,0,0,0.91728
2.620028508012183,0,0,1.3623007446289062,0,0,0.84084
2.621414435998304,0,0,1.3623007446289062,0,0,0.7644
2.6227929570013657,0,0,0.9265560424804687,0,0,1.1465999999999998
2.624180681013968,0,0,1.1109095703125,0,0,0.84084
2.625567109003896,0,0,1.24498486328125,0,0,0.53508
2.6269534440070856,0,0,1.2234370483398436,0,0,1.2994800000000002
2.62834029798978,0,0,1.419761584472656,0,0,0.53508
2.629726726008812,0,0,1.5083470458984374,0,0,0.84084
2.631112672999734,0,0,1.5203180541992187,0,0,0.6115200000000001
2.63249919298687,0,0,1.2689268798828124,0,0,0.91728
2.6338856400107034,0,0,1.2593500732421874,0,0,0.6115200000000001
2.6352719200076535,0,0,1.209071838378906,0,0,0.45864
2.636652089015115,0,0,1.1611878051757811,0,0,0.53508
2.638029738998739,0,0,1.4724340209960938,0,0,0.0
2.6394187409896404,0,0,1.3862427612304686,0,0,0.53508
2.6408078729873523,0,0,1.2378022583007813,0,0,0.68796
2.642194429994561,0,0,1.1827356201171875,0,0,0.7644
2.643582079996122,0,0,1.120486376953125,0,0,0.99372
2.644968656997662,0,0,1.2904746948242187,0,0,1.1465999999999998
2.6463648620119784,0,0,1.2832920898437499,0,0,0.7644
2.6477521790075116,0,0,1.2713210815429687,0,0,0.91728
2.6491381440137047,0,0,1.438915197753906,0,0,0.68796
2.6505245539883617,0,0,1.2330138549804688,0,0,0.99372
2.6519116669951472,0,0,1.350329736328125,0,0,0.68796
2.6532975019945297,0,0,1.180341418457031,0,0,1.07016
2.6546839300135616,0,0,1.3431471313476562,0,0,0.68796
2.6560711550118867,0,0,1.16837041015625,0,0,0.68796
2.657456804998219,0,0,1.3048399047851562,0,0,0.45864
2.658860455005197,0,0,1.4245499877929686,0,0,0.0
2.6602426980098244,0,0,1.3431471313476562,0,0,0.53508
2.6616240330040455,0,0,1.429338391113281,0,0,1.1465999999999998
2.6630637380003463,0,0,1.16837041015625,0,0,0.68796
2.664537406002637,0,0,1.3192051147460937,0,0,0.6115200000000001
2.6659465930133592,0,0,1.1851298217773436,0,0,0.45864
2.667333410005085,0,0,1.20667763671875,0,0,0.7644
2.6687208380026277,0,0,1.2761094848632812,0,0,0.99372
2.670107359008398,0,0,1.4867992309570313,0,0,0.6115200000000001
2.6714937679935247,0,0,1.3623007446289062,0,0,0.53508
2.672874640993541,0,0,1.1252747802734375,0,0,0.84084
2.6742524210130796,0,0,1.0749965454101562,0,0,1.1465999999999998
2.675645960000111,0,0,1.1923124267578125,0,0,1.07016
2.6770343690004665,0,0,1.177947216796875,0,0,0.91728
2.6784208900062367,0,0,1.2713210815429687,0,0,0.84084
2.6798085029877257,0,0,1.438915197753906,0,0,0.84084
2.681194505013991,0,0,1.2617442749023438,0,0,0.91728
2.6825808589928783,0,0,1.6304513305664061,0,0,1.07016
2.6839684160077013,0,0,1.1061211669921875,0,0,0.30576000000000003
2.685354178014677,0,0,1.3335703247070312,0,0,0.68796
2.686740586999804,0,0,1.216254443359375,0,0,0.45864
2.688122496998403,0,0,1.2114660400390624,0,0,0.53508
2.689500609994866,0,0,1.2928688964843749,0,0,0.53508
2.690878908993909,0,0,1.2617442749023438,0,0,0.22932
2.692265429010149,0,0,1.3838485595703125,0,0,0.68796
2.693651376001071,0,0,1.4341267944335936,0,0,0.53508
2.6950368589896243,0,0,1.2641384765625,0,0,0.99372
2.6964225840056315,0,0,1.24498486328125,0,0,0.53508
2.6978282339987345,0,0,1.235408056640625,0,0,0.7644
2.69921375400736,0,0,1.3048399047851562,0,0,1.2230400000000001
2.7005993670027237,0,0,1.3623007446289062,0,0,0.68796
2.701991258014459,0,0,1.3168109130859373,0,0,0.99372
2.7033774270094,0,0,1.5562310791015623,0,0,1.07016
2.704763392015593,0,0,1.2569558715820313,0,0,0.99372
2.7061490420019254,0,0,1.189918225097656,0,0,0.53508
2.7075350070081186,0,0,1.2617442749023438,0,0,0.3822
2.7089208060060628,0,0,1.2761094848632812,0,0,0.22932
2.71030599300866,0,0,1.4772224243164063,0,0,0.45864
2.71169232900138,0,0,1.4963760375976562,0,0,0.68796
2.7130773490061983,0,0,1.6017209106445311,0,0,0.84084
2.7144630549883004,0,0,1.3239935180664062,0,0,0.45864
2.7158493530005217,0,0,1.180341418457031,0,0,0.7644
2.7172339480021037,0,0,1.254561669921875,0,0,0.68796
2.718661968014203,0,0,1.2785036865234374,0,0,0.84084
2.7200504149950575,0,0,1.484405029296875,0,0,0.6115200000000001
2.7214354719908442,0,0,1.3934253662109375,0,0,0.91728
2.7228218450036366,0,0,1.5035586425781249,0,0,0.6115200000000001
2.7242094580142293,0,0,1.455674609375,0,0,1.1465999999999998
2.725596108008176,0,0,1.0869675537109373,0,0,1.1465999999999998
2.7269823139940854,0,0,1.1755530151367186,0,0,0.99372
2.728364167996915,0,0,1.2904746948242187,0,0,0.68796
2.7297426699951757,0,0,1.3431471313476562,0,0,1.2230400000000001
2.731120523996651,0,0,1.4772224243164063,0,0,0.68796
2.732507989014266,0,0,1.3575123413085937,0,0,0.84084
2.733894879987929,0,0,1.5131354492187499,0,0,0.91728
2.7352813449979294,0,0,1.0941501586914062,0,0,1.1465999999999998
2.736668439989444,0,0,1.3335703247070312,0,0,0.99372
2.7380542939936277,0,0,1.20667763671875,0,0,0.45864
2.739440759003628,0,0,1.3407529296874998,0,0,0.7644
2.7408275390043855,0,0,1.4604630126953124,0,0,0.15288000000000002
2.7422140410053544,0,0,1.4796166259765624,0,0,0.91728
2.743610024015652,0,0,1.350329736328125,0,0,0.6115200000000001
2.744988766993629,0,0,1.199495031738281,0,0,0.53508
2.7463761210092343,0,0,1.1563994018554686,0,0,0.84084
2.747769048990449,0,0,1.158793603515625,0,0,1.07016
2.749195717013208,0,0,1.1707646118164061,0,0,0.7644
2.7505845710111316,0,0,1.3120225097656248,0,0,1.1465999999999998
2.751971351011889,0,0,1.4125789794921875,0,0,0.84084
2.7533584639895707,0,0,1.235408056640625,0,0,0.91728
2.754745003010612,0,0,1.3239935180664062,0,0,0.99372
2.756145857012598,0,0,1.149216796875,0,0,0.99372
2.757523767009843,0,0,1.158793603515625,0,0,0.7644
2.758937064994825,0,0,1.235408056640625,0,0,0.68796
2.760323733004043,0,0,1.0797849487304687,0,0,0.53508
2.7617095870082267,0,0,1.4891934326171874,0,0,0.22932
2.763154496002244,0,0,1.2425906616210938,0,0,0.84084
2.7645412019919604,0,0,1.2952630981445312,0,0,1.07016
2.7659202970098704,0,0,1.158793603515625,0,0,0.84084
2.7672988169942982,0,0,1.350329736328125,0,0,0.91728
2.768703097011894,0,0,1.1348515869140625,0,0,0.30576000000000003
2.7700890809937846,0,0,1.24498486328125,0,0,0.30576000000000003
2.77147600898752,0,0,1.3000515014648437,0,0,0.6115200000000001
2.772856733005028,0,0,1.3192051147460937,0,0,0.84084
2.774234846001491,0,0,1.3431471313476562,0,0,0.7644
2.7756524040014483,0,0,1.2378022583007813,0,0,0.91728
2.7770394799881615,0,0,1.2569558715820313,0,0,1.07016
2.778425797005184,0,0,1.1133037719726562,0,0,0.84084
2.779812891007168,0,0,1.2832920898437499,0,0,0.6115200000000001
2.7812576520082075,0,0,1.3072341064453123,0,0,0.99372
2.78264667201438,0,0,1.4772224243164063,0,0,1.07016
2.7840377860120498,0,0,1.209071838378906,0,0,1.1465999999999998
2.785421453998424,0,0,1.599326708984375,0,0,0.91728
2.7871274900098797,0,0,1.189918225097656,0,0,1.07016
2.788546102005057,0,0,1.350329736328125,0,0,1.2230400000000001
2.789952844992513,0,0,1.1516109985351561,0,0,0.84084
2.7913404580031056,0,0,1.3431471313476562,0,0,0.45864
2.7927253679954447,0,0,1.4173673828125,0,0,0.68796
2.7941036479896866,0,0,1.2617442749023438,0,0,0.99372
2.7959671629942022,0,0,1.3766659545898436,0,0,0.91728
2.7973878310003784,0,0,1.1252747802734375,0,0,0.99372
2.798776796000311,0,0,1.1324573852539062,0,0,0.91728
2.80016464999062,0,0,1.24498486328125,0,0,0.68796
2.8015511890116613,0,0,1.2401964599609374,0,0,0.6115200000000001
2.802938395005185,0,0,1.4149731811523436,0,0,0.22932
2.8043250819901004,0,0,1.3383587280273437,0,0,0.68796
2.8057116770069115,0,0,1.5155296508789062,0,0,1.07016
2.8070982900098898,0,0,1.16837041015625,0,0,0.7644
2.808480125007918,0,0,1.3407529296874998,0,0,0.6115200000000001
2.809858330991119,0,0,1.1444283935546875,0,0,0.7644
2.811236704001203,0,0,1.0845733520507812,0,0,0.30576000000000003
2.8126250760105904,0,0,1.446097802734375,0,0,0.53508
2.8140115230053198,0,0,1.4101847778320311,0,0,0.91728
2.81541761700646,0,0,1.1252747802734375,0,0,0.7644
2.816804100992158,0,0,1.20667763671875,0,0,0.53508
2.8181904919911176,0,0,1.0749965454101562,0,0,1.07016
2.8195791420002934,0,0,1.2401964599609374,0,0,0.91728
2.8209655139944516,0,0,1.209071838378906,0,0,1.2230400000000001
2.822352201998001,0,0,1.2569558715820313,0,0,1.37592
2.8237366109970026,0,0,1.4867992309570313,0,0,0.99372
2.8251139280037023,0,0,1.199495031738281,0,0,1.2230400000000001
2.826492023013998,0,0,1.5179238525390624,0,0,0.7644
2.827876469993498,0,0,1.149216796875,0,0,0.7644
2.8292625269968994,0,0,1.3455413330078123,0,0,0.6115200000000001
2.8306480850151274,0,0,1.1635820068359375,0,0,0.15288000000000002
2.832034494000254,0,0,1.2306196533203124,0,0,0.22932
2.833419478003634,0,0,1.3575123413085937,0,0,0.07644000000000001
2.834812201996101,0,0,1.3742717529296875,0,0,0.6115200000000001
2.8361984819930512,0,0,1.4867992309570313,0,0,0.84084
2.8375840579974465,0,0,1.1563994018554686,0,0,0.7644
2.838969745003851,0,0,1.2761094848632812,0,0,0.84084
2.840354877000209,0,0,1.2330138549804688,0,0,0.30576000000000003
2.841740323987324,0,0,1.218648645019531,0,0,0.68796
2.8431260109937284,0,0,1.4772224243164063,0,0,1.60524
2.8445256800041534,0,0,1.37906015625,0,0,0.99372
2.8459112560085487,0,0,1.2737152832031249,0,0,1.07016
2.847296683990862,0,0,1.6807295654296874,0,0,1.07016
2.8486825189902447,0,0,1.2330138549804688,0,0,1.07016
2.8500679660064634,0,0,1.3670891479492187,0,0,0.6115200000000001
2.8514535420108587,0,0,1.1563994018554686,0,0,0.53508
2.852839266008232,0,0,1.254561669921875,0,0,0.45864
2.854224898008397,0,0,1.4221557861328125,0,0,-0.22932
2.855625233001774,0,0,1.139639990234375,0,0,0.84084
2.857012827997096,0,0,1.5370774658203123,0,0,0.91728
2.8583984969882295,0,0,1.2473790649414063,0,0,0.53508
2.8597849989891984,0,0,1.189918225097656,0,0,0.84084
2.8611693530110642,0,0,1.149216796875,0,0,0.53508
2.8625545210088603,0,0,1.2928688964843749,0,0,0.68796
2.863941226998577,0,0,1.4245499877929686,0,0,0.91728
2.8653266000037547,0,0,1.4628572143554686,0,0,0.6115200000000001
2.86673652700847,0,0,1.5035586425781249,0,0,0.7644
2.868125881010201,0,0,1.3910311645507811,0,0,0.84084
2.869511753990082,0,0,1.2330138549804688,0,0,0.84084
2.870897551998496,0,0,1.158793603515625,0,0,0.84084
2.872283517004689,0,0,1.0749965454101562,0,0,0.68796
2.873684223013697,0,0,1.3718775512695311,0,0,1.07016
2.8750709099986125,0,0,1.4891934326171874,0,0,1.2230400000000001
2.876456411991967,0,0,1.3479355346679687,0,0,1.07016
2.8778490250115283,0,0,1.5682020874023437,0,0,0.68796
2.879235250002239,0,0,1.1324573852539062,0,0,0.7644
2.8806214919895865,0,0,1.1827356201171875,0,0,0.53508
2.882007180014625,0,0,1.235408056640625,0,0,0.30576000000000003
2.883392958989134,0,0,1.1468225952148436,0,0,0.22932
2.8847791840089485,0,0,1.4125789794921875,0,0,0.07644000000000001
2.886164927011123,0,0,1.4149731811523436,0,0,0.53508
2.8876012430118863,0,0,1.5610194824218748,0,0,0.53508
2.8889948000141885,0,0,1.197100830078125,0,0,0.3822
2.8903821909916587,0,0,1.197100830078125,0,0,0.7644
2.8917696189892013,0,0,1.2425906616210938,0,0,0.53508
2.8931556589959655,0,0,1.2042834350585936,0,0,0.91728
2.8945420309901237,0,0,1.4772224243164063,0,0,0.7644
2.895939976995578,0,0,1.5107412475585937,0,0,1.1465999999999998
2.8973257199977525,0,0,1.3646949462890625,0,0,0.84084
2.8987119999947026,0,0,1.3335703247070312,0,0,0.99372
2.9000986870087218,0,0,1.1133037719726562,0,0,0.91728
2.901485429989407,0,0,1.2401964599609374,0,0,0.7644
2.90287187701324,0,0,1.2785036865234374,0,0,0.53508
2.9042583600094076,0,0,1.1827356201171875,0,0,1.37592
2.905644899001345,0,0,1.4437036010742186,0,0,0.84084
2.907031550013926,0,0,1.2785036865234374,0,0,0.84084
2.908418125996832,0,0,1.465251416015625,0,0,0.91728
2.909804886992788,0,0,1.120486376953125,0,0,0.7644
2.911302610009443,0,0,1.3215993164062498,0,0,0.45864
2.912729945004685,0,0,1.197100830078125,0,0,0.3822
2.91432211099891,0,0,1.1468225952148436,0,0,0.53508
2.9157207240059506,0,0,1.4939818359375,0,0,0.07644000000000001
2.9171089860028587,0,0,1.5059528442382812,0,0,0.53508
2.918495766003616,0,0,1.5275006591796874,0,0,20
2.9198898969916627,0,0,1.2473790649414063,0,0,0.0
2.921276195993414,0,0,1.2306196533203124,0,0,0.84084
2.9226806790102273,0,0,1.216254443359375,0,0,0.84084
2.9240651809959672,0,0,1.0773907470703123,0,0,0.6115200000000001
2.9254432570014615,0,0,1.3862427612304686,0,0,0.68796
2.9268213330069557,0,0,1.388636962890625,0,0,0.99372
2.928209206002066,0,0,1.24498486328125,0,0,0.84084
2.9295963190088514,0,0,1.2832920898437499,0,0,0.84084
2.930983210011618,0,0,1.1563994018554686,0,0,1.1465999999999998
2.9323781940038316,0,0,1.1875240234375,0,0,0.91728
2.933765361987753,0,0,1.1611878051757811,0,0,0.6115200000000001
2.935151882993523,0,0,1.2665326782226562,0,0,1.2994800000000002
2.936538384994492,0,0,1.5251064575195312,0,0,0.99372
2.937924739002483,0,0,1.3048399047851562,0,0,0.84084
2.93931157400948,0,0,1.407790576171875,0,0,1.1465999999999998
2.940692094998667,0,0,1.149216796875,0,0,0.84084
2.94207015298889,0,0,1.22583125,0,0,0.6115200000000001
2.9434480989875738,0,0,1.1707646118164061,0,0,0.22932
2.9448360269889235,0,0,1.1659762084960936,0,0,0.07644000000000001
2.946222400001716,0,0,1.2473790649414063,0,0,0.15288000000000002
2.9476195680035744,0,0,1.2904746948242187,0,0,0.53508
2.949005884991493,0,0,1.254561669921875,0,0,0.22932
2.9503909990016837,0,0,1.1731588134765625,0,0,0.45864
2.9517762410105206,0,0,1.197100830078125,0,0,1.2230400000000001
2.953158540010918,0,0,1.2042834350585936,0,0,1.07016
2.9545418939960655,0,0,1.1875240234375,0,0,0.91728
2.955949672992574,0,0,1.3024457031249999,0,0,1.5288
2.9573361570073757,0,0,1.4628572143554686,0,0,1.07016
2.9587244180147536,0,0,1.3718775512695311,0,0,0.6115200000000001
2.960136456997134,0,0,1.4101847778320311,0,0,1.1465999999999998
2.961525532999076,0,0,1.1348515869140625,0,0,0.99372
2.9629131089895964,0,0,1.1635820068359375,0,0,0.68796
2.9642967600084376,0,0,1.1444283935546875,0,0,0.53508
2.9656877249944955,0,0,1.2569558715820313,0,0,0.22932
2.9670753559912555,0,0,1.254561669921875,0,0,0.07644000000000001
2.9684585070062894,0,0,1.2138602416992186,0,0,0.53508
2.9698376939923037,0,0,1.5179238525390624,0,0,0.7644
2.971216252015438,0,0,1.2880804931640624,0,0,0.7644
2.9726048829907086,0,0,1.2306196533203124,0,0,0.7644
2.9739911450014915,0,0,1.1013327636718748,0,0,0.3822
2.9753777210135013,0,0,1.2306196533203124,0,0,0.68796
2.9767574639990926,0,0,1.2952630981445312,0,0,0.91728
2.9781353549915366,0,0,1.429338391113281,0,0,0.99372
2.9795132460130844,0,0,1.4221557861328125,0,0,0.45864
2.9808990999881644,0,0,1.4796166259765624,0,0,0.6115200000000001
2.982354675012175,0,0,1.2713210815429687,0,0,1.1465999999999998
2.983749973005615,0,0,1.1468225952148436,0,0,0.91728
2.985138938005548,0,0,1.22583125,0,0,0.68796
2.986525532993255,0,0,1.2689268798828124,0,0,0.91728
2.987914813013049,0,0,1.5107412475585937,0,0,0.6115200000000001
2.9892989080108237,0,0,1.3192051147460937,0,0,0.84084
2.9907001690007746,0,0,1.5298948608398437,0,0,0.91728
2.9921011890110094,0,0,1.2713210815429687,0,0,0.68796
2.993479135999223,0,0,1.2737152832031249,0,0,0.3822
2.9948572860157583,0,0,1.3479355346679687,0,0,0.3822
2.996245121990796,0,0,1.0893617553710937,0,0,0.30576000000000003
2.9976314940140583,0,0,1.4006079711914061,0,0,0.07644000000000001
2.9990184220077936,0,0,1.3814543579101561,0,0,0.53508
3.00040512799751,0,0,1.5586252807617187,0,0,0.68796
3.0017917590157595,0,0,1.2497732666015624,0,0,0.3822
3.0031785950122867,0,0,1.1420341918945311,0,0,0.84084
3.004565356008243,0,0,1.1420341918945311,0,0,0.91728
3.005952098988928,0,0,1.0749965454101562,0,0,0.84084
3.0073383600101806,0,0,1.4532804077148436,0,0,1.2230400000000001
3.008724713989068,0,0,1.484405029296875,0,0,1.07016
3.010118976002559,0,0,1.254561669921875,0,0,0.6115200000000001
3.0115058480005246,0,0,1.465251416015625,0,0,1.07016
3.0128926830075216,0,0,1.2138602416992186,0,0,0.91728
3.014278666989412,0,0,1.16837041015625,0,0,0.99372
3.0156762989936396,0,0,1.2928688964843749,0,0,0.7644
3.0170627080078702,0,0,1.1516109985351561,0,0,0.30576000000000003
3.0184492290136404,0,0,1.388636962890625,0,0,0.53508
3.019836897001369,0,0,1.3311761230468748,0,0,0.68796
3.0215080069901887,0,0,1.4796166259765624,0,0,0.91728
3.022896306007169,0,0,1.20667763671875,0,0,0.84084
3.024284955987241,0,0,1.199495031738281,0,0,0.7644
3.0256716430012602,0,0,1.209071838378906,0,0,0.3822
3.0270580899959896,0,0,1.199495031738281,0,0,0.3822
3.028445017989725,0,0,1.4604630126953124,0,0,0.22932
3.029831557010766,0,0,1.4772224243164063,0,0,0.53508
3.0312178370077163,0,0,1.5418658691406248,0,0,0.84084
3.032605115993647,0,0,1.16837041015625,0,0,0.07644000000000001
3.03399132200866,0,0,1.1659762084960936,0,0,0.91728
3.0353771949885413,0,0,1.2234370483398436,0,0,0.7644
3.0367640299955383,0,0,1.1156979736328125,0,0,0.53508
3.0381508650025353,0,0,1.2378022583007813,0,0,1.68168
3.0395370530022774,0,0,1.3910311645507811,0,0,0.99372
3.040923777007265,0,0,1.1109095703125,0,0,0.84084
3.0423100010084454,0,0,1.2880804931640624,0,0,1.07016
3.0436969109869096,0,0,1.13006318359375,0,0,0.84084
3.045083061006153,0,0,1.2473790649414063,0,0,0.7644
3.046469544991851,0,0,1.1420341918945311,0,0,0.68796
3.047856861987384,0,0,1.199495031738281,0,0,0.6115200000000001
3.049254159996053,0,0,1.448492004394531,0,0,0.45864
3.0506414030096494,0,0,1.2569558715820313,0,0,0.84084
3.0520328120037448,0,0,1.2785036865234374,0,0,0.68796
3.0534254620142747,0,0,1.197100830078125,0,0,0.53508
3.0548125010100193,0,0,1.1755530151367186,0,0,0.84084
3.056199151003966,0,0,1.1875240234375,0,0,0.3822
3.057585561007727,0,0,1.1827356201171875,0,0,0.45864
3.058972044993425,0,0,1.2856862915039062,0,0,0.0
3.0603585650096647,0,0,1.3838485595703125,0,0,0.6115200000000001
3.0617448819975834,0,0,1.4245499877929686,0,0,0.7644
3.0631315879873,0,0,1.5610194824218748,0,0,0.84084
3.0645192569936626,0,0,1.2282254516601563,0,0,0.7644
3.0659057589946315,0,0,1.2234370483398436,0,0,0.99372
3.067291668005055,0,0,1.3000515014648437,0,0,0.91728
3.068678337003803,0,0,1.2641384765625,0,0,0.99372
3.0700818760087714,0,0,1.3072341064453123,0,0,0.84084
3.0714687849977054,0,0,1.2689268798828124,0,0,0.99372
3.072969008004293,0,0,1.6424223388671875,0,0,1.07016
3.074359269987326,0,0,1.2401964599609374,0,0,0.99372
3.0757475860009436,0,0,1.3168109130859373,0,0,0.53508
3.0771338480117265,0,0,1.3766659545898436,0,0,0.30576000000000003
3.0785205909924116,0,0,1.1707646118164061,0,0,0.6115200000000001
3.0799079069984145,0,0,1.2473790649414063,0,0,0.0
3.081294131989125,0,0,1.2042834350585936,0,0,0.3822
3.0826808380079456,0,0,1.4772224243164063,0,0,0.91728
3.084068099007709,0,0,1.2952630981445312,0,0,0.53508
3.0854543230088893,0,0,1.3048399047851562,0,0,0.30576000000000003
3.0869854720076546,0,0,1.1611878051757811,0,0,0.45864
3.088373622013023,0,0,1.2282254516601563,0,0,0.45864
3.0897601420001592,0,0,1.2617442749023438,0,0,-8.943480000000001
3.091151978005655,0,0,1.2473790649414063,0,0,0.68796
3.092538886994589,0,0,1.3551181396484375,0,0,0.7644
3.093925149005372,0,0,1.4125789794921875,0,0,1.07016
3.095311595010571,0,0,1.2210428466796874,0,0,0.91728
3.096698170993477,0,0,1.2234370483398436,0,0,0.99372
3.0981004140048753,0,0,1.209071838378906,0,0,0.7644
3.0994869899877813,0,0,1.2952630981445312,0,0,1.1465999999999998
3.100874196010409,0,0,1.448492004394531,0,0,0.99372
3.1022604200115893,0,0,1.2306196533203124,0,0,0.84084
3.103650811011903,0,0,1.4915876342773438,0,0,0.84084
3.1050378500076476,0,0,1.0797849487304687,0,0,0.99372
3.106424130004598,0,0,1.16837041015625,0,0,0.68796
3.107818465010496,0,0,1.3359645263671873,0,0,0.30576000000000003
3.1092048379941843,0,0,1.2234370483398436,0,0,0.30576000000000003
3.110591172997374,0,0,1.4173673828125,0,0,0.0
3.111978249013191,0,0,1.4772224243164063,0,0,0.6115200000000001
3.113364826014731,0,0,1.4724340209960938,0,0,0.7644
3.114751401997637,0,0,1.3335703247070312,0,0,0.7644
3.1161380150006153,0,0,1.2928688964843749,0,0,0.68796
3.1175249610096216,0,0,1.2761094848632812,0,0,0.7644
3.1189112779975403,0,0,1.2042834350585936,0,0,0.6115200000000001
3.1202991690079216,0,0,1.407790576171875,0,0,0.53508
3.121686263999436,0,0,1.5370774658203123,0,0,0.91728
3.1230723219923675,0,0,1.3742717529296875,0,0,0.68796
3.1244593049923424,0,0,1.3551181396484375,0,0,0.91728
3.1258458069933113,0,0,1.0319009155273438,0,0,1.45236
3.1272317910043057,0,0,1.0678139404296874,0,0,0.84084
3.1286186820070725,0,0,1.2282254516601563,0,0,0.53508
3.130005146987969,0,0,1.1252747802734375,0,0,0.45864
3.131391575007001,0,0,1.4508862060546874,0,0,0.84084
3.132778244005749,0,0,1.2425906616210938,0,0,0.91728
3.134164671995677,0,0,1.4915876342773438,0,0,0.7644
3.135566673008725,0,0,1.180341418457031,0,0,0.68796
3.1369544159970246,0,0,1.1659762084960936,0,0,0.6115200000000001
3.1383409179979935,0,0,1.2282254516601563,0,0,0.6115200000000001
3.1397279019874986,0,0,1.218648645019531,0,0,0.7644
3.1411206079937983,0,0,1.4053963745117186,0,0,0.07644000000000001
3.142507517011836,0,0,1.350329736328125,0,0,0.53508
3.143894575012382,0,0,1.3575123413085937,0,0,0.6115200000000001
3.145280502998503,0,0,1.1707646118164061,0,0,0.45864
3.1466670600057114,0,0,1.1348515869140625,0,0,0.91728
3.1480540620104875,0,0,1.2401964599609374,0,0,1.1465999999999998
3.1494393789907917,0,0,1.2330138549804688,0,0,0.99372
3.150825585005805,0,0,1.254561669921875,0,0,1.37592
3.1522117540007457,0,0,1.5275006591796874,0,0,0.99372
3.1535979970067274,0,0,1.3000515014648437,0,0,0.84084
3.154983999003889,0,0,1.39821376953125,0,0,0.91728
3.156370742013678,0,0,1.139639990234375,0,0,0.99372
3.1577569840010256,0,0,1.3527239379882812,0,0,0.6115200000000001
3.1591428199899383,0,0,1.158793603515625,0,0,0.30576000000000003
3.1605578220041934,0,0,1.2832920898437499,0,0,0.45864
3.1619476760097314,0,0,1.3766659545898436,0,0,0.0
3.163380343990866,0,0,1.37906015625,0,0,0.84084
3.164888103987323,0,0,1.4963760375976562,0,0,0.84084
3.1665743800112978,0,0,1.2138602416992186,0,0,0.84084
3.167980047990568,0,0,1.3359645263671873,0,0,0.84084
3.169367847003741,0,0,1.254561669921875,0,0,0.22932
3.1707551080035046,0,0,1.1611878051757811,0,0,0.30576000000000003
3.172137757996097,0,0,1.465251416015625,0,0,9.631440000000001
3.1735165569989476,0,0,1.4173673828125,0,0,0.53508
3.174894800002221,0,0,1.3335703247070312,0,0,0.6115200000000001
3.1762762650032528,0,0,1.1611878051757811,0,0,0.45864
3.1776542119914666,0,0,1.1731588134765625,0,0,1.1465999999999998
3.1790325840120204,0,0,1.2138602416992186,0,0,0.68796
3.1804191970149986,0,0,1.1468225952148436,0,0,0.84084
3.181805959000485,0,0,1.149216796875,0,0,1.60524
3.183192071999656,0,0,1.4030021728515625,0,0,1.07016
3.1845789439976215,0,0,1.22583125,0,0,0.91728
3.1859727239934728,0,0,1.6208745239257811,0,0,1.07016
3.1873588000016753,0,0,1.1827356201171875,0,0,0.84084
3.188745432009455,0,0,1.199495031738281,0,0,0.99372
3.190131951996591,0,0,1.1635820068359375,0,0,0.91728
3.191518231993541,0,0,1.2234370483398436,0,0,0.6115200000000001
3.192898420005804,0,0,1.388636962890625,0,0,0.0
3.1942761999962386,0,0,1.1516109985351561,0,0,0.84084
3.1957159420126118,0,0,1.5251064575195312,0,0,0.68796
3.1971032400033437,0,0,1.1707646118164061,0,0,0.6115200000000001
3.19848883501254,0,0,1.2832920898437499,0,0,0.68796
3.1998756699904334,0,0,1.3263877197265623,0,0,0.45864
3.2012611539976206,0,0,1.2761094848632812,0,0,0.53508
3.202647136989981,0,0,1.4508862060546874,0,0,0.99372
3.204033899004571,0,0,1.3024457031249999,0,0,0.53508
3.205419531004736,0,0,1.4125789794921875,0,0,0.53508
3.206804921006551,0,0,1.5753846923828123,0,0,0.6115200000000001
3.2081911459972616,0,0,1.2210428466796874,0,0,1.07016
3.2095767029968556,0,0,1.1755530151367186,0,0,0.99372
3.210962593992008,0,0,1.197100830078125,0,0,0.84084
3.21234902201104,0,0,1.2306196533203124,0,0,0.99372
3.2137344499933533,0,0,1.2808978881835937,0,0,0.99372
3.215119841013802,0,0,1.24498486328125,0,0,0.7644
3.2165226950019132,0,0,1.6831237670898436,0,0,0.99372
3.217909919010708,0,0,1.1156979736328125,0,0,1.07016
3.2192964589921758,0,0,1.2521674682617188,0,0,0.68796
3.220683405001182,0,0,1.13006318359375,0,0,0.53508
3.2220694629941136,0,0,1.3072341064453123,0,0,0.3822
3.2234562060039025,0,0,1.4915876342773438,0,0,0.15288000000000002
3.224852095998358,0,0,1.4939818359375,0,0,0.68796
3.2262390429968946,0,0,1.5203180541992187,0,0,0.6115200000000001
3.227625175000867,0,0,1.2832920898437499,0,0,0.53508
3.229009714006679,0,0,1.1947066284179686,0,0,0.53508
3.2303879380051512,0,0,1.1947066284179686,0,0,0.68796
3.2317724589956924,0,0,1.2042834350585936,0,0,0.84084
3.2331592940026894,0,0,1.448492004394531,0,0,0.84084
3.2345455189934,0,0,1.47482822265625,0,0,1.07016
3.2359331870102324,0,0,1.446097802734375,0,0,0.7644
3.2373189489881042,0,0,1.3670891479492187,0,0,0.7644
3.2387051729892846,0,0,1.1420341918945311,0,0,1.07016
3.240094581997255,0,0,1.2138602416992186,0,0,0.68796
3.2414808809990063,0,0,1.3287819213867187,0,0,0.45864
3.242867216002196,0,0,1.1444283935546875,0,0,0.22932
3.2442492179980036,0,0,1.448492004394531,0,0,0.68796
3.2456268870155327,0,0,1.3144167114257812,0,0,0.91728
3.247004797012778,0,0,1.4867992309570313,0,0,0.84084
3.2483907619898673,0,0,1.2210428466796874,0,0,0.68796
3.249776690005092,0,0,1.2856862915039062,0,0,0.53508
3.251162414002465,0,0,1.2880804931640624,0,0,0.6115200000000001
3.2525481749908067,0,0,1.177947216796875,0,0,0.53508
3.2539337890048046,0,0,1.407790576171875,0,0,0.0
3.25531930901343,0,0,1.3766659545898436,0,0,0.68796
3.2567051259975415,0,0,1.199495031738281,0,0,0.68796
3.258090554008959,0,0,1.2521674682617188,0,0,-8.867040000000001
3.2594774450117256,0,0,1.0917559570312498,0,0,0.91728
3.2608634470088873,0,0,1.3623007446289062,0,0,1.07016
3.2622494120150805,0,0,1.2138602416992186,0,0,0.7644
3.263635322015034,0,0,1.2330138549804688,0,0,0.91728
3.265021250001155,0,0,1.4939818359375,0,0,1.07016
3.266407232993515,0,0,1.2521674682617188,0,0,0.91728
3.267793734994484,0,0,1.465251416015625,0,0,0.99372
3.2691788299998734,0,0,1.2306196533203124,0,0,1.07016
3.2705646099930163,0,0,1.3646949462890625,0,0,0.6115200000000001
3.2719508899899665,0,0,1.24498486328125,0,0,0.53508
3.273344446992269,0,0,1.199495031738281,0,0,0.3822
3.2747305420052726,0,0,1.3407529296874998,0,0,0.0
3.276116099994397,0,0,1.2785036865234374,0,0,0.7644
3.277501675998792,0,0,1.4915876342773438,0,0,0.53508
3.2788875669939443,0,0,1.1540052001953125,0,0,0.7644
3.2802729580143932,0,0,1.209071838378906,0,0,0.99372
3.281658496998716,0,0,1.1037269653320312,0,0,0.7644
3.2830511099891737,0,0,1.1923124267578125,0,0,0.53508
3.284437630994944,0,0,1.3072341064453123,0,0,0.91728
3.285823410988087,0,0,1.4101847778320311,0,0,0.91728
3.2872092649922706,0,0,1.2306196533203124,0,0,0.99372
3.2885959150153212,0,0,1.5059528442382812,0,0,1.07016
3.289981361012906,0,0,1.2042834350585936,0,0,1.2230400000000001
3.291366752004251,0,0,1.2138602416992186,0,0,0.7644
3.2927523470134474,0,0,1.35990654296875,0,0,0.53508
3.2941380339907482,0,0,1.235408056640625,0,0,20
3.2955234620021656,0,0,1.5035586425781249,0,0,0.0
3.296909130993299,0,0,1.2641384765625,0,0,0.99372
3.2982949480065145,0,0,1.5514426757812498,0,0,0.91728
3.299681191012496,0,0,1.2593500732421874,0,0,0.3822
3.3010662849992514,0,0,1.1827356201171875,0,0,0.53508
3.3024519910104573,0,0,1.3718775512695311,0,0,0.3822
3.3038383639941458,0,0,1.3024457031249999,0,0,0.91728
3.305223477014806,0,0,1.369483349609375,0,0,0.30576000000000003
3.3066087939951103,0,0,1.4053963745117186,0,0,1.07016
3.307995832990855,0,0,1.419761584472656,0,0,0.7644
3.30938146499102,0,0,1.4053963745117186,0,0,-9.09636
3.310767669987399,0,0,1.2210428466796874,0,0,1.1465999999999998
3.3121532649965957,0,0,1.1444283935546875,0,0,0.7644
3.3137752460024785,0,0,1.3239935180664062,0,0,0.84084
3.3151718770095613,0,0,1.2665326782226562,0,0,0.91728
3.3168048950028606,0,0,1.3263877197265623,0,0,0.99372
3.3181999160151463,0,0,1.2641384765625,0,0,0.6115200000000001
3.3195896949910093,0,0,1.4221557861328125,0,0,0.68796
3.3209767900116276,0,0,1.235408056640625,0,0,1.2994800000000002
3.3223632000153884,0,0,1.2234370483398436,0,0,1.1465999999999998
3.323750331008341,0,0,1.2234370483398436,0,0,0.91728
3.3251364630123135,0,0,1.2713210815429687,0,0,1.37592
3.3265242239867803,0,0,1.5059528442382812,0,0,0.3822
3.327908392995596,0,0,1.1707646118164061,0,0,1.37592
3.3292862660018727,0,0,1.5418658691406248,0,0,0.84084
3.330664248991525,0,0,1.3455413330078123,0,0,1.07016
3.332049566000933,0,0,1.2330138549804688,0,0,0.53508
3.3334376419952605,0,0,1.3168109130859373,0,0,0.15288000000000002
3.3348244589869864,0,0,1.2617442749023438,0,0,0.07644000000000001
3.3362109060108196,0,0,1.419761584472656,0,0,0.0
3.3375968520122115,0,0,1.39821376953125,0,0,0.7644
3.338983391004149,0,0,1.5131354492187499,0,0,0.99372
3.3403699490008876,0,0,1.35990654296875,0,0,0.45864
3.341756487992825,0,0,1.1635820068359375,0,0,1.1465999999999998
3.343151526991278,0,0,1.2138602416992186,0,0,0.7644
3.344531511014793,0,0,1.16837041015625,0,0,0.91728
3.3459102170018014,0,0,1.4628572143554686,0,0,1.45236
3.3472884230141062,0,0,1.5275006591796874,0,0,1.5288
3.348676888010232,0,0,1.3287819213867187,0,0,0.68796
3.350064444995951,0,0,1.3742717529296875,0,0,0.7644
3.3514506880019326,0,0,1.1324573852539062,0,0,1.07016
3.3528367269900627,0,0,1.1875240234375,0,0,0.53508
3.3542225070123095,0,0,1.1276689819335937,0,0,0.45864
3.3556238239980303,0,0,1.158793603515625,0,0,0.53508
3.3570096220064443,0,0,1.3575123413085937,0,0,0.07644000000000001
3.3583950320025906,0,0,1.458068811035156,0,0,0.53508
3.360008530988125,0,0,1.4604630126953124,0,0,0.7644
3.3618362320121378,0,0,1.235408056640625,0,0,1.07016
3.3634054719877895,0,0,1.1731588134765625,0,0,0.99372
3.364795530011179,0,0,1.1085153686523437,0,0,0.84084
3.3661745880090166,0,0,1.2425906616210938,0,0,1.45236
3.36759845999768,0,0,1.5227122558593749,0,0,0.84084
3.3689805360045284,0,0,1.1755530151367186,0,0,1.1465999999999998
3.370358779007802,0,0,1.5634136840820312,0,0,0.84084
3.3717392809921876,0,0,1.120486376953125,0,0,0.84084
3.3731181350012776,0,0,1.2306196533203124,0,0,0.53508
3.3744966560043395,0,0,1.3144167114257812,0,0,0.30576000000000003
3.3758789540152065,0,0,1.3287819213867187,0,0,0.22932
3.377257345011458,0,0,1.3742717529296875,0,0,-0.15288000000000002
3.3786372180038597,0,0,1.4149731811523436,0,0,0.7644
3.38001688598888,0,0,1.5634136840820312,0,0,0.6115200000000001
3.3813947220041882,0,0,1.5275006591796874,0,0,0.3822
3.382773205987178,0,0,1.2737152832031249,0,0,0.91728
3.384152949001873,0,0,1.1420341918945311,0,0,0.84084
3.38553157998831,0,0,1.1707646118164061,0,0,0.68796
3.3871224689937662,0,0,1.3383587280273437,0,0,1.45236
3.388534803991206,0,0,1.426944189453125,0,0,1.07016
3.3899152140074875,0,0,1.3623007446289062,0,0,0.7644
3.3912936600099783,0,0,1.6256629272460936,0,0,0.91728
3.392683420999674,0,0,1.218648645019531,0,0,1.07016
3.394069200992817,0,0,1.177947216796875,0,0,0.99372
3.3954549260088243,0,0,1.3359645263671873,0,0,0.45864
3.396840372006409,0,0,1.2330138549804688,0,0,0.84084
3.398226096003782,0,0,1.4604630126953124,0,0,0.07644000000000001
3.3996242099965457,0,0,1.4101847778320311,0,0,0.84084
3.401009971013991,0,0,1.5705962890624998,0,0,0.91728
3.4024242690065876,0,0,1.1516109985351561,0,0,0.6115200000000001
3.40381169700413,0,0,1.1635820068359375,0,0,0.53508
3.405203477013856,0,0,1.2114660400390624,0,0,0.30576000000000003
3.4065895160019863,0,0,1.1228805786132812,0,0,0.3822
3.4079760549939238,0,0,1.3814543579101561,0,0,0.68796
3.4093609460105654,0,0,1.3958195678710936,0,0,0.53508
3.4107458550133742,0,0,1.6112977172851561,0,0,0.6115200000000001
3.412131543009309,0,0,1.3168109130859373,0,0,0.6115200000000001
3.4135187109932303,0,0,1.2138602416992186,0,0,0.91728
3.4151632110006176,0,0,1.2425906616210938,0,0,0.68796
3.4166239149926696,0,0,1.1061211669921875,0,0,0.68796
3.4180125659913756,0,0,1.455674609375,0,0,1.2230400000000001
3.4193996049871203,0,0,1.6017209106445311,0,0,0.68796
3.420786809991114,0,0,1.3862427612304686,0,0,0.7644
3.422175015992252,0,0,1.37906015625,0,0,0.91728
3.42356351800845,0,0,1.1013327636718748,0,0,1.60524
3.4249505389889237,0,0,1.0917559570312498,0,0,0.91728
3.4263369110121857,0,0,1.1635820068359375,0,0,0.84084
3.42772111701197,0,0,1.3120225097656248,0,0,0.53508
3.429098527005408,0,0,1.37906015625,0,0,1.1465999999999998
3.4304763989930507,0,0,1.3024457031249999,0,0,0.99372
3.4318631420028396,0,0,1.4149731811523436,0,0,0.99372
3.4332498850126285,0,0,1.1013327636718748,0,0,0.53508
3.434636738995323,0,0,1.2306196533203124,0,0,0.30576000000000003
3.4360243339906447,0,0,1.2378022583007813,0,0,0.53508
3.4374102620058693,0,0,1.189918225097656,0,0,0.30576000000000003
3.438796892995015,0,0,1.4628572143554686,0,0,0.45864
3.4401832100120373,0,0,1.4125789794921875,0,0,0.45864
3.4415695639909245,0,0,1.3407529296874998,0,0,0.7644
3.442956214013975,0,0,1.2737152832031249,0,0,0.53508
3.4443375499977265,0,0,1.1755530151367186,0,0,0.68796
3.445716070011258,0,0,1.3192051147460937,0,0,0.7644
3.4470942390034907,0,0,1.2689268798828124,0,0,0.91728
3.4484812229929958,0,0,1.2425906616210938,0,0,1.2230400000000001
3.4498855030105915,0,0,1.5107412475585937,0,0,0.84084
3.451271022990113,0,0,1.2497732666015624,0,0,0.84084
3.4526562849932816,0,0,1.3814543579101561,0,0,0.99372
3.45404178701574,0,0,1.1109095703125,0,0,0.68796
3.455426955013536,0,0,1.254561669921875,0,0,0.91728
3.456813697994221,0,0,1.149216796875,0,0,0.45864
3.4582903099944815,0,0,1.3383587280273437,0,0,0.91728
3.459679109015269,0,0,1.426944189453125,0,0,0.15288000000000002
3.4611156659957487,0,0,1.2928688964843749,0,0,0.7644
3.462507871008711,0,0,1.5131354492187499,0,0,0.91728
3.463893503008876,0,0,1.1037269653320312,0,0,0.53508
3.465313763997983,0,0,1.1540052001953125,0,0,0.30576000000000003
3.466718859010143,0,0,1.2282254516601563,0,0,0.15288000000000002
3.468137249001302,0,0,1.1947066284179686,0,0,0.45864
3.4695241959998384,0,0,1.3263877197265623,0,0,0.45864
3.470911863987567,0,0,1.3862427612304686,0,0,0.84084
3.4722988290013745,0,0,1.2378022583007813,0,0,0.45864
3.473684830998536,0,0,1.22583125,0,0,0.68796
3.4750719259900507,0,0,1.2234370483398436,0,0,0.68796
3.4764543540077284,0,0,1.139639990234375,0,0,0.6115200000000001
3.4778325789957307,0,0,1.2042834350585936,0,0,1.2994800000000002
3.479210896010045,0,0,1.3383587280273437,0,0,1.2230400000000001
3.480598935013404,0,0,1.5083470458984374,0,0,0.7644
3.481985844002338,0,0,1.1947066284179686,0,0,0.7644
3.4833730130048934,0,0,1.438915197753906,0,0,0.84084
3.4847597740008496,0,0,1.1037269653320312,0,0,0.91728
3.4861461840046104,0,0,1.1516109985351561,0,0,0.68796
3.4875329270143993,0,0,1.1516109985351561,0,0,0.7644
3.4889193729904946,0,0,1.3551181396484375,0,0,0.30576000000000003
3.490305690007517,0,0,1.4317325927734375,0,0,0.07644000000000001
3.4916892659966834,0,0,1.2330138549804688,0,0,0.99372
3.493081805005204,0,0,1.465251416015625,0,0,0.91728
3.494460196001455,0,0,1.4891934326171874,0,0,0.53508
3.4958463840011973,0,0,1.2521674682617188,0,0,0.68796
3.497232330002589,0,0,1.1731588134765625,0,0,0.22932
3.4986179250117857,0,0,1.3096283081054687,0,0,0.91728
3.50000501901377,0,0,1.4341267944335936,0,0,1.2230400000000001
3.5013897249882575,0,0,1.5083470458984374,0,0,0.84084
3.5027750240114983,0,0,1.2761094848632812,0,0,0.68796
3.5041605999867897,0,0,1.448492004394531,0,0,0.91728
3.5055466390040237,0,0,1.1923124267578125,0,0,0.99372
3.5069325109943748,0,0,1.1923124267578125,0,0,0.91728
3.5083316240052227,0,0,1.2282254516601563,0,0,0.45864
3.509718312008772,0,0,1.3359645263671873,0,0,0.99372
3.5111035169975366,0,0,1.43652099609375,0,0,0.0
3.5125071860093158,0,0,1.4173673828125,0,0,0.84084
3.5138932619884145,0,0,1.5562310791015623,0,0,0.7644
3.515279726998415,0,0,1.35990654296875,0,0,0.7644
3.516665839997586,0,0,1.1635820068359375,0,0,0.7644
3.5180523800081573,0,0,1.1731588134765625,0,0,0.15288000000000002
3.519449456012808,0,0,1.2042834350585936,0,0,0.22932
3.520835661009187,0,0,1.3742717529296875,0,0,0.84084
3.5222218119888566,0,0,1.4125789794921875,0,0,0.68796
3.5236229250149336,0,0,1.47482822265625,0,0,0.68796
3.5250090929912403,0,0,1.3215993164062498,0,0,0.91728
3.526395577006042,0,0,1.1180921752929687,0,0,1.1465999999999998
3.527781615994172,0,0,1.2114660400390624,0,0,0.91728
3.5291678399953526,0,0,1.3646949462890625,0,0,0.7644
3.530553824006347,0,0,1.3431471313476562,0,0,1.07016
3.531940418994054,0,0,1.5131354492187499,0,0,1.07016
3.533325069001876,0,0,1.419761584472656,0,0,0.99372
3.534711367014097,0,0,1.39821376953125,0,0,0.91728
3.5360974989889655,0,0,1.189918225097656,0,0,0.84084
3.537489870999707,0,0,1.235408056640625,0,0,0.6115200000000001
3.53887589200167,0,0,1.2425906616210938,0,0,0.22932
3.540261782996822,0,0,1.2473790649414063,0,0,0.6115200000000001
3.5416476000100374,0,0,1.407790576171875,0,0,0.07644000000000001
3.543033750000177,0,0,1.3718775512695311,0,0,0.84084
3.544419400015613,0,0,1.3766659545898436,0,0,0.84084
3.545805236004526,0,0,1.1444283935546875,0,0,0.53508
3.547191701014526,0,0,1.1851298217773436,0,0,0.84084
3.5485779250157066,0,0,1.2282254516601563,0,0,0.6115200000000001
3.5499634460138623,0,0,1.0941501586914062,0,0,0.91728
3.5513492439931724,0,0,1.3359645263671873,0,0,1.45236
3.552735486999154,0,0,1.47482822265625,0,0,1.07016
3.554120785003761,0,0,1.1707646118164061,0,0,0.99372
3.555505842989078,0,0,1.2737152832031249,0,0,0.99372
3.5568902890081517,0,0,1.177947216796875,0,0,1.07016
3.5582742360129487,0,0,1.0893617553710937,0,0,0.6115200000000001
3.559722033998696,0,0,1.2138602416992186,0,0,0.6115200000000001
3.561102553998353,0,0,1.3527239379882812,0,0,1.2230400000000001
3.5625057040015236,0,0,1.4604630126953124,0,0,0.45864
3.5638875210133847,0,0,1.2378022583007813,0,0,0.68796
3.5652664309891406,0,0,1.4963760375976562,0,0,0.84084
3.5666445629904047,0,0,1.1324573852539062,0,0,0.91728
3.568024879990844,0,0,1.3670891479492187,0,0,0.3822
3.5694034000043757,0,0,1.216254443359375,0,0,0.30576000000000003
3.5707824580022134,0,0,1.180341418457031,0,0,0.6115200000000001
3.5721618120151106,0,0,1.4796166259765624,0,0,0.0
3.5735402590071317,0,0,1.3120225097656248,0,0,0.6115200000000001
