Time,AccelX1,AccelY1,AccelZ1,AccelX2,AccelY2,AccelZ2
4.036992322653532e-06,0,0,1.1252747802734375,0,0,0.6115200000000001
0.0032401090138591826,0,0,1.3742717529296875,0,0,0.6115200000000001
0.006410903995856643,0,0,1.3551181396484375,0,0,0.45864
0.009682678995886818,0,0,1.350329736328125,0,0,0.91728
0.01280914101516828,0,0,1.1324573852539062,0,0,0.68796
0.01593095500720665,0,0,1.235408056640625,0,0,1.07016
0.019050917006097734,0,0,1.37906015625,0,0,1.1465999999999998
0.022245786007260904,0,0,1.3742717529296875,0,0,0.91728
0.025364970992086455,0,0,1.216254443359375,0,0,0.45864
0.028482969995820895,0,0,1.2761094848632812,0,0,0.6115200000000001
0.031599098991137,0,0,1.5107412475585937,0,0,0.68796
0.034723542019492015,0,0,1.218648645019531,0,0,0.91728
0.03854064401821233,0,0,1.197100830078125,0,0,1.07016
0.04167060600593686,0,0,1.2832920898437499,0,0,0.7644
0.044787660997826606,0,0,1.0965443603515623,0,0,0.91728
0.04795580799691379,0,0,1.2880804931640624,0,0,0.3822
0.051076567004201934,0,0,1.3024457031249999,0,0,0.68796
0.05423939900356345,0,0,1.1851298217773436,0,0,0.68796
0.057358749996637926,0,0,1.3718775512695311,0,0,0.68796
0.0604758050176315,0,0,1.4628572143554686,0,0,0.7644
0.06359158200211823,0,0,1.6232687255859375,0,0,0.68796
0.06670808099443093,0,0,1.369483349609375,0,0,0.7644
0.06982311699539423,0,0,1.2378022583007813,0,0,0.68796
0.07293983901035972,0,0,1.3766659545898436,0,0,1.07016
0.07703225201112218,0,0,1.0749965454101562,0,0,0.53508
0.08033212000736967,0,0,1.3144167114257812,0,0,0.68796
0.08346128501580097,0,0,1.2569558715820313,0,0,1.1465999999999998
0.08659647000604309,0,0,1.0917559570312498,0,0,0.68796
0.08971883900812827,0,0,1.3239935180664062,0,0,0.99372
0.09283824599697255,0,0,1.446097802734375,0,0,0.6115200000000001
0.09594617100083269,0,0,1.4604630126953124,0,0,0.7644
0.0990604670078028,0,0,1.1827356201171875,0,0,0.53508
0.10220187300001271,0,0,1.4221557861328125,0,0,0.53508
0.10532329801935703,0,0,1.4053963745117186,0,0,0.91728
0.1084447980101686,0,0,1.4317325927734375,0,0,0.53508
0.1115512789983768,0,0,1.3168109130859373,0,0,0.7644
0.11466518501401879,0,0,1.3646949462890625,0,0,0.84084
0.1177824439946562,0,0,1.0941501586914062,0,0,0.68796
0.12088659100118093,0,0,1.3359645263671873,0,0,1.45236
0.12402036800631322,0,0,1.5275006591796874,0,0,0.84084
0.12716234900290146,0,0,1.2210428466796874,0,0,0.45864
0.1305769180180505,0,0,1.1420341918945311,0,0,0.45864
0.1337226030009333,0,0,1.4987702392578124,0,0,0.68796
0.1368300280009862,0,0,1.4772224243164063,0,0,1.1465999999999998
0.13993365701753646,0,0,1.2497732666015624,0,0,0.53508
0.14311313701909967,0,0,1.2593500732421874,0,0,0.7644
0.14635643101064488,0,0,1.149216796875,0,0,0.6115200000000001
0.14945644899853505,0,0,1.0989385620117187,0,0,0.84084
0.15255963400704786,0,0,1.2138602416992186,0,0,0.84084
0.15567165199900046,0,0,1.37906015625,0,0,0.53508
0.15878300301847048,0,0,1.254561669921875,0,0,0.91728
0.16188520600553602,0,0,1.149216796875,0,0,0.30576000000000003
0.16501202000654303,0,0,1.5298948608398437,0,0,0.68796
0.1681492410134524,0,0,1.5729904907226562,0,0,0.6115200000000001
0.17126773999189027,0,0,1.2808978881835937,0,0,0.91728
0.17438520301948301,0,0,1.3215993164062498,0,0,1.07016
0.17791445599868894,0,0,1.467645617675781,0,0,0.6115200000000001
0.18114699100260623,0,0,1.2306196533203124,0,0,0.7644
0.1842679530091118,0,0,1.2593500732421874,0,0,0.53508
0.1874554890091531,0,0,1.4437036010742186,0,0,0.7644
0.19070159801049158,0,0,1.2497732666015624,0,0,0.68796
0.19383348600240424,0,0,1.2665326782226562,0,0,0.3822
0.196953114005737,0,0,1.458068811035156,0,0,0.68796
0.20212771801743656,0,0,1.3072341064453123,0,0,0.99372
0.20527468001819216,0,0,1.2928688964843749,0,0,0.15288000000000002
0.20839686499675736,0,0,1.47482822265625,0,0,0.7644
0.21151356800692156,0,0,1.13006318359375,0,0,0.68796
0.21463084500283003,0,0,1.3192051147460937,0,0,0.53508
0.21774649200960994,0,0,1.2617442749023438,0,0,0.91728
0.22086162099731155,0,0,1.4437036010742186,0,0,0.84084
0.22397521301172674,0,0,1.3718775512695311,0,0,0.84084
0.227090472006239,0,0,1.3670891479492187,0,0,1.07016
0.2304130980046466,0,0,1.3335703247070312,0,0,-8.7906
0.23354026401648298,0,0,1.3311761230468748,0,0,0.53508
0.23665522600640543,0,0,1.1109095703125,0,0,0.99372
0.23980222499812953,0,0,1.3407529296874998,0,0,0.6115200000000001
0.2429211499984376,0,0,1.1923124267578125,0,0,0.84084
0.2460452420054935,0,0,1.1156979736328125,0,0,0.91728
0.24916292700800113,0,0,1.3742717529296875,0,0,1.1465999999999998
0.25227775899111293,0,0,1.5035586425781249,0,0,1.37592
0.25539479599683546,0,0,1.3335703247070312,0,0,0.91728
0.2585111469961703,0,0,1.35990654296875,0,0,0.84084
0.2616228870174382,0,0,1.2425906616210938,0,0,0.84084
0.26476912599173374,0,0,1.3048399047851562,0,0,0.91728
0.2678987370163668,0,0,1.2378022583007813,0,0,0.84084
0.2710121060081292,0,0,1.2521674682617188,0,0,0.68796
0.2741303649963811,0,0,1.1372457885742187,0,0,0.91728
0.2772439940017648,0,0,1.0749965454101562,0,0,0.6115200000000001
0.28035721500054933,0,0,1.2617442749023438,0,0,0.68796
0.28347399199265055,0,0,1.5083470458984374,0,0,0.84084
0.286589194991393,0,0,1.3407529296874998,0,0,0.6115200000000001
0.28971487999660894,0,0,1.2114660400390624,0,0,0.68796
0.29283191601280123,0,0,1.16837041015625,0,0,0.7644
0.2959670629934408,0,0,1.197100830078125,0,0,0.53508
0.2990813220094424,0,0,1.2880804931640624,0,0,1.2994800000000002
0.3022347649966832,0,0,1.388636962890625,0,0,0.7644
0.30534946799161844,0,0,1.4700398193359374,0,0,0.84084
0.30846754199592397,0,0,1.1228805786132812,0,0,0.53508
0.3115816520003136,0,0,1.2856862915039062,0,0,0.6115200000000001
0.3146956700074952,0,0,1.4341267944335936,0,0,0.45864
0.3178097250056453,0,0,1.3551181396484375,0,0,0.99372
0.32095207599923015,0,0,1.254561669921875,0,0,0.0
0.3240740009932779,0,0,1.2473790649414063,0,0,0.7644
0.32718933300930075,0,0,1.189918225097656,0,0,0.68796
0.3303051660186611,0,0,1.149216796875,0,0,0.7644
0.3334155360062141,0,0,1.5227122558593749,0,0,0.91728
0.33653238700935617,0,0,1.455674609375,0,0,0.91728
0.3396713490074035,0,0,1.1827356201171875,0,0,0.53508
0.34278818100574426,0,0,1.2521674682617188,0,0,0.91728
0.34590262500569224,0,0,1.4413093994140624,0,0,0.84084
0.34904134599491954,0,0,1.3623007446289062,0,0,0.68796
0.352155753003899,0,0,1.2880804931640624,0,0,0.53508
0.3552721230080351,0,0,1.5227122558593749,0,0,0.84084
0.35838725199573673,0,0,1.1755530151367186,0,0,0.84084
0.361498935992131,0,0,1.1156979736328125,0,0,0.3822
0.36463997201644816,0,0,1.4820108276367188,0,0,0.99372
0.36775337901781313,0,0,1.3958195678710936,0,0,0.99372
0.3708676380047109,0,0,1.0821791503906248,0,0,0.53508
0.3739799699978903,0,0,1.2856862915039062,0,0,0.99372
0.377092876995448,0,0,1.2425906616210938,0,0,0.91728
0.3802062280010432,0,0,1.2306196533203124,0,0,0.45864
0.38331954201566987,0,0,1.3168109130859373,0,0,0.7644
0.3864346710033715,0,0,1.3910311645507811,0,0,0.7644
0.3895784289925359,0,0,1.2330138549804688,0,0,0.68796
0.39269154000794515,0,0,1.13006318359375,0,0,0.68796
0.39580578001914546,0,0,1.5155296508789062,0,0,0.53508
0.3989199460193049,0,0,1.4867992309570313,0,0,2.2931999999999997
0.40203472299617715,0,0,1.2521674682617188,0,0,0.84084
0.40517361101228744,0,0,1.2473790649414063,0,0,0.84084
0.40829177701380104,0,0,1.149216796875,0,0,0.68796
0.411405738996109,0,0,1.1611878051757811,0,0,0.68796
0.41452133099664934,0,0,1.3766659545898436,0,0,1.07016
0.41763371901470236,0,0,1.2521674682617188,0,0,0.91728
0.42074862599838525,0,0,1.149216796875,0,0,0.99372
0.42386249601258896,0,0,1.3431471313476562,0,0,0.6115200000000001
0.4269789209938608,0,0,1.419761584472656,0,0,0.6115200000000001
0.4301256610197015,0,0,1.5131354492187499,0,0,0.84084
0.433294159010984,0,0,1.24498486328125,0,0,0.91728
0.4364053620083723,0,0,1.350329736328125,0,0,0.68796
0.4395558240066748,0,0,1.1348515869140625,0,0,0.68796
0.44267487901379354,0,0,1.2593500732421874,0,0,0.7644
0.4457915259990841,0,0,1.2737152832031249,0,0,1.75812
0.4489065440138802,0,0,1.3551181396484375,0,0,0.91728
0.4521405050181784,0,0,1.3718775512695311,0,0,0.84084
0.4553364659950603,0,0,1.2785036865234374,0,0,0.68796
0.4584569279977586,0,0,1.3718775512695311,0,0,0.3822
0.4615985760174226,0,0,1.5298948608398437,0,0,0.68796
0.46471575999748893,0,0,1.2785036865234374,0,0,0.53508
0.467829500004882,0,0,1.1827356201171875,0,0,0.15288000000000002
0.4709482770122122,0,0,1.3335703247070312,0,0,0.68796
0.47409968299325556,0,0,1.0869675537109373,0,0,0.68796
0.47721427501528524,0,0,1.3455413330078123,0,0,1.2994800000000002
0.4803288860130124,0,0,1.4939818359375,0,0,0.7644
0.48344775501755066,0,0,1.216254443359375,0,0,1.07016
0.4865641810174566,0,0,1.1444283935546875,0,0,0.45864
0.4897227910114452,0,0,1.4317325927734375,0,0,0.53508
0.492837622994557,0,0,1.407790576171875,0,0,0.53508
0.49595086299814284,0,0,1.3048399047851562,0,0,0.45864
0.4990650110121351,0,0,1.2880804931640624,0,0,0.22932
0.5022108989942353,0,0,1.4508862060546874,0,0,0.91728
0.5144682870013639,0,0,1.3072341064453123,0,0,0.91728
0.5177168220106978,0,0,1.3359645263671873,0,0,0.84084
0.5208305430132896,0,0,1.3646949462890625,0,0,1.07016
0.5239331719931215,0,0,1.2665326782226562,0,0,0.84084
0.5270361530128866,0,0,1.3096283081054687,0,0,0.84084
0.5301349860092159,0,0,1.2856862915039062,0,0,0.53508
0.5332333749975078,0,0,1.4820108276367188,0,0,0.84084
0.5363355590088759,0,0,1.177947216796875,0,0,0.6115200000000001
0.5394358370103873,0,0,1.35990654296875,0,0,0.68796
0.5425351510057226,0,0,1.4628572143554686,0,0,0.91728
0.5456314840121195,0,0,1.407790576171875,0,0,0.99372
0.5487349460017867,0,0,1.3646949462890625,0,0,0.7644
0.551843038003426,0,0,1.2713210815429687,0,0,0.99372
0.5549458519963082,0,0,1.139639990234375,0,0,0.91728
0.5580807960068341,0,0,1.1133037719726562,0,0,0.6115200000000001
0.5611796290031634,0,0,1.3742717529296875,0,0,1.07016
0.5642801840149332,0,0,1.3239935180664062,0,0,0.6115200000000001
0.5676717169990297,0,0,1.3575123413085937,0,0,0.7644
0.5708323639992159,0,0,1.0749965454101562,0,0,0.7644
0.5739817139983643,0,0,1.3144167114257812,0,0,0.6115200000000001
0.5771042139967903,0,0,1.5490484741210937,0,0,0.84084
0.5802246759994887,0,0,1.3575123413085937,0,0,0.68796
0.5833445640164427,0,0,1.2856862915039062,0,0,0.91728
0.5864643969980534,0,0,1.369483349609375,0,0,0.7644
0.5896791540144477,0,0,1.2210428466796874,0,0,0.6115200000000001
0.5934285160037689,0,0,1.2761094848632812,0,0,0.3822
0.5963912389997859,0,0,1.0965443603515623,0,0,0.68796
0.5991990019974764,0,0,1.197100830078125,0,0,0.84084
0.6020022640004754,0,0,1.20667763671875,0,0,0.7644
0.6051987440150697,0,0,1.4508862060546874,0,0,0.30576000000000003
0.608004987007007,0,0,1.3527239379882812,0,0,0.7644
0.610807768011,0,0,1.3215993164062498,0,0,0.84084
0.6136072899971623,0,0,1.388636962890625,0,0,1.45236
0.6164171629934572,0,0,1.5275006591796874,0,0,1.1465999999999998
0.6192210180161055,0,0,1.3120225097656248,0,0,1.07016
0.6220123179955408,0,0,1.2713210815429687,0,0,0.6115200000000001
0.6248148580198176,0,0,1.2761094848632812,0,0,0.45864
0.6276142130082007,0,0,1.3575123413085937,0,0,0.84084
0.6304106610186864,0,0,1.1085153686523437,0,0,0.91728
0.6331876080075745,0,0,1.209071838378906,0,0,0.6115200000000001
0.6359890000021551,0,0,1.2473790649414063,0,0,0.6115200000000001
0.638790892000543,0,0,1.177947216796875,0,0,0.68796
0.641587858001003,0,0,1.1109095703125,0,0,0.6115200000000001
0.6443852139927913,0,0,1.3192051147460937,0,0,0.45864
0.6471916240116116,0,0,1.4628572143554686,0,0,0.30576000000000003
0.6499922010116279,0,0,1.3215993164062498,0,0,0.68796
0.6527904639951885,0,0,1.2713210815429687,0,0,0.68796
0.6555878189974464,0,0,1.1420341918945311,0,0,1.2994800000000002
0.6583883769926615,0,0,1.4006079711914061,0,0,2.06388
0.6612134360184427,0,0,1.2761094848632812,0,0,0.7644
0.6640130130108446,0,0,1.3168109130859373,0,0,0.6115200000000001
0.6668104970012791,0,0,1.3144167114257812,0,0,0.30576000000000003
0.6696055380161852,0,0,1.35990654296875,0,0,0.7644
0.6724016150110401,0,0,1.0797849487304687,0,0,0.7644
0.6751979510008823,0,0,1.199495031738281,0,0,0.7644
0.6779963060107548,0,0,1.3383587280273437,0,0,0.99372
0.6807944390166085,0,0,1.2018892333984375,0,0,0.99372
0.6835902940074448,0,0,1.177947216796875,0,0,0.53508
0.68638790800469,0,0,1.1252747802734375,0,0,0.45864
0.6891878010064829,0,0,1.3934253662109375,0,0,0.68796
0.6920199700107332,0,0,1.24498486328125,0,0,0.7644
0.6951847650052514,0,0,1.5275006591796874,0,0,0.6115200000000001
0.6982840790005866,0,0,1.2593500732421874,0,0,0.99372
0.7014428740076255,0,0,1.0726023437499999,0,0,1.07016
0.7049866650195327,0,0,1.0821791503906248,0,0,0.68796
0.7081142380193342,0,0,1.3551181396484375,0,0,0.15288000000000002
0.7112480330106337,0,0,1.4341267944335936,0,0,0.84084
0.7143857360060792,0,0,1.1180921752929687,0,0,1.07016
0.7174831989977974,0,0,1.197100830078125,0,0,0.6115200000000001
0.7205854569911025,0,0,1.4437036010742186,0,0,0.84084
0.7237025859940331,0,0,1.4963760375976562,0,0,0.84084
0.7268201780098025,0,0,1.2785036865234374,0,0,0.6115200000000001
0.7299647880136035,0,0,1.3168109130859373,0,0,0.91728
0.7332287860044744,0,0,1.350329736328125,0,0,0.68796
0.7363919880008325,0,0,1.3072341064453123,0,0,0.68796
0.7395142650057096,0,0,1.3718775512695311,0,0,0.0
0.7426354490162339,0,0,1.4173673828125,0,0,0.84084
0.7457510780077428,0,0,1.3551181396484375,0,0,0.68796
0.7488689300080296,0,0,1.1037269653320312,0,0,0.53508
0.751986688002944,0,0,1.4053963745117186,0,0,0.84084
0.7551085950108245,0,0,1.484405029296875,0,0,0.84084
0.7583633699978236,0,0,1.2282254516601563,0,0,0.6115200000000001
0.7614735550014302,0,0,1.2785036865234374,0,0,1.07016
0.7645842579950113,0,0,1.35990654296875,0,0,0.91728
0.767694868001854,0,0,1.2569558715820313,0,0,0.53508
0.7708024420135189,0,0,1.2497732666015624,0,0,0.68796
0.7739075339923147,0,0,1.5179238525390624,0,0,0.3822
0.7770193479955196,0,0,1.0893617553710937,0,0,0.7644
0.7801255689992104,0,0,1.2641384765625,0,0,0.07644000000000001
0.7832316800195258,0,0,1.4030021728515625,0,0,0.53508
0.7863415680185426,0,0,1.467645617675781,0,0,0.68796
0.7903308529930655,0,0,1.3407529296874998,0,0,0.6115200000000001
0.793477408005856,0,0,1.2282254516601563,0,0,0.6115200000000001
0.7965868150058668,0,0,1.4006079711914061,0,0,0.53508
0.7996942579920869,0,0,1.3766659545898436,0,0,0.3822
0.8028006840031594,0,0,1.24498486328125,0,0,0.3822
0.8059057760110591,0,0,1.446097802734375,0,0,0.53508
0.8090143309964333,0,0,1.20667763671875,0,0,0.91728
0.8121192379912827,0,0,1.2401964599609374,0,0,0.91728
0.8152253110019956,0,0,1.407790576171875,0,0,0.84084
0.8183343099954072,0,0,1.2904746948242187,0,0,0.7644
0.8214368839981034,0,0,1.1731588134765625,0,0,0.91728
0.8245426240027882,0,0,1.4221557861328125,0,0,0.84084
0.8276491239957977,0,0,1.3335703247070312,0,0,0.53508
0.8307569379976485,0,0,1.1851298217773436,0,0,0.7644
0.8338608079939149,0,0,1.2689268798828124,0,0,0.6115200000000001
0.8369667330116499,0,0,1.2401964599609374,0,0,0.45864
0.8400760469958186,0,0,1.1156979736328125,0,0,0.7644
0.843182954005897,0,0,1.0965443603515623,0,0,0.45864
0.8462942129990552,0,0,1.2713210815429687,0,0,1.2230400000000001
0.849396453006193,0,0,1.5514426757812498,0,0,-9.09636
0.8525071559997741,0,0,1.369483349609375,0,0,0.45864
0.8556144520116504,0,0,1.2761094848632812,0,0,0.6115200000000001
0.8587219690089114,0,0,1.2282254516601563,0,0,0.84084
0.8618244870158378,0,0,1.1875240234375,0,0,0.6115200000000001
0.8649326160084456,0,0,1.3192051147460937,0,0,0.22932
0.868180466000922,0,0,1.5227122558593749,0,0,0.68796
0.8712910950125661,0,0,1.0989385620117187,0,0,0.7644
0.8743987060151994,0,0,1.0869675537109373,0,0,0.99372
0.8775037050072569,0,0,1.6831237670898436,0,0,1.68168
0.88060953799868,0,0,2.4301146850585935,0,0,2.14032
0.8837179070105776,0,0,2.5761609863281247,0,0,1.07016
0.886825110996142,0,0,2.068590234375,0,0,0.45864
0.8899778320046607,0,0,1.5107412475585937,0,0,0.68796
0.893087998003466,0,0,1.4030021728515625,0,0,1.68168
0.896192626998527,0,0,1.438915197753906,0,0,1.75812
0.8992976260196883,0,0,2.2002713256835937,0,0,1.45236
0.9024020890065003,0,0,2.221819140625,0,0,1.2994800000000002
0.9055057179939467,0,0,1.5442600708007812,0,0,1.2230400000000001
0.9086152730160393,0,0,1.8148048583984373,0,0,1.07016
0.9117199759930372,0,0,1.5586252807617187,0,0,1.2230400000000001
0.9181828790169675,0,0,2.233790148925781,0,0,0.99372
0.9224498459952883,0,0,1.7357962036132812,0,0,0.22932
0.925600251997821,0,0,2.051830822753906,0,0,1.45236
0.9287204550055321,0,0,1.5275006591796874,0,0,0.84084
0.9318380100012291,0,0,2.061407629394531,0,0,1.2994800000000002
0.93495643499773,0,0,1.7166425903320313,0,0,1.1465999999999998
0.9381133970164228,0,0,1.7621324218749999,0,0,1.5288
0.9412350070197135,0,0,2.1212626708984375,0,0,1.60524
0.9443519140186254,0,0,2.4756045166015626,0,0,1.60524
0.9476907810021657,0,0,1.6903063720703124,0,0,1.07016
0.9508483170066029,0,0,1.9847931762695312,0,0,1.07016
0.9540407780150417,0,0,1.879448303222656,0,0,1.2994800000000002
0.9571730729949195,0,0,0.9744400756835937,0,0,1.60524
0.9602904620114714,0,0,1.8531120849609375,0,0,1.68168
0.9634059980162419,0,0,2.233790148925781,0,0,1.45236
0.9665230709942989,0,0,1.3934253662109375,0,0,1.37592
0.969637125992449,0,0,2.013523596191406,0,0,1.2230400000000001
0.9727519029984251,0,0,1.3527239379882812,0,0,0.7644
0.9758708279987331,0,0,1.7932570434570312,0,0,1.60524
0.9789872720139101,0,0,2.205059729003906,0,0,1.07016
0.982102178997593,0,0,1.7286135986328124,0,0,0.6115200000000001
0.9852163449977525,0,0,2.214636535644531,0,0,1.1465999999999998
0.9883320849912707,0,0,1.2425906616210938,0,0,1.911
0.9914857690164354,0,0,1.209071838378906,0,0,1.911
0.994602898019366,0,0,2.2960393920898436,0,0,1.83456
0.9977169710036833,0,0,2.042254016113281,0,0,0.99372
1.0008313780126628,0,0,1.7812860351562498,0,0,0.84084
1.0040393210074399,0,0,1.7214309936523438,0,0,1.1465999999999998
1.007263559004059,0,0,1.9680337646484374,0,0,-9.172799999999999
1.0105179639940616,0,0,2.0183119995117185,0,0,0.45864
1.0137254809960723,0,0,1.6112977172851561,0,0,2.06388
1.0169437940057833,0,0,2.1883003173828124,0,0,2.6754
1.0202466800110415,0,0,0.9911994873046874,0,0,0.53508
1.0235058630059939,0,0,1.8291700683593748,0,0,1.2994800000000002
1.0267046200169716,0,0,2.674323254394531,0,0,3.0576
1.0298861740157008,0,0,1.2330138549804688,0,0,0.68796
1.0330890800105408,0,0,1.1037269653320312,0,0,-0.7644
1.0362823370087426,0,0,2.2840683837890623,0,0,1.75812
1.0394392070011236,0,0,1.9656395629882812,0,0,1.37592
1.0425805569975637,0,0,0.9313444458007812,0,0,-0.22932
1.0457174820185173,0,0,3.69664736328125,0,0,2.6754
1.048854777996894,0,0,1.4796166259765624,0,0,0.0
1.0519974250055384,0,0,0.201112939453125,0,0,0.15288000000000002
1.0551594420103356,0,0,3.5098996337890624,0,0,2.98116
1.0583234959922265,0,0,2.0183119995117185,0,0,0.0
1.0614628100011032,0,0,0.06464344482421874,0,0,1.1465999999999998
1.064610513014486,0,0,4.2329485351562495,0,0,2.52252
1.0677725489949808,0,0,0.6631938598632812,0,0,-9.784320000000001
1.0709187329921406,0,0,0.9026140258789062,0,0,0.99372
1.074143620004179,0,0,2.521094348144531,0,0,0.91728
1.0773382110055536,0,0,-0.00239420166015625,0,0,0.30576000000000003
1.0805781529925298,0,0,2.5043349365234375,0,0,2.36964
1.083837484009564,0,0,1.3958195678710936,0,0,20
1.087081185018178,0,0,0.7445967163085937,0,0,1.83456
1.090394886006834,0,0,3.134009973144531,0,0,1.1465999999999998
1.0941658960073255,0,0,-1.3168109130859373,0,0,-0.84084
1.0956030260131229,0,0,1.7310078002929687,0,0,-9.784320000000001
1.0970431200112216,0,0,2.8227637573242186,0,0,2.06388
1.0985049360024277,0,0,3.399766357421875,0,0,2.5989600000000004
1.099960159015609,0,0,1.5873557006835937,0,0,1.83456
1.1013993819942698,0,0,0.17956512451171874,0,0,0.0
1.1028568829933647,0,0,-0.21308394775390624,0,0,0.15288000000000002
1.1042996990145184,0,0,1.6328455322265625,0,0,1.1465999999999998
1.1057502180046868,0,0,3.1220389648437497,0,0,1.5288
1.1072067380009685,0,0,2.741360900878906,0,0,1.2230400000000001
1.1086328870151192,0,0,0.6655880615234374,0,0,2.06388
1.1100590740097687,0,0,-0.9121908325195311,0,0,-0.3822
1.1114448900043499,0,0,-0.01915361328125,0,0,-0.3822
1.1128259660035837,0,0,1.7501614135742187,0,0,1.2994800000000002
1.1142103009915445,0,0,2.2649147705078123,0,0,1.37592
1.115590488014277,0,0,1.2018892333984375,0,0,0.30576000000000003
1.1169704160129186,0,0,0.488417138671875,0,0,0.6115200000000001
1.1183512510033324,0,0,-0.047884033203124995,0,0,0.0
1.119734623003751,0,0,2.2601263671875,0,0,1.68168
1.12111499501043,0,0,2.8706477905273435,0,0,2.5989600000000004
1.1225064600002952,0,0,2.683900061035156,0,0,1.45236
1.1238961100170854,0,0,1.0702081420898437,0,0,0.68796
1.1252833149919752,0,0,0.5506663818359374,0,0,-0.7644
1.1266721690190025,0,0,0.9959878906249999,0,0,0.07644000000000001
1.1280589300149586,0,0,2.540247961425781,0,0,1.60524
1.1294454500020947,0,0,2.6767174560546874,0,0,1.2230400000000001
1.130832858994836,0,0,1.2234370483398436,0,0,0.7644
1.1322192499937955,0,0,0.6967126831054687,0,0,0.45864
1.1336060290050227,0,0,-0.9457096557617187,0,0,-1.68168
1.1349960310035385,0,0,0.11013327636718749,0,0,0.0
1.1363828100147657,0,0,1.905784521484375,0,0,2.52252
1.1377691270026844,0,0,2.7653029174804686,0,0,2.4460800000000003
1.1391577210160904,0,0,2.0829554443359375,0,0,2.5989600000000004
1.1405520380067173,0,0,0.33039982910156246,0,0,1.1465999999999998
1.1419453730050009,0,0,-0.565031591796875,0,0,-0.30576000000000003
1.1434017620049417,0,0,0.689530078125,0,0,-0.45864
1.1449117439915426,0,0,2.7940333374023436,0,0,1.83456
1.1463023200049065,0,0,2.8323405639648436,0,0,1.98744
1.14768321000156,0,0,1.5394716674804687,0,0,1.07016
1.1490626570011955,0,0,0.59376201171875,0,0,0.91728
1.150447307009017,0,0,-0.9169792358398436,0,0,0.30576000000000003
1.1518265859922394,0,0,0.8044517578125,0,0,-0.22932
1.1532064030179754,0,0,1.9823989746093749,0,0,1.1465999999999998
1.154588016011985,0,0,1.9752163696289062,0,0,1.37592
1.1559682399965823,0,0,1.675941162109375,0,0,1.37592
1.1573472600139212,0,0,0.8834604125976562,0,0,0.45864
1.1587291689938866,0,0,0.3064578125,0,0,0.7644
1.160109096992528,0,0,1.5634136840820312,0,0,1.37592
1.1614880060078576,0,0,2.3678654418945313,0,0,1.60524
1.1628765260102227,0,0,2.262520568847656,0,0,1.2230400000000001
1.164263601996936,0,0,2.2385785522460937,0,0,1.75812
1.16565099300351,0,0,0.15083470458984374,0,0,-0.3822
1.167053309007315,0,0,0.4213794921875,0,0,0.30576000000000003
1.1684452180052176,0,0,1.6543933471679686,0,0,1.5288
1.1698319420102052,0,0,1.7381904052734374,0,0,1.07016
1.1712223509966861,0,0,1.3934253662109375,0,0,0.0
1.1726095009944402,0,0,0.5291185668945312,0,0,1.1465999999999998
1.173997355013853,0,0,0.0047884033203125,0,0,0.0
1.17538370800321,0,0,0.5602431884765625,0,0,0.7644
1.1767708210099954,0,0,2.24097275390625,0,0,1.83456
1.1781604340067133,0,0,2.272097375488281,0,0,2.14032
1.1795465649920516,0,0,1.4413093994140624,0,0,0.84084
1.180933586001629,0,0,0.9864110839843749,0,0,1.2994800000000002
1.1823213280003984,0,0,0.031124621582031248,0,0,0.7644
1.1837078850076068,0,0,2.437297290039062,0,0,0.7644
1.1850946280173957,0,0,2.5857377929687497,0,0,1.45236
1.1864815920125693,0,0,1.2018892333984375,0,0,1.2994800000000002
1.1878680940135382,0,0,0.9433154541015625,0,0,0.3822
1.1892548550094943,0,0,0.41419688720703124,0,0,-0.22932
1.1906423380132765,0,0,0.5243301635742187,0,0,0.68796
1.1920289699919522,0,0,1.7693150268554687,0,0,0.7644
1.193415971007198,0,0,1.936909143066406,0,0,1.07016
1.19480326899793,0,0,1.0558429321289062,0,0,0.99372
1.1961897530127317,0,0,0.7661445312499999,0,0,1.45236
1.1975764770177193,0,0,0.30406361083984373,0,0,0.30576000000000003
1.1989634970086627,0,0,1.24498486328125,0,0,1.60524
1.200358406000305,0,0,2.999934680175781,0,0,2.2931999999999997
1.2018425550195388,0,0,2.408566870117187,0,0,1.45236
1.2033550179912709,0,0,1.2425906616210938,0,0,0.0
1.204744742019102,0,0,0.41419688720703124,0,0,1.07016
1.2061392799951136,0,0,0.19871873779296872,0,0,-0.3822
1.2075255599920638,0,0,2.463633508300781,0,0,0.99372
1.2089133950066753,0,0,2.398990063476562,0,0,1.83456
1.2103023040108383,0,0,2.094926452636719,0,0,0.91728
1.211689435003791,0,0,0.4644751220703125,0,0,0.6115200000000001
1.2130763260065578,0,0,-0.00239420166015625,0,0,-0.7644
1.2144813270133454,0,0,0.7733271362304687,0,0,0.22932
1.215860625001369,0,0,2.6240450195312497,0,0,1.1465999999999998
1.217239552992396,0,0,2.8562825805664063,0,0,2.14032
1.218628296017414,0,0,1.7238251953125,0,0,1.5288
1.2200162789958995,0,0,1.4867992309570313,0,0,1.2230400000000001
1.2214036140067037,0,0,-0.6296750366210937,0,0,-1.2230400000000001
1.2227928010106552,0,0,0.08858546142578125,0,0,0.6115200000000001
1.2241804689983837,0,0,1.8052280517578123,0,0,0.7644
1.225568118999945,0,0,2.9568390502929685,0,0,1.37592
1.2269556950195692,0,0,1.9871873779296874,0,0,0.6115200000000001
1.228343530005077,0,0,0.9744400756835937,0,0,1.5288
1.2297314570168965,0,0,-0.7829039428710937,0,0,-0.6115200000000001
1.231114015012281,0,0,0.13646949462890623,0,0,0.07644000000000001
1.2324932760093361,0,0,2.4899697265625,0,0,1.68168
1.2338722040003631,0,0,2.887407202148437,0,0,0.6115200000000001
1.2352617979922798,0,0,1.8267758666992187,0,0,0.22932
1.2366503740195185,0,0,0.7445967163085937,0,0,0.84084
1.2380444860027637,0,0,0.00239420166015625,0,0,0.0
1.2394317660073284,0,0,2.1164742675781247,0,0,0.91728
1.240818971011322,0,0,1.9321207397460936,0,0,1.98744
1.2422069550084416,0,0,2.042254016113281,0,0,0.99372
1.2435927710030228,0,0,0.48123453369140623,0,0,0.6115200000000001
1.2449791989929508,0,0,0.19871873779296872,0,0,-9.784320000000001
1.2463673670135904,0,0,1.149216796875,0,0,0.45864
1.247761258011451,0,0,3.0262708984374997,0,0,1.2994800000000002
1.2491510930121876,0,0,3.1507693847656246,0,0,2.6754
1.2505395199987106,0,0,1.1013327636718748,0,0,1.2994800000000002
1.251978484011488,0,0,0.16280571289062498,0,0,0.3822
1.2533682450011838,0,0,-0.9241618408203125,0,0,-1.07016
1.2547592470073141,0,0,0.70868369140625,0,0,0.0
1.256146878004074,0,0,2.7198130859375,0,0,1.45236
1.257535139011452,0,0,3.8043864379882812,0,0,2.2167600000000003
1.2589224929979537,0,0,1.9105729248046874,0,0,1.68168
1.2603105320013128,0,0,0.9026140258789062,0,0,1.5288
1.261697644018568,0,0,-1.3862427612304686,0,0,-1.2230400000000001
1.2630799610051326,0,0,-0.3016694091796875,0,0,-0.7644
1.26446042599855,0,0,3.114856359863281,0,0,1.83456
1.265839613013668,0,0,3.6391865234374996,0,0,1.911
1.2672297070093919,0,0,2.2074539306640624,0,0,1.37592
1.2686176160059404,0,0,-0.1197100830078125,0,0,1.1465999999999998
1.270006728998851,0,0,-1.2832920898437499,0,0,-0.15288000000000002
1.2713950829929672,0,0,1.5322890624999999,0,0,0.0
1.2727825100009795,0,0,2.4947581298828125,0,0,1.75812
1.2741703639912885,0,0,2.8802245971679685,0,0,-8.7906
1.2755622359982226,0,0,1.369483349609375,0,0,0.07644000000000001
1.276949663006235,0,0,0.6967126831054687,0,0,0.45864
1.2783349980018102,0,0,0.7254431030273437,0,0,0.30576000000000003
1.2797135740111116,0,0,1.8722656982421875,0,0,0.6115200000000001
1.281092854012968,0,0,2.4756045166015626,0,0,1.75812
1.2824837999942247,0,0,1.6041151123046875,0,0,1.45236
1.2838713200180791,0,0,1.0582371337890624,0,0,0.6115200000000001
1.2852581180050038,0,0,0.03591302490234375,0,0,-0.68796
1.2866456200135872,0,0,0.469263525390625,0,0,0.45864
1.2880323250137735,0,0,1.8267758666992187,0,0,1.2994800000000002
1.2894193270185497,0,0,3.4428619873046875,0,0,2.2167600000000003
1.2908134770113975,0,0,1.8842367065429686,0,0,1.45236
1.2922004790161736,0,0,1.2593500732421874,0,0,1.2230400000000001
1.2935868140193634,0,0,-1.388636962890625,0,0,-1.2994800000000002
1.2949780560156796,0,0,-0.6679822631835937,0,0,0.45864
1.2963662800029851,0,0,2.6096798095703124,0,0,1.1465999999999998
1.2977529109921306,0,0,3.6559459350585937,0,0,1.60524
1.2991422089980915,0,0,2.710236279296875,0,0,1.68168
1.3005292850139085,0,0,0.8738836059570312,0,0,1.5288
1.3019158609968144,0,0,-0.9337386474609375,0,0,0.0
1.3033043070172425,0,0,0.6631938598632812,0,0,-0.68796
1.3047280860191677,0,0,2.1883003173828124,0,0,1.75812
1.3061409020156134,0,0,3.1962592163085937,0,0,1.45236
1.307530163001502,0,0,2.4349030883789062,0,0,1.07016
1.3089198870002292,0,0,1.180341418457031,0,0,0.84084
1.3103079629945569,0,0,0.11013327636718749,0,0,0.30576000000000003
1.3116955019941088,0,0,0.8092401611328125,0,0,0.0
1.3130830590089317,0,0,1.9800047729492187,0,0,1.45236
1.3144718760158867,0,0,1.5514426757812498,0,0,0.99372
1.31585889600683,0,0,1.2761094848632812,0,0,0.6115200000000001
1.3172464160015807,0,0,0.7565677246093749,0,0,0.53508
1.3186346770089585,0,0,0.3064578125,0,0,0.53508
1.3200233270181343,0,0,1.6256629272460936,0,0,1.75812
1.321411255019484,0,0,2.559401574707031,0,0,1.37592
1.322798886016244,0,0,1.618480322265625,0,0,1.2994800000000002
1.3241865540039726,0,0,1.4820108276367188,0,0,1.2994800000000002
1.3255755370191764,0,0,-0.3016694091796875,0,0,-0.7644
1.3269652430026326,0,0,0.2561795776367187,0,0,0.0
1.3283535960072186,0,0,2.81558115234375,0,0,1.2230400000000001
1.329741802008357,0,0,2.901772412109375,0,0,1.5288
1.3311293779988773,0,0,2.003946789550781,0,0,1.2230400000000001
1.3325168419978581,0,0,0.3711012573242187,0,0,1.2230400000000001
1.3339045850152615,0,0,-0.5123591552734374,0,0,-1.07016
1.33529384600115,0,0,1.0606313354492187,0,0,-0.7644
1.33668171800673,0,0,2.0973206542968748,0,0,1.5288
1.33807253401028,0,0,2.8562825805664063,0,0,2.06388
1.339460479997797,0,0,2.4444798950195312,0,0,1.75812
1.3408480560174212,0,0,1.2018892333984375,0,0,1.75812
1.3422364470025059,0,0,-0.8499415893554687,0,0,-0.22932
1.3436254110129084,0,0,0.33518823242187495,0,0,9.01992
1.3450130429991987,0,0,1.8028338500976562,0,0,0.91728
1.3464015810168348,0,0,2.693476867675781,0,0,1.45236
1.347788417013362,0,0,2.5953145996093747,0,0,0.99372
1.3491758810123429,0,0,1.6615759521484375,0,0,0.30576000000000003
1.3505635680048726,0,0,-0.5578489868164063,0,0,0.53508
1.3519523290160578,0,0,0.3447650390625,0,0,-0.15288000000000002
1.35334092300036,0,0,1.838746875,0,0,0.53508
1.3547289250127506,0,0,1.7549498168945312,0,0,0.7644
1.3561166299914476,0,0,1.8148048583984373,0,0,1.1465999999999998
1.3575040950090624,0,0,0.5722141967773438,0,0,0.53508
1.3588933010178152,0,0,0.41898529052734373,0,0,1.37592
1.3602812100143638,0,0,2.559401574707031,0,0,2.5989600000000004
1.3616685449960642,0,0,2.29843359375,0,0,1.60524
1.3630561210156884,0,0,1.350329736328125,0,0,0.7644
1.364444122009445,0,0,0.507570751953125,0,0,1.2230400000000001
1.3658312170009594,0,0,-0.14604630126953125,0,0,-1.2230400000000001
1.3672204400063492,0,0,2.085349645996094,0,0,-0.15288000000000002
1.3686080900079105,0,0,2.8898014038085935,0,0,1.68168
1.3699965359992348,0,0,3.1747114013671873,0,0,1.2994800000000002
1.3713845380116254,0,0,1.0414777221679687,0,0,0.30576000000000003
1.3727722250041552,0,0,0.076614453125,0,0,1.2994800000000002
1.3741606709954794,0,0,-0.5722141967773438,0,0,-0.45864
1.37554843199905,0,0,1.1324573852539062,0,0,0.07644000000000001
1.3769391750101931,0,0,2.2744915771484373,0,0,1.5288
1.3783693049917929,0,0,2.085349645996094,0,0,1.45236
1.3797613630013075,0,0,1.6639701538085936,0,0,1.83456
1.3811501790187322,0,0,1.3670891479492187,0,0,1.5288
1.3825386989919934,0,0,0.19153613281249998,0,0,0.53508
1.3839264230045956,0,0,1.3862427612304686,0,0,0.53508
1.3853140920109581,0,0,2.319981408691406,0,0,0.91728
1.3867029820103198,0,0,1.5729904907226562,0,0,0.7644
1.3880900030198973,0,0,1.3359645263671873,0,0,1.07016
1.3894770600018091,0,0,0.469263525390625,0,0,-0.30576000000000003
1.3908624869945925,0,0,0.316034619140625,0,0,0.0
1.392242025991436,0,0,1.8938135131835936,0,0,1.1465999999999998
1.393620473012561,0,0,2.085349645996094,0,0,0.7644
1.3950110849982593,0,0,1.4724340209960938,0,0,0.53508
1.3963987170136534,0,0,0.948103857421875,0,0,1.2994800000000002
1.3977859590086155,0,0,0.8595183959960937,0,0,0.07644000000000001
1.3991735720192082,0,0,1.9009961181640624,0,0,0.30576000000000003
1.4005608330189716,0,0,2.221819140625,0,0,1.911
1.4019582050095778,0,0,2.1835119140624997,0,0,0.0
1.4033455580065493,0,0,0.6679822631835937,0,0,-0.15288000000000002
1.404733467992628,0,0,0.8283937744140625,0,0,1.07016
1.4061185250175186,0,0,0.5506663818359374,0,0,-0.3822
1.407497416017577,0,0,1.93451494140625,0,0,0.53508
1.4088760839949828,0,0,2.195482922363281,0,0,2.14032
1.4102622150094248,0,0,1.1755530151367186,0,0,1.37592
1.411650810012361,0,0,0.55545478515625,0,0,0.53508
1.4130390149948653,0,0,-0.0383072265625,0,0,-9.40212
1.4144295540172607,0,0,0.34715924072265625,0,0,0.30576000000000003
1.4158168699941598,0,0,2.3630770385742186,0,0,0.3822
1.417204205004964,0,0,3.7014357666015623,0,0,2.4460800000000003
1.4185920029995032,0,0,2.39420166015625,0,0,2.2167600000000003
1.419979450001847,0,0,1.0989385620117187,0,0,0.99372
1.4213668400188908,0,0,-1.0965443603515623,0,0,-0.68796
1.4228706370049622,0,0,-0.507570751953125,0,0,0.15288000000000002
1.4242654160188977,0,0,2.693476867675781,0,0,1.37592
1.4256533250154462,0,0,3.430890979003906,0,0,1.37592
1.427040623006178,0,0,2.43250888671875,0,0,0.30576000000000003
1.428428718005307,0,0,0.37828386230468747,0,0,1.45236
1.429816682008095,0,0,-0.49320554199218747,0,0,9.631440000000001
1.4312943310069386,0,0,1.1755530151367186,0,0,0.07644000000000001
1.4326961289916653,0,0,2.0638018310546875,0,0,1.83456
1.434083333995659,0,0,1.917755529785156,0,0,0.84084
1.4354617249919102,0,0,1.4245499877929686,0,0,0.30576000000000003
1.4368408570007887,0,0,0.8164227661132812,0,0,0.91728
1.4382312470115721,0,0,0.47644613037109373,0,0,1.1465999999999998
1.4396197489986662,0,0,2.375048046875,0,0,1.60524
1.441009288013447,0,0,2.9376854370117185,0,0,2.4460800000000003
1.442397308012005,0,0,1.1875240234375,0,0,1.1465999999999998
1.4437852170085534,0,0,0.5291185668945312,0,0,-0.91728
1.4451749960135203,0,0,-0.507570751953125,0,0,-0.3822
1.4465607939928304,0,0,0.6727706665039062,0,0,0.53508
1.4479399069969077,0,0,2.327164013671875,0,0,1.45236
1.4493191679939628,0,0,3.076549133300781,0,0,2.06388
1.450701966008637,0,0,1.6543933471679686,0,0,1.5288
1.452141190005932,0,0,-0.6607996582031249,0,0,0.3822
1.4536420600197744,0,0,-1.1037269653320312,0,0,-1.68168
1.4550395620171912,0,0,-0.3591302490234375,0,0,-0.30576000000000003
1.4564287860121112,0,0,3.5984850952148437,0,0,1.5288
1.4578170280146878,0,0,4.005499377441406,0,0,1.911
1.4592047519981861,0,0,1.5514426757812498,0,0,1.83456
1.4605919019959401,0,0,-0.033518823242187495,0,0,1.07016
1.4620024780160747,0,0,-1.4915876342773438,0,0,-1.1465999999999998
1.4633835720014758,0,0,1.199495031738281,0,0,0.0
1.4647625740035437,0,0,2.9281086303710935,0,0,1.2994800000000002
1.4661488349956926,0,0,2.6862942626953124,0,0,1.2994800000000002
1.4675451700168196,0,0,2.1404162841796874,0,0,0.91728
1.468932894000318,0,0,0.55545478515625,0,0,0.53508
1.4703235439956188,0,0,-0.9600748657226562,0,0,0.3822
1.471711026999401,0,0,0.565031591796875,0,0,0.0
1.473098195012426,0,0,2.9376854370117185,0,0,0.84084
1.474486382008763,0,0,2.3295582153320313,0,0,1.45236
1.475873773015337,0,0,2.0374656127929685,0,0,1.1465999999999998
1.4772607740014791,0,0,0.30406361083984373,0,0,0.6115200000000001
1.4786438129958697,0,0,0.0718260498046875,0,0,0.84084
1.4800228890089784,0,0,1.9201497314453124,0,0,1.2994800000000002
1.4814016500022262,0,0,2.592920397949219,0,0,1.2230400000000001
1.4827905040001497,0,0,1.867477294921875,0,0,1.37592
1.4841833020036574,0,0,1.0462661254882812,0,0,1.07016
1.485576322011184,0,0,0.2920926025390625,0,0,-1.2994800000000002
1.4869596200005617,0,0,-0.086191259765625,0,0,0.45864
1.4883407510060351,0,0,2.5570073730468748,0,0,2.2931999999999997
1.489720457000658,0,0,2.9735984619140625,0,0,1.37592
1.4911081620084587,0,0,1.419761584472656,0,0,1.1465999999999998
1.4924885340151377,0,0,0.3016694091796875,0,0,1.60524
1.4938682579959277,0,0,-1.1444283935546875,0,0,-1.75812
1.4952510939911008,0,0,1.0390835205078124,0,0,-0.3822
1.4966310400050133,0,0,2.370259643554687,0,0,1.68168
1.4980154120130464,0,0,3.1483751831054687,0,0,1.5288
1.499402913992526,0,0,2.3774422485351563,0,0,1.75812
1.500790082005551,0,0,1.0941501586914062,0,0,2.6754
1.5022545829997398,0,0,-1.8124106567382812,0,0,-0.84084
1.5036434729991015,0,0,0.22266075439453123,0,0,-0.99372
1.5050314010004513,0,0,4.369418029785156,0,0,1.45236
1.5064260880171787,0,0,3.7995980346679685,0,0,1.37592
1.5078141640115064,0,0,2.5713725830078125,0,0,1.75812
1.5092008319916204,0,0,-0.833182177734375,0,0,-0.22932
1.5106185740150977,0,0,-1.867477294921875,0,0,-0.07644000000000001
1.5120554640016053,0,0,0.9552864624023437,0,0,0.0
1.513446577009745,0,0,2.31758720703125,0,0,0.84084
1.515191351994872,0,0,2.4253262817382812,0,0,0.99372
1.5170065709971823,0,0,0.7493851196289062,0,0,1.5288
1.5184177760093007,0,0,-0.6775590698242188,0,0,0.45864
1.5198465180001222,0,0,0.6200982299804687,0,0,1.1465999999999998
1.5212345010077115,0,0,2.5450363647460934,0,0,1.2994800000000002
1.5226222990022507,0,0,2.4157494750976563,0,0,1.98744
1.52401028200984,0,0,1.2210428466796874,0,0,1.45236
1.5253977279935498,0,0,0.3327940307617187,0,0,-0.7644
1.526782582019223,0,0,-0.3902548706054687,0,0,0.0
1.5281632129917853,0,0,2.0470424194335934,0,0,0.6115200000000001
1.529562067007646,0,0,2.817975354003906,0,0,0.91728
1.530952569009969,0,0,1.6017209106445311,0,0,1.1465999999999998
1.5323406440147664,0,0,0.9600748657226562,0,0,1.911
1.5337280530075077,0,0,-0.20829554443359374,0,0,-0.84084
1.5351170920184813,0,0,0.842758984375,0,0,0.0
1.5365050749969669,0,0,1.9321207397460936,0,0,2.14032
1.5378922810195945,0,0,3.066972326660156,0,0,0.84084
1.5392811160127167,0,0,2.068590234375,0,0,1.1465999999999998
1.540668839996215,0,0,1.5610194824218748,0,0,1.83456
1.542053934012074,0,0,-1.0749965454101562,0,0,-1.07016
1.5434336210018955,0,0,0.6943184814453125,0,0,-0.99372
1.5448134560137987,0,0,1.707065783691406,0,0,1.37592
1.546199347008951,0,0,2.3151930053710936,0,0,1.75812
1.5475944970094133,0,0,1.7190367919921874,0,0,1.60524
1.5489825720142107,0,0,-0.016759411621093748,0,0,1.5288
1.5503740739950445,0,0,-1.0702081420898437,0,0,-0.3822
1.5517615760036279,0,0,0.6943184814453125,0,0,-0.53508
1.553149373998167,0,0,2.7365724975585937,0,0,1.2230400000000001
1.5545368010061793,0,0,2.6408044311523438,0,0,1.98744
1.5559232480009086,0,0,2.0374656127929685,0,0,2.14032
1.5573106940137222,0,0,0.7661445312499999,0,0,0.7644
1.558697492000647,0,0,-0.430956298828125,0,0,9.555
1.5600847160094418,0,0,1.2042834350585936,0,0,0.30576000000000003
1.5614711990056094,0,0,2.4013842651367185,0,0,0.0
1.562872126000002,0,0,2.39420166015625,0,0,0.53508
1.5642592209915165,0,0,1.6136919189453125,0,0,1.911
1.5656462410115637,0,0,0.3758896606445312,0,0,-0.30576000000000003
1.5670337979972828,0,0,0.5291185668945312,0,0,0.6115200000000001
1.5684205040161032,0,0,1.0773907470703123,0,0,1.83456
1.5698065790056717,0,0,1.8626888916015625,0,0,1.2230400000000001
1.571199340018211,0,0,1.1875240234375,0,0,0.6115200000000001
1.5725870830065105,0,0,1.7860744384765623,0,0,2.2167600000000003
1.5739902880159207,0,0,0.5674257934570313,0,0,0.6115200000000001
1.5754091599956155,0,0,1.9297265380859374,0,0,0.68796
1.5768001800170168,0,0,2.499546533203125,0,0,2.06388
1.5781902190065011,0,0,1.9895815795898437,0,0,1.45236
1.5795765540096909,0,0,1.13006318359375,0,0,-0.6115200000000001
1.5809649260190781,0,0,-0.430956298828125,0,0,-0.22932
1.5823553529917262,0,0,-0.3950432739257812,0,0,-0.3822
1.5837443740165327,0,0,1.6639701538085936,0,0,0.07644000000000001
1.5851321349909995,0,0,2.9472622436523435,0,0,1.75812
1.5865202470158692,0,0,1.70467158203125,0,0,2.06388
1.5879232489969581,0,0,0.316034619140625,0,0,1.45236
1.5893103060079738,0,0,-0.18914193115234373,0,0,-0.30576000000000003
1.5906990120129194,0,0,-0.229843359375,0,0,1.1465999999999998
1.5920876059972215,0,0,2.7174188842773437,0,0,-8.71416
1.5934756819915492,0,0,3.5098996337890624,0,0,1.1465999999999998
1.5948643129959237,0,0,1.3623007446289062,0,0,1.60524
1.5962519070017152,0,0,0.7230489013671875,0,0,1.45236
1.59763913101051,0,0,0.1292868896484375,0,0,-0.7644
1.5990275030198973,0,0,1.484405029296875,0,0,-0.3822
1.6004156350099947,0,0,2.2481553588867187,0,0,0.91728
1.6018027660029475,0,0,2.693476867675781,0,0,0.45864
1.60319019400049,0,0,1.2928688964843749,0,0,0.22932
1.6045777880062815,0,0,0.6751648681640625,0,0,1.83456
1.6059659009915777,0,0,-0.3327940307617187,0,0,0.0
1.6073615880159196,0,0,1.3359645263671873,0,0,0.45864
1.608749570994405,0,0,2.123656872558594,0,0,1.911
1.6101379430037923,0,0,1.9656395629882812,0,0,1.75812
1.6115245000110008,0,0,1.22583125,0,0,0.45864
1.6129115200019442,0,0,0.13168109130859373,0,0,0.07644000000000001
1.614299615001073,0,0,0.5410895751953124,0,0,0.53508
1.6156868569960352,0,0,2.104503259277344,0,0,0.30576000000000003
1.6170746179996058,0,0,3.0597897216796874,0,0,2.6754
1.6184799899929203,0,0,1.8004396484374998,0,0,1.68168
1.6198670660087373,0,0,0.2561795776367187,0,0,0.45864
1.6212540490087122,0,0,-0.70868369140625,0,0,-1.5288
1.6226426619978156,0,0,-0.8738836059570312,0,0,0.15288000000000002
1.6240305520186666,0,0,3.038241906738281,0,0,0.91728
1.6254174990172032,0,0,3.6631285400390623,0,0,1.37592
1.6268052970117424,0,0,1.2785036865234374,0,0,1.75812
1.6281927610107232,0,0,0.4381389038085937,0,0,2.14032
1.629579985019518,0,0,-0.8212111694335937,0,0,-0.99372
1.6309688019973692,0,0,1.2018892333984375,0,0,0.3822
1.6323599890165497,0,0,2.480392919921875,0,0,2.06388
1.6337466200056951,0,0,3.545812658691406,0,0,1.07016
1.6351344549912028,0,0,1.9129671264648436,0,0,1.07016
1.6365219940198585,0,0,0.6296750366210937,0,0,1.98744
1.637909087992739,0,0,-0.7541735229492187,0,0,-0.6115200000000001
1.6392981079989113,0,0,1.1276689819335937,0,0,0.0
1.6406849430059083,0,0,2.3678654418945313,0,0,1.5288
1.642073666997021,0,0,2.094926452636719,0,0,1.2230400000000001
1.643459779996192,0,0,0.9193734375,0,0,0.0
1.6448466519941576,0,0,-0.27293898925781246,0,0,0.84084
1.6462434870190918,0,0,-0.24899697265624998,0,0,-0.15288000000000002
1.6476316550106276,0,0,1.4173673828125,0,0,0.3822
1.6490191199991386,0,0,3.3782185424804685,0,0,2.06388
1.6504139740136452,0,0,2.3415292236328122,0,0,2.2167600000000003
1.6518011790176388,0,0,0.35673604736328124,0,0,0.99372
1.6531886070151813,0,0,-0.7422025146484375,0,0,-0.91728
1.6545768119976856,0,0,-0.6943184814453125,0,0,0.6115200000000001
1.6559645730012562,0,0,2.9376854370117185,0,0,0.07644000000000001
1.657351482019294,0,0,3.651157531738281,0,0,1.2230400000000001
1.6587385949969757,0,0,2.703053674316406,0,0,1.5288
1.6601259860035498,0,0,1.2569558715820313,0,0,1.98744
1.6615128020057455,0,0,-0.6464344482421874,0,0,-1.37592
1.6629013220081106,0,0,0.5243301635742187,0,0,-0.3822
1.664289601991186,0,0,2.1739351074218747,0,0,1.2994800000000002
1.6656768440152518,0,0,3.6487633300781246,0,0,0.53508
1.6670646790007595,0,0,1.9967641845703124,0,0,1.911
1.6684519220143557,0,0,0.9911994873046874,0,0,1.98744
1.6698388490185607,0,0,-1.3287819213867187,0,0,-0.30576000000000003
1.6712270179996267,0,0,0.21068974609375,0,0,-0.3822
1.672616038005799,0,0,1.6424223388671875,0,0,1.911
1.6740045949991327,0,0,2.549824768066406,0,0,0.68796
1.675392338016536,0,0,2.147598889160156,0,0,1.45236
1.6767794509942178,0,0,0.5506663818359374,0,0,2.5989600000000004
1.6781676190148573,0,0,-0.7709329345703124,0,0,-0.22932
1.6795555099961348,0,0,0.45968671875,0,0,20
1.6809424190141726,0,0,3.1699229980468746,0,0,2.06388
1.6823305319994688,0,0,2.176329309082031,0,0,1.1465999999999998
1.6837170330109075,0,0,1.5825672973632812,0,0,1.2994800000000002
1.685103905008873,0,0,0.18435352783203124,0,0,0.0
1.6864916289923713,0,0,-1.0127473022460938,0,0,0.3822
1.6878796870005317,0,0,1.7453730102539062,0,0,0.0
1.6892666509957053,0,0,2.877830395507812,0,0,1.2994800000000002
1.690689523005858,0,0,2.1715409057617188,0,0,1.45236
1.692077301995596,0,0,1.4604630126953124,0,0,2.36964
1.6934645629953593,0,0,-0.1867477294921875,0,0,-0.99372
1.6948630459955893,0,0,0.2561795776367187,0,0,-1.2230400000000001
1.696242511010496,0,0,2.212242333984375,0,0,0.84084
1.6976215869945008,0,0,3.787627026367187,0,0,1.2994800000000002
1.6990123290161137,0,0,2.5641899780273434,0,0,2.2931999999999997
1.7004000900196843,0,0,1.4317325927734375,0,0,2.5989600000000004
1.7018151660158765,0,0,-2.0757728393554684,0,0,8.25552
1.7034864599991124,0,0,-1.0438719238281249,0,0,-1.68168
1.7049062400183175,0,0,3.105279553222656,0,0,1.75812
1.7062959450122435,0,0,3.268085266113281,0,0,0.7644
1.7076926690060645,0,0,1.8602946899414061,0,0,1.60524
1.7090810959925875,0,0,0.18914193115234373,0,0,1.2994800000000002
1.7104735430039,0,0,-1.1013327636718748,0,0,0.15288000000000002
1.7118611180048902,0,0,1.3120225097656248,0,0,0.0
1.7132487680064514,0,0,2.6910826660156246,0,0,1.2230400000000001
1.714631807000842,0,0,2.925714428710937,0,0,1.911
1.7160108459938783,0,0,2.176329309082031,0,0,0.68796
1.7173898660112172,0,0,0.8882488159179687,0,0,0.0
1.7187790530151688,0,0,-0.28969840087890625,0,0,0.15288000000000002
1.7201676660042722,0,0,1.2210428466796874,0,0,-0.15288000000000002
1.7215560940094292,0,0,2.3726538452148436,0,0,0.45864
1.7229441509989556,0,0,2.252943762207031,0,0,1.37592
1.7243317640095484,0,0,1.8004396484374998,0,0,1.911
1.7257192099932581,0,0,-0.8212111694335937,0,0,-0.68796
1.727107878017705,0,0,-0.07422025146484375,0,0,-0.6115200000000001
1.728496954019647,0,0,1.3623007446289062,0,0,1.60524
1.7298851410159841,0,0,2.384624853515625,0,0,0.30576000000000003
1.731266771996161,0,0,2.1404162841796874,0,0,1.83456
1.7326461439952254,0,0,0.6512228515624999,0,0,1.911
1.734052887011785,0,0,-0.4165910888671875,0,0,0.0
1.735441555007128,0,0,0.23223756103515625,0,0,-0.84084
1.7368299459922127,0,0,2.6527754394531247,0,0,2.14032
1.738231483992422,0,0,2.5354595581054684,0,0,1.83456
1.7396195780020207,0,0,2.205059729003906,0,0,1.2230400000000001
1.741007228003582,0,0,0.40940848388671874,0,0,1.07016
1.7423956370039377,0,0,-0.6440402465820312,0,0,0.0
1.7437832690193318,0,0,1.3072341064453123,0,0,-0.6115200000000001
1.7451718450174667,0,0,2.5809493896484375,0,0,2.06388
1.7465591980144382,0,0,2.501940734863281,0,0,2.14032
1.747947052004747,0,0,1.9895815795898437,0,0,1.2994800000000002
1.7493389419978485,0,0,0.32082302246093747,0,0,0.0
1.7507265369931702,0,0,-0.3232172241210937,0,0,0.0
1.7521147050138097,0,0,1.189918225097656,0,0,0.7644
1.753502355015371,0,0,2.6503812377929687,0,0,0.3822
1.7548909489996731,0,0,2.480392919921875,0,0,2.4460800000000003
1.7562781360174995,0,0,2.0566192260742184,0,0,2.6754
1.7576659150072373,0,0,-0.3016694091796875,0,0,-0.99372
1.7590542880061548,0,0,-0.5410895751953124,0,0,-0.45864
1.760443603998283,0,0,0.9648632690429687,0,0,0.7644
1.7618312720151152,0,0,2.152387292480469,0,0,0.0
1.7633330509997904,0,0,2.094926452636719,0,0,0.84084
1.7647212000156287,0,0,0.7326257080078125,0,0,1.83456
1.7661110720073339,0,0,-0.20350714111328125,0,0,0.07644000000000001
1.7675039820023812,0,0,0.0430956298828125,0,0,-0.22932
1.7689159089932218,0,0,2.3319524169921872,0,0,2.06388
1.7703054110170342,0,0,2.250549560546875,0,0,1.68168
1.7716916350182146,0,0,1.8602946899414061,0,0,0.91728
1.7730789140041452,0,0,0.7948749511718749,0,0,1.2994800000000002
1.7744643049954902,0,0,-0.2346317626953125,0,0,0.30576000000000003
1.7758444920182228,0,0,1.7741034301757812,0,0,0.22932
1.7772237900062464,0,0,2.7078420776367187,0,0,1.5288
1.778616327996133,0,0,1.6639701538085936,0,0,1.45236
1.780004441010533,0,0,1.1013327636718748,0,0,1.45236
1.781391758006066,0,0,0.19153613281249998,0,0,-1.5288
1.7827906479942612,0,0,0.22266075439453123,0,0,0.22932
1.7841784089978319,0,0,2.04943662109375,0,0,0.84084
1.7855659289925825,0,0,2.2577321655273437,0,0,1.1465999999999998
1.7869538020167965,0,0,1.2282254516601563,0,0,1.5288
1.7883409330097493,0,0,1.0103531005859374,0,0,1.98744
1.7897279350145254,0,0,-0.38786066894531246,0,0,-1.2230400000000001
1.7911100100027397,0,0,0.4333505004882812,0,0,0.22932
1.7924893829913344,0,0,2.7365724975585937,0,0,2.36964
1.7938684220134746,0,0,2.829946362304687,0,0,0.84084
1.7952569230110385,0,0,1.7262193969726563,0,0,1.68168
1.7966446290083695,0,0,0.05985504150390625,0,0,2.4460800000000003
1.7980426860158332,0,0,-0.8667010009765624,0,0,-1.45236
1.7994315210089553,0,0,-0.23702596435546874,0,0,-0.99372
1.8008202630153392,0,0,2.9927520751953125,0,0,1.60524
1.8022086909913924,0,0,2.6479870361328124,0,0,0.6115200000000001
1.8035948040196672,0,0,1.0654197387695312,0,0,0.53508
1.8049826940114144,0,0,0.35673604736328124,0,0,0.30576000000000003
1.8063706959947012,0,0,-0.6847416748046875,0,0,0.0
1.8077581420075148,0,0,1.8052280517578123,0,0,0.0
1.8091454030072782,0,0,2.521094348144531,0,0,2.2167600000000003
1.8105330349935684,0,0,1.66636435546875,0,0,2.14032
1.8119234440091532,0,0,1.209071838378906,0,0,1.07016
1.813310908008134,0,0,0.5339069702148437,0,0,0.07644000000000001
1.8146984289924148,0,0,0.7015010864257812,0,0,1.2994800000000002
1.8160940970119555,0,0,2.8012159423828122,0,0,0.99372
1.8174813390069176,0,0,3.289633081054687,0,0,1.45236
1.8188686740177218,0,0,1.0079588989257813,0,0,1.5288
1.8202562130172737,0,0,0.5626373901367188,0,0,1.07016
1.8216557890118565,0,0,-1.3838485595703125,0,0,-2.2167600000000003
1.8230459570186213,0,0,0.373495458984375,0,0,0.30576000000000003
1.8244339959928766,0,0,3.1292215698242187,0,0,2.4460800000000003
1.825827257009223,0,0,3.35188232421875,0,0,1.2230400000000001
1.8272151839919388,0,0,1.5634136840820312,0,0,1.2994800000000002
1.8286025380075444,0,0,-0.7493851196289062,0,0,2.52252
1.8299925950122997,0,0,-1.89620771484375,0,0,-0.84084
1.8313809669925831,0,0,-0.5626373901367188,0,0,-0.68796
1.8327690430160146,0,0,3.8857892944335934,0,0,2.75184
1.834157656005118,0,0,4.122815258789062,0,0,1.1465999999999998
1.835544397996273,0,0,1.6136919189453125,0,0,-20
1.8369322520156857,0,0,-0.2609679809570312,0,0,2.14032
1.8383218090166338,0,0,-1.908178723144531,0,0,-0.91728
1.8397096260159742,0,0,1.6735469604492186,0,0,-1.2994800000000002
1.8410970529948827,0,0,3.8283284545898435,0,0,1.1465999999999998
1.8424846109992359,0,0,2.4253262817382812,0,0,1.83456
1.8438718719989993,0,0,1.7429788085937499,0,0,0.84084
1.8452594469999894,0,0,0.17956512451171874,0,0,-0.6115200000000001
1.8466475229943171,0,0,-1.1420341918945311,0,0,0.0
1.8480411359923892,0,0,1.2713210815429687,0,0,-0.3822
1.8494290079979692,0,0,2.7150246826171873,0,0,0.6115200000000001
1.8508170470013283,0,0,2.1021090576171875,0,0,2.4460800000000003
1.8522049559978768,0,0,1.66636435546875,0,0,1.98744
1.8535923279996496,0,0,-1.01514150390625,0,0,20
1.8549809410178568,0,0,-0.09816226806640624,0,0,0.68796
1.856369387009181,0,0,2.4899697265625,0,0,1.1465999999999998
1.8577565549931023,0,0,3.845087866210937,0,0,1.2994800000000002
1.8591439830197487,0,0,2.2385785522460937,0,0,1.07016
1.8605311140127014,0,0,-0.5458779785156249,0,0,1.98744
1.8619450599944685,0,0,-1.908178723144531,0,0,20
1.8633352470060345,0,0,-1.0295067138671874,0,0,-0.84084
1.864723803999368,0,0,3.9839515624999997,0,0,2.4460800000000003
1.8661121019977145,0,0,4.050989208984375,0,0,0.7644
1.867498808016535,0,0,1.2617442749023438,0,0,1.2994800000000002
1.8688864950090647,0,0,-0.6200982299804687,0,0,1.45236
1.870284681004705,0,0,-2.549824768066406,0,0,-1.07016
1.8716724980040453,0,0,0.5722141967773438,0,0,-1.83456
1.8730603140138555,0,0,3.342305517578125,0,0,1.75812
1.8744487600051798,0,0,2.8706477905273435,0,0,2.06388
1.8758351700089406,0,0,2.0781670410156248,0,0,0.6115200000000001
1.8772228379966691,0,0,0.086191259765625,0,0,2.36964
1.878610468993429,0,0,-2.5570073730468748,0,0,-1.07016
1.879998582007829,0,0,-0.2609679809570312,0,0,-2.14032
1.881404860992916,0,0,3.308786694335937,0,0,1.5288
1.8827933080028743,0,0,2.262520568847656,0,0,0.91728
1.8841808279976249,0,0,1.7477672119140624,0,0,20
1.8855685330054257,0,0,-0.8930372192382812,0,0,1.2994800000000002
1.8869567569927312,0,0,-2.262520568847656,0,0,-2.4460800000000003
1.8883449629938696,0,0,-0.852335791015625,0,0,-1.2994800000000002
1.8897335010115057,0,0,2.501940734863281,0,0,3.21048
1.891124170011608,0,0,2.6288334228515624,0,0,0.0
1.8925141530053224,0,0,1.5251064575195312,0,0,2.82828
1.8939019319950603,0,0,-0.46208092041015625,0,0,1.98744
1.895291138003813,0,0,-0.8834604125976562,0,0,20
1.8966799910122063,0,0,1.0462661254882812,0,0,1.1465999999999998
1.8980678080115467,0,0,2.9927520751953125,0,0,-1.2994800000000002
1.8994555870012846,0,0,3.6152445068359373,0,0,1.68168
1.9008432739938144,0,0,1.2880804931640624,0,0,0.6115200000000001
1.9022317939961795,0,0,0.34237083740234375,0,0,-0.45864
1.9036186480079778,0,0,-2.2960393920898436,0,0,-0.99372
1.9050072790123522,0,0,-2.0183119995117185,0,0,-3.89844
1.9063968920090701,0,0,2.5570073730468748,0,0,1.68168
1.9077858380042017,0,0,2.722207287597656,0,0,9.24924
1.9091728769999463,0,0,2.4756045166015626,0,0,3.2869200000000003
1.9105605270015076,0,0,-0.3806780639648437,0,0,1.68168
1.9119489540171344,0,0,-0.15562310791015624,0,0,0.53508
1.9133468820073176,0,0,-1.62805712890625,0,0,1.2230400000000001
1.9147355500026606,0,0,0.43574470214843747,0,0,6.34452
1.91614634799771,0,0,2.1619640991210938,0,0,2.82828
1.9176765519951005,0,0,3.9743747558593747,0,0,-0.15288000000000002
1.919123016006779,0,0,3.2154128295898436,0,0,3.51624
1.9206321270030458,0,0,-1.3742717529296875,0,0,-0.22932
1.9220548320154194,0,0,-1.5083470458984374,0,0,-0.84084
1.9234458710125182,0,0,-0.7326257080078125,0,0,-1.75812
1.9248341690108646,0,0,1.5346832641601562,0,0,-2.36964
1.9262226330174599,0,0,1.687912170410156,0,0,0.30576000000000003
1.9276105060125701,0,0,2.480392919921875,0,0,2.06388
1.9289983590133488,0,0,1.3239935180664062,0,0,2.4460800000000003
1.9303921569953673,0,0,-1.0319009155273438,0,0,1.911
1.9317716220102739,0,0,-1.484405029296875,0,0,-9.784320000000001
1.9331516610109247,0,0,-0.39264907226562495,0,0,-0.6115200000000001
1.934540348011069,0,0,2.094926452636719,0,0,-0.3822
1.9359284419915639,0,0,2.839523168945312,0,0,0.99372
1.9374463490094058,0,0,1.7645266235351562,0,0,0.3822
1.938841961993603,0,0,1.2330138549804688,0,0,1.2994800000000002
1.940231834014412,0,0,0.5099649536132812,0,0,0.15288000000000002
1.941639224998653,0,0,-0.36631285400390623,0,0,0.22932
1.9430285780108534,0,0,-0.2346317626953125,0,0,-0.91728
1.9444181910075713,0,0,0.5985504150390625,0,0,9.24924
1.9458059149910696,0,0,1.16837041015625,0,0,-0.7644
1.9471896940085571,0,0,1.139639990234375,0,0,0.53508
1.9485729740117677,0,0,0.7852981445312499,0,0,0.68796
1.9499657160195056,0,0,0.5363011718749999,0,0,0.3822
1.9513553850119933,0,0,1.1563994018554686,0,0,0.7644
1.9527943860157393,0,0,1.4987702392578124,0,0,1.2230400000000001
1.954290238005342,0,0,1.3048399047851562,0,0,1.07016
1.955680906015914,0,0,1.005564697265625,0,0,1.2230400000000001
1.9570788709970657,0,0,0.6248866333007812,0,0,0.15288000000000002
1.95852611301234,0,0,0.0909796630859375,0,0,-0.68796
1.9599167249980383,0,0,1.1133037719726562,0,0,-0.84084
1.9613058200047817,0,0,1.4245499877929686,0,0,0.30576000000000003
1.9626939700101502,0,0,0.603338818359375,0,0,0.7644
1.9640819530177396,0,0,0.43574470214843747,0,0,0.30576000000000003
1.9654696770012379,0,0,-0.22266075439453123,0,0,-0.15288000000000002
1.9668549750058446,0,0,-0.1388636962890625,0,0,-9.784320000000001
1.9682372540119104,0,0,0.93852705078125,0,0,0.53508
1.9696169040107634,0,0,1.2856862915039062,0,0,0.30576000000000003
1.9710067950072698,0,0,1.1947066284179686,0,0,0.6115200000000001
1.9723945560108405,0,0,1.2497732666015624,0,0,0.91728
1.9737821870076004,0,0,1.0582371337890624,0,0,0.3822
1.9751694849983323,0,0,1.1923124267578125,0,0,0.68796
1.9765568760049064,0,0,1.1372457885742187,0,0,1.37592
1.9779454700183123,0,0,0.40462008056640625,0,0,-1.37592
1.9793355269939639,0,0,0.42377369384765623,0,0,0.0
1.9807228810095694,0,0,0.8283937744140625,0,0,-0.84084
1.9821088089956902,0,0,1.0654197387695312,0,0,0.0
1.983487273013452,0,0,0.7230489013671875,0,0,0.68796
1.98486627501552,0,0,1.1444283935546875,0,0,0.15288000000000002
1.9862530730024446,0,0,0.3711012573242187,0,0,1.2230400000000001
1.9876413340098225,0,0,-0.009576806640625,0,0,-1.1465999999999998
1.9890323170111515,0,0,0.5482721801757812,0,0,0.84084
1.9904247999947984,0,0,1.675941162109375,0,0,0.3822
1.9918112099985592,0,0,1.5203180541992187,0,0,0.6115200000000001
1.99319891500636,0,0,0.8307879760742187,0,0,0.84084
1.9945864170149434,0,0,1.0534487304687499,0,0,0.22932
1.9959736409946345,0,0,0.6296750366210937,0,0,0.15288000000000002
1.9973614390182775,0,0,-0.00718260498046875,0,0,-0.22932
1.998750718019437,0,0,0.33039982910156246,0,0,-0.15288000000000002
2.000147034996189,0,0,0.9816226806640624,0,0,-0.3822
2.00154086999828,0,0,1.254561669921875,0,0,0.7644
2.0029287050128914,0,0,0.32561142578124996,0,0,0.30576000000000003
2.004315836005844,0,0,0.38786066894531246,0,0,0.30576000000000003
2.0057033929915633,0,0,0.8164227661132812,0,0,0.30576000000000003
2.007091395003954,0,0,1.0797849487304687,0,0,0.6115200000000001
2.0084788410167675,0,0,0.8403647827148437,0,0,0.68796
2.0098659350187518,0,0,0.7517793212890624,0,0,0.30576000000000003
2.0112533819919918,0,0,1.1252747802734375,0,0,-9.555
2.012641512992559,0,0,1.4532804077148436,0,0,0.15288000000000002
2.0140437740192283,0,0,1.429338391113281,0,0,0.68796
2.0154311270161998,0,0,0.469263525390625,0,0,0.30576000000000003
2.016823333018692,0,0,0.2346317626953125,0,0,-0.22932
2.0182123339909595,0,0,0.39743747558593745,0,0,0.0
2.0195981690194458,0,0,0.8595183959960937,0,0,0.0
2.020985818991903,0,0,0.9935936889648437,0,0,-9.47856
2.0223741910012905,0,0,1.0558429321289062,0,0,0.30576000000000003
2.0237608409952372,0,0,0.316034619140625,0,0,0.3822
2.0251481760060415,0,0,-0.055066638183593745,0,0,0.0
2.0265367710089777,0,0,0.4261678955078125,0,0,9.555
2.0279243830009364,0,0,0.9624690673828125,0,0,0.6115200000000001
2.0293115329986904,0,0,1.5275006591796874,0,0,0.84084
2.0306991090183146,0,0,1.218648645019531,0,0,1.2994800000000002
2.032086110993987,0,0,0.6943184814453125,0,0,0.15288000000000002
2.0334734639909584,0,0,0.13646949462890623,0,0,-0.15288000000000002
2.0348614290123805,0,0,0.2609679809570312,0,0,-0.15288000000000002
2.0362487829988822,0,0,1.3934253662109375,0,0,0.0
2.0376358770008665,0,0,1.6807295654296874,0,0,0.68796
2.03902810101863,0,0,1.5059528442382812,0,0,0.84084
2.0404156020085793,0,0,0.6177040283203125,0,0,0.15288000000000002
2.0418048260034993,0,0,0.0383072265625,0,0,0.0
2.0431924760050606,0,0,0.40222587890625,0,0,-0.6115200000000001
2.044580145011423,0,0,0.679953271484375,0,0,-0.3822
2.0459990529925562,0,0,1.0749965454101562,0,0,0.15288000000000002
2.047386666003149,0,0,1.0630255371093749,0,0,0.45864
2.048773168004118,0,0,0.6416460449218749,0,0,0.3822
2.0501576510141604,0,0,0.17238251953125,0,0,0.6115200000000001
2.051536153012421,0,0,0.3016694091796875,0,0,0.07644000000000001
2.052915099018719,0,0,0.5889736083984375,0,0,0.30576000000000003
2.0543000450124964,0,0,1.2282254516601563,0,0,0.22932
2.05568706599297,0,0,1.0893617553710937,0,0,0.91728
2.057080604019575,0,0,0.9313444458007812,0,0,0.30576000000000003
2.058469031995628,0,0,0.6607996582031249,0,0,0.7644
2.059856014995603,0,0,0.7972691528320313,0,0,-0.15288000000000002
2.061243017000379,0,0,1.0797849487304687,0,0,0.07644000000000001
2.0626300559961237,0,0,0.9217676391601562,0,0,0.0
2.064016502001323,0,0,0.7134720947265625,0,0,0.30576000000000003
2.0654030220175628,0,0,0.5123591552734374,0,0,-0.22932
2.066790245997254,0,0,1.0007762939453124,0,0,0.91728
2.068183802999556,0,0,0.689530078125,0,0,0.07644000000000001
2.0695712309970986,0,0,0.39983167724609375,0,0,0.30576000000000003
2.070958251017146,0,0,0.34715924072265625,0,0,0.53508
2.072345585998846,0,0,1.2401964599609374,0,0,0.07644000000000001
2.073732014017878,0,0,1.446097802734375,0,0,0.84084
2.0751182380190585,0,0,1.4006079711914061,0,0,0.91728
2.0765048320172355,0,0,1.1875240234375,0,0,1.2994800000000002
2.077890982007375,0,0,0.9911994873046874,0,0,0.99372
2.0792775580193847,0,0,0.8954314208984374,0,0,0.84084
2.08066400399548,0,0,1.1037269653320312,0,0,0.68796
2.082050894998247,0,0,1.7956512451171873,0,0,0.30576000000000003
2.0834366560156923,0,0,1.8507178833007811,0,0,0.6115200000000001
2.0848228789982386,0,0,1.5753846923828123,0,0,0.7644
2.086210066016065,0,0,0.9840168823242187,0,0,0.45864
2.0875960680132266,0,0,0.9217676391601562,0,0,0.53508
2.088993681012653,0,0,0.8786720092773437,0,0,0.45864
2.09038162700017,0,0,1.2761094848632812,0,0,0.53508
2.091769851016579,0,0,1.4006079711914061,0,0,1.07016
2.093159704003483,0,0,1.438915197753906,0,0,0.91728
2.0945472989988048,0,0,1.1540052001953125,0,0,0.91728
2.095933745004004,0,0,1.4796166259765624,0,0,0.84084
2.0973212840035558,0,0,1.2282254516601563,0,0,0.91728
2.0987079520127736,0,0,1.4820108276367188,0,0,0.84084
2.1000941950187553,0,0,1.216254443359375,0,0,1.1465999999999998
2.101481010991847,0,0,1.0989385620117187,0,0,0.68796
2.1028687719954178,0,0,1.1252747802734375,0,0,0.45864
2.10425514401868,0,0,1.3048399047851562,0,0,0.6115200000000001
2.1056416270148475,0,0,1.5107412475585937,0,0,0.6115200000000001
2.1070402770128567,0,0,1.2114660400390624,0,0,0.68796
2.1084301859955303,0,0,1.2689268798828124,0,0,0.68796
2.109876891016029,0,0,1.189918225097656,0,0,0.53508
2.1113258360128384,0,0,1.1947066284179686,0,0,0.84084
2.112776522000786,0,0,1.2689268798828124,0,0,1.2230400000000001
2.1142260229971725,0,0,1.4891934326171874,0,0,0.84084
2.1156869690166786,0,0,1.465251416015625,0,0,0.84084
2.1175691870157607,0,0,1.4532804077148436,0,0,0.91728
2.1190635570092127,0,0,1.3766659545898436,0,0,1.1465999999999998
2.120531132008182,0,0,1.218648645019531,0,0,0.53508
2.122047614015173,0,0,1.1156979736328125,0,0,0.6115200000000001
2.123544188012602,0,0,1.2617442749023438,0,0,0.22932
2.1250021340092644,0,0,1.3072341064453123,0,0,0.68796
2.1265043189923745,0,0,1.3431471313476562,0,0,0.6115200000000001
2.1279937459912617,0,0,1.467645617675781,0,0,0.91728
2.129419525008416,0,0,1.2234370483398436,0,0,0.7644
2.1308013969974127,0,0,1.1324573852539062,0,0,0.84084
2.132176362007158,0,0,1.2018892333984375,0,0,0.53508
2.133550697006285,0,0,1.2378022583007813,0,0,0.7644
2.1349383470078465,0,0,1.2330138549804688,0,0,0.68796
2.136312460002955,0,0,1.2018892333984375,0,0,0.53508
2.1376870539970696,0,0,1.4101847778320311,0,0,0.6115200000000001
2.1390701300115325,0,0,1.388636962890625,0,0,0.68796
2.140444076008862,0,0,1.3359645263671873,0,0,0.91728
2.1418173370184377,0,0,1.1947066284179686,0,0,1.1465999999999998
2.143229542998597,0,0,0.9935936889648437,0,0,0.53508
2.1446098040032666,0,0,1.120486376953125,0,0,0.30576000000000003
2.1460216010164004,0,0,1.3958195678710936,0,0,0.68796
2.1474121590144932,0,0,1.6424223388671875,0,0,0.84084
2.1487879939959385,0,0,1.5801730957031248,0,0,0.6115200000000001
2.1501701069937553,0,0,1.2210428466796874,0,0,0.7644
2.1515455710177775,0,0,1.1468225952148436,0,0,0.3822
2.1529191290028393,0,0,0.9935936889648437,0,0,0.84084
2.154294297011802,0,0,1.1180921752929687,0,0,0.7644
2.155668021994643,0,0,1.4820108276367188,0,0,0.84084
2.1570411900174804,0,0,1.4030021728515625,0,0,0.68796
2.158417044003727,0,0,1.5562310791015623,0,0,1.2230400000000001
2.1597905090020504,0,0,1.0845733520507812,0,0,1.07016
2.1611635480076075,0,0,1.1707646118164061,0,0,0.99372
2.162537900992902,0,0,1.1420341918945311,0,0,0.3822
2.163911662006285,0,0,1.209071838378906,0,0,0.45864
2.1652893680147827,0,0,1.3215993164062498,0,0,1.1465999999999998
2.166665388009278,0,0,1.3838485595703125,0,0,0.7644
2.1680389090033714,0,0,1.5586252807617187,0,0,0.68796
2.16941272499389,0,0,1.4891934326171874,0,0,0.68796
2.1707968010159675,0,0,1.2042834350585936,0,0,0.91728
2.1721805809938814,0,0,1.1731588134765625,0,0,0.68796
2.173564768017968,0,0,1.2210428466796874,0,0,0.91728
2.1749553620174993,0,0,1.2928688964843749,0,0,0.7644
2.1763295120035764,0,0,1.3479355346679687,0,0,0.68796
2.1777102920168545,0,0,1.5179238525390624,0,0,0.6115200000000001
2.179093756014481,0,0,1.5442600708007812,0,0,0.68796
2.1804760730010457,0,0,1.3287819213867187,0,0,0.6115200000000001
2.18185844499385,0,0,1.2856862915039062,0,0,0.99372
2.183240890997695,0,0,1.1659762084960936,0,0,0.6115200000000001
2.184622781991493,0,0,1.1659762084960936,0,0,0.53508
2.1860055249999277,0,0,1.2713210815429687,0,0,0.91728
2.187387693003984,0,0,1.4508862060546874,0,0,0.45864
2.188769324013265,0,0,1.4628572143554686,0,0,0.53508
2.1901526040164754,0,0,1.429338391113281,0,0,0.7644
2.191533734992845,0,0,1.1659762084960936,0,0,0.7644
2.192915699997684,0,0,1.1420341918945311,0,0,0.53508
2.1942986650101375,0,0,1.1611878051757811,0,0,0.6115200000000001
2.1956800000043586,0,0,1.3551181396484375,0,0,0.84084
2.1970618170162197,0,0,1.419761584472656,0,0,0.45864
2.19844491101685,0,0,1.446097802734375,0,0,0.91728
2.1998263570130803,0,0,1.388636962890625,0,0,0.91728
2.2012080440181307,0,0,1.3766659545898436,0,0,2.14032
2.2034631090064067,0,0,1.3551181396484375,0,0,0.6115200000000001
2.2049437210080214,0,0,1.1923124267578125,0,0,0.91728
2.2063372599950526,0,0,1.2617442749023438,0,0,0.68796
2.2077198910119478,0,0,1.2904746948242187,0,0,0.22932
2.209102023014566,0,0,1.407790576171875,0,0,0.6115200000000001
2.2104846540023573,0,0,1.4173673828125,0,0,0.99372
2.2118666190071963,0,0,1.1851298217773436,0,0,0.91728
2.213249027990969,0,0,1.197100830078125,0,0,0.84084
2.2146319189923815,0,0,1.1707646118164061,0,0,0.6115200000000001
2.216013919998659,0,0,1.2521674682617188,0,0,0.6115200000000001
2.217396385007305,0,0,1.2689268798828124,0,0,0.7644
2.21877907201997,0,0,1.5083470458984374,0,0,0.91728
2.220160703000147,0,0,1.3934253662109375,0,0,0.68796
2.2215424829919357,0,0,1.4125789794921875,0,0,0.6115200000000001
2.2229449290025514,0,0,1.22583125,0,0,0.84084
2.2243271350162104,0,0,1.20667763671875,0,0,0.84084
2.2257095990062226,0,0,1.1324573852539062,0,0,0.68796
2.2270923420146573,0,0,1.1707646118164061,0,0,0.6115200000000001
2.228474603005452,0,0,1.2928688964843749,0,0,0.53508
2.2298569190024864,0,0,1.2401964599609374,0,0,0.53508
2.23123988401494,0,0,1.5083470458984374,0,0,0.99372
2.232622016017558,0,0,1.5059528442382812,0,0,0.84084
2.234022646996891,0,0,1.2473790649414063,0,0,0.91728
2.235406704014167,0,0,1.0965443603515623,0,0,0.7644
2.2367884650011547,0,0,1.3263877197265623,0,0,0.6115200000000001
2.2381720039993525,0,0,1.2330138549804688,0,0,1.1465999999999998
2.2395544500031974,0,0,1.429338391113281,0,0,0.7644
2.2409363409969956,0,0,1.3287819213867187,0,0,0.91728
2.2423196760064457,0,0,1.6256629272460936,0,0,0.7644
2.2437008999986574,0,0,1.2665326782226562,0,0,0.99372
2.245082920009736,0,0,1.197100830078125,0,0,0.68796
2.246464791998733,0,0,1.0726023437499999,0,0,0.84084
2.2479647930013016,0,0,1.218648645019531,0,0,0.53508
2.2493494060181547,0,0,1.3144167114257812,0,0,0.3822
2.2507314260001294,0,0,1.4006079711914061,0,0,0.68796
2.252113761001965,0,0,1.5394716674804687,0,0,0.45864
2.253495800017845,0,0,1.5131354492187499,0,0,0.68796
2.2548962460132316,0,0,1.2880804931640624,0,0,0.91728
2.2562783590110485,0,0,1.1851298217773436,0,0,0.91728
2.257683823001571,0,0,1.158793603515625,0,0,0.68796
2.2590676030085888,0,0,1.24498486328125,0,0,1.1465999999999998
2.260449827008415,0,0,1.2808978881835937,0,0,0.6115200000000001
2.2618317730084527,0,0,1.2617442749023438,0,0,1.07016
2.263214627018897,0,0,1.4963760375976562,0,0,1.07016
2.2645966650161427,0,0,1.149216796875,0,0,0.91728
2.266005704004783,0,0,1.3024457031249999,0,0,0.7644
2.267387983010849,0,0,1.1061211669921875,0,0,0.53508
2.268769632995827,0,0,1.235408056640625,0,0,0.53508
2.2701520239934325,0,0,1.3407529296874998,0,0,0.68796
2.271533858991461,0,0,1.4628572143554686,0,0,0.6115200000000001
2.272915434994502,0,0,1.5107412475585937,0,0,0.68796
2.2742976220033597,0,0,1.37906015625,0,0,0.91728
2.275678827019874,0,0,1.0869675537109373,0,0,0.99372
2.277060310996603,0,0,1.120486376953125,0,0,0.6115200000000001
2.2784440900140908,0,0,1.2042834350585936,0,0,0.68796
2.2798248140024953,0,0,1.3239935180664062,0,0,0.45864
2.281206279003527,0,0,1.4508862060546874,0,0,0.53508
2.282588966016192,0,0,1.3575123413085937,0,0,0.7644
2.283970523014432,0,0,1.5849614990234373,0,0,0.99372
2.2853526360122487,0,0,1.2282254516601563,0,0,0.7644
2.286736045003636,0,0,1.3311761230468748,0,0,0.91728
2.2881180469994433,0,0,1.180341418457031,0,0,0.68796
2.2895000300195534,0,0,1.1635820068359375,0,0,0.45864
2.2908938649925403,0,0,1.2880804931640624,0,0,1.2994800000000002
2.2922877560195047,0,0,1.438915197753906,0,0,0.91728
2.293672443018295,0,0,1.2401964599609374,0,0,0.68796
2.2950569819950033,0,0,1.4101847778320311,0,0,1.07016
2.29644074299722,0,0,1.1731588134765625,0,0,0.99372
2.2978238000068814,0,0,1.1324573852539062,0,0,0.7644
2.299200228007976,0,0,1.0893617553710937,0,0,0.68796
2.300573674001498,0,0,1.1851298217773436,0,0,0.7644
2.301965824008221,0,0,1.458068811035156,0,0,0.45864
2.3033499180164654,0,0,1.4867992309570313,0,0,0.91728
2.3047328639950138,0,0,1.5370774658203123,0,0,0.84084
2.3061150700086728,0,0,1.20667763671875,0,0,0.68796
2.307498645997839,0,0,1.3311761230468748,0,0,0.7644
2.3088821659912355,0,0,1.13006318359375,0,0,0.68796
2.310273520008195,0,0,1.1420341918945311,0,0,0.68796
2.3116563360090367,0,0,1.2737152832031249,0,0,1.07016
2.3130395420012064,0,0,1.43652099609375,0,0,0.53508
2.3144190619932488,0,0,1.216254443359375,0,0,0.53508
2.3157926560088526,0,0,1.350329736328125,0,0,0.7644
2.3171663990069646,0,0,1.235408056640625,0,0,0.84084
2.3185480120009743,0,0,1.2473790649414063,0,0,0.91728
2.319929624994984,0,0,1.1156979736328125,0,0,0.7644
2.321311681997031,0,0,1.1611878051757811,0,0,0.45864
2.3226938510197215,0,0,1.3096283081054687,0,0,0.15288000000000002
2.3240758340107277,0,0,1.2761094848632812,0,0,0.84084
2.3254504280048423,0,0,1.4867992309570313,0,0,0.7644
2.3268320969946217,0,0,1.2138602416992186,0,0,0.84084
2.3282140429946594,0,0,1.20667763671875,0,0,0.84084
2.3295960079994984,0,0,1.1707646118164061,0,0,0.45864
2.3309788430051412,0,0,1.1324573852539062,0,0,0.68796
2.332360382017214,0,0,1.2785036865234374,0,0,0.91728
2.3337422540062107,0,0,1.4963760375976562,0,0,0.84084
2.335141162999207,0,0,1.3383587280273437,0,0,1.2230400000000001
2.3365255719982088,0,0,1.6831237670898436,0,0,0.7644
2.3379084629996214,0,0,1.1444283935546875,0,0,1.07016
2.339293761004228,0,0,1.0773907470703123,0,0,0.7644
2.3406762439990416,0,0,1.1731588134765625,0,0,0.84084
2.3420600419922266,0,0,1.2593500732421874,0,0,0.68796
2.3434408960165456,0,0,1.2856862915039062,0,0,0.22932
2.344822749000741,0,0,1.3958195678710936,0,0,0.68796
2.3462057140131947,0,0,1.5251064575195312,0,0,0.84084
2.347588975011604,0,0,1.47482822265625,0,0,0.84084
2.3489709770074114,0,0,1.1755530151367186,0,0,0.84084
2.350364812009502,0,0,1.1348515869140625,0,0,0.6115200000000001
2.3517467950005084,0,0,1.1372457885742187,0,0,0.7644
2.3531352230056655,0,0,1.2138602416992186,0,0,0.7644
2.354517853993457,0,0,1.5011644409179687,0,0,0.6115200000000001
2.355899856018368,0,0,1.2904746948242187,0,0,0.91728
2.357281339005567,0,0,1.4891934326171874,0,0,1.07016
2.3586631930083968,0,0,1.2114660400390624,0,0,0.91728
2.3600452130194753,0,0,1.235408056640625,0,0,0.53508
2.3614270109974314,0,0,1.120486376953125,0,0,0.45864
2.3628094760060776,0,0,1.1563994018554686,0,0,0.68796
2.364191311004106,0,0,1.2665326782226562,0,0,0.68796
2.365573276008945,0,0,1.5059528442382812,0,0,0.53508
2.3669615180115215,0,0,1.5298948608398437,0,0,0.53508
2.368346389994258,0,0,1.4053963745117186,0,0,0.84084
2.3697288740077056,0,0,1.3000515014648437,0,0,0.7644
2.3711122090171557,0,0,1.2138602416992186,0,0,0.68796
2.3724943769921083,0,0,1.1324573852539062,0,0,1.07016
2.3738769160117954,0,0,1.2378022583007813,0,0,0.68796
2.3752591960073914,0,0,1.254561669921875,0,0,0.30576000000000003
2.3766419750172645,0,0,1.3335703247070312,0,0,0.53508
2.3780428470054176,0,0,1.5442600708007812,0,0,0.99372
2.3794247560144868,0,0,1.3623007446289062,0,0,0.6115200000000001
2.3808067210193258,0,0,1.149216796875,0,0,0.7644
2.382189982017735,0,0,1.1875240234375,0,0,0.6115200000000001
2.3835708539991174,0,0,1.197100830078125,0,0,0.84084
2.384952633990906,0,0,1.3431471313476562,0,0,1.2230400000000001
2.38633578401641,0,0,1.4939818359375,0,0,0.91728
2.387716971017653,0,0,1.3958195678710936,0,0,0.84084
2.38909860199783,0,0,1.3958195678710936,0,0,0.53508
2.3904810670064762,0,0,1.120486376953125,0,0,0.84084
2.3918631240085233,0,0,1.199495031738281,0,0,0.68796
2.393244589009555,0,0,1.120486376953125,0,0,0.68796
2.3946268869913183,0,0,1.2665326782226562,0,0,0.6115200000000001
2.3960087220184505,0,0,1.448492004394531,0,0,0.22932
2.397402464004699,0,0,1.484405029296875,0,0,0.7644
2.398784651013557,0,0,1.5921441040039062,0,0,0.7644
2.400166300998535,0,0,1.3120225097656248,0,0,0.7644
2.401548191992333,0,0,1.20667763671875,0,0,0.7644
2.402930231008213,0,0,1.1947066284179686,0,0,0.53508
2.404312361992197,0,0,1.0917559570312498,0,0,0.68796
2.405694012006279,0,0,1.2976572998046874,0,0,1.2230400000000001
2.4070755330030806,0,0,1.3958195678710936,0,0,0.84084
2.4084646080154926,0,0,1.3192051147460937,0,0,0.53508
2.4098471100151073,0,0,1.4939818359375,0,0,0.84084
2.411228890006896,0,0,1.1827356201171875,0,0,0.99372
2.412611003004713,0,0,1.1324573852539062,0,0,0.45864
2.413993763999315,0,0,1.1611878051757811,0,0,0.6115200000000001
2.4153756170126144,0,0,1.1228805786132812,0,0,0.45864
2.416758119012229,0,0,1.3838485595703125,0,0,0.22932
2.418140621011844,0,0,1.35990654296875,0,0,0.68796
2.4195216970110778,0,0,1.2042834350585936,0,0,0.84084
2.4209027719916776,0,0,1.2234370483398436,0,0,0.7644
2.4222857560089324,0,0,1.1276689819335937,0,0,0.7644
2.4236672580009326,0,0,1.1061211669921875,0,0,0.6115200000000001
2.4250487410172354,0,0,1.1659762084960936,0,0,0.91728
2.4264315940090455,0,0,1.0797849487304687,0,0,0.99372
2.427812484995229,0,0,1.5394716674804687,0,0,0.7644
2.4291941720002797,0,0,1.3120225097656248,0,0,0.84084
2.430575136997504,0,0,1.3000515014648437,0,0,0.99372
2.432841924019158,0,0,1.24498486328125,0,0,0.91728
2.4342729810159653,0,0,1.1755530151367186,0,0,0.3822
2.435652279003989,0,0,1.199495031738281,0,0,0.45864
2.4370267250051256,0,0,1.2808978881835937,0,0,0.6115200000000001
2.4384041530138347,0,0,1.448492004394531,0,0,0.6115200000000001
2.439777988009155,0,0,1.3359645263671873,0,0,0.7644
2.441168360004667,0,0,1.5849614990234373,0,0,0.53508
2.442544307006756,0,0,1.1707646118164061,0,0,1.1465999999999998
2.443918383010896,0,0,1.2018892333984375,0,0,0.7644
2.4452921250194777,0,0,1.1109095703125,0,0,0.68796
2.4466738490154967,0,0,1.2569558715820313,0,0,0.6115200000000001
2.448065720993327,0,0,1.5298948608398437,0,0,0.30576000000000003
2.449447760009207,0,0,1.4532804077148436,0,0,0.68796
2.4508293920080177,0,0,1.5227122558593749,0,0,0.84084
2.452210171002662,0,0,1.2425906616210938,0,0,0.84084
2.45434103399748,0,0,1.2976572998046874,0,0,0.53508
2.4557743500045035,0,0,1.1372457885742187,0,0,0.6115200000000001
2.4571603150106966,0,0,1.1611878051757811,0,0,0.3822
2.458550687006209,0,0,1.5251064575195312,0,0,0.15288000000000002
2.4599343549925834,0,0,1.446097802734375,0,0,0.6115200000000001
2.4613178569998126,0,0,1.43652099609375,0,0,0.7644
2.462695729016559,0,0,1.2282254516601563,0,0,0.53508
2.464069287001621,0,0,1.254561669921875,0,0,0.99372
2.4654427700152155,0,0,1.1133037719726562,0,0,0.84084
2.466826752992347,0,0,1.2617442749023438,0,0,0.7644
2.4682398659933824,0,0,1.3718775512695311,0,0,0.84084
2.4696238310134504,0,0,1.4772224243164063,0,0,0.53508
2.4710063690145034,0,0,1.3359645263671873,0,0,0.7644
2.472388741996838,0,0,1.5658078857421873,0,0,0.84084
2.473770169017371,0,0,1.20667763671875,0,0,0.68796
2.4751527270127553,0,0,1.1348515869140625,0,0,0.91728
2.4765350990055595,0,0,1.218648645019531,0,0,0.53508
2.4779170819965657,0,0,1.1540052001953125,0,0,0.53508
2.4793297500000335,0,0,1.2856862915039062,0,0,0.45864
2.480712085001869,0,0,1.3311761230468748,0,0,0.45864
2.4820952540030703,0,0,1.5131354492187499,0,0,0.7644
2.483476477995282,0,0,1.199495031738281,0,0,0.7644
2.4848580160178244,0,0,1.2234370483398436,0,0,0.91728
2.486248722008895,0,0,1.1228805786132812,0,0,0.68796
2.4876307420199737,0,0,1.1947066284179686,0,0,0.68796
2.4890124480007216,0,0,1.3766659545898436,0,0,0.84084
2.490395746019203,0,0,1.3168109130859373,0,0,0.45864
2.491776729002595,0,0,1.2904746948242187,0,0,0.84084
2.493192601017654,0,0,1.4053963745117186,0,0,1.07016
2.4945786769967526,0,0,1.2234370483398436,0,0,0.6115200000000001
2.4959616599953733,0,0,1.2785036865234374,0,0,0.7644
2.4973446800140664,0,0,1.1827356201171875,0,0,0.68796
2.4987222560157534,0,0,1.120486376953125,0,0,0.3822
2.500095832016086,0,0,1.4508862060546874,0,0,0.45864
2.501470129995141,0,0,1.3120225097656248,0,0,0.7644
2.5028532430005725,0,0,1.35990654296875,0,0,0.84084
2.5042360780062154,0,0,1.429338391113281,0,0,0.6115200000000001
2.505623191013001,0,0,1.1420341918945311,0,0,0.99372
2.5070067300111987,0,0,1.2234370483398436,0,0,0.53508
2.508391361014219,0,0,1.1851298217773436,0,0,0.7644
2.5097739179909695,0,0,1.2856862915039062,0,0,0.7644
2.511158086999785,0,0,1.2401964599609374,0,0,0.22932
2.5125412920024246,0,0,1.2808978881835937,0,0,0.91728
2.5139388120151125,0,0,1.5203180541992187,0,0,1.1465999999999998
2.515315296011977,0,0,1.3239935180664062,0,0,0.6115200000000001
2.5166883720085025,0,0,1.2282254516601563,0,0,0.6115200000000001
2.518067113996949,0,0,1.1707646118164061,0,0,0.53508
2.5194501350051723,0,0,1.158793603515625,0,0,0.3822
2.520833043992752,0,0,1.2832920898437499,0,0,0.99372
2.5222158420074265,0,0,1.438915197753906,0,0,0.68796
2.523597621009685,0,0,1.407790576171875,0,0,0.7644
2.5249792340036947,0,0,1.2569558715820313,0,0,0.6115200000000001
2.5263734580075834,0,0,1.1947066284179686,0,0,1.2230400000000001
2.5277555900102016,0,0,1.1516109985351561,0,0,0.68796
2.5291438510175794,0,0,1.2138602416992186,0,0,0.84084
2.530525778012816,0,0,1.2785036865234374,0,0,0.7644
2.531907613010844,0,0,1.4532804077148436,0,0,9.631440000000001
2.533289800019702,0,0,1.5945383056640625,0,0,0.6115200000000001
2.5346721910173073,0,0,1.599326708984375,0,0,1.07016
2.5360862480010837,0,0,1.3670891479492187,0,0,0.91728
2.537473267992027,0,0,1.2425906616210938,0,0,0.7644
2.539096860011341,0,0,0.9241618408203125,0,0,0.53508
2.540519342001062,0,0,1.2306196533203124,0,0,0.3822
2.541903289005859,0,0,1.369483349609375,0,0,0.22932
2.5432888829964213,0,0,1.6424223388671875,0,0,0.68796
2.54467268101871,0,0,1.4867992309570313,0,0,0.7644
2.5460531639982946,0,0,1.4867992309570313,0,0,0.6115200000000001
2.5474264250078704,0,0,1.3120225097656248,0,0,1.45236
2.548800760996528,0,0,1.180341418457031,0,0,0.84084
2.550181280996185,0,0,1.3120225097656248,0,0,0.84084
2.551563004992204,0,0,1.2473790649414063,0,0,0.7644
2.552944822004065,0,0,1.4772224243164063,0,0,0.22932
2.55432697100332,0,0,1.37906015625,0,0,1.07016
2.5557088070199825,0,0,1.5825672973632812,0,0,1.07016
2.55709162299172,0,0,1.350329736328125,0,0,0.68796
2.5584736250166316,0,0,1.2832920898437499,0,0,1.07016
2.560046032012906,0,0,1.120486376953125,0,0,0.53508
2.5614402370119933,0,0,1.139639990234375,0,0,2.2931999999999997
2.5628231830196455,0,0,1.4173673828125,0,0,0.30576000000000003
2.5642046669963747,0,0,1.649604943847656,0,0,0.68796
2.5655869280162733,0,0,1.43652099609375,0,0,0.84084
2.5670922429999337,0,0,1.407790576171875,0,0,0.6115200000000001
2.568475911015412,0,0,1.1707646118164061,0,0,1.07016
2.569858357019257,0,0,1.1563994018554686,0,0,0.91728
2.5712450809951406,0,0,1.0749965454101562,0,0,0.6115200000000001
2.5726272129977588,0,0,1.2952630981445312,0,0,1.1465999999999998
2.5740442880196497,0,0,1.3958195678710936,0,0,0.6115200000000001
2.5754265680152457,0,0,1.3575123413085937,0,0,0.68796
2.576808718004031,0,0,1.5155296508789062,0,0,0.91728
2.578192257002229,0,0,1.3670891479492187,0,0,0.91728
2.5795729990059044,0,0,1.1444283935546875,0,0,0.68796
2.5809544819931034,0,0,1.1540052001953125,0,0,0.68796
2.5823551139910705,0,0,1.1635820068359375,0,0,0.53508
2.5837352450180333,0,0,1.3766659545898436,0,0,0.22932
2.585126691003097,0,0,1.4772224243164063,0,0,0.84084
2.5865102850075345,0,0,1.5753846923828123,0,0,0.6115200000000001
2.587892028008355,0,0,1.388636962890625,0,0,0.68796
2.5892735669913236,0,0,1.3311761230468748,0,0,1.1465999999999998
2.59065579099115,0,0,1.218648645019531,0,0,0.7644
2.5920378300070297,0,0,1.1923124267578125,0,0,0.6115200000000001
2.593419757002266,0,0,1.350329736328125,0,0,1.07016
2.594805278000422,0,0,1.4437036010742186,0,0,0.53508
2.5961892420018557,0,0,1.5227122558593749,0,0,0.7644
2.597571392019745,0,0,1.5610194824218748,0,0,1.2230400000000001
2.5989537269924767,0,0,1.2138602416992186,0,0,0.99372
2.600335711002117,0,0,1.180341418457031,0,0,0.6115200000000001
2.60171719401842,0,0,1.1468225952148436,0,0,0.68796
2.603099472995382,0,0,1.199495031738281,0,0,0.22932
2.6044817340152804,0,0,1.438915197753906,0,0,0.45864
2.6058636069938075,0,0,1.4867992309570313,0,0,0.45864
2.607245701015927,0,0,1.438915197753906,0,0,0.7644
2.608627184003126,0,0,1.3670891479492187,0,0,0.91728
2.610008927003946,0,0,1.1563994018554686,0,0,0.99372
2.6113906879909337,0,0,1.2114660400390624,0,0,0.68796
2.6127727080020122,0,0,1.2114660400390624,0,0,0.84084
2.6141557100054342,0,0,1.2641384765625,0,0,0.7644
2.615624618018046,0,0,1.4245499877929686,0,0,0.91728
2.617110099992715,0,0,1.2880804931640624,0,0,0.99372
2.6185046390164644,0,0,1.5490484741210937,0,0,1.2230400000000001
2.6198870849912055,0,0,1.1516109985351561,0,0,0.84084
2.6212694389978424,0,0,1.0702081420898437,0,0,0.68796
2.622652181016747,0,0,1.1540052001953125,0,0,0.53508
2.6240341090015136,0,0,1.216254443359375,0,0,0.6115200000000001
2.625416758994106,0,0,1.4149731811523436,0,0,0.3822
2.6268052050145343,0,0,1.484405029296875,0,0,0.6115200000000001
2.6281878180161584,0,0,1.2689268798828124,0,0,0.6115200000000001
2.6295777820050716,0,0,1.2593500732421874,0,0,0.68796
2.6309613210032694,0,0,1.149216796875,0,0,0.99372
2.6323499900172465,0,0,1.1324573852539062,0,0,0.6115200000000001
2.6337335650168825,0,0,1.2042834350585936,0,0,0.68796
2.6351181410136633,0,0,1.1061211669921875,0,0,1.07016
2.6365005130064674,0,0,1.4341267944335936,0,0,0.45864
2.6378836260118987,0,0,1.2928688964843749,0,0,1.07016
2.6392697209957987,0,0,1.6065093139648436,0,0,0.91728
2.6406519260199275,0,0,1.2138602416992186,0,0,0.91728
2.6420576499949675,0,0,1.2593500732421874,0,0,0.91728
2.6434532440034673,0,0,1.1276689819335937,0,0,2.36964
2.6448913929925766,0,0,1.254561669921875,0,0,0.6115200000000001
2.6462758769921493,0,0,1.465251416015625,0,0,0.53508
2.6476581930182874,0,0,1.4891934326171874,0,0,0.68796
2.6490403060161043,0,0,1.2282254516601563,0,0,0.68796
2.650423437007703,0,0,1.2665326782226562,0,0,0.6115200000000001
2.651805254019564,0,0,1.199495031738281,0,0,0.99372
2.6531872560153715,0,0,1.1923124267578125,0,0,0.68796
2.6545699980051722,0,0,1.1875240234375,0,0,0.6115200000000001
2.6559525369957555,0,0,1.0893617553710937,0,0,0.91728
2.6573345760116354,0,0,1.4772224243164063,0,0,0.45864
2.658717373997206,0,0,1.3407529296874998,0,0,0.68796
2.6600994680193253,0,0,1.4221557861328125,0,0,0.91728
2.6614899150154088,0,0,1.2473790649414063,0,0,0.84084
2.662875009002164,0,0,1.369483349609375,0,0,0.68796
2.6642523070040625,0,0,1.1851298217773436,0,0,0.53508
2.66562547601643,0,0,1.1755530151367186,0,0,0.53508
2.6670155510073528,0,0,1.2473790649414063,0,0,0.45864
2.668402072013123,0,0,1.3551181396484375,0,0,0.53508
2.6697847030009143,0,0,1.3263877197265623,0,0,0.84084
2.671167519991286,0,0,1.2976572998046874,0,0,0.6115200000000001
2.672549965995131,0,0,1.2569558715820313,0,0,1.07016
2.6739459300006274,0,0,1.218648645019531,0,0,0.7644
2.6753286360180937,0,0,1.218648645019531,0,0,0.7644
2.676710952015128,0,0,1.2617442749023438,0,0,0.91728
2.678094250994036,0,0,1.5298948608398437,0,0,0.68796
2.679475975019159,0,0,1.3431471313476562,0,0,0.68796
2.6808580690121744,0,0,1.4006079711914061,0,0,1.1465999999999998
2.6822411449975334,0,0,1.3072341064453123,0,0,0.91728
2.6836224799917545,0,0,1.2569558715820313,0,0,0.84084
2.685004889004631,0,0,1.158793603515625,0,0,0.7644
2.6863880759919994,0,0,1.1563994018554686,0,0,0.22932
2.6877696519950405,0,0,1.2832920898437499,0,0,0.6115200000000001
2.689151654019952,0,0,1.3048399047851562,0,0,0.6115200000000001
2.690534415014554,0,0,1.3742717529296875,0,0,0.7644
2.69191645400133,0,0,1.6543933471679686,0,0,0.45864
2.6933046219928656,0,0,1.1516109985351561,0,0,1.2230400000000001
2.694689419993665,0,0,1.2042834350585936,0,0,0.84084
2.696073607017752,0,0,0.928950244140625,0,0,0.68796
2.6974570720049087,0,0,1.2665326782226562,0,0,0.68796
2.698836129013216,0,0,1.2737152832031249,0,0,0.45864
2.7002094270137604,0,0,1.3168109130859373,0,0,0.68796
2.7015968360065017,0,0,1.5251064575195312,0,0,1.1465999999999998
2.702979930996662,0,0,1.4053963745117186,0,0,0.99372
2.70549067799584,0,0,1.149216796875,0,0,0.68796
2.7068824020097964,0,0,1.1755530151367186,0,0,0.84084
2.7082754780130927,0,0,1.2569558715820313,0,0,1.1465999999999998
2.7096611650194973,0,0,1.3934253662109375,0,0,0.68796
2.711045592004666,0,0,1.5179238525390624,0,0,0.84084
2.712429926992627,0,0,1.4820108276367188,0,0,0.84084
2.713812966016121,0,0,1.2665326782226562,0,0,0.84084
2.7151892270194367,0,0,1.0797849487304687,0,0,0.6115200000000001
2.716563321999274,0,0,1.1061211669921875,0,0,0.6115200000000001
2.7179583230172284,0,0,1.199495031738281,0,0,0.53508
2.719342807016801,0,0,1.5155296508789062,0,0,0.6115200000000001
2.720727159990929,0,0,1.3862427612304686,0,0,0.68796
2.722110792004969,0,0,1.5179238525390624,0,0,0.68796
2.7234940160124097,0,0,1.2689268798828124,0,0,0.53508
2.7248773880128283,0,0,1.3670891479492187,0,0,0.68796
2.726261481991969,0,0,1.2138602416992186,0,0,0.68796
2.727644743019482,0,0,1.3551181396484375,0,0,1.07016
2.7290280970046297,0,0,1.177947216796875,0,0,0.84084
2.7304116360028274,0,0,1.4006079711914061,0,0,0.45864
2.7317953600140754,0,0,1.3144167114257812,0,0,0.68796
2.7331790280004498,0,0,1.407790576171875,0,0,1.1465999999999998
2.734609603008721,0,0,1.2306196533203124,0,0,0.91728
2.7359947160002775,0,0,1.3120225097656248,0,0,0.7644
2.7373780510097276,0,0,1.158793603515625,0,0,0.7644
2.738762979017338,0,0,1.209071838378906,0,0,0.30576000000000003
2.7401462949928828,0,0,1.4437036010742186,0,0,0.0
2.741777498013107,0,0,1.3910311645507811,0,0,0.91728
2.743184407008812,0,0,1.5107412475585937,0,0,1.1465999999999998
2.744573889998719,0,0,1.3096283081054687,0,0,0.91728
2.7459622620081063,0,0,1.1085153686523437,0,0,1.1465999999999998
2.747365412011277,0,0,1.1228805786132812,0,0,0.91728
2.7487534130050335,0,0,1.2880804931640624,0,0,0.84084
2.7501590629981365,0,0,1.3766659545898436,0,0,1.1465999999999998
2.751537806005217,0,0,1.455674609375,0,0,0.7644
2.7529289740195964,0,0,1.4604630126953124,0,0,0.84084
2.754327586997533,0,0,1.4963760375976562,0,0,0.91728
2.7557157370029017,0,0,1.3479355346679687,0,0,0.68796
2.7571036090084817,0,0,1.1324573852539062,0,0,0.68796
2.7584907959972043,0,0,1.0845733520507812,0,0,0.6115200000000001
2.7598780379921664,0,0,1.1252747802734375,0,0,0.6115200000000001
2.7612746880040504,0,0,1.455674609375,0,0,0.45864
2.7626581150107086,0,0,1.3766659545898436,0,0,0.68796
2.7640372099995147,0,0,1.5227122558593749,0,0,0.91728
2.7654163780098315,0,0,1.2713210815429687,0,0,0.6115200000000001
2.766804917016998,0,0,1.2282254516601563,0,0,0.99372
2.7681924930075184,0,0,1.254561669921875,0,0,0.53508
2.769579606014304,0,0,0.9337386474609375,0,0,0.68796
2.770966700016288,0,0,1.2282254516601563,0,0,0.99372
2.7723537019919604,0,0,1.4700398193359374,0,0,0.68796
2.773740962991724,0,0,1.2521674682617188,0,0,0.7644
2.7751277050119825,0,0,1.4963760375976562,0,0,0.84084
2.7765143740107305,0,0,1.1851298217773436,0,0,1.1465999999999998
2.777901652996661,0,0,1.1563994018554686,0,0,0.3822
2.779282339994097,0,0,1.2904746948242187,0,0,0.68796
2.7806605829973705,0,0,1.216254443359375,0,0,0.45864
2.78205806601909,0,0,1.426944189453125,0,0,0.45864
2.7834447160130367,0,0,1.407790576171875,0,0,0.7644
2.7848309770051856,0,0,1.3670891479492187,0,0,0.53508
2.786218738008756,0,0,1.177947216796875,0,0,0.84084
2.7876048689940944,0,0,1.1659762084960936,0,0,0.84084
2.7889909080113284,0,0,1.1276689819335937,0,0,0.45864
2.7903776690072846,0,0,1.1228805786132812,0,0,0.68796
2.7917635409976356,0,0,1.369483349609375,0,0,1.07016
2.7931573940149974,0,0,1.5179238525390624,0,0,0.91728
2.7945444520155434,0,0,1.3407529296874998,0,0,0.6115200000000001
2.795930787018733,0,0,1.47482822265625,0,0,0.91728
2.7973166960000526,0,0,1.0534487304687499,0,0,0.84084
2.798702864005463,0,0,1.1324573852539062,0,0,0.53508
2.8000893100106623,0,0,1.1923124267578125,0,0,0.53508
2.801475386018865,0,0,1.2569558715820313,0,0,0.22932
2.8028620170080103,0,0,1.2808978881835937,0,0,0.22932
2.804247852996923,0,0,1.4221557861328125,0,0,0.7644
2.805634132004343,0,0,1.2880804931640624,0,0,0.6115200000000001
2.8070205410185736,0,0,1.2976572998046874,0,0,0.53508
2.8084069500037003,0,0,1.2306196533203124,0,0,1.1465999999999998
2.8097931740048807,0,0,1.149216796875,0,0,0.84084
2.8111798610189,0,0,1.216254443359375,0,0,0.7644
2.8125659929937683,0,0,1.369483349609375,0,0,1.07016
2.8139525869919453,0,0,1.350329736328125,0,0,0.53508
2.8153388659993652,0,0,1.2378022583007813,0,0,1.07016
2.816724961012369,0,0,1.4413093994140624,0,0,0.84084
2.8181118140055332,0,0,1.0749965454101562,0,0,0.99372
2.8195043340092525,0,0,1.3192051147460937,0,0,0.6115200000000001
2.8208912250120193,0,0,1.0749965454101562,0,0,0.6115200000000001
2.822280430002138,0,0,1.0989385620117187,0,0,0.3822
2.8236674510117155,0,0,1.2617442749023438,0,0,0.0
2.825053545006085,0,0,1.2330138549804688,0,0,0.3822
2.8264406390080694,0,0,1.438915197753906,0,0,0.6115200000000001
2.8278260859951843,0,0,1.4891934326171874,0,0,0.84084
2.8292123840074055,0,0,1.218648645019531,0,0,1.2230400000000001
2.830598847998772,0,0,1.1611878051757811,0,0,1.07016
2.831984980002744,0,0,1.1372457885742187,0,0,0.84084
2.8333706480043475,0,0,1.2497732666015624,0,0,0.91728
2.8347572420025244,0,0,1.4820108276367188,0,0,0.68796
2.836143799999263,0,0,1.3670891479492187,0,0,0.99372
2.837536227016244,0,0,1.6017209106445311,0,0,0.84084
2.838924859010149,0,0,1.1851298217773436,0,0,1.07016
2.8403109710197896,0,0,1.0534487304687499,0,0,0.68796
2.8416970840189606,0,0,0.9528922607421875,0,0,0.53508
2.8430837530177087,0,0,1.2689268798828124,0,0,0.3822
2.8444703280110843,0,0,1.3838485595703125,0,0,0.22932
2.8458562750020064,0,0,1.599326708984375,0,0,0.53508
2.8472427389933728,0,0,1.465251416015625,0,0,0.6115200000000001
2.8486284450045787,0,0,1.3335703247070312,0,0,0.68796
2.8500152429915033,0,0,1.2832920898437499,0,0,1.07016
2.8514017260167748,0,0,1.1707646118164061,0,0,0.68796
2.8527880430046935,0,0,1.1228805786132812,0,0,0.91728
2.854175006999867,0,0,1.218648645019531,0,0,1.1465999999999998
2.8555605279980227,0,0,1.4891934326171874,0,0,0.45864
2.856946918007452,0,0,1.3742717529296875,0,0,0.91728
2.8583335310104303,0,0,1.6400281372070311,0,0,1.1465999999999998
2.859718644001987,0,0,1.2330138549804688,0,0,0.91728
2.861104757001158,0,0,1.177947216796875,0,0,0.3822
2.862491036008578,0,0,1.1013327636718748,0,0,0.53508
2.863877390016569,0,0,1.139639990234375,0,0,0.3822
2.865263521001907,0,0,1.4006079711914061,0,0,0.30576000000000003
2.8666500780091155,0,0,1.5131354492187499,0,0,0.7644
2.868043321010191,0,0,1.5945383056640625,0,0,0.7644
2.869429600017611,0,0,1.2713210815429687,0,0,0.45864
2.8708170840109233,0,0,1.149216796875,0,0,1.1465999999999998
2.8722041959990747,0,0,1.1228805786132812,0,0,0.84084
2.8735911429976113,0,0,1.0869675537109373,0,0,1.07016
2.874971404002281,0,0,1.4245499877929686,0,0,1.1465999999999998
2.876350294012809,0,0,1.4006079711914061,0,0,0.53508
2.8777385920111556,0,0,1.2593500732421874,0,0,0.68796
2.8791285199986305,0,0,1.5155296508789062,0,0,0.91728
2.880521873012185,0,0,1.2018892333984375,0,0,0.7644
2.881909096991876,0,0,1.235408056640625,0,0,0.91728
2.8832954140088987,0,0,1.1755530151367186,0,0,0.45864
2.884681082010502,0,0,1.1731588134765625,0,0,0.6115200000000001
2.886068713996792,0,0,1.4987702392578124,0,0,0.53508
2.887453938019462,0,0,1.39821376953125,0,0,0.6115200000000001
2.88883988399175,0,0,1.5610194824218748,0,0,0.68796
2.890226718998747,0,0,1.4532804077148436,0,0,0.68796
2.89161244299612,0,0,1.1923124267578125,0,0,1.07016
2.892998630006332,0,0,1.1611878051757811,0,0,0.91728
2.8944310749939177,0,0,1.20667763671875,0,0,0.68796
2.8958173179998994,0,0,1.369483349609375,0,0,0.7644
2.8972038200008683,0,0,1.4939818359375,0,0,0.7644
2.8985867100127507,0,0,1.5107412475585937,0,0,0.99372
2.8999657120148186,0,0,1.5346832641601562,0,0,0.84084
2.901344176993007,0,0,1.1635820068359375,0,0,0.7644
2.90273149299901,0,0,1.177947216796875,0,0,0.99372
2.9041178100160323,0,0,1.199495031738281,0,0,0.53508
2.905504312017001,0,0,1.1085153686523437,0,0,0.53508
2.9068913130031433,0,0,1.3359645263671873,0,0,0.6115200000000001
2.908280333998846,0,0,1.407790576171875,0,0,0.45864
2.909667742991587,0,0,1.3551181396484375,0,0,0.6115200000000001
2.9110548369935714,0,0,1.22583125,0,0,0.68796
2.912441505002789,0,0,1.1276689819335937,0,0,1.1465999999999998
2.914000635006232,0,0,1.180341418457031,0,0,0.7644
2.915385136002442,0,0,1.2952630981445312,0,0,0.84084
2.9167685270076618,0,0,1.37906015625,0,0,1.1465999999999998
2.9182604910165537,0,0,1.4341267944335936,0,0,0.53508
2.9197380100085866,0,0,1.2306196533203124,0,0,0.99372
2.9212411580083426,0,0,1.5442600708007812,0,0,0.84084
2.9226612340135034,0,0,1.2952630981445312,0,0,0.99372
2.9240484019974247,0,0,1.1755530151367186,0,0,0.84084
2.9254541260015685,0,0,1.1372457885742187,0,0,0.91728
2.926837831008015,0,0,1.2521674682617188,0,0,0.6115200000000001
2.9282167220080737,0,0,1.407790576171875,0,0,0.22932
2.9295955010165926,0,0,1.4700398193359374,0,0,0.68796
2.9309763179917354,0,0,1.6041151123046875,0,0,1.1465999999999998
2.932355208991794,0,0,1.3431471313476562,0,0,0.91728
2.9337335810123477,0,0,1.1947066284179686,0,0,1.2230400000000001
2.93512217499665,0,0,1.1037269653320312,0,0,2.14032
2.9365175100101624,0,0,1.120486376953125,0,0,0.68796
2.93790540099144,0,0,1.3958195678710936,0,0,1.2994800000000002
2.939298495010007,0,0,1.5897499023437498,0,0,0.91728
2.9406856819987297,0,0,1.3192051147460937,0,0,0.53508
2.942073573009111,0,0,1.5155296508789062,0,0,0.53508
2.9434595740167424,0,0,1.0917559570312498,0,0,0.68796
2.9448468910122756,0,0,1.1109095703125,0,0,0.6115200000000001
2.9462313929980155,0,0,1.2114660400390624,0,0,0.6115200000000001
2.9476095240097493,0,0,1.0821791503906248,0,0,0.84084
2.948988526011817,0,0,1.5514426757812498,0,0,0.15288000000000002
2.9503739350184333,0,0,1.5107412475585937,0,0,0.91728
2.95176058501238,0,0,1.5203180541992187,0,0,0.84084
2.9531495120027103,0,0,1.180341418457031,0,0,0.99372
2.9545386070094537,0,0,1.1659762084960936,0,0,0.68796
2.9559901820030063,0,0,1.1923124267578125,0,0,0.3822
2.957446720014559,0,0,1.2114660400390624,0,0,0.6115200000000001
2.9588403880188707,0,0,1.3455413330078123,0,0,0.84084
2.9603302030009218,0,0,1.4317325927734375,0,0,0.99372
2.9617192610166967,0,0,1.4508862060546874,0,0,0.6115200000000001
2.963106373004848,0,0,1.3527239379882812,0,0,0.3822
2.96449372699135,0,0,1.1947066284179686,0,0,0.91728
2.965880339994328,0,0,1.2306196533203124,0,0,0.99372
2.967275082017295,0,0,1.197100830078125,0,0,0.7644
2.968692138994811,0,0,1.2856862915039062,0,0,0.91728
2.9700783820007928,0,0,1.4221557861328125,0,0,0.53508
2.9714562720037065,0,0,1.3838485595703125,0,0,0.91728
2.9728348109929357,0,0,1.4700398193359374,0,0,0.91728
2.974220628006151,0,0,1.16837041015625,0,0,1.07016
2.9756084810069297,0,0,1.216254443359375,0,0,0.99372
2.9769959640107118,0,0,1.1324573852539062,0,0,0.3822
2.978383837005822,0,0,1.1037269653320312,0,0,0.68796
2.9797699310001917,0,0,1.3958195678710936,0,0,0.84084
2.9811565809941385,0,0,1.5131354492187499,0,0,0.7644
2.982544101017993,0,0,1.2832920898437499,0,0,0.84084
2.983930862013949,0,0,1.3263877197265623,0,0,0.84084
2.985317679005675,0,0,1.0845733520507812,0,0,0.84084
2.986700364999706,0,0,1.158793603515625,0,0,1.07016
2.9880792559997644,0,0,1.0989385620117187,0,0,0.68796
2.9894578690000344,0,0,1.13006318359375,0,0,0.53508
2.9908453520038165,0,0,1.446097802734375,0,0,0.0
2.9922317060118075,0,0,1.2641384765625,0,0,0.68796
2.993618003994925,0,0,1.5059528442382812,0,0,1.1465999999999998
2.9950126170006115,0,0,1.139639990234375,0,0,0.68796
2.99639917400782,0,0,1.20667763671875,0,0,0.6115200000000001
2.997785379004199,0,0,1.1611878051757811,0,0,0.7644
2.999171585019212,0,0,1.120486376953125,0,0,0.6115200000000001
3.0005575680115726,0,0,1.2737152832031249,0,0,1.07016
3.00194434801233,0,0,1.4724340209960938,0,0,0.84084
3.0033339420042466,0,0,1.2521674682617188,0,0,0.53508
3.0047200359986164,0,0,1.3311761230468748,0,0,0.68796
3.0061070189985912,0,0,1.1420341918945311,0,0,0.91728
3.0074925950029865,0,0,1.3623007446289062,0,0,0.7644
3.008878986001946,0,0,1.177947216796875,0,0,0.84084
3.010265727993101,0,0,1.2665326782226562,0,0,0.53508
3.0116513970133383,0,0,1.5538368774414062,0,0,0.45864
3.0130447690025903,0,0,1.2785036865234374,0,0,0.91728
3.014431752002565,0,0,1.62805712890625,0,0,1.07016
3.0158168649941217,0,0,1.197100830078125,0,0,0.68796
3.017203237017384,0,0,1.3646949462890625,0,0,0.7644
3.0185894790047314,0,0,1.1707646118164061,0,0,0.53508
3.0199753509950824,0,0,1.1133037719726562,0,0,0.68796
3.0213617790141143,0,0,1.35990654296875,0,0,-9.09636
3.022749133000616,0,0,1.388636962890625,0,0,0.53508
3.0241349860152695,0,0,1.3718775512695311,0,0,0.68796
3.0255215060024057,0,0,1.5466542724609373,0,0,0.68796
3.026907582010608,0,0,1.197100830078125,0,0,1.07016
3.0282933250127826,0,0,1.0869675537109373,0,0,0.84084
3.0296793640009128,0,0,1.1276689819335937,0,0,0.53508
3.0310654579952825,0,0,1.177947216796875,0,0,0.22932
3.0324514970125165,0,0,1.3575123413085937,0,0,0.84084
3.033837647002656,0,0,1.2856862915039062,0,0,0.7644
3.035223832994234,0,0,1.6424223388671875,0,0,0.99372
3.036609964998206,0,0,1.216254443359375,0,0,0.99372
3.037997189007001,0,0,1.3359645263671873,0,0,0.7644
3.0393841530021746,0,0,1.1061211669921875,0,0,0.53508
3.040770081017399,0,0,1.2306196533203124,0,0,0.91728
3.042157137999311,0,0,1.2282254516601563,0,0,0.99372
3.043542936007725,0,0,1.5658078857421873,0,0,0.53508
3.044928901013918,0,0,1.3862427612304686,0,0,0.7644
3.0463158290076535,0,0,1.6328455322265625,0,0,0.68796
3.0477046449959744,0,0,1.2210428466796874,0,0,1.1465999999999998
3.0490911469969433,0,0,1.1516109985351561,0,0,0.99372
3.0504780930059496,0,0,1.1180921752929687,0,0,0.7644
3.051865501998691,0,0,1.2737152832031249,0,0,0.84084
3.053261671011569,0,0,1.5298948608398437,0,0,0.3822
3.0546490980195813,0,0,1.3048399047851562,0,0,0.84084
3.056041322008241,0,0,1.6807295654296874,0,0,0.84084
3.0574278610001784,0,0,1.4939818359375,0,0,1.07016
3.058814437012188,0,0,1.2521674682617188,0,0,0.68796
3.0602006420085672,0,0,1.1923124267578125,0,0,0.53508
3.0615864770079497,0,0,1.197100830078125,0,0,0.68796
3.062972923013149,0,0,1.350329736328125,0,0,0.68796
3.0643592400010675,0,0,1.5131354492187499,0,0,0.84084
3.0657450559956487,0,0,1.5322890624999999,0,0,0.6115200000000001
3.067131114017684,0,0,1.4867992309570313,0,0,0.91728
3.068517856008839,0,0,1.2042834350585936,0,0,0.91728
3.0699037839949597,0,0,1.1755530151367186,0,0,0.68796
3.071290655992925,0,0,1.3215993164062498,0,0,0.7644
3.072676861018408,0,0,1.3000515014648437,0,0,0.84084
3.0740638629940804,0,0,1.3934253662109375,0,0,0.6115200000000001
3.0754506060038693,0,0,1.2497732666015624,0,0,0.84084
3.076836922002258,0,0,1.618480322265625,0,0,0.84084
3.0782234240032267,0,0,1.197100830078125,0,0,0.7644
3.0796089630166534,0,0,1.189918225097656,0,0,0.7644
3.0809953900170512,0,0,1.1851298217773436,0,0,0.68796
3.082382113992935,0,0,1.20667763671875,0,0,0.84084
3.08376798601239,0,0,1.3096283081054687,0,0,0.91728
3.085153951018583,0,0,1.4508862060546874,0,0,0.7644
3.0865402490017004,0,0,1.448492004394531,0,0,0.68796
3.087926269014133,0,0,1.448492004394531,0,0,0.7644
3.089312604017323,0,0,1.1180921752929687,0,0,1.07016
3.0906988280185033,0,0,1.0510545288085937,0,0,0.6115200000000001
3.0920852560084313,0,0,1.1324573852539062,0,0,0.68796
3.0934716839983594,0,0,1.1516109985351561,0,0,1.07016
3.0948666110052727,0,0,1.4628572143554686,0,0,0.3822
3.096254019998014,0,0,1.4700398193359374,0,0,0.6115200000000001
3.0976411150186323,0,0,1.5370774658203123,0,0,1.1465999999999998
3.099021856993204,0,0,1.2665326782226562,0,0,0.68796
3.1004200440074783,0,0,1.1851298217773436,0,0,0.84084
3.101799249998294,0,0,1.235408056640625,0,0,0.7644
3.1031883620016742,0,0,1.13006318359375,0,0,0.53508
3.1045744940056466,0,0,1.3359645263671873,0,0,0.68796
3.1059625880152453,0,0,1.43652099609375,0,0,1.2994800000000002
3.1073488859983627,0,0,1.3048399047851562,0,0,0.99372
3.1087381099932827,0,0,1.3958195678710936,0,0,0.68796
3.1101334819977637,0,0,1.1851298217773436,0,0,0.68796
3.11153109499719,0,0,1.13006318359375,0,0,-8.943480000000001
3.1129242810129654,0,0,1.1156979736328125,0,0,0.7644
3.114309413009323,0,0,1.1755530151367186,0,0,0.53508
3.1156887850083876,0,0,1.5059528442382812,0,0,0.30576000000000003
3.1170677129994147,0,0,1.4437036010742186,0,0,0.3822
3.118452974013053,0,0,1.5514426757812498,0,0,1.1465999999999998
3.1198403089947533,0,0,1.2210428466796874,0,0,0.6115200000000001
3.121226162009407,0,0,1.2808978881835937,0,0,0.6115200000000001
3.1226125530083664,0,0,1.20667763671875,0,0,0.53508
3.1239988140005153,0,0,1.180341418457031,0,0,0.7644
3.125384982005926,0,0,1.2330138549804688,0,0,0.99372
3.126771743001882,0,0,1.5298948608398437,0,0,0.68796
3.128157911996823,0,0,1.2737152832031249,0,0,0.45864
3.1295441540132742,0,0,1.2497732666015624,0,0,0.53508
3.130930804007221,0,0,1.1635820068359375,0,0,1.1465999999999998
3.13231725001242,0,0,1.35990654296875,0,0,0.6115200000000001
3.133703271014383,0,0,1.16837041015625,0,0,0.84084
3.1350898279924877,0,0,1.2880804931640624,0,0,0.84084
3.1364758480049204,0,0,1.467645617675781,0,0,0.3822
3.1378614050045144,0,0,1.2665326782226562,0,0,0.91728
3.1392487029952463,0,0,1.4628572143554686,0,0,0.99372
3.1406351500190794,0,0,1.1947066284179686,0,0,0.7644
3.1420224659959786,0,0,1.2713210815429687,0,0,-8.943480000000001
3.143506799999159,0,0,1.2210428466796874,0,0,0.6115200000000001
3.1449434859969188,0,0,1.180341418457031,0,0,0.3822
3.146326802991098,0,0,1.3359645263671873,0,0,0.45864
3.1477066749939695,0,0,1.3335703247070312,0,0,0.68796
3.1490857879980467,0,0,1.2785036865234374,0,0,0.84084
3.15049904899206,0,0,1.2114660400390624,0,0,0.45864
3.1518785130174365,0,0,1.1731588134765625,0,0,1.07016
3.153257571015274,0,0,1.3455413330078123,0,0,0.91728
3.1546384429966565,0,0,1.1420341918945311,0,0,0.7644
3.1560172229947057,0,0,1.2593500732421874,0,0,0.30576000000000003
3.1573955210042186,0,0,1.5275006591796874,0,0,0.53508
3.1587755779910367,0,0,1.235408056640625,0,0,0.99372
3.1601545060111675,0,0,1.4173673828125,0,0,0.99372
3.1615333410154562,0,0,1.1444283935546875,0,0,0.91728
3.162921658018604,0,0,1.209071838378906,0,0,0.6115200000000001
3.1643076410109643,0,0,1.0127473022460938,0,0,0.6115200000000001
3.1656936799990945,0,0,1.2282254516601563,0,0,0.6115200000000001
3.1670806070032995,0,0,1.5155296508789062,0,0,0.45864
3.1684664789936505,0,0,1.4149731811523436,0,0,0.68796
3.1698624810087495,0,0,1.3335703247070312,0,0,0.7644
3.17124975999468,0,0,1.465251416015625,0,0,0.53508
3.1726362810004503,0,0,1.2282254516601563,0,0,1.1465999999999998
3.174023486004444,0,0,1.0845733520507812,0,0,0.7644
3.1754098950186744,0,0,1.2018892333984375,0,0,0.84084
3.1767961560108233,0,0,1.254561669921875,0,0,0.84084
3.1781833060085773,0,0,1.3215993164062498,0,0,0.7644
3.179569252009969,0,0,1.2114660400390624,0,0,0.91728
3.1809549760073423,0,0,1.618480322265625,0,0,0.91728
3.1823417560080998,0,0,1.2641384765625,0,0,0.7644
3.183727332012495,0,0,1.177947216796875,0,0,0.84084
3.1851133150048554,0,0,1.1635820068359375,0,0,0.45864
3.18650011299178,0,0,1.1875240234375,0,0,0.6115200000000001
3.1878943920019083,0,0,1.3527239379882812,0,0,0.45864
3.189283504994819,0,0,1.448492004394531,0,0,0.84084
3.1906699140090495,0,0,1.388636962890625,0,0,0.45864
3.192056453000987,0,0,1.458068811035156,0,0,0.91728
3.193442713993136,0,0,1.2018892333984375,0,0,0.99372
3.1948292710003443,0,0,1.0941501586914062,0,0,0.99372
3.196215699019376,0,0,1.1563994018554686,0,0,0.84084
3.1976020889997017,0,0,1.3144167114257812,0,0,0.99372
3.1989882760099135,0,0,1.4867992309570313,0,0,0.45864
3.2003743890090846,0,0,1.2713210815429687,0,0,0.6115200000000001
3.2017604279972147,0,0,1.599326708984375,0,0,1.07016
3.203147521999199,0,0,1.3407529296874998,0,0,0.84084
3.2045336720184423,0,0,1.199495031738281,0,0,0.84084
3.2059663590043783,0,0,1.0749965454101562,0,0,0.7644
3.20750217299792,0,0,1.2138602416992186,0,0,0.22932
3.208890064008301,0,0,1.458068811035156,0,0,0.15288000000000002
3.2102819360152353,0,0,1.6735469604492186,0,0,0.6115200000000001
3.211669715004973,0,0,1.5634136840820312,0,0,0.6115200000000001
3.2130567540007178,0,0,1.4341267944335936,0,0,0.91728
3.214444145007292,0,0,1.1468225952148436,0,0,0.91728
3.215830127999652,0,0,1.1348515869140625,0,0,0.91728
3.2172164260118734,0,0,1.0749965454101562,0,0,0.84084
3.218598687002668,0,0,1.2282254516601563,0,0,1.1465999999999998
3.2199774110049475,0,0,1.2976572998046874,0,0,0.99372
3.2213563570112456,0,0,1.3862427612304686,0,0,0.84084
3.2227447660116013,0,0,1.4987702392578124,0,0,1.07016
3.2241322500049137,0,0,1.16837041015625,0,0,0.68796
3.2255197140038945,0,0,1.1156979736328125,0,0,0.6115200000000001
3.226906994008459,0,0,1.1180921752929687,0,0,0.68796
3.228312329010805,0,0,1.2330138549804688,0,0,0.68796
3.2296994969947264,0,0,1.43652099609375,0,0,0.07644000000000001
3.2310932770196814,0,0,1.5897499023437498,0,0,0.84084
3.2324797780020162,0,0,1.5155296508789062,0,0,0.7644
3.2338665580027737,0,0,1.455674609375,0,0,0.84084
3.2352477259992156,0,0,1.1731588134765625,0,0,1.07016
3.236626764992252,0,0,1.1923124267578125,0,0,0.84084
3.2380119700101204,0,0,1.1085153686523437,0,0,0.68796
3.2394008609990124,0,0,1.209071838378906,0,0,0.84084
3.240787178016035,0,0,1.4221557861328125,0,0,0.7644
3.2421746420150157,0,0,1.465251416015625,0,0,0.91728
3.2435602740151808,0,0,1.5275006591796874,0,0,1.2230400000000001
3.244946405000519,0,0,1.1252747802734375,0,0,0.99372
3.246333796007093,0,0,1.0893617553710937,0,0,0.7644
3.2477195569954347,0,0,1.1348515869140625,0,0,0.3822
3.249105466005858,0,0,1.13006318359375,0,0,0.30576000000000003
3.2504914489982184,0,0,1.4532804077148436,0,0,0.15288000000000002
3.251877617003629,0,0,1.5155296508789062,0,0,0.53508
3.253356100001838,0,0,1.5227122558593749,0,0,1.2230400000000001
3.254745342012029,0,0,1.2138602416992186,0,0,0.84084
3.2561327700095717,0,0,1.2904746948242187,0,0,0.84084
3.2575195860117674,0,0,1.199495031738281,0,0,0.7644
3.2589061990147457,0,0,0.9959878906249999,0,0,0.6115200000000001
3.260292885999661,0,0,1.3359645263671873,0,0,1.1465999999999998
3.2616788879968226,0,0,1.4772224243164063,0,0,0.68796
3.2630594820075203,0,0,1.3335703247070312,0,0,0.84084
3.2644381129939575,0,0,1.3287819213867187,0,0,0.84084
3.265816375002032,0,0,1.139639990234375,0,0,0.84084
3.2672138390189502,0,0,1.2306196533203124,0,0,0.91728
3.2686006739968434,0,0,1.2713210815429687,0,0,0.7644
3.269989954016637,0,0,1.0821791503906248,0,0,0.45864
3.2713765290100127,0,0,1.3048399047851562,0,0,0.07644000000000001
3.2727635870105587,0,0,1.369483349609375,0,0,0.6115200000000001
3.274150921992259,0,0,1.3718775512695311,0,0,1.07016
3.275551960017765,0,0,1.22583125,0,0,0.84084
3.2769385919964407,0,0,1.180341418457031,0,0,0.84084
3.278323075006483,0,0,1.20667763671875,0,0,0.6115200000000001
3.279701299004955,0,0,1.2042834350585936,0,0,0.53508
3.281079968000995,0,0,1.2401964599609374,0,0,1.45236
3.2824846169969533,0,0,1.419761584472656,0,0,1.1465999999999998
3.2838707490009256,0,0,1.3144167114257812,0,0,0.68796
3.285257139010355,0,0,1.407790576171875,0,0,0.84084
3.286651863018051,0,0,1.1875240234375,0,0,0.7644
3.288038864993723,0,0,1.2952630981445312,0,0,0.99372
3.289425199996913,0,0,1.177947216796875,0,0,0.68796
3.2908117570041213,0,0,1.2234370483398436,0,0,0.15288000000000002
3.2921978880185634,0,0,1.2425906616210938,0,0,0.0
3.2935908350045793,0,0,1.39821376953125,0,0,0.6115200000000001
3.2949794470041525,0,0,1.2282254516601563,0,0,0.91728
3.2963663380069192,0,0,1.1133037719726562,0,0,0.68796
3.297752840007888,0,0,1.2042834350585936,0,0,1.07016
3.2991341009910684,0,0,1.197100830078125,0,0,0.53508
3.3005132139951456,0,0,1.1061211669921875,0,0,0.53508
3.301891770999646,0,0,1.3096283081054687,0,0,1.1465999999999998
3.3032806430128403,0,0,1.5227122558593749,0,0,0.68796
3.3046670340118,0,0,1.3479355346679687,0,0,0.68796
3.3060571099922527,0,0,1.7190367919921874,0,0,0.7644
3.307444056001259,0,0,1.1659762084960936,0,0,0.84084
3.3088344460120425,0,0,1.1180921752929687,0,0,0.6115200000000001
3.310223559004953,0,0,1.0845733520507812,0,0,0.91728
3.3116113200085238,0,0,1.139639990234375,0,0,0.6115200000000001
3.3129981920064893,0,0,1.3766659545898436,0,0,0.30576000000000003
3.3143823239952326,0,0,1.3742717529296875,0,0,0.84084
3.31576138100354,0,0,1.4006079711914061,0,0,0.99372
3.31714017901686,0,0,1.4820108276367188,0,0,0.45864
3.3185395690088626,0,0,1.22583125,0,0,0.7644
3.319926182011841,0,0,1.1516109985351561,0,0,0.84084
3.3213122579909395,0,0,1.149216796875,0,0,0.84084
3.3226985929941293,0,0,1.2138602416992186,0,0,1.45236
3.3240848729910795,0,0,1.4939818359375,0,0,0.7644
3.325471688993275,0,0,1.3479355346679687,0,0,0.84084
3.3268579870054964,0,0,1.5466542724609373,0,0,0.68796
3.3282442850177176,0,0,1.1611878051757811,0,0,0.68796
3.329630657011876,0,0,1.0749965454101562,0,0,0.84084
3.3310168260068167,0,0,1.1659762084960936,0,0,0.7644
3.3324030130170286,0,0,1.235408056640625,0,0,0.3822
3.3337893660063855,0,0,1.3766659545898436,0,0,0.07644000000000001
3.3351755350013264,0,0,1.3910311645507811,0,0,0.6115200000000001
3.3365614069916774,0,0,1.695094775390625,0,0,0.91728
3.3379484089964535,0,0,1.3263877197265623,0,0,0.91728
3.339334651012905,0,0,1.16837041015625,0,0,0.68796
3.3407204120012466,0,0,1.1324573852539062,0,0,0.68796
3.3421075619990006,0,0,1.2138602416992186,0,0,0.6115200000000001
3.3434929520008154,0,0,1.2497732666015624,0,0,1.37592
3.3448868800187483,0,0,1.4772224243164063,0,0,0.99372
3.3462743450072594,0,0,1.4149731811523436,0,0,0.45864
3.3476644020120148,0,0,1.467645617675781,0,0,1.07016
3.3490503109933343,0,0,1.1061211669921875,0,0,1.1465999999999998
3.3504374799958896,0,0,1.1324573852539062,0,0,1.07016
3.3518226479936857,0,0,1.209071838378906,0,0,0.6115200000000001
3.3532085200131405,0,0,1.2976572998046874,0,0,0.45864
3.3545951140113175,0,0,1.3670891479492187,0,0,0.53508
3.3559812089952175,0,0,1.3910311645507811,0,0,0.7644
3.3573670990008395,0,0,1.5610194824218748,0,0,0.7644
3.3587532120000105,0,0,1.235408056640625,0,0,0.99372
3.360139029013226,0,0,1.3072341064453123,0,0,0.99372
3.361524770996766,0,0,1.0845733520507812,0,0,0.68796
3.362919309991412,0,0,0.9720458740234375,0,0,0.6115200000000001
3.3643054230196867,0,0,1.2952630981445312,0,0,0.84084
3.3656907209951896,0,0,1.446097802734375,0,0,0.68796
3.3670764999988023,0,0,1.3646949462890625,0,0,0.45864
3.3684625210007653,0,0,1.47482822265625,0,0,0.99372
3.3698478000005707,0,0,1.197100830078125,0,0,0.91728
3.37123424600577,0,0,1.0893617553710937,0,0,0.84084
3.3726199149969034,0,0,1.1611878051757811,0,0,0.6115200000000001
3.3740068610059097,0,0,1.1851298217773436,0,0,0.53508
3.37539289999404,0,0,1.465251416015625,0,0,0.45864
3.3767788459954318,0,0,1.4700398193359374,0,0,0.91728
3.3781653660116717,0,0,1.47482822265625,0,0,0.91728
3.379550942016067,0,0,1.139639990234375,0,0,1.07016
3.3809374060074333,0,0,1.1420341918945311,0,0,0.7644
3.3823235380114056,0,0,1.1133037719726562,0,0,0.7644
3.383708669018233,0,0,1.1947066284179686,0,0,0.30576000000000003
3.3850948190083727,0,0,1.4173673828125,0,0,0.53508
3.3864808210055344,0,0,1.5083470458984374,0,0,0.68796
3.3878666190139484,0,0,1.3120225097656248,0,0,1.07016
3.3892521210073028,0,0,1.3575123413085937,0,0,0.84084
3.3906375849910546,0,0,1.1444283935546875,0,0,1.07016
3.392022938991431,0,0,1.120486376953125,0,0,0.7644
3.3934089410176966,0,0,1.2306196533203124,0,0,0.30576000000000003
3.3948026460129768,0,0,1.1875240234375,0,0,0.91728
3.396189426013734,0,0,1.4820108276367188,0,0,0.30576000000000003
3.3975759640161414,0,0,1.3287819213867187,0,0,0.68796
3.3989629470161162,0,0,1.37906015625,0,0,1.1465999999999998
3.4003497830126435,0,0,1.209071838378906,0,0,0.91728
3.4017363210150506,0,0,1.1180921752929687,0,0,0.91728
3.4031323970120866,0,0,1.2832920898437499,0,0,0.53508
3.4045201020198874,0,0,1.2210428466796874,0,0,0.53508
3.4059135490097106,0,0,1.0845733520507812,0,0,0.84084
3.4072947910171933,0,0,1.3646949462890625,0,0,0.84084
3.408673755999189,0,0,1.3144167114257812,0,0,0.84084
3.4100593870098237,0,0,1.2401964599609374,0,0,0.3822
3.4115333140071016,0,0,1.1468225952148436,0,0,0.84084
3.4129210380197037,0,0,1.149216796875,0,0,0.84084
3.41430933601805,0,0,1.2018892333984375,0,0,0.84084
3.4156953929923475,0,0,1.1731588134765625,0,0,0.6115200000000001
3.4170824869943317,0,0,1.484405029296875,0,0,0.0
3.4184699330071453,0,0,1.3168109130859373,0,0,1.2994800000000002
3.419857065018732,0,0,1.426944189453125,0,0,1.1465999999999998
3.421244122000644,0,0,1.0893617553710937,0,0,0.91728
3.4226283830066677,0,0,1.0989385620117187,0,0,0.84084
3.424007348017767,0,0,1.216254443359375,0,0,0.53508
3.4253856650029775,0,0,1.1635820068359375,0,0,0.3822
3.426772944018012,0,0,1.235408056640625,0,0,0.99372
3.4281595009961165,0,0,1.4628572143554686,0,0,0.99372
3.429545818013139,0,0,1.2593500732421874,0,0,0.68796
3.4309325049980544,0,0,1.4245499877929686,0,0,0.53508
3.4323327470046934,0,0,1.235408056640625,0,0,1.07016
3.4337551000062376,0,0,1.3407529296874998,0,0,0.84084
3.4351433610136155,0,0,1.1109095703125,0,0,0.68796
3.43653021499631,0,0,1.1755530151367186,0,0,0.91728
3.437916883005528,0,0,1.2737152832031249,0,0,0.84084
3.439315922005335,0,0,1.3311761230468748,0,0,0.84084
3.4406949980184436,0,0,1.5753846923828123,0,0,0.91728
3.4420815180055797,0,0,1.0869675537109373,0,0,0.7644
3.4434682420105673,0,0,1.2737152832031249,0,0,0.68796
3.4448550209926907,0,0,1.1156979736328125,0,0,0.53508
3.446238838019781,0,0,1.16837041015625,0,0,0.53508
3.4476179140037857,0,0,1.209071838378906,0,0,1.1465999999999998
3.4489965270040557,0,0,1.2617442749023438,0,0,0.68796
3.4504006020142697,0,0,1.3311761230468748,0,0,0.6115200000000001
3.4517865859961603,0,0,1.4317325927734375,0,0,0.84084
3.4531728280126117,0,0,1.1659762084960936,0,0,0.99372
3.4545584970037453,0,0,1.1540052001953125,0,0,0.6115200000000001
3.4559726460138336,0,0,1.1372457885742187,0,0,0.68796
3.4574603130167816,0,0,1.1755530151367186,0,0,1.2994800000000002
3.4589263329980895,0,0,1.3431471313476562,0,0,-9.172799999999999
3.4603159640100785,0,0,1.2473790649414063,0,0,0.84084
3.461730743001681,0,0,1.6424223388671875,0,0,1.07016
3.4631192450178787,0,0,1.189918225097656,0,0,0.53508
3.464506006013835,0,0,1.2282254516601563,0,0,0.91728
3.465893006999977,0,0,1.1755530151367186,0,0,0.6115200000000001
3.467273860995192,0,0,1.1923124267578125,0,0,0.53508
3.468652141018538,0,0,1.22583125,0,0,0.15288000000000002
3.4700636790075805,0,0,1.3718775512695311,0,0,0.6115200000000001
3.4714504959993064,0,0,1.407790576171875,0,0,0.84084
3.472837534005521,0,0,1.3958195678710936,0,0,0.84084
3.4742252769938204,0,0,1.1540052001953125,0,0,0.99372
3.4756114820193034,0,0,1.158793603515625,0,0,0.68796
3.476998261990957,0,0,1.2018892333984375,0,0,0.68796
3.478429467009846,0,0,1.235408056640625,0,0,1.07016
3.4798165429965593,0,0,1.4820108276367188,0,0,0.7644
3.4812036369985435,0,0,1.3239935180664062,0,0,0.68796
3.482586361002177,0,0,1.6807295654296874,0,0,0.7644
3.483965121995425,0,0,1.2042834350585936,0,0,0.84084
3.4853437900019344,0,0,1.1252747802734375,0,0,0.68796
3.486731607001275,0,0,1.177947216796875,0,0,0.7644
3.4881172940076794,0,0,1.2569558715820313,0,0,0.53508
3.4895031100022607,0,0,1.35990654296875,0,0,0.45864
3.4908901489980053,0,0,1.5155296508789062,0,0,0.68796
3.492275910015451,0,0,1.5682020874023437,0,0,0.91728
3.4936739669938106,0,0,1.3623007446289062,0,0,0.99372
3.495068635995267,0,0,1.2785036865234374,0,0,1.1465999999999998
3.4964543410169426,0,0,1.0845733520507812,0,0,0.53508
3.497839935007505,0,0,1.1348515869140625,0,0,0.84084
3.499226993008051,0,0,1.3742717529296875,0,0,0.91728
3.5006136980082374,0,0,1.6352397338867186,0,0,0.84084
3.501998663006816,0,0,1.4820108276367188,0,0,0.7644
3.5033773129980545,0,0,1.5466542724609373,0,0,0.53508
3.5047557590005454,0,0,1.216254443359375,0,0,0.7644
3.5061405019951053,0,0,1.0965443603515623,0,0,0.91728
3.507526447996497,0,0,1.1348515869140625,0,0,0.6115200000000001
3.508916393999243,0,0,1.2737152832031249,0,0,0.45864
3.510303321003448,0,0,1.429338391113281,0,0,0.3822
3.511690601008013,0,0,1.5179238525390624,0,0,0.99372
3.513079843018204,0,0,1.5083470458984374,0,0,1.07016
3.5145880469935946,0,0,1.2952630981445312,0,0,0.68796
3.5159778270171955,0,0,1.209071838378906,0,0,1.07016
3.5173590689955745,0,0,1.1324573852539062,0,0,0.84084
3.5187480339955073,0,0,1.20667763671875,0,0,0.7644
3.5201536279928405,0,0,1.3479355346679687,0,0,0.84084
3.521542258997215,0,0,1.5131354492187499,0,0,0.91728
3.5229297610057984,0,0,1.5251064575195312,0,0,0.68796
3.5243167630105745,0,0,1.3551181396484375,0,0,0.68796
3.5257040050055366,0,0,1.0223241088867188,0,0,0.99372
3.5270852289977483,0,0,1.1468225952148436,0,0,0.91728
3.5284643240156583,0,0,1.1180921752929687,0,0,0.7644
3.529843622003682,0,0,1.1252747802734375,0,0,0.84084
3.5312323270190973,0,0,1.5251064575195312,0,0,0.3822
3.5326195700035896,0,0,1.407790576171875,0,0,0.99372
3.5340075340063777,0,0,1.5705962890624998,0,0,1.07016
3.535394777019974,0,0,1.254561669921875,0,0,0.91728
3.5367818160157185,0,0,1.2306196533203124,0,0,0.84084
3.5381787799997255,0,0,1.2042834350585936,0,0,0.30576000000000003
3.539565893006511,0,0,1.1468225952148436,0,0,0.22932
3.5409526360163,0,0,1.426944189453125,0,0,0.84084
3.542337488994235,0,0,1.5227122558593749,0,0,0.0
3.5437155649997294,0,0,1.24498486328125,0,0,0.68796
3.5451410849927925,0,0,1.2952630981445312,0,0,0.68796
3.546534049004549,0,0,1.0869675537109373,0,0,0.84084
3.547921273013344,0,0,1.139639990234375,0,0,0.84084
3.549308237998048,0,0,1.1061211669921875,0,0,0.84084
3.550694998994004,0,0,1.2042834350585936,0,0,0.6115200000000001
