Time,AccelX1,AccelY1,AccelZ1,AccelX2,AccelY2,AccelZ2
4.536996129900217e-06,0,0,1.2330138549804688,0,0,0.6115200000000001
0.0038575060025323182,0,0,1.235408056640625,0,0,0.6115200000000001
0.007949599996209145,0,0,1.3168109130859373,0,0,1.07016
0.011479887994937599,0,0,1.438915197753906,0,0,0.3822
0.014983026980189607,0,0,1.3096283081054687,0,0,1.07016
0.01849751899135299,0,0,1.2976572998046874,0,0,0.30576000000000003
0.02205437998054549,0,0,1.254561669921875,0,0,1.45236
0.0256676479766611,0,0,1.197100830078125,0,0,0.53508
0.029359228996327147,0,0,1.3479355346679687,0,0,0.91728
0.03288562799571082,0,0,1.4437036010742186,0,0,0.6115200000000001
0.03639391498290934,0,0,1.4915876342773438,0,0,1.2230400000000001
0.03994786899420433,0,0,1.3527239379882812,0,0,0.91728
0.04345989797729999,0,0,1.197100830078125,0,0,0.99372
0.04717533098300919,0,0,1.3024457031249999,0,0,0.22932
0.05305243897601031,0,0,1.24498486328125,0,0,0.53508
0.05664948499179445,0,0,1.3766659545898436,0,0,0.15288000000000002
0.060171309974975884,0,0,1.0773907470703123,0,0,1.2230400000000001
0.06369420798728243,0,0,1.2425906616210938,0,0,0.45864
0.06720456999028102,0,0,1.3479355346679687,0,0,0.84084
0.0709330219833646,0,0,1.2832920898437499,0,0,0.91728
0.07458673298242502,0,0,1.3359645263671873,0,0,0.68796
0.07812974299304187,0,0,1.3766659545898436,0,0,0.99372
0.0811162039753981,0,0,1.5227122558593749,0,0,0.7644
0.08391692698933184,0,0,1.3646949462890625,0,0,0.91728
0.08671568697900511,0,0,1.2832920898437499,0,0,1.07016
0.08951755697489716,0,0,1.24498486328125,0,0,0.68796
0.09231748399906792,0,0,1.350329736328125,0,0,0.99372
0.09511653997469693,0,0,1.1348515869140625,0,0,1.2230400000000001
0.09791152199613862,0,0,1.350329736328125,0,0,1.07016
0.10070835598162375,0,0,1.1420341918945311,0,0,1.07016
0.10350302400183864,0,0,1.3311761230468748,0,0,0.68796
0.10629513498861343,0,0,1.3144167114257812,0,0,0.99372
0.10912200598977506,0,0,1.2713210815429687,0,0,0.7644
0.11191041397978552,0,0,1.4341267944335936,0,0,0.53508
0.11477048799861223,0,0,1.0726023437499999,0,0,0.45864
0.11757267397479154,0,0,1.3551181396484375,0,0,0.68796
0.1203704520012252,0,0,1.0821791503906248,0,0,0.7644
0.12318974899244495,0,0,1.2856862915039062,0,0,0.7644
0.12601345300208777,0,0,1.22583125,0,0,0.84084
0.12881054598256014,0,0,1.3144167114257812,0,0,0.6115200000000001
0.13163717597490177,0,0,1.484405029296875,0,0,0.7644
0.13443617700249888,0,0,1.189918225097656,0,0,0.53508
0.13723325097816996,0,0,1.3670891479492187,0,0,9.40212
0.14003054797649384,0,0,1.3144167114257812,0,0,0.7644
0.1428271409822628,0,0,1.3096283081054687,0,0,0.7644
0.14562104997457936,0,0,1.1468225952148436,0,0,0.68796
0.14841477197478525,0,0,1.3407529296874998,0,0,0.7644
0.1515319539757911,0,0,1.5897499023437498,0,0,0.68796
0.15431539897690527,0,0,1.20667763671875,0,0,0.30576000000000003
0.15709830800187774,0,0,1.3670891479492187,0,0,0.07644000000000001
0.15988328997627832,0,0,1.2521674682617188,0,0,0.6115200000000001
0.16270823500235565,0,0,1.3527239379882812,0,0,0.6115200000000001
0.16550579099566676,0,0,1.2952630981445312,0,0,0.68796
0.16830517997732386,0,0,1.3192051147460937,0,0,0.30576000000000003
0.17110197700094432,0,0,1.5490484741210937,0,0,0.7644
0.1738950709986966,0,0,1.3024457031249999,0,0,0.68796
0.17677951397490688,0,0,1.2306196533203124,0,0,0.0
0.17965105100302026,0,0,1.5011644409179687,0,0,0.6115200000000001
0.18281013998785056,0,0,1.2617442749023438,0,0,0.7644
0.18599061699933372,0,0,1.3455413330078123,0,0,0.84084
0.1891088539850898,0,0,1.24498486328125,0,0,0.68796
0.19222542498027906,0,0,1.2928688964843749,0,0,0.6115200000000001
0.19534382797428407,0,0,1.2761094848632812,0,0,0.6115200000000001
0.19845728800282814,0,0,1.4245499877929686,0,0,1.37592
0.20156954397680238,0,0,1.4796166259765624,0,0,1.2230400000000001
0.20471346599515527,0,0,0.9313444458007812,0,0,0.6115200000000001
0.20793584999046288,0,0,1.438915197753906,0,0,0.45864
0.21111782698426396,0,0,1.678335363769531,0,0,0.53508
0.21438459897763096,0,0,1.0989385620117187,0,0,0.99372
0.2175061879970599,0,0,1.3934253662109375,0,0,0.53508
0.2206283879932016,0,0,1.369483349609375,0,0,0.84084
0.22375010699033737,0,0,1.2497732666015624,0,0,0.30576000000000003
0.22686669600079767,0,0,1.3742717529296875,0,0,1.1465999999999998
0.2299833959841635,0,0,1.3072341064453123,0,0,0.91728
0.23310066998237744,0,0,1.3263877197265623,0,0,0.91728
0.23621711099985987,0,0,1.3551181396484375,0,0,0.0
0.239334070996847,0,0,1.3048399047851562,0,0,0.68796
0.24245654899277724,0,0,1.1156979736328125,0,0,0.6115200000000001
0.24557491598534398,0,0,1.3527239379882812,0,0,1.37592
0.24871278199134395,0,0,1.429338391113281,0,0,0.68796
0.2518328159931116,0,0,1.4149731811523436,0,0,0.45864
0.2549506450013723,0,0,1.3359645263671873,0,0,0.53508
0.2580647529975977,0,0,1.3335703247070312,0,0,0.99372
0.26121484200120904,0,0,1.3862427612304686,0,0,1.07016
0.2643345969845541,0,0,1.1947066284179686,0,0,1.1465999999999998
0.26745427897549234,0,0,1.2617442749023438,0,0,0.3822
0.2705704239779152,0,0,1.3838485595703125,0,0,0.3822
0.2736861610028427,0,0,1.13006318359375,0,0,0.7644
0.27683811998576857,0,0,1.407790576171875,0,0,1.07016
0.27995415299665183,0,0,1.4915876342773438,0,0,1.1465999999999998
0.2830651499971282,0,0,1.1013327636718748,0,0,0.53508
0.2861595349968411,0,0,1.2976572998046874,0,0,0.15288000000000002
0.28927856899099424,0,0,1.1444283935546875,0,0,0.99372
0.29239452799083665,0,0,1.149216796875,0,0,0.68796
0.2955084510031156,0,0,1.235408056640625,0,0,-8.33196
0.29862563297501765,0,0,1.4317325927734375,0,0,0.3822
0.3017406110011507,0,0,1.4101847778320311,0,0,0.3822
0.30485053299344145,0,0,1.2665326782226562,0,0,0.45864
0.3080100289953407,0,0,1.458068811035156,0,0,0.68796
0.31115267297718674,0,0,1.5179238525390624,0,0,1.37592
0.3142658919969108,0,0,1.139639990234375,0,0,0.7644
0.3174117579765152,0,0,1.3239935180664062,0,0,0.6115200000000001
0.320525495975744,0,0,1.5514426757812498,0,0,0.45864
0.3236419739841949,0,0,1.1085153686523437,0,0,0.68796
0.3268003589764703,0,0,1.35990654296875,0,0,0.7644
0.3299117999849841,0,0,1.4341267944335936,0,0,-8.867040000000001
0.3330273699830286,0,0,1.0845733520507812,0,0,0.6115200000000001
0.33614010698511265,0,0,1.2641384765625,0,0,0.30576000000000003
0.33925504799117334,0,0,1.3742717529296875,0,0,1.45236
0.34236886000144295,0,0,1.1875240234375,0,0,0.99372
0.34548207800253294,0,0,1.2952630981445312,0,0,0.22932
0.3485970749752596,0,0,1.4413093994140624,0,0,0.6115200000000001
0.3517144229845144,0,0,1.455674609375,0,0,0.45864
0.35483125297469087,0,0,1.2808978881835937,0,0,1.1465999999999998
0.3579613609763328,0,0,1.3718775512695311,0,0,0.6115200000000001
0.3610760979936458,0,0,1.3766659545898436,0,0,1.07016
0.3641914459876716,0,0,1.1659762084960936,0,0,0.84084
0.36730773898307234,0,0,1.24498486328125,0,0,0.53508
0.370420364983147,0,0,1.5825672973632812,0,0,0.45864
0.3735346759785898,0,0,1.2641384765625,0,0,0.6115200000000001
0.37664917297661304,0,0,1.3455413330078123,0,0,1.2994800000000002
0.37979407599777915,0,0,1.4508862060546874,0,0,0.53508
0.3829145539784804,0,0,1.1228805786132812,0,0,0.53508
0.3860293469915632,0,0,1.22583125,0,0,0.7644
0.3891434549877886,0,0,1.2785036865234374,0,0,1.07016
0.39225911800167523,0,0,1.3383587280273437,0,0,1.1465999999999998
0.39537866998580284,0,0,1.3048399047851562,0,0,0.0
0.3984917779744137,0,0,1.2282254516601563,0,0,0.53508
0.40167084700078703,0,0,1.2473790649414063,0,0,0.6115200000000001
0.40479167699231766,0,0,1.2378022583007813,0,0,1.60524
0.4079343959747348,0,0,1.2928688964843749,0,0,0.68796
0.41105289198458195,0,0,1.216254443359375,0,0,1.1465999999999998
0.4141648889926728,0,0,1.2282254516601563,0,0,0.53508
0.4172794779879041,0,0,1.4125789794921875,0,0,1.1465999999999998
0.4203938079881482,0,0,1.5514426757812498,0,0,0.7644
0.4235098229837604,0,0,1.0749965454101562,0,0,0.84084
0.4266246339830104,0,0,1.2282254516601563,0,0,0.7644
0.42974088998744264,0,0,1.6160861206054686,0,0,0.53508
0.43285581198870204,0,0,1.189918225097656,0,0,0.45864
0.43596999399596825,0,0,1.2497732666015624,0,0,0.68796
0.4390850829950068,0,0,1.218648645019531,0,0,1.1465999999999998
0.4421975610021036,0,0,1.254561669921875,0,0,0.68796
0.4453296129941009,0,0,1.2617442749023438,0,0,0.0
0.44850407098419964,0,0,1.446097802734375,0,0,0.91728
0.4516206229745876,0,0,1.2641384765625,0,0,0.84084
0.4547358049894683,0,0,1.3144167114257812,0,0,1.2230400000000001
0.45786656098789535,0,0,1.2737152832031249,0,0,1.07016
0.462087783991592,0,0,1.2521674682617188,0,0,0.45864
0.46531431598123163,0,0,1.3383587280273437,0,0,0.0
0.4684390899783466,0,0,1.3192051147460937,0,0,0.84084
0.4715618829941377,0,0,1.13006318359375,0,0,0.99372
0.47467800899175927,0,0,1.2904746948242187,0,0,1.98744
0.47779398699640296,0,0,1.24498486328125,0,0,0.68796
0.48091079798177816,0,0,1.235408056640625,0,0,0.68796
0.4840268499974627,0,0,1.3479355346679687,0,0,0.53508
0.4871461429866031,0,0,1.465251416015625,0,0,0.84084
0.4902588429977186,0,0,1.6711527587890624,0,0,0.91728
0.49337411698070355,0,0,1.1420341918945311,0,0,0.68796
0.49648929899558425,0,0,1.2641384765625,0,0,0.22932
0.49960568398819305,0,0,1.5825672973632812,0,0,0.53508
0.5027189769898541,0,0,1.1659762084960936,0,0,0.45864
0.5152071289776359,0,0,1.3263877197265623,0,0,0.15288000000000002
0.5184481979813427,0,0,1.3623007446289062,0,0,20
0.5215719359985087,0,0,1.2761094848632812,0,0,0.0
0.5247596899862401,0,0,1.2378022583007813,0,0,0.22932
0.5278671869891696,0,0,1.5107412475585937,0,0,0.6115200000000001
0.530973405984696,0,0,1.1755530151367186,0,0,0.53508
0.5340705319831613,0,0,1.3000515014648437,0,0,1.1465999999999998
0.5379357969795819,0,0,1.3551181396484375,0,0,0.91728
0.5411511809797958,0,0,1.1276689819335937,0,0,0.30576000000000003
0.5442762509919703,0,0,1.3048399047851562,0,0,1.45236
0.5474112099909689,0,0,1.2641384765625,0,0,0.53508
0.5505690579884686,0,0,1.2282254516601563,0,0,0.99372
0.5536940549791325,0,0,1.5155296508789062,0,0,0.22932
0.5568128099839669,0,0,1.3718775512695311,0,0,1.2230400000000001
0.5599308809905779,0,0,1.5370774658203123,0,0,0.91728
0.5630502289859578,0,0,0.9935936889648437,0,0,0.91728
0.5661970590008423,0,0,1.3120225097656248,0,0,0.22932
0.5693160549853928,0,0,1.43652099609375,0,0,0.91728
0.57243301498238,0,0,1.2473790649414063,0,0,0.68796
0.5755511589813977,0,0,1.2593500732421874,0,0,1.60524
0.5786930439935531,0,0,1.5179238525390624,0,0,0.68796
0.5830104329797905,0,0,1.0342951171875,0,0,0.91728
0.5862074839824345,0,0,1.2330138549804688,0,0,0.30576000000000003
0.5893306099751499,0,0,1.4413093994140624,0,0,0.7644
0.5924764759838581,0,0,1.0821791503906248,0,0,0.91728
0.5956113429856487,0,0,1.3838485595703125,0,0,1.2994800000000002
0.5987317459948827,0,0,1.4532804077148436,0,0,0.91728
0.6018502980004996,0,0,1.2306196533203124,0,0,0.6115200000000001
0.6049693319946527,0,0,1.3862427612304686,0,0,0.22932
0.6080887359858025,0,0,1.3168109130859373,0,0,0.99372
0.611209954979131,0,0,1.1348515869140625,0,0,0.30576000000000003
0.6143246360006742,0,0,1.3383587280273437,0,0,1.07016
0.6174763909948524,0,0,1.2018892333984375,0,0,0.30576000000000003
0.6206024989951402,0,0,1.2425906616210938,0,0,0.53508
0.6237779389775824,0,0,1.3215993164062498,0,0,1.07016
0.6269185279961675,0,0,1.3359645263671873,0,0,0.84084
0.6300401169864926,0,0,1.39821376953125,0,0,0.7644
0.6331565579748712,0,0,1.149216796875,0,0,0.45864
0.6362755729933269,0,0,1.3311761230468748,0,0,0.45864
0.6393960139830597,0,0,1.3838485595703125,0,0,0.53508
0.6425598060013726,0,0,1.1468225952148436,0,0,1.2230400000000001
0.6456808020011522,0,0,1.2928688964843749,0,0,0.84084
0.6488026320002973,0,0,1.4628572143554686,0,0,0.99372
0.6519207209930755,0,0,1.2234370483398436,0,0,0.68796
0.6550399949774146,0,0,1.467645617675781,0,0,1.07016
0.6581581579812337,0,0,1.3527239379882812,0,0,1.2994800000000002
0.6612761179858353,0,0,1.2521674682617188,0,0,0.91728
0.6643972249876242,0,0,1.3575123413085937,0,0,-0.07644000000000001
0.6675487219763454,0,0,1.1085153686523437,0,0,0.3822
0.6706986619974487,0,0,1.2282254516601563,0,0,0.99372
0.6738179179956205,0,0,1.369483349609375,0,0,1.2994800000000002
0.6769365249783732,0,0,1.4245499877929686,0,0,0.84084
0.680091113987146,0,0,1.3215993164062498,0,0,0.68796
0.6832107579975855,0,0,1.2210428466796874,0,0,0.91728
0.6863282919803169,0,0,1.2665326782226562,0,0,1.1465999999999998
0.6894467509991955,0,0,1.3934253662109375,0,0,0.84084
0.6925657849933486,0,0,1.0869675537109373,0,0,0.84084
0.6956849849957507,0,0,1.2808978881835937,0,0,0.53508
0.6988052219967358,0,0,1.5179238525390624,0,0,0.84084
0.7019231259764638,0,0,1.1276689819335937,0,0,0.53508
0.7050420669838786,0,0,1.3024457031249999,0,0,1.1465999999999998
0.7081601559766568,0,0,1.3407529296874998,0,0,1.2994800000000002
0.7112898379855324,0,0,1.20667763671875,0,0,0.7644
0.7145041109761223,0,0,1.2497732666015624,0,0,0.0
0.7177099389955401,0,0,1.3646949462890625,0,0,0.91728
0.7208302689832635,0,0,1.2138602416992186,0,0,0.84084
0.7239783949917182,0,0,1.24498486328125,0,0,1.1465999999999998
0.7270975389983505,0,0,1.3168109130859373,0,0,0.07644000000000001
0.7302149619790725,0,0,1.388636962890625,0,0,0.45864
0.7333324579813052,0,0,1.4006079711914061,0,0,0.84084
0.7364506949961651,0,0,1.24498486328125,0,0,2.2167600000000003
0.7395698769832961,0,0,1.2378022583007813,0,0,0.84084
0.7426935029798187,0,0,1.1540052001953125,0,0,0.6115200000000001
0.7458107589918654,0,0,1.3575123413085937,0,0,0.45864
0.7489293659746181,0,0,1.5131354492187499,0,0,0.7644
0.752046473993687,0,0,1.3431471313476562,0,0,0.91728
0.7551654889830388,0,0,1.3718775512695311,0,0,1.2994800000000002
0.7582814479828812,0,0,1.5155296508789062,0,0,0.7644
0.761397981987102,0,0,1.3646949462890625,0,0,0.68796
0.7645336819987278,0,0,1.3575123413085937,0,0,9.631440000000001
0.7676578259852249,0,0,1.1875240234375,0,0,0.99372
0.7708115080022253,0,0,1.0989385620117187,0,0,0.91728
0.7739325040020049,0,0,1.3120225097656248,0,0,0.7644
0.7770517409953754,0,0,1.3623007446289062,0,0,0.68796
0.7802015519991983,0,0,1.2928688964843749,0,0,0.45864
0.7833284929802176,0,0,1.2569558715820313,0,0,1.5288
0.7864451560017187,0,0,1.3359645263671873,0,0,0.53508
0.7895636339962948,0,0,1.3120225097656248,0,0,1.07016
0.7927187599998433,0,0,1.1468225952148436,0,0,0.3822
0.7958480149973184,0,0,1.2425906616210938,0,0,0.91728
0.7998143339937087,0,0,1.2018892333984375,0,0,0.45864
0.8030038109864108,0,0,1.2473790649414063,0,0,1.1465999999999998
0.8061254369968083,0,0,1.4820108276367188,0,0,0.7644
0.8092463959765155,0,0,1.2761094848632812,0,0,1.1465999999999998
0.8123658369877376,0,0,1.3742717529296875,0,0,0.6115200000000001
0.8154848339909222,0,0,1.3575123413085937,0,0,0.15288000000000002
0.8186019779823255,0,0,1.5107412475585937,0,0,0.53508
0.8217185300018173,0,0,1.1851298217773436,0,0,0.30576000000000003
0.8248364899773151,0,0,1.2378022583007813,0,0,1.07016
0.8279423939820845,0,0,1.3455413330078123,0,0,0.99372
0.8310548159934115,0,0,1.369483349609375,0,0,0.68796
0.8341714609996416,0,0,1.2785036865234374,0,0,0.0
0.8372953279758804,0,0,1.1827356201171875,0,0,0.91728
0.8404129349801224,0,0,1.2904746948242187,0,0,0.6115200000000001
0.8435293759976048,0,0,1.3263877197265623,0,0,0.68796
0.8466896869940683,0,0,1.3048399047851562,0,0,0.68796
0.8498109059873968,0,0,1.438915197753906,0,0,0.6115200000000001
0.8529264019744005,0,0,1.177947216796875,0,0,0.84084
0.8560460649896413,0,0,1.5011644409179687,0,0,1.1465999999999998
0.8591669689922128,0,0,1.2401964599609374,0,0,0.91728
0.8622807619976811,0,0,1.1420341918945311,0,0,1.1465999999999998
0.8659547510033008,0,0,1.5059528442382812,0,0,0.84084
0.8692559679911938,0,0,1.3000515014648437,0,0,0.91728
0.872379963984713,0,0,1.1324573852539062,0,0,0.84084
0.8754998119839001,0,0,1.3431471313476562,0,0,1.1465999999999998
0.8786222719936632,0,0,2.291250988769531,0,0,2.14032
0.881780544994399,0,0,1.8507178833007811,0,0,1.68168
0.8848959489841945,0,0,2.760514514160156,0,0,1.1465999999999998
0.8880108529992867,0,0,1.9393033447265624,0,0,0.68796
0.8911310900002718,0,0,1.2330138549804688,0,0,0.91728
0.8942451239854563,0,0,1.47482822265625,0,0,1.45236
0.8973628239764366,0,0,1.7836802368164062,0,0,1.98744
0.9004786719742697,0,0,2.1068974609374997,0,0,1.68168
0.9035898729925975,0,0,1.924938134765625,0,0,0.45864
0.9069428849907126,0,0,1.8219874633789062,0,0,1.45236
0.910065769974608,0,0,1.5514426757812498,0,0,1.1465999999999998
0.9131819329923019,0,0,1.7477672119140624,0,0,1.98744
0.9162981889967341,0,0,1.9943699829101562,0,0,1.45236
0.9194142959895544,0,0,1.5466542724609373,0,0,0.91728
0.922603977000108,0,0,1.7693150268554687,0,0,1.1465999999999998
0.9257212700031232,0,0,2.269703173828125,0,0,1.5288
0.9288500629772898,0,0,1.7334020019531249,0,0,1.37592
0.931965854979353,0,0,1.7860744384765623,0,0,1.07016
0.9350847589957993,0,0,1.4963760375976562,0,0,1.07016
0.938198421994457,0,0,2.094926452636719,0,0,1.75812
0.9413151780026965,0,0,1.7812860351562498,0,0,1.60524
0.9444303229975048,0,0,2.3223756103515623,0,0,1.911
0.9475495039951056,0,0,1.946485949707031,0,0,1.5288
0.9506760929943994,0,0,1.7118541870117185,0,0,0.91728
0.9538043299980927,0,0,1.4628572143554686,0,0,1.2230400000000001
0.9569731599767692,0,0,1.5131354492187499,0,0,2.52252
0.9604104299796745,0,0,1.9847931762695312,0,0,1.98744
0.9635799809766468,0,0,1.8602946899414061,0,0,0.99372
0.9670865839871112,0,0,2.4779987182617185,0,0,1.60524
0.9702198019949719,0,0,1.8076222534179687,0,0,1.1465999999999998
0.9733399839897174,0,0,1.0390835205078124,0,0,0.84084
0.9764582019997761,0,0,2.262520568847656,0,0,2.2167600000000003
0.9795736619853415,0,0,1.637633935546875,0,0,0.45864
0.9827788609836716,0,0,1.9967641845703124,0,0,1.75812
0.985885079979198,0,0,2.578555187988281,0,0,0.99372
0.9889864279830363,0,0,1.1875240234375,0,0,0.84084
0.9920870179776102,0,0,2.588131994628906,0,0,1.68168
0.9951993099821266,0,0,1.9488801513671874,0,0,0.6115200000000001
0.9983424179954454,0,0,2.8036101440429686,0,0,0.53508
1.004058416991029,0,0,2.0350714111328125,0,0,1.68168
1.0073233009898104,0,0,2.1595698974609374,0,0,0.68796
1.0106541650020517,0,0,2.655169641113281,0,0,0.7644
1.013880900980439,0,0,1.9225439331054686,0,0,2.6754
1.0171497470000759,0,0,1.3934253662109375,0,0,2.14032
1.0204446119896602,0,0,1.1851298217773436,0,0,0.0
1.023686957982136,0,0,1.944091748046875,0,0,2.14032
1.0268759169848636,0,0,2.9472622436523435,0,0,2.98116
1.0300659310014453,0,0,1.0702081420898437,0,0,-0.45864
1.0332469639834017,0,0,1.2928688964843749,0,0,-0.99372
1.0363875149923842,0,0,3.0238766967773434,0,0,2.75184
1.039521122991573,0,0,1.3335703247070312,0,0,0.3822
1.0426951370027382,0,0,0.967257470703125,0,0,2.4460800000000003
1.0508773079782259,0,0,0.3064578125,0,0,-0.84084
1.0541850799927488,0,0,2.6982652709960937,0,0,3.0576
1.0574735190020874,0,0,2.858676782226562,0,0,-0.22932
1.0608452899905387,0,0,-0.1388636962890625,0,0,1.2230400000000001
1.0642487079894636,0,0,4.220977526855468,0,0,2.4460800000000003
1.0676844229747076,0,0,1.6400281372070311,0,0,-1.1465999999999998
1.0711557109898422,0,0,1.8052280517578123,0,0,1.2994800000000002
1.0744624459766783,0,0,1.9895815795898437,0,0,0.45864
1.077763180976035,0,0,-0.6153098266601562,0,0,0.30576000000000003
1.081148191995453,0,0,2.4779987182617185,0,0,1.2230400000000001
1.0844221129955258,0,0,0.6464344482421874,0,0,-9.784320000000001
1.0865987879806198,0,0,-0.22026655273437498,0,0,0.0
1.0886977789923549,0,0,2.7150246826171873,0,0,1.37592
1.090800751990173,0,0,2.7940333374023436,0,0,0.84084
1.0928494289983064,0,0,0.4261678955078125,0,0,-1.2230400000000001
1.0949007169983815,0,0,1.1085153686523437,0,0,0.0
1.0969288019987289,0,0,3.277662072753906,0,0,1.98744
1.0989684969827067,0,0,1.9967641845703124,0,0,2.06388
1.1010066379967611,0,0,-0.59376201171875,0,0,-0.84084
1.1030776659899857,0,0,1.0271125122070313,0,0,0.7644
1.1051783239818178,0,0,3.1316157714843746,0,0,1.98744
1.1073438699822873,0,0,2.607285607910156,0,0,1.75812
1.1094355089880992,0,0,-0.36631285400390623,0,0,-0.22932
1.1115018159907777,0,0,0.5961562133789062,0,0,0.91728
1.1136197879968677,0,0,2.221819140625,0,0,1.68168
1.1157170939841308,0,0,1.9608511596679685,0,0,0.91728
1.1176955869887024,0,0,0.21787235107421873,0,0,0.91728
1.1196736909914762,0,0,1.5131354492187499,0,0,2.36964
1.1216473690001294,0,0,2.5067291381835934,0,0,1.83456
1.1236231029906776,0,0,1.4437036010742186,0,0,0.53508
1.1255950949853286,0,0,0.3447650390625,0,0,0.0
1.1275713099748828,0,0,2.0877438476562498,0,0,2.14032
1.129544821975287,0,0,2.375048046875,0,0,1.83456
1.1315201109973714,0,0,0.6847416748046875,0,0,-0.3822
1.133495343994582,0,0,-0.7948749511718749,0,0,-0.7644
1.1354738929949235,0,0,1.7956512451171873,0,0,1.2994800000000002
1.1374496819917113,0,0,3.0406361083984375,0,0,3.36336
1.1394309339812025,0,0,1.5466542724609373,0,0,1.98744
1.141403518995503,0,0,-0.1867477294921875,0,0,8.943480000000001
1.143380993977189,0,0,1.2401964599609374,0,0,1.07016
1.1453535979962908,0,0,3.2728736694335936,0,0,1.83456
1.1474330149940215,0,0,2.5737667846679684,0,0,1.75812
1.1494074709771667,0,0,-0.38307226562499996,0,0,-0.3822
1.1513868149777409,0,0,0.13407529296874998,0,0,0.0
1.1533592709747609,0,0,1.9895815795898437,0,0,0.99372
1.1553459859860595,0,0,2.0638018310546875,0,0,0.7644
1.1573298309813254,0,0,1.149216796875,0,0,1.2994800000000002
1.1593137489981018,0,0,1.005564697265625,0,0,1.2994800000000002
1.161296982987551,0,0,1.7860744384765623,0,0,0.53508
1.1632994749816135,0,0,2.1212626708984375,0,0,1.2230400000000001
1.1652835049899295,0,0,1.1061211669921875,0,0,-0.84084
1.1672711269930005,0,0,1.7477672119140624,0,0,0.91728
1.1692555269983131,0,0,1.8315642700195311,0,0,1.5288
1.1712418159877416,0,0,0.8978256225585937,0,0,0.30576000000000003
1.173224828002276,0,0,-0.2657563842773437,0,0,0.0
1.1752115049748681,0,0,1.6448165405273436,0,0,1.37592
1.1771950909751467,0,0,2.454056701660156,0,0,3.21048
1.1791804909880739,0,0,1.7932570434570312,0,0,1.911
1.1811628169962205,0,0,0.18435352783203124,0,0,-0.68796
1.1832321789988782,0,0,1.7717092285156248,0,0,0.7644
1.1857189059956,0,0,2.6886884643554687,0,0,0.22932
1.1882562989776488,0,0,0.8164227661132812,0,0,-0.3822
1.1907922289974522,0,0,1.158793603515625,0,0,0.22932
1.1933259359793738,0,0,1.5753846923828123,0,0,0.45864
1.1958632179885171,0,0,0.8259995727539062,0,0,0.68796
1.1983989809814375,0,0,0.7613561279296874,0,0,1.911
1.2009324489918072,0,0,2.4875755249023435,0,0,0.99372
1.2034671189903747,0,0,1.0678139404296874,0,0,-0.22932
1.2060022160003427,0,0,0.7805097412109374,0,0,0.53508
1.2085370529966895,0,0,2.3319524169921872,0,0,1.75812
1.2110703719954472,0,0,0.18914193115234373,0,0,0.22932
1.2136134869942907,0,0,-0.46686932373046874,0,0,1.98744
1.2190511389926542,0,0,1.6735469604492186,0,0,1.98744
1.22159067998291,0,0,-0.17477672119140625,0,0,0.6115200000000001
1.2241309429809917,0,0,1.956062756347656,0,0,1.2994800000000002
1.226861018978525,0,0,1.7788918334960937,0,0,1.1465999999999998
1.2294129849760793,0,0,-0.17477672119140625,0,0,0.22932
1.2319622299983166,0,0,1.7357962036132812,0,0,1.75812
1.2345426039828453,0,0,2.288856787109375,0,0,0.07644000000000001
1.2370898669760209,0,0,0.3806780639648437,0,0,1.1465999999999998
1.2396350189810619,0,0,2.013523596191406,0,0,2.2931999999999997
1.2421783559839241,0,0,1.7262193969726563,0,0,0.3822
1.2447217119915877,0,0,-0.22505495605468748,0,0,-1.60524
1.2472687349945772,0,0,2.5809493896484375,0,0,2.52252
1.249810682988027,0,0,2.023100402832031,0,0,1.68168
1.2523550199985038,0,0,-0.09337386474609374,0,0,-1.75812
1.2549010239890777,0,0,1.7238251953125,0,0,1.45236
1.2574428609805182,0,0,3.9647979492187497,0,0,2.14032
1.2599863649811596,0,0,0.47165772705078124,0,0,-0.22932
1.2625512209779117,0,0,-1.3455413330078123,0,0,9.631440000000001
1.265104613994481,0,0,3.864241479492187,0,0,1.98744
1.2676484139810782,0,0,2.0542250244140625,0,0,0.22932
1.270189713977743,0,0,-1.0510545288085937,0,0,0.45864
1.2727324219886214,0,0,2.935291235351562,0,0,1.2230400000000001
1.2752760919975117,0,0,1.7717092285156248,0,0,0.91728
1.2778162999893539,0,0,-0.07900865478515624,0,0,0.7644
1.2803593599819578,0,0,2.039859814453125,0,0,1.2994800000000002
1.2829924179823138,0,0,1.3718775512695311,0,0,-9.784320000000001
1.2858487509947736,0,0,-0.5219359619140624,0,0,0.6115200000000001
1.2889675439801067,0,0,3.057395520019531,0,0,0.91728
1.2920855769771151,0,0,0.7398083129882812,0,0,-1.1465999999999998
1.2952031849999912,0,0,0.6631938598632812,0,0,1.45236
1.2983183109899983,0,0,3.289633081054687,0,0,2.4460800000000003
1.3014348080032505,0,0,-0.4333505004882812,0,0,-0.30576000000000003
1.3045504149922635,0,0,1.3910311645507811,0,0,2.14032
1.3076980219921097,0,0,1.9943699829101562,0,0,-0.3822
1.310823537001852,0,0,0.20829554443359374,0,0,1.5288
1.313942477980163,0,0,1.936909143066406,0,0,1.2230400000000001
1.317060159984976,0,0,0.316034619140625,0,0,0.15288000000000002
1.3201784899865743,0,0,1.8722656982421875,0,0,0.99372
1.3232985049835406,0,0,1.7884686401367187,0,0,-9.555
1.3264162789855618,0,0,-0.42377369384765623,0,0,1.75812
1.3295358309987932,0,0,2.710236279296875,0,0,1.83456
1.3326406790001784,0,0,-0.44053310546874996,0,0,-1.07016
1.3358996369934175,0,0,1.8938135131835936,0,0,1.911
1.3390158739930484,0,0,2.4444798950195312,0,0,1.60524
1.3421277039742563,0,0,-0.7948749511718749,0,0,-9.555
1.345244552998338,0,0,2.712630480957031,0,0,1.37592
1.3483594189747237,0,0,2.568978381347656,0,0,0.07644000000000001
1.3514750269823708,0,0,-0.41419688720703124,0,0,0.84084
1.35460109799169,0,0,2.01112939453125,0,0,1.911
1.35771590899094,0,0,0.833182177734375,0,0,1.37592
1.3608302759821527,0,0,2.051830822753906,0,0,1.07016
1.3639446979796048,0,0,0.7541735229492187,0,0,-1.60524
1.3670607499952894,0,0,1.8363526733398436,0,0,2.14032
1.3701741729746573,0,0,2.346317626953125,0,0,0.84084
1.3732879839953966,0,0,-0.46686932373046874,0,0,-9.784320000000001
1.3764062769769225,0,0,2.0087351928710935,0,0,1.1465999999999998
1.3795229399984237,0,0,2.24097275390625,0,0,0.3822
1.3826998799922876,0,0,0.0047884033203125,0,0,0.07644000000000001
1.385873097984586,0,0,2.346317626953125,0,0,0.6115200000000001
1.3889957059873268,0,0,0.5243301635742187,0,0,0.53508
1.392112053988967,0,0,1.659181750488281,0,0,1.07016
1.3952292909962125,0,0,1.3575123413085937,0,0,0.22932
1.3983505279757082,0,0,0.9840168823242187,0,0,0.91728
1.4014659139793366,0,0,1.9033903198242186,0,0,0.07644000000000001
1.4045785589842126,0,0,0.5315127685546874,0,0,1.1465999999999998
1.4077233699790668,0,0,2.480392919921875,0,0,1.60524
1.4108414959919173,0,0,0.6200982299804687,0,0,0.84084
1.4139551029948052,0,0,-0.5482721801757812,0,0,0.07644000000000001
1.4170740809931885,0,0,3.8857892944335934,0,0,1.83456
1.420189169992227,0,0,0.6296750366210937,0,0,-1.2994800000000002
1.42330979599501,0,0,0.20350714111328125,0,0,1.2994800000000002
1.426423940982204,0,0,2.7437551025390623,0,0,1.45236
1.4295378259848803,0,0,-0.44532150878906246,0,0,0.91728
1.4326592859870289,0,0,2.2673089721679687,0,0,0.15288000000000002
1.435774281999329,0,0,1.1037269653320312,0,0,0.0
1.4388910379784647,0,0,1.5682020874023437,0,0,1.98744
1.4420107569894753,0,0,1.9823989746093749,0,0,-9.555
1.4451273459999356,0,0,-0.6296750366210937,0,0,0.22932
1.4483137119968887,0,0,3.1172505615234374,0,0,1.83456
1.4514317449938972,0,0,1.1516109985351561,0,0,-0.15288000000000002
1.4545506119902711,0,0,1.1755530151367186,0,0,1.911
1.457666126982076,0,0,3.878606689453125,0,0,1.60524
1.4607796789787244,0,0,-1.2880804931640624,0,0,-0.53508
1.4638944909966085,0,0,2.2098481323242187,0,0,1.45236
1.4684466169856023,0,0,-0.41419688720703124,0,0,0.0
1.4715997239982244,0,0,1.3383587280273437,0,0,1.45236
1.4747116649814416,0,0,2.5163059448242184,0,0,1.60524
1.4778375129972119,0,0,-0.29448680419921874,0,0,0.68796
1.4809552129881922,0,0,2.1452046874999997,0,0,1.2994800000000002
1.4840744499815628,0,0,1.4796166259765624,0,0,-0.84084
1.487196446978487,0,0,0.8379705810546875,0,0,1.83456
1.4903131289756857,0,0,2.6312276245117188,0,0,0.68796
1.4934276619751472,0,0,-1.3551181396484375,0,0,-0.30576000000000003
1.4965460659877863,0,0,3.361459130859375,0,0,1.83456
1.4996620070014615,0,0,1.8028338500976562,0,0,-0.45864
1.502823446993716,0,0,-1.1133037719726562,0,0,1.07016
1.5059355549747124,0,0,4.3263223999023435,0,0,1.98744
1.5090811069821939,0,0,-0.36631285400390623,0,0,-0.3822
1.512212343979627,0,0,0.3591302490234375,0,0,0.68796
1.5153376179805491,0,0,2.7653029174804686,0,0,2.06388
1.5184495399880689,0,0,-0.3711012573242187,0,0,1.68168
1.5215671109908726,0,0,2.896984008789062,0,0,1.2230400000000001
1.5247127549955621,0,0,0.8810662109374999,0,0,-9.707880000000001
1.5278481589921284,0,0,1.9321207397460936,0,0,1.5288
1.530966043996159,0,0,1.675941162109375,0,0,1.911
1.5340785039879847,0,0,-0.8858546142578124,0,0,0.15288000000000002
1.537194518983597,0,0,2.7940333374023436,0,0,1.60524
1.540307255985681,0,0,1.924938134765625,0,0,-1.2994800000000002
1.5434239189780783,0,0,1.158793603515625,0,0,1.2230400000000001
1.5465632120030932,0,0,2.5905261962890624,0,0,1.911
1.549681189993862,0,0,-0.7062894897460937,0,0,-0.53508
1.5527971679985058,0,0,1.7214309936523438,0,0,1.5288
1.5559130159963388,0,0,2.4779987182617185,0,0,0.30576000000000003
1.5590278460003901,0,0,-0.11013327636718749,0,0,0.6115200000000001
1.5621415089990478,0,0,1.7190367919921874,0,0,0.53508
1.5652547089848667,0,0,1.8195932617187498,0,0,1.07016
1.5683675579784904,0,0,1.3048399047851562,0,0,0.91728
1.5714822949958034,0,0,0.9217676391601562,0,0,-9.631440000000001
1.5745960689964704,0,0,1.7693150268554687,0,0,2.14032
1.5777100839768536,0,0,2.6384102294921874,0,0,0.99372
1.5808237479941454,0,0,-0.5770026000976562,0,0,-0.3822
1.5839539479929954,0,0,2.422932080078125,0,0,0.91728
1.5870690739830025,0,0,1.7166425903320313,0,0,1.60524
1.5901837179844733,0,0,-0.9121908325195311,0,0,0.22932
1.5932981410005596,0,0,2.906560815429687,0,0,2.82828
1.59641608200036,0,0,0.5913678100585937,0,0,0.07644000000000001
1.5995301149960142,0,0,2.0254946044921875,0,0,1.07016
1.6026834819931537,0,0,1.2880804931640624,0,0,0.45864
1.605798403994413,0,0,-0.27293898925781246,0,0,0.53508
1.6089477519853972,0,0,2.4899697265625,0,0,1.45236
1.6120652669924311,0,0,0.852335791015625,0,0,-1.2230400000000001
1.6151823929976672,0,0,1.0295067138671874,0,0,1.75812
1.61829829699127,0,0,1.5370774658203123,0,0,1.2230400000000001
1.6214122379897162,0,0,-1.1420341918945311,0,0,0.91728
1.624528845975874,0,0,3.229778039550781,0,0,1.911
1.627644286985742,0,0,1.22583125,0,0,-0.68796
1.6307917090016417,0,0,0.4285620971679687,0,0,1.5288
1.6339059459860437,0,0,3.0214824951171875,0,0,0.0
1.637019497982692,0,0,0.1197100830078125,0,0,0.68796
1.640132457978325,0,0,2.1499930908203124,0,0,0.45864
1.6432489169819746,0,0,0.5315127685546874,0,0,-0.53508
1.646362339000916,0,0,1.0989385620117187,0,0,1.2994800000000002
1.6494762619840913,0,0,3.0909143432617188,0,0,1.911
1.6525885729934089,0,0,-0.6296750366210937,0,0,9.01992
1.6557059769984335,0,0,2.427720483398437,0,0,0.91728
1.6588188069872558,0,0,2.1691467041015624,0,0,1.911
1.6619296929857228,0,0,-1.5945383056640625,0,0,-0.6115200000000001
1.6650459109805524,0,0,2.8658593872070313,0,0,1.60524
1.6681586669874378,0,0,2.2457611572265623,0,0,9.40212
1.6712738299975172,0,0,0.8978256225585937,0,0,1.60524
1.6743854559899773,0,0,2.3391350219726563,0,0,2.52252
1.6775011379795615,0,0,-0.01915361328125,0,0,0.45864
1.6806156529928558,0,0,2.1643583007812497,0,0,1.07016
1.683786870999029,0,0,1.7884686401367187,0,0,-1.2994800000000002
1.6869050529785454,0,0,0.00239420166015625,0,0,1.75812
1.6900167900021188,0,0,2.549824768066406,0,0,1.2994800000000002
1.6931302129814867,0,0,0.469263525390625,0,0,-9.631440000000001
1.6962440419883933,0,0,3.1699229980468746,0,0,1.2994800000000002
1.6993592799990438,0,0,2.446874096679687,0,0,1.5288
1.7024706839874852,0,0,-1.4987702392578124,0,0,-0.22932
1.7055823279952165,0,0,3.2417490478515623,0,0,2.06388
1.7088214159884956,0,0,0.8355763793945312,0,0,0.15288000000000002
1.71193698598654,0,0,0.689530078125,0,0,1.45236
1.7150498899864033,0,0,2.9496564453125,0,0,-0.68796
1.7195039810030721,0,0,0.6368576416015624,0,0,0.99372
1.7226927719893865,0,0,2.626439221191406,0,0,1.60524
1.7258098059974145,0,0,-0.4165910888671875,0,0,-0.45864
1.7289313209766988,0,0,1.4604630126953124,0,0,2.06388
1.7320457430032548,0,0,2.1547814941406247,0,0,-0.68796
1.735160943993833,0,0,1.3215993164062498,0,0,1.98744
1.7382729399832897,0,0,1.8291700683593748,0,0,1.5288
1.7413885849819053,0,0,-0.36631285400390623,0,0,0.0
1.7445044699998107,0,0,2.0973206542968748,0,0,2.2167600000000003
1.7476342259906232,0,0,2.4564509033203126,0,0,-9.24924
1.7507855180010665,0,0,-1.139639990234375,0,0,1.45236
1.753905458986992,0,0,3.229778039550781,0,0,1.1465999999999998
1.7570196779852267,0,0,1.5251064575195312,0,0,0.15288000000000002
1.760134340991499,0,0,1.1468225952148436,0,0,-0.30576000000000003
1.763250744988909,0,0,2.3535002319335936,0,0,2.36964
1.76636379698175,0,0,-0.239420166015625,0,0,0.99372
1.7694790159875993,0,0,2.4301146850585935,0,0,1.2230400000000001
1.7725931789900642,0,0,1.1851298217773436,0,0,9.32568
1.7757092129904777,0,0,1.3215993164062498,0,0,0.99372
1.778828041977249,0,0,1.8339584716796873,0,0,1.60524
1.781938539003022,0,0,-0.507570751953125,0,0,0.0
1.7850954419991467,0,0,3.181894006347656,0,0,1.68168
1.7882106979959644,0,0,0.373495458984375,0,0,-0.6115200000000001
1.7913274169841316,0,0,1.5682020874023437,0,0,2.2931999999999997
1.7944393759826198,0,0,2.2481553588867187,0,0,2.2167600000000003
1.7975549279944971,0,0,0.16519991455078123,0,0,0.0
1.800861978001194,0,0,2.114080065917969,0,0,1.2230400000000001
1.8039741779793985,0,0,1.5538368774414062,0,0,-1.60524
1.8070850819931366,0,0,1.7717092285156248,0,0,1.37592
1.8101884679927025,0,0,1.6615759521484375,0,0,0.3822
1.813289186975453,0,0,0.13168109130859373,0,0,1.5288
1.8164206459769048,0,0,3.1100679565429687,0,0,1.68168
1.819539308984531,0,0,0.93852705078125,0,0,-1.2230400000000001
1.8226963419874664,0,0,-0.9145850341796874,0,0,1.60524
1.825818930985406,0,0,3.801992236328125,0,0,1.60524
1.8289725749928039,0,0,0.07422025146484375,0,0,-0.22932
1.8320950350025669,0,0,3.1364041748046874,0,0,0.68796
1.8352134759770706,0,0,2.3223756103515623,0,0,2.4460800000000003
1.838328878977336,0,0,-1.7669208251953124,0,0,-0.22932
1.8414466719841585,0,0,3.727771984863281,0,0,2.14032
1.8445637239783537,0,0,0.6871358764648438,0,0,-0.7644
1.8476819609932136,0,0,0.9361328491210937,0,0,0.91728
1.8508000319998246,0,0,2.518700146484375,0,0,2.2931999999999997
1.8539146579860244,0,0,-1.2114660400390624,0,0,-0.68796
1.857031580992043,0,0,4.515464331054687,0,0,1.75812
1.8601484469836578,0,0,0.011971008300781249,0,0,-2.2931999999999997
1.8632672029780224,0,0,0.2609679809570312,0,0,2.36964
1.8663810329744592,0,0,3.5242648437499997,0,0,1.911
1.8694942889851518,0,0,-1.465251416015625,0,0,-1.60524
1.8726115629833657,0,0,1.8076222534179687,0,0,0.7644
1.8757737629930489,0,0,2.7748797241210936,0,0,-8.943480000000001
1.8788922219828237,0,0,-2.231395947265625,0,0,-0.53508
1.8820088479842525,0,0,2.418143676757812,0,0,0.7644
1.8851627699914388,0,0,-0.689530078125,0,0,6.80316
1.888281414983794,0,0,1.1731588134765625,0,0,2.4460800000000003
1.8913991339795757,0,0,1.8770541015625,0,0,0.68796
1.8945499440014828,0,0,-0.9959878906249999,0,0,9.32568
1.897668830002658,0,0,2.8945898071289062,0,0,2.52252
1.900785067002289,0,0,1.9991583862304687,0,0,-1.75812
1.9038990819826722,0,0,-2.3535002319335936,0,0,-1.60524
1.907044836989371,0,0,2.9568390502929685,0,0,3.97488
1.910164000990335,0,0,0.36631285400390623,0,0,1.2994800000000002
1.9132795899931807,0,0,-1.714248388671875,0,0,6.6502799999999995
1.9163966229825746,0,0,4.472368701171875,0,0,2.52252
1.9195133979956154,0,0,1.8435352783203125,0,0,2.75184
1.9226277459820267,0,0,-1.936909143066406,0,0,-2.2931999999999997
1.92574537199107,0,0,1.3263877197265623,0,0,2.14032
1.9288624609762337,0,0,0.5698199951171875,0,0,0.53508
1.9320081239857245,0,0,-0.7805097412109374,0,0,20
1.9351584349933546,0,0,2.6192566162109374,0,0,0.68796
1.9382702829898335,0,0,1.8124106567382812,0,0,0.68796
1.9413855939928908,0,0,-0.9600748657226562,0,0,-1.07016
1.9445039429992903,0,0,0.842758984375,0,0,-9.784320000000001
1.9476212169975042,0,0,1.1875240234375,0,0,0.7644
1.9507362879812717,0,0,0.2346317626953125,0,0,0.7644
1.9538503949879669,0,0,1.5035586425781249,0,0,0.99372
1.9569662439753301,0,0,0.9026140258789062,0,0,20
1.9600807589886244,0,0,1.180341418457031,0,0,-0.99372
1.9631966629822273,0,0,0.7541735229492187,0,0,0.91728
1.966314325982239,0,0,-0.076614453125,0,0,0.6115200000000001
1.9695252099772915,0,0,0.3112462158203125,0,0,1.37592
1.9727139089955017,0,0,1.8531120849609375,0,0,0.7644
1.9759382929769345,0,0,0.5315127685546874,0,0,-1.1465999999999998
1.9790658269776031,0,0,0.507570751953125,0,0,0.3822
1.9821758969919756,0,0,0.9600748657226562,0,0,-20
1.9858238129818346,0,0,0.12449848632812499,0,0,-0.22932
1.9889310500002466,0,0,1.9728221679687499,0,0,0.6115200000000001
1.992033212998649,0,0,0.5602431884765625,0,0,0.22932
1.9951427839987446,0,0,0.5410895751953124,0,0,20
1.9983275389822666,0,0,1.0271125122070313,0,0,0.3822
2.0014317389868665,0,0,0.6847416748046875,0,0,20
2.0046375679958146,0,0,0.06703764648437499,0,0,0.68796
2.0077641759999096,0,0,1.2761094848632812,0,0,0.68796
2.010864430980291,0,0,0.45968671875,0,0,0.22932
2.013964723999379,0,0,1.0845733520507812,0,0,0.0
2.017098498996347,0,0,0.7685387329101562,0,0,0.0
2.0202173839788884,0,0,1.0582371337890624,0,0,0.15288000000000002
2.0233378799748607,0,0,0.2920926025390625,0,0,0.0
2.026466098992387,0,0,0.469263525390625,0,0,0.6115200000000001
2.0295820769970305,0,0,1.2832920898437499,0,0,0.91728
2.032739702000981,0,0,-0.0526724365234375,0,0,20
2.035867642989615,0,0,1.4317325927734375,0,0,0.45864
2.03898769497755,0,0,1.0510545288085937,0,0,0.07644000000000001
2.0421049509895965,0,0,-0.11731588134765625,0,0,-20
2.045227280992549,0,0,1.2617442749023438,0,0,0.6115200000000001
2.051126815000316,0,0,0.277727392578125,0,0,0.22932
2.0543326989864,0,0,1.2521674682617188,0,0,0.22932
2.0575670279795304,0,0,1.2378022583007813,0,0,0.3822
2.0607243760023266,0,0,0.59376201171875,0,0,0.0
2.063846075994661,0,0,0.469263525390625,0,0,0.0
2.0669635539816227,0,0,1.656787548828125,0,0,0.53508
2.070079179975437,0,0,0.584185205078125,0,0,0.7644
2.0731951579800807,0,0,1.1851298217773436,0,0,0.53508
2.076308635994792,0,0,1.4245499877929686,0,0,1.2994800000000002
2.079425835981965,0,0,0.814028564453125,0,0,0.68796
2.0825631469779182,0,0,1.6711527587890624,0,0,0.45864
2.0857784199761227,0,0,1.0917559570312498,0,0,0.45864
2.0888214540027548,0,0,1.2928688964843749,0,0,0.7644
2.0916520659811795,0,0,1.369483349609375,0,0,1.07016
2.094448306976119,0,0,1.1707646118164061,0,0,0.3822
2.097245122975437,0,0,1.4053963745117186,0,0,0.53508
2.1000415859743953,0,0,1.3742717529296875,0,0,1.07016
2.1028414570027962,0,0,0.9648632690429687,0,0,-0.6115200000000001
2.1056394759798422,0,0,1.2713210815429687,0,0,0.6115200000000001
2.1084434959921055,0,0,1.6112977172851561,0,0,0.91728
2.1112848469929304,0,0,1.0941501586914062,0,0,1.83456
2.114067385002272,0,0,1.3359645263671873,0,0,1.1465999999999998
2.116922588989837,0,0,1.446097802734375,0,0,0.53508
2.119804050977109,0,0,1.2713210815429687,0,0,0.91728
2.122767438995652,0,0,1.1372457885742187,0,0,0.45864
2.125645252992399,0,0,1.3263877197265623,0,0,0.45864
2.12857777098543,0,0,1.16837041015625,0,0,-9.01992
2.1315068069961853,0,0,1.1061211669921875,0,0,0.91728
2.134381805983139,0,0,1.2234370483398436,0,0,0.6115200000000001
2.1373006200010423,0,0,1.24498486328125,0,0,0.53508
2.1401698239787947,0,0,1.5562310791015623,0,0,0.99372
2.143056600994896,0,0,1.158793603515625,0,0,0.0
2.145953767001629,0,0,1.189918225097656,0,0,0.84084
2.148844488983741,0,0,1.3742717529296875,0,0,0.53508
2.15184944900102,0,0,1.3096283081054687,0,0,0.84084
2.154719430982368,0,0,1.3551181396484375,0,0,0.15288000000000002
2.157501765002962,0,0,1.43652099609375,0,0,0.84084
2.1602791729965247,0,0,1.419761584472656,0,0,0.91728
2.1630578589974903,0,0,1.0965443603515623,0,0,0.07644000000000001
2.1658297489921097,0,0,1.3096283081054687,0,0,0.53508
2.1686513609893154,0,0,1.2641384765625,0,0,0.99372
2.171427879977273,0,0,1.1923124267578125,0,0,0.68796
2.174200380977709,0,0,1.197100830078125,0,0,0.68796
2.176973862980958,0,0,1.3742717529296875,0,0,0.6115200000000001
2.179772196977865,0,0,1.2880804931640624,0,0,0.53508
2.1825839020020794,0,0,1.3263877197265623,0,0,0.84084
2.1853973459801637,0,0,1.3766659545898436,0,0,0.99372
2.188191161985742,0,0,1.3814543579101561,0,0,0.84084
2.1908317019988317,0,0,1.199495031738281,0,0,0.68796
2.1933529649977572,0,0,1.180341418457031,0,0,0.0
2.1958750060002785,0,0,1.5227122558593749,0,0,0.53508
2.1984007699938957,0,0,1.6304513305664061,0,0,0.6115200000000001
2.2009229219984263,0,0,1.16837041015625,0,0,0.30576000000000003
2.203444592974847,0,0,1.1252747802734375,0,0,0.6115200000000001
2.2070549719792325,0,0,1.426944189453125,0,0,1.07016
2.209581328002969,0,0,1.3144167114257812,0,0,0.6115200000000001
2.212104794976767,0,0,1.189918225097656,0,0,0.91728
2.214648113993462,0,0,1.455674609375,0,0,0.6115200000000001
2.2171729329857044,0,0,1.3024457031249999,0,0,0.99372
2.2201229499769397,0,0,1.4796166259765624,0,0,0.99372
2.2226838239876088,0,0,1.2282254516601563,0,0,1.2230400000000001
2.225313308998011,0,0,1.2521674682617188,0,0,0.53508
2.227874719974352,0,0,1.6136919189453125,0,0,0.91728
2.2304095569998026,0,0,1.39821376953125,0,0,0.99372
2.2329515609890223,0,0,1.16837041015625,0,0,1.1465999999999998
2.2355387499846984,0,0,1.20667763671875,0,0,0.99372
2.2380743459798396,0,0,1.6112977172851561,0,0,0.68796
2.2406112579919863,0,0,1.1731588134765625,0,0,0.6115200000000001
2.243147853994742,0,0,1.1228805786132812,0,0,0.45864
2.24568252498284,0,0,1.2569558715820313,0,0,0.7644
2.248208473989507,0,0,1.5514426757812498,0,0,0.6115200000000001
2.25078112600022,0,0,1.0917559570312498,0,0,0.7644
2.253316073998576,0,0,1.2042834350585936,0,0,0.15288000000000002
2.2558511339884717,0,0,1.47482822265625,0,0,0.7644
2.2583850079972763,0,0,1.2521674682617188,0,0,0.99372
2.260950233991025,0,0,1.0917559570312498,0,0,0.3822
2.2635247009748127,0,0,1.1875240234375,0,0,0.22932
2.266058611974586,0,0,1.3168109130859373,0,0,0.3822
2.268592448992422,0,0,1.2282254516601563,0,0,1.2230400000000001
2.2711280649818946,0,0,1.1635820068359375,0,0,0.53508
2.2737184569996316,0,0,1.180341418457031,0,0,0.3822
2.276258441997925,0,0,1.2641384765625,0,0,0.45864
2.278795853984775,0,0,1.0917559570312498,0,0,1.2230400000000001
2.281329042976722,0,0,1.177947216796875,0,0,0.45864
2.2838560469972435,0,0,1.235408056640625,0,0,0.91728
2.2863740509783383,0,0,1.3144167114257812,0,0,0.30576000000000003
2.2889181669743266,0,0,1.2330138549804688,0,0,0.84084
2.291709222976351,0,0,1.3239935180664062,0,0,0.91728
2.294498537987238,0,0,1.2497732666015624,0,0,0.84084
2.297290816990426,0,0,1.3168109130859373,0,0,0.45864
2.30006978099118,0,0,1.4413093994140624,0,0,1.2994800000000002
2.3028553189942613,0,0,1.3263877197265623,0,0,0.7644
2.3056462819804437,0,0,1.2880804931640624,0,0,0.84084
2.3084353389858734,0,0,1.1851298217773436,0,0,0.91728
2.3112265059899073,0,0,1.2473790649414063,0,0,0.53508
2.3140120070020203,0,0,1.1156979736328125,0,0,0.84084
2.3168004890030716,0,0,1.3168109130859373,0,0,1.07016
2.3195904530002736,0,0,1.2497732666015624,0,0,0.6115200000000001
2.3223775649967138,0,0,1.2689268798828124,0,0,1.2230400000000001
2.325165305985138,0,0,1.3431471313476562,0,0,1.07016
2.32795415900182,0,0,1.5538368774414062,0,0,0.53508
2.330825361976167,0,0,1.1851298217773436,0,0,0.7644
2.3336133449920453,0,0,1.0845733520507812,0,0,0.53508
2.336400826985482,0,0,1.2952630981445312,0,0,0.68796
2.339190882979892,0,0,1.3096283081054687,0,0,0.53508
2.341975827992428,0,0,1.149216796875,0,0,0.99372
2.344763550994685,0,0,1.2737152832031249,0,0,0.84084
2.347747937979875,0,0,1.6304513305664061,0,0,0.30576000000000003
2.350555512995925,0,0,1.1109095703125,0,0,1.07016
2.353355846978957,0,0,1.197100830078125,0,0,0.15288000000000002
2.356155013985699,0,0,1.3718775512695311,0,0,0.68796
2.3589552929915953,0,0,1.2928688964843749,0,0,0.84084
2.361753274977673,0,0,1.1156979736328125,0,0,0.84084
2.364550942002097,0,0,1.2306196533203124,0,0,-9.32568
2.367350071988767,0,0,1.5897499023437498,0,0,0.6115200000000001
2.370190627989359,0,0,1.2306196533203124,0,0,1.07016
2.3729931289853994,0,0,1.3646949462890625,0,0,0.07644000000000001
2.3758125359890983,0,0,1.2952630981445312,0,0,0.68796
2.378612443979364,0,0,1.3479355346679687,0,0,1.07016
2.3814130190003198,0,0,1.2713210815429687,0,0,0.53508
2.3842197599879,0,0,1.235408056640625,0,0,1.07016
2.387018260982586,0,0,1.24498486328125,0,0,0.68796
2.389902834984241,0,0,1.235408056640625,0,0,0.30576000000000003
2.393017386988504,0,0,1.3742717529296875,0,0,0.15288000000000002
2.3961359759850893,0,0,1.1947066284179686,0,0,0.7644
2.3992526389774866,0,0,1.2904746948242187,0,0,0.68796
2.4023664690030273,0,0,1.2665326782226562,0,0,1.45236
2.405479651002679,0,0,1.3120225097656248,0,0,0.45864
2.408623405994149,0,0,1.2952630981445312,0,0,1.1465999999999998
2.411774809996132,0,0,1.350329736328125,0,0,1.1465999999999998
2.4148917319835164,0,0,1.2713210815429687,0,0,0.91728
2.4180069509893656,0,0,1.6639701538085936,0,0,0.91728
2.421122261992423,0,0,1.2473790649414063,0,0,0.53508
2.4242371289874427,0,0,1.2737152832031249,0,0,0.6115200000000001
2.4273977169941645,0,0,1.6543933471679686,0,0,0.53508
2.4305532129947096,0,0,1.1252747802734375,0,0,0.45864
2.433673302992247,0,0,1.2330138549804688,0,0,1.45236
2.4367899099888746,0,0,1.3383587280273437,0,0,0.53508
2.4399064619792625,0,0,1.3455413330078123,0,0,1.1465999999999998
2.4430513469851576,0,0,1.3383587280273437,0,0,0.0
2.4461645289848093,0,0,1.3263877197265623,0,0,0.53508
2.4493218949937727,0,0,1.3551181396484375,0,0,0.6115200000000001
2.4524406509881373,0,0,1.1731588134765625,0,0,1.07016
2.455558554996969,0,0,1.2785036865234374,0,0,0.22932
2.4586737179779448,0,0,1.3575123413085937,0,0,0.6115200000000001
2.461787826003274,0,0,1.0989385620117187,0,0,0.91728
2.464905432978412,0,0,1.3311761230468748,0,0,0.6115200000000001
2.469967144978,0,0,1.3024457031249999,0,0,0.7644
2.473158715001773,0,0,1.1516109985351561,0,0,0.30576000000000003
2.476283229974797,0,0,1.2378022583007813,0,0,0.84084
2.4794015410006978,0,0,1.2976572998046874,0,0,1.1465999999999998
2.4825656850007363,0,0,1.189918225097656,0,0,-8.867040000000001
2.4856876999838278,0,0,1.2808978881835937,0,0,0.53508
2.488803566986462,0,0,1.3239935180664062,0,0,0.68796
2.491927397000836,0,0,1.1324573852539062,0,0,0.68796
2.4950432449986693,0,0,1.2808978881835937,0,0,0.91728
2.4981610009854194,0,0,1.4915876342773438,0,0,0.84084
2.5012757380027324,0,0,1.209071838378906,0,0,0.68796
2.5043872160022147,0,0,1.438915197753906,0,0,0.68796
2.5075686189811677,0,0,1.4939818359375,0,0,0.6115200000000001
2.5107230409921613,0,0,1.2425906616210938,0,0,0.6115200000000001
2.5138547039823607,0,0,1.1516109985351561,0,0,0.84084
2.5169684790016618,0,0,1.3024457031249999,0,0,0.68796
2.520099733985262,0,0,1.2689268798828124,0,0,0.91728
2.5232196009892505,0,0,1.1707646118164061,0,0,0.6115200000000001
2.526333708985476,0,0,1.2713210815429687,0,0,0.68796
2.5294480939919595,0,0,1.2378022583007813,0,0,0.91728
2.5325629049912095,0,0,1.2808978881835937,0,0,0.84084
2.535677253996255,0,0,1.3168109130859373,0,0,0.7644
2.538831730984384,0,0,1.4245499877929686,0,0,0.45864
2.5419752829766367,0,0,1.1827356201171875,0,0,0.91728
2.5450931309896987,0,0,1.2306196533203124,0,0,0.84084
2.548206923995167,0,0,1.3024457031249999,0,0,0.99372
2.5513232539815363,0,0,1.1659762084960936,0,0,0.53508
2.5544376210018527,0,0,1.3575123413085937,0,0,0.84084
2.557550931989681,0,0,1.6519991455078125,0,0,0.68796
2.5606678549956996,0,0,1.2473790649414063,0,0,0.53508
2.563782443990931,0,0,1.3646949462890625,0,0,0.22932
2.567310323996935,0,0,1.6472107421875,0,0,0.68796
2.5704304309911095,0,0,1.235408056640625,0,0,0.84084
2.573549334978452,0,0,1.209071838378906,0,0,1.1465999999999998
2.5766674609913025,0,0,1.2665326782226562,0,0,0.7644
2.5797835879784543,0,0,1.2401964599609374,0,0,1.07016
2.5829008619766682,0,0,1.2832920898437499,0,0,0.15288000000000002
2.586019783979282,0,0,1.2665326782226562,0,0,0.84084
2.58913516998291,0,0,1.2713210815429687,0,0,0.68796
2.5922485739865806,0,0,1.3766659545898436,0,0,1.1465999999999998
2.5953630699950736,0,0,1.2904746948242187,0,0,0.3822
2.598479973996291,0,0,1.2665326782226562,0,0,0.91728
2.601593970990507,0,0,1.1180921752929687,0,0,0.53508
2.604706170997815,0,0,1.2952630981445312,0,0,0.7644
2.6079297219985165,0,0,1.5825672973632812,0,0,0.7644
2.6110486809920985,0,0,1.0821791503906248,0,0,0.45864
2.6141645849857014,0,0,1.2761094848632812,0,0,0.53508
2.6172809150011744,0,0,1.599326708984375,0,0,0.68796
2.6203949479968287,0,0,1.3527239379882812,0,0,0.53508
2.6235114999872167,0,0,1.139639990234375,0,0,1.2230400000000001
2.626624626980629,0,0,1.2856862915039062,0,0,0.91728
2.6297390679828823,0,0,1.2737152832031249,0,0,1.1465999999999998
2.6328543599811383,0,0,1.3120225097656248,0,0,0.0
2.6359704489877913,0,0,1.2473790649414063,0,0,0.53508
2.6391131679993123,0,0,1.3383587280273437,0,0,0.6115200000000001
2.6422411639941856,0,0,1.1611878051757811,0,0,0.91728
2.6453553269966505,0,0,1.24498486328125,0,0,0.68796
2.6486564879887737,0,0,1.448492004394531,0,0,1.1465999999999998
2.6517736699897796,0,0,1.1947066284179686,0,0,1.07016
2.6548906289972365,0,0,1.3646949462890625,0,0,0.6115200000000001
2.658003384975018,0,0,1.4915876342773438,0,0,0.91728
2.661117788986303,0,0,1.1635820068359375,0,0,0.68796
2.66423291497631,0,0,1.2880804931640624,0,0,0.30576000000000003
2.6673503009951673,0,0,1.6232687255859375,0,0,0.53508
2.6704632969922386,0,0,1.4796166259765624,0,0,0.53508
2.673578589980025,0,0,1.0917559570312498,0,0,1.1465999999999998
2.6766971979814116,0,0,1.2282254516601563,0,0,0.45864
2.6798118419828825,0,0,1.2737152832031249,0,0,1.1465999999999998
2.682928191003157,0,0,1.20667763671875,0,0,0.0
2.6860403349855915,0,0,1.3455413330078123,0,0,1.1465999999999998
2.6891904060030356,0,0,1.3407529296874998,0,0,0.68796
2.6923053649952635,0,0,1.2521674682617188,0,0,0.68796
2.695421879994683,0,0,1.2593500732421874,0,0,0.45864
2.698563172976719,0,0,1.3934253662109375,0,0,0.91728
2.701680594997015,0,0,1.16837041015625,0,0,1.1465999999999998
2.704792591976002,0,0,1.2737152832031249,0,0,0.84084
2.7079342539946083,0,0,1.2401964599609374,0,0,1.07016
2.711052714003017,0,0,1.1420341918945311,0,0,0.6115200000000001
2.7141666550014634,0,0,1.2976572998046874,0,0,0.45864
2.717277206975268,0,0,1.388636962890625,0,0,0.7644
2.7223808440030552,0,0,1.22583125,0,0,0.45864
2.725518284976715,0,0,1.350329736328125,0,0,0.53508
2.7286539479973726,0,0,1.5275006591796874,0,0,0.7644
2.731774758984102,0,0,1.2521674682617188,0,0,1.5288
2.734895478002727,0,0,1.2425906616210938,0,0,0.91728
2.7380131219979376,0,0,1.3287819213867187,0,0,1.2230400000000001
2.7411619889899157,0,0,1.1133037719726562,0,0,0.91728
2.7442807629995514,0,0,1.3646949462890625,0,0,0.22932
2.7473992599989288,0,0,1.6400281372070311,0,0,0.68796
2.7505470709875226,0,0,1.2569558715820313,0,0,0.6115200000000001
2.753670029982459,0,0,1.1851298217773436,0,0,1.1465999999999998
2.756789933977416,0,0,1.5610194824218748,0,0,0.6115200000000001
2.75990874497802,0,0,1.2641384765625,0,0,0.84084
2.763027315988438,0,0,1.3239935180664062,0,0,0.6115200000000001
2.766151515999809,0,0,1.189918225097656,0,0,0.84084
2.7692689379910007,0,0,1.2330138549804688,0,0,0.53508
2.7723977679852396,0,0,1.2880804931640624,0,0,0.07644000000000001
2.7755131529993378,0,0,1.2378022583007813,0,0,0.53508
2.7786512049788143,0,0,1.4820108276367188,0,0,0.30576000000000003
2.7817700159794185,0,0,1.2617442749023438,0,0,1.1465999999999998
2.7848954939981923,0,0,1.3407529296874998,0,0,0.68796
2.7880483419867232,0,0,1.4317325927734375,0,0,0.84084
2.7911595049954485,0,0,1.1180921752929687,0,0,1.07016
2.794255353976041,0,0,1.209071838378906,0,0,0.45864
2.7973793689743616,0,0,1.4317325927734375,0,0,0.84084
2.8005219389742706,0,0,1.2976572998046874,0,0,0.6115200000000001
2.8036797499808017,0,0,1.2521674682617188,0,0,1.2230400000000001
2.806801579979947,0,0,1.5035586425781249,0,0,0.84084
2.8098965949902777,0,0,1.2880804931640624,0,0,0.84084
2.8130168689822312,0,0,1.3575123413085937,0,0,0.30576000000000003
2.8161245139781386,0,0,1.2808978881835937,0,0,0.91728
2.819236028997693,0,0,1.189918225097656,0,0,0.53508
2.82235598898842,0,0,1.3096283081054687,0,0,0.0
2.8254736889794003,0,0,1.3742717529296875,0,0,0.3822
2.8285912409774028,0,0,1.458068811035156,0,0,0.30576000000000003
2.8317123479791917,0,0,1.2904746948242187,0,0,1.2994800000000002
2.834831307991408,0,0,1.2808978881835937,0,0,0.7644
2.83795634098351,0,0,1.4149731811523436,0,0,0.91728
2.8411029859853443,0,0,1.0989385620117187,0,0,0.68796
2.844219833990792,0,0,1.3359645263671873,0,0,0.3822
2.8473401269875467,0,0,1.39821376953125,0,0,0.68796
2.850455678999424,0,0,1.3407529296874998,0,0,0.53508
2.853573341999436,0,0,1.1061211669921875,0,0,1.07016
2.856717837974429,0,0,1.5394716674804687,0,0,0.91728
2.859835093986476,0,0,1.3287819213867187,0,0,0.91728
2.8629529979953077,0,0,1.13006318359375,0,0,0.30576000000000003
2.866067901981296,0,0,1.2808978881835937,0,0,0.91728
2.869184565002797,0,0,1.1109095703125,0,0,0.68796
2.8723004689964,0,0,1.2425906616210938,0,0,0.45864
2.875418131996412,0,0,1.3383587280273437,0,0,0.68796
2.878558701981092,0,0,1.2880804931640624,0,0,0.6115200000000001
2.8816783649963327,0,0,1.2952630981445312,0,0,0.84084
2.884795250982279,0,0,1.458068811035156,0,0,20
2.8879125059756916,0,0,1.2976572998046874,0,0,1.07016
2.891030446975492,0,0,1.1276689819335937,0,0,0.99372
2.8943897369899787,0,0,1.4245499877929686,0,0,0.6115200000000001
2.8975136779772583,0,0,1.467645617675781,0,0,0.99372
2.9006300259788986,0,0,1.3551181396484375,0,0,0.68796
2.903769670985639,0,0,1.3718775512695311,0,0,0.53508
2.9068899629928637,0,0,1.6304513305664061,0,0,0.84084
2.9100060889904853,0,0,1.2808978881835937,0,0,0.6115200000000001
2.9131236969842575,0,0,1.139639990234375,0,0,1.2994800000000002
2.9162479339865968,0,0,1.3192051147460937,0,0,0.68796
2.919374300981872,0,0,1.209071838378906,0,0,0.91728
2.922488074982539,0,0,1.3239935180664062,0,0,20
2.925588997983141,0,0,1.3551181396484375,0,0,0.6115200000000001
2.928715864982223,0,0,1.3383587280273437,0,0,0.3822
2.931831064983271,0,0,1.3263877197265623,0,0,0.68796
2.934945560991764,0,0,1.3718775512695311,0,0,0.91728
2.93813431597664,0,0,1.3934253662109375,0,0,0.91728
2.9412523309874814,0,0,1.0821791503906248,0,0,1.07016
2.944368123979075,0,0,1.3000515014648437,0,0,1.1465999999999998
2.947493157989811,0,0,1.3527239379882812,0,0,1.07016
2.9506091729854234,0,0,1.197100830078125,0,0,0.68796
2.953724188002525,0,0,1.3287819213867187,0,0,0.53508
2.956882739003049,0,0,1.458068811035156,0,0,0.3822
2.9600025129911955,0,0,1.3311761230468748,0,0,0.7644
2.963123231980717,0,0,1.180341418457031,0,0,0.99372
2.966236616979586,0,0,1.209071838378906,0,0,0.68796
2.9693641689955257,0,0,1.1061211669921875,0,0,0.84084
2.972910659998888,0,0,1.22583125,0,0,0.91728
2.97604984199279,0,0,1.1037269653320312,0,0,0.68796
2.9791726709809154,0,0,1.2976572998046874,0,0,0.6115200000000001
2.982291185995564,0,0,1.2401964599609374,0,0,0.0
2.985416682990035,0,0,1.3742717529296875,0,0,0.91728
2.9885758829768747,0,0,1.1947066284179686,0,0,0.15288000000000002
2.991695656994125,0,0,1.3024457031249999,0,0,1.2230400000000001
2.9948063009942416,0,0,1.4915876342773438,0,0,0.30576000000000003
2.997908538993215,0,0,1.467645617675781,0,0,0.84084
3.004024458990898,0,0,1.2713210815429687,0,0,0.22932
3.007175473991083,0,0,1.6065093139648436,0,0,0.84084
3.0102954329922795,0,0,1.369483349609375,0,0,0.91728
3.0134121339942794,0,0,1.2665326782226562,0,0,0.7644
3.0165284449758474,0,0,1.678335363769531,0,0,0.6115200000000001
3.0196467009955086,0,0,1.2569558715820313,0,0,0.99372
3.0227983449876774,0,0,1.1252747802734375,0,0,0.91728
3.0259130819758866,0,0,1.3383587280273437,0,0,0.53508
3.029071651981212,0,0,1.3383587280273437,0,0,0.84084
3.0321878339746036,0,0,1.235408056640625,0,0,0.0
3.035303885990288,0,0,1.2569558715820313,0,0,0.7644
3.0384157529915683,0,0,1.2401964599609374,0,0,0.6115200000000001
3.04161165599362,0,0,1.3192051147460937,0,0,1.1465999999999998
3.0447260969958734,0,0,1.2856862915039062,0,0,0.6115200000000001
3.0478770189802162,0,0,1.2785036865234374,0,0,0.68796
3.0511963089811616,0,0,1.1156979736328125,0,0,1.1465999999999998
3.0543967859994154,0,0,1.4173673828125,0,0,0.84084
3.057570447999751,0,0,1.2808978881835937,0,0,1.37592
3.0607272399938665,0,0,1.2234370483398436,0,0,0.7644
3.0638431629922707,0,0,1.2808978881835937,0,0,0.84084
3.0669586959993467,0,0,1.6448165405273436,0,0,0.68796
3.070073340990348,0,0,1.3766659545898436,0,0,0.6115200000000001
3.073188485985156,0,0,1.189918225097656,0,0,0.91728
3.0763037229771726,0,0,1.2593500732421874,0,0,0.68796
3.0794244229909964,0,0,1.1659762084960936,0,0,0.68796
3.0825687710021157,0,0,1.3311761230468748,0,0,0.53508
3.0856856939790305,0,0,1.2378022583007813,0,0,0.84084
3.088901873998111,0,0,1.1923124267578125,0,0,1.2230400000000001
3.0919484829937574,0,0,1.3407529296874998,0,0,1.2994800000000002
3.094770908995997,0,0,1.3646949462890625,0,0,0.6115200000000001
3.0975674649816938,0,0,1.3383587280273437,0,0,0.91728
3.1003638729744125,0,0,1.2042834350585936,0,0,0.84084
3.103161632985575,0,0,1.1563994018554686,0,0,1.1465999999999998
3.105953040998429,0,0,1.2761094848632812,0,0,1.2230400000000001
3.1087787080032285,0,0,1.2378022583007813,0,0,0.68796
3.1115893379901536,0,0,1.350329736328125,0,0,1.37592
3.1143863390025217,0,0,1.3551181396484375,0,0,0.84084
3.117183339985786,0,0,1.6352397338867186,0,0,0.84084
3.1199799699825235,0,0,1.3383587280273437,0,0,0.45864
3.1227840450010262,0,0,1.2976572998046874,0,0,0.68796
3.125578396982746,0,0,1.24498486328125,0,0,0.91728
3.1283748239802662,0,0,1.2042834350585936,0,0,0.6115200000000001
3.1311727319844067,0,0,1.0965443603515623,0,0,0.91728
3.133995509997476,0,0,1.2689268798828124,0,0,0.45864
3.1367937329923734,0,0,1.5514426757812498,0,0,0.3822
3.139595640997868,0,0,1.1827356201171875,0,0,0.84084
3.142390622990206,0,0,1.3239935180664062,0,0,0.0
3.1451967530010734,0,0,1.3048399047851562,0,0,0.0
3.147992846003035,0,0,1.4149731811523436,0,0,0.99372
3.1507899579883087,0,0,1.218648645019531,0,0,0.91728
3.153584717976628,0,0,1.3479355346679687,0,0,0.68796
3.1563811819942202,0,0,1.5825672973632812,0,0,0.53508
3.1591773119871505,0,0,1.3072341064453123,0,0,0.91728
3.1619874049792998,0,0,1.2425906616210938,0,0,0.30576000000000003
3.1647841279918794,0,0,1.39821376953125,0,0,0.30576000000000003
3.1675807949795853,0,0,1.3335703247070312,0,0,1.07016
3.170375517976936,0,0,1.2114660400390624,0,0,0.91728
3.173171166999964,0,0,1.3048399047851562,0,0,0.68796
3.1759665749850683,0,0,1.3766659545898436,0,0,0.84084
3.1787650199839845,0,0,1.3958195678710936,0,0,0.84084
3.181560279976111,0,0,1.3024457031249999,0,0,1.07016
3.184359521983424,0,0,1.3623007446289062,0,0,0.68796
3.1871599849837366,0,0,1.6711527587890624,0,0,0.91728
3.190031984995585,0,0,1.2713210815429687,0,0,0.45864
3.193007593974471,0,0,1.1851298217773436,0,0,0.3822
3.196125682996353,0,0,1.2114660400390624,0,0,0.84084
3.1992432349943556,0,0,1.1180921752929687,0,0,0.53508
3.2023576209903695,0,0,1.1133037719726562,0,0,0.99372
3.205467283987673,0,0,1.3239935180664062,0,0,0.99372
3.208612150978297,0,0,1.369483349609375,0,0,1.07016
3.2117573129944503,0,0,1.1635820068359375,0,0,0.0
3.2148718839744106,0,0,1.3383587280273437,0,0,1.07016
3.217986324976664,0,0,1.2761094848632812,0,0,0.7644
3.2228989089780953,0,0,1.180341418457031,0,0,0.84084
3.226050534984097,0,0,1.2713210815429687,0,0,0.84084
3.229202382994117,0,0,1.1324573852539062,0,0,0.84084
3.232320768001955,0,0,1.1180921752929687,0,0,0.99372
3.2354369499953464,0,0,1.3311761230468748,0,0,0.53508
3.238584501988953,0,0,1.4724340209960938,0,0,0.91728
3.2417031829827465,0,0,1.3407529296874998,0,0,0.07644000000000001
3.24481810600264,0,0,1.2689268798828124,0,0,0.7644
3.247979193984065,0,0,1.2497732666015624,0,0,0.45864
3.2510982279782183,0,0,1.1923124267578125,0,0,1.60524
3.254209890990751,0,0,1.369483349609375,0,0,0.30576000000000003
3.257325738988584,0,0,1.2689268798828124,0,0,1.1465999999999998
3.2604394769878127,0,0,1.1037269653320312,0,0,0.84084
3.26355632499326,0,0,1.2976572998046874,0,0,0.53508
3.266710672993213,0,0,1.5442600708007812,0,0,0.99372
3.2698245029896498,0,0,1.189918225097656,0,0,0.68796
3.272938683978282,0,0,1.199495031738281,0,0,0.45864
3.276051902998006,0,0,1.3551181396484375,0,0,0.53508
3.279165751999244,0,0,1.2138602416992186,0,0,0.53508
3.2822781189752277,0,0,1.158793603515625,0,0,0.99372
3.2853916519961786,0,0,1.4867992309570313,0,0,0.91728
3.288505926000653,0,0,1.2617442749023438,0,0,1.07016
3.2916814779746346,0,0,1.218648645019531,0,0,0.15288000000000002
3.2948809919762425,0,0,1.2569558715820313,0,0,0.91728
3.297994969994761,0,0,1.3575123413085937,0,0,1.07016
3.301110428990796,0,0,1.2425906616210938,0,0,-9.09636
3.304223851999268,0,0,1.2234370483398436,0,0,0.53508
3.3073642919771373,0,0,1.3144167114257812,0,0,0.99372
3.3104803070018534,0,0,1.0821791503906248,0,0,1.1465999999999998
3.3135936559992842,0,0,1.467645617675781,0,0,0.84084
3.3167086339963134,0,0,1.6543933471679686,0,0,1.2230400000000001
3.319822296994971,0,0,1.209071838378906,0,0,0.84084
3.322936515993206,0,0,1.3000515014648437,0,0,-9.555
3.326066401001299,0,0,1.618480322265625,0,0,0.68796
3.3292181009892374,0,0,1.0869675537109373,0,0,0.22932
3.3323343569936696,0,0,1.177947216796875,0,0,1.2230400000000001
3.3354495379899163,0,0,1.458068811035156,0,0,0.6115200000000001
3.338563441997394,0,0,1.37906015625,0,0,1.07016
3.341676345997257,0,0,1.1037269653320312,0,0,0.07644000000000001
3.3447907129884697,0,0,1.24498486328125,0,0,0.84084
3.3479042279941496,0,0,1.3192051147460937,0,0,0.7644
3.35101768799359,0,0,1.2138602416992186,0,0,0.6115200000000001
3.354217960993992,0,0,1.2306196533203124,0,0,0.53508
3.3573392539983615,0,0,1.0917559570312498,0,0,0.68796
3.3604533239849843,0,0,1.1037269653320312,0,0,1.5288
3.363570246991003,0,0,1.4053963745117186,0,0,1.07016
3.366684095002711,0,0,1.4173673828125,0,0,1.2230400000000001
3.3697978139971383,0,0,1.1731588134765625,0,0,0.99372
3.372911235986976,0,0,1.1013327636718748,0,0,0.7644
3.376024584984407,0,0,1.5849614990234373,0,0,0.84084
3.3791399329784326,0,0,1.0319009155273438,0,0,0.53508
3.3822508369921707,0,0,1.2378022583007813,0,0,1.2230400000000001
3.3853684259811416,0,0,1.465251416015625,0,0,1.2994800000000002
3.3884817189828027,0,0,1.3455413330078123,0,0,0.6115200000000001
3.3916358260030393,0,0,1.139639990234375,0,0,0.53508
3.394749008002691,0,0,1.2641384765625,0,0,1.1465999999999998
3.3978675050020684,0,0,1.0989385620117187,0,0,1.07016
3.4009825379762333,0,0,1.1061211669921875,0,0,0.15288000000000002
3.40409390500281,0,0,1.3575123413085937,0,0,0.84084
3.4072361610014923,0,0,1.1516109985351561,0,0,0.45864
3.410353249986656,0,0,1.3239935180664062,0,0,0.99372
3.4134720979782287,0,0,1.24498486328125,0,0,0.6115200000000001
3.4165861129877158,0,0,1.5155296508789062,0,0,1.1465999999999998
3.4197009060007986,0,0,1.1252747802734375,0,0,0.99372
3.4228565319790505,0,0,1.3718775512695311,0,0,0.91728
3.4259834719996434,0,0,1.4891934326171874,0,0,0.68796
3.429106209980091,0,0,1.1324573852539062,0,0,0.68796
3.4322228730015922,0,0,1.3024457031249999,0,0,1.07016
3.4353397770028096,0,0,1.3934253662109375,0,0,0.84084
3.4384517549769953,0,0,1.4053963745117186,0,0,0.6115200000000001
3.441565585002536,0,0,1.0917559570312498,0,0,0.53508
3.4447144699806813,0,0,1.3718775512695311,0,0,1.07016
3.4478272440028377,0,0,1.149216796875,0,0,1.60524
3.451164218975464,0,0,1.2234370483398436,0,0,0.0
3.4542905669950414,0,0,1.3048399047851562,0,0,0.99372
3.457407804991817,0,0,1.1276689819335937,0,0,0.45864
3.460523856978398,0,0,1.3359645263671873,0,0,0.91728
3.463639241992496,0,0,1.4149731811523436,0,0,0.53508
3.466759793984238,0,0,1.678335363769531,0,0,0.99372
3.4698692910023965,0,0,1.3455413330078123,0,0,0.15288000000000002
3.4741266059863847,0,0,1.2497732666015624,0,0,0.91728
3.4772493799973745,0,0,1.2330138549804688,0,0,0.68796
3.480369636003161,0,0,1.3527239379882812,0,0,1.2994800000000002
3.4834863359865267,0,0,1.4700398193359374,0,0,0.3822
3.48660666597425,0,0,1.5155296508789062,0,0,0.84084
3.4897279029828496,0,0,1.1252747802734375,0,0,1.1465999999999998
3.492875528987497,0,0,1.3958195678710936,0,0,0.84084
3.495989506976912,0,0,1.47482822265625,0,0,0.68796
3.499104558984982,0,0,1.1324573852539062,0,0,0.68796
3.5022168519790284,0,0,1.0845733520507812,0,0,0.3822
3.505327958991984,0,0,1.5322890624999999,0,0,0.91728
3.508475326001644,0,0,1.465251416015625,0,0,0.6115200000000001
3.511594415002037,0,0,1.0941501586914062,0,0,1.1465999999999998
3.51471026299987,0,0,1.16837041015625,0,0,0.6115200000000001
3.517842629982624,0,0,1.3623007446289062,0,0,0.99372
3.520955996995326,0,0,1.13006318359375,0,0,0.0
3.524103899981128,0,0,1.1947066284179686,0,0,0.91728
3.527221896976698,0,0,1.3215993164062498,0,0,0.7644
3.530333503993461,0,0,1.2713210815429687,0,0,0.84084
3.5334450569935143,0,0,1.3215993164062498,0,0,0.68796
3.5365590899891686,0,0,1.3910311645507811,0,0,1.07016
3.539672493992839,0,0,1.1923124267578125,0,0,0.68796
3.5428231379773933,0,0,1.4437036010742186,0,0,0.84084
3.5459375419886783,0,0,1.438915197753906,0,0,1.2230400000000001
3.5490915199916344,0,0,1.1947066284179686,0,0,0.91728
3.552209404995665,0,0,1.2282254516601563,0,0,0.07644000000000001
3.555351178976707,0,0,1.407790576171875,0,0,0.53508
3.558466378977755,0,0,1.3527239379882812,0,0,0.7644
3.561580542998854,0,0,1.1611878051757811,0,0,1.2230400000000001
3.564698612986831,0,0,1.6615759521484375,0,0,0.91728
3.5678125169943087,0,0,1.3144167114257812,0,0,0.7644
3.57092734699836,0,0,1.189918225097656,0,0,0.0
3.574038861988811,0,0,1.2737152832031249,0,0,1.07016
3.5771520249836612,0,0,1.2952630981445312,0,0,0.68796
3.580265836993931,0,0,1.3215993164062498,0,0,0.6115200000000001
3.583381221978925,0,0,1.2378022583007813,0,0,2.06388
3.5865021079953294,0,0,1.3215993164062498,0,0,0.91728
3.58965365900076,0,0,1.2138602416992186,0,0,0.99372
3.592803802981507,0,0,1.2473790649414063,0,0,0.91728
3.595919095998397,0,0,1.5083470458984374,0,0,1.1465999999999998
3.599035795981763,0,0,1.1228805786132812,0,0,0.7644
3.602148848993238,0,0,1.3479355346679687,0,0,0.30576000000000003
3.6052600299881306,0,0,1.4030021728515625,0,0,0.91728
3.608407248975709,0,0,1.2497732666015624,0,0,0.7644
3.611522781982785,0,0,1.0821791503906248,0,0,1.1465999999999998
3.6146655560005456,0,0,1.6711527587890624,0,0,0.6115200000000001
3.6177793859969825,0,0,1.369483349609375,0,0,0.53508
3.6208952899905853,0,0,1.1420341918945311,0,0,0.15288000000000002
3.624032248975709,0,0,1.35990654296875,0,0,0.6115200000000001
3.6271885789756197,0,0,1.254561669921875,0,0,0.91728
3.6302992229757365,0,0,1.1228805786132812,0,0,0.15288000000000002
3.6334188309847377,0,0,1.2976572998046874,0,0,0.7644
3.6365320869954303,0,0,1.2952630981445312,0,0,0.91728
3.6396450649772305,0,0,1.3407529296874998,0,0,0.91728
3.6427926899923477,0,0,1.2306196533203124,0,0,0.68796
3.6459063719958067,0,0,1.3479355346679687,0,0,1.37592
3.6490210539777763,0,0,1.0845733520507812,0,0,0.84084
3.6521350689872634,0,0,1.2832920898437499,0,0,0.99372
3.6552511579939164,0,0,1.5346832641601562,0,0,0.91728
3.6583626359933987,0,0,1.3335703247070312,0,0,0.68796
3.6614761509990785,0,0,1.2401964599609374,0,0,1.1465999999999998
3.6645880739961285,0,0,1.6615759521484375,0,0,0.68796
3.667702348000603,0,0,1.1324573852539062,0,0,0.84084
3.6708161779970396,0,0,1.0869675537109373,0,0,0.6115200000000001
3.6739278599852696,0,0,1.350329736328125,0,0,0.7644
3.677041559974896,0,0,1.2497732666015624,0,0,0.91728
3.6801542789908126,0,0,1.3192051147460937,0,0,0.07644000000000001
3.68326934898505,0,0,1.429338391113281,0,0,0.99372
3.686402363993693,0,0,1.3431471313476562,0,0,0.3822
3.689517138991505,0,0,1.2976572998046874,0,0,1.45236
3.692659560998436,0,0,1.3239935180664062,0,0,1.07016
3.695774130988866,0,0,1.35990654296875,0,0,1.07016
3.698888127983082,0,0,0.9265560424804687,0,0,0.7644
3.702000049990602,0,0,1.3479355346679687,0,0,0.3822
3.705109435977647,0,0,1.6424223388671875,0,0,0.68796
3.708250875992235,0,0,1.2641384765625,0,0,0.15288000000000002
3.7113671689876355,0,0,1.0749965454101562,0,0,0.30576000000000003
3.71447874000296,0,0,1.5945383056640625,0,0,0.84084
3.717593717999989,0,0,1.1516109985351561,0,0,0.6115200000000001
3.7207203619764186,0,0,1.3048399047851562,0,0,0.30576000000000003
3.7262018649780657,0,0,1.3527239379882812,0,0,0.6115200000000001
3.7293286209751386,0,0,1.3192051147460937,0,0,0.91728
3.73244841399719,0,0,1.4891934326171874,0,0,0.7644
3.7355677059968,0,0,1.3168109130859373,0,0,0.68796
3.738702017988544,0,0,1.1635820068359375,0,0,0.6115200000000001
3.741820661991369,0,0,1.3359645263671873,0,0,0.6115200000000001
3.7449371959955897,0,0,1.675941162109375,0,0,0.91728
3.748053877003258,0,0,1.2952630981445312,0,0,0.6115200000000001
3.7511715779837687,0,0,1.2330138549804688,0,0,0.53508
3.7542867960000876,0,0,1.2737152832031249,0,0,0.91728
3.7574053299904335,0,0,1.4149731811523436,0,0,0.45864
3.7605206969892606,0,0,1.1947066284179686,0,0,0.99372
3.763638637989061,0,0,1.2282254516601563,0,0,0.91728
3.766755670978455,0,0,1.2928688964843749,0,0,1.37592
3.7698736489983276,0,0,1.16837041015625,0,0,20
3.772992145997705,0,0,1.2569558715820313,0,0,0.68796
3.7761092349828687,0,0,1.3048399047851562,0,0,0.53508
3.7792259540001396,0,0,1.177947216796875,0,0,0.99372
3.782346912979847,0,0,1.5107412475585937,0,0,0.45864
3.7854700759926345,0,0,1.189918225097656,0,0,0.7644
3.7885866099968553,0,0,1.1635820068359375,0,0,0.84084
3.791694865998579,0,0,1.2952630981445312,0,0,0.99372
3.794846990989754,0,0,1.5346832641601562,0,0,0.91728
3.7979446729877964,0,0,1.0390835205078124,0,0,0.68796
3.8011019839905202,0,0,1.3144167114257812,0,0,0.30576000000000003
3.8042562019836623,0,0,1.3024457031249999,0,0,-0.22932
3.8073772359930445,0,0,1.1659762084960936,0,0,0.22932
3.810497583996039,0,0,1.1037269653320312,0,0,1.07016
3.813623617985286,0,0,1.3048399047851562,0,0,0.84084
3.816724576987326,0,0,1.438915197753906,0,0,1.1465999999999998
3.8198392589983996,0,0,1.0869675537109373,0,0,0.22932
3.8229930509987753,0,0,1.3527239379882812,0,0,0.7644
3.8260896959982347,0,0,1.3359645263671873,0,0,0.30576000000000003
3.8292090999893844,0,0,1.0989385620117187,0,0,0.99372
3.8323257629817817,0,0,1.3000515014648437,0,0,0.53508
3.835444722993998,0,0,1.3215993164062498,0,0,0.6115200000000001
3.8385602009948343,0,0,1.3646949462890625,0,0,0.84084
3.8416767529852223,0,0,1.5275006591796874,0,0,1.1465999999999998
3.8447910829854663,0,0,1.656787548828125,0,0,2.6754
3.8479189119825605,0,0,1.13006318359375,0,0,0.53508
3.8510389089933597,0,0,1.197100830078125,0,0,0.0
3.8541523680032697,0,0,1.2976572998046874,0,0,0.6115200000000001
3.857267994986614,0,0,1.2593500732421874,0,0,0.45864
3.8603838609997183,0,0,1.1635820068359375,0,0,1.1465999999999998
3.8635008389828727,0,0,1.3096283081054687,0,0,0.91728
3.866617502993904,0,0,1.22583125,0,0,0.99372
3.8697339619975537,0,0,1.2234370483398436,0,0,0.0
3.87285079198773,0,0,1.2880804931640624,0,0,0.7644
3.8759657139889896,0,0,1.3766659545898436,0,0,0.68796
3.879082211002242,0,0,1.2689268798828124,0,0,0.91728
3.882196058984846,0,0,1.4508862060546874,0,0,0.3822
3.885313184990082,0,0,1.1324573852539062,0,0,1.1465999999999998
3.888430070976028,0,0,1.2737152832031249,0,0,0.7644
3.8915460299758706,0,0,1.458068811035156,0,0,1.07016
3.8946957860025577,0,0,1.4700398193359374,0,0,0.91728
3.89781131898053,0,0,1.0726023437499999,0,0,0.6115200000000001
3.9009318339813035,0,0,1.1013327636718748,0,0,-20
3.904056978994049,0,0,1.5298948608398437,0,0,-9.24924
3.9071723090019077,0,0,1.3215993164062498,0,0,0.30576000000000003
3.9102886939945165,0,0,1.3287819213867187,0,0,1.1465999999999998
3.9134037460025866,0,0,1.5203180541992187,0,0,0.99372
3.916519780003,0,0,1.3551181396484375,0,0,1.37592
3.9196636650012806,0,0,1.3263877197265623,0,0,0.0
3.9228112529963255,0,0,1.2737152832031249,0,0,0.91728
3.9259284349973314,0,0,1.3766659545898436,0,0,0.91728
3.9290338389982935,0,0,1.2761094848632812,0,0,1.2230400000000001
3.932158483978128,0,0,1.4796166259765624,0,0,0.53508
3.935272702976363,0,0,1.2330138549804688,0,0,1.2230400000000001
3.9383824769756757,0,0,1.0941501586914062,0,0,0.84084
3.9414952879888006,0,0,1.4149731811523436,0,0,0.7644
3.944608302990673,0,0,1.6831237670898436,0,0,0.91728
3.947748539998429,0,0,1.0917559570312498,0,0,0.68796
3.9508636109821964,0,0,1.1061211669921875,0,0,0.6115200000000001
3.9539969219767954,0,0,1.35990654296875,0,0,0.91728
3.9571113449928816,0,0,1.484405029296875,0,0,0.7644
3.960224192996975,0,0,1.3311761230468748,0,0,0.99372
3.9633389489899855,0,0,1.4963760375976562,0,0,0.7644
3.9664495559991337,0,0,1.4101847778320311,0,0,0.68796
3.969562756974483,0,0,1.1061211669921875,0,0,-20
3.9727350489993114,0,0,1.3048399047851562,0,0,0.7644
3.976968771981774,0,0,1.3718775512695311,0,0,0.45864
3.9800923419825267,0,0,1.1085153686523437,0,0,0.91728
3.9832119869824965,0,0,1.5298948608398437,0,0,0.7644
3.9863353529945016,0,0,1.4939818359375,0,0,0.91728
3.989452979993075,0,0,1.0845733520507812,0,0,0.45864
3.9925689209776465,0,0,1.2521674682617188,0,0,1.07016
3.995781804987928,0,0,1.218648645019531,0,0,0.84084
3.9989044120011386,0,0,1.2785036865234374,0,0,0.53508
4.002020686981268,0,0,1.458068811035156,0,0,0.45864
4.005138997978065,0,0,1.254561669921875,0,0,0.6115200000000001
4.008287937991554,0,0,1.1420341918945311,0,0,1.2230400000000001
4.011413119995268,0,0,1.2880804931640624,0,0,1.07016
4.0145589119929355,0,0,1.4724340209960938,0,0,1.1465999999999998
4.017680297984043,0,0,1.0414777221679687,0,0,0.84084
4.020810571993934,0,0,1.3646949462890625,0,0,0.45864
4.027075378980953,0,0,1.16837041015625,0,0,0.68796
4.03019085698179,0,0,1.3527239379882812,0,0,0.99372
4.033310150000034,0,0,1.484405029296875,0,0,0.99372
4.0364245169912465,0,0,1.5298948608398437,0,0,1.1465999999999998
4.039542716986034,0,0,1.1109095703125,0,0,0.15288000000000002
4.042689527996117,0,0,1.3024457031249999,0,0,1.1465999999999998
4.045804968976881,0,0,1.13006318359375,0,0,0.3822
4.048922613990726,0,0,1.1635820068359375,0,0,-9.555
4.052212385984603,0,0,1.3239935180664062,0,0,0.53508
4.055425936996471,0,0,1.16837041015625,0,0,0.22932
4.058611672982806,0,0,1.3311761230468748,0,0,1.2994800000000002
4.061728965985822,0,0,1.2617442749023438,0,0,0.84084
4.064843535976252,0,0,1.8339584716796873,0,0,0.99372
4.067958200001158,0,0,1.199495031738281,0,0,0.99372
4.071075491985539,0,0,1.3527239379882812,0,0,1.1465999999999998
4.074188525992213,0,0,1.458068811035156,0,0,1.37592
4.077304151986027,0,0,1.0893617553710937,0,0,0.6115200000000001
4.080419037985848,0,0,1.24498486328125,0,0,0.45864
4.083533775003161,0,0,1.4341267944335936,0,0,0.53508
4.086772010981804,0,0,1.2330138549804688,0,0,0.53508
4.089921876991866,0,0,1.0821791503906248,0,0,0.99372
4.093044187990017,0,0,1.4317325927734375,0,0,0.91728
4.09626581298653,0,0,1.3120225097656248,0,0,1.2994800000000002
4.0992084039899055,0,0,1.0917559570312498,0,0,0.3822
4.102004645974375,0,0,1.2737152832031249,0,0,0.30576000000000003
4.104798757995013,0,0,1.5322890624999999,0,0,1.45236
4.107780885999091,0,0,1.0127473022460938,0,0,1.2994800000000002
4.1105989789939485,0,0,1.5275006591796874,0,0,0.30576000000000003
4.113399386988021,0,0,1.4149731811523436,0,0,0.7644
4.116198887000792,0,0,1.4604630126953124,0,0,0.99372
4.11901816498721,0,0,1.149216796875,0,0,0.84084
4.121815739985323,0,0,1.3646949462890625,0,0,0.45864
4.12461261099088,0,0,1.5346832641601562,0,0,0.99372
4.127412240981357,0,0,1.1923124267578125,0,0,0.68796
4.130208816000959,0,0,1.3096283081054687,0,0,1.07016
4.1330075949954335,0,0,1.4030021728515625,0,0,0.99372
4.135806428996148,0,0,1.3575123413085937,0,0,0.53508
4.138626854983158,0,0,1.3431471313476562,0,0,1.2994800000000002
4.141431929980172,0,0,1.2785036865234374,0,0,1.07016
4.144230744976085,0,0,1.4341267944335936,0,0,0.7644
4.147063429991249,0,0,1.1109095703125,0,0,0.45864
4.149844375991961,0,0,1.2330138549804688,0,0,0.68796
4.152665061003063,0,0,1.3192051147460937,0,0,1.2230400000000001
4.155475006002234,0,0,1.0869675537109373,0,0,2.06388
4.158272321976256,0,0,1.16837041015625,0,0,0.91728
4.161069508001674,0,0,1.2785036865234374,0,0,0.30576000000000003
4.163864267989993,0,0,1.5251064575195312,0,0,0.68796
4.1666829899768345,0,0,1.4867992309570313,0,0,0.7644
4.169489416992292,0,0,1.1180921752929687,0,0,0.15288000000000002
4.172288695001043,0,0,1.4796166259765624,0,0,0.3822
4.175085861992557,0,0,1.1133037719726562,0,0,0.68796
4.177879769995343,0,0,1.216254443359375,0,0,0.99372
4.180674937990261,0,0,1.22583125,0,0,0.6115200000000001
4.183470308984397,0,0,1.3814543579101561,0,0,0.53508
4.1862911979842465,0,0,1.2737152832031249,0,0,1.2230400000000001
4.189088642975548,0,0,1.180341418457031,0,0,0.68796
4.19188392200158,0,0,1.2904746948242187,0,0,0.15288000000000002
4.194679792999523,0,0,1.5370774658203123,0,0,0.99372
4.197574828984216,0,0,1.2114660400390624,0,0,1.07016
4.2006466039747465,0,0,1.2593500732421874,0,0,0.84084
4.203760712000076,0,0,1.4006079711914061,0,0,0.6115200000000001
4.2069768919900525,0,0,1.0845733520507812,0,0,0.6115200000000001
4.21013690700056,0,0,1.3000515014648437,0,0,0.6115200000000001
4.213252977002412,0,0,1.4532804077148436,0,0,0.84084
4.216368565976154,0,0,1.3575123413085937,0,0,0.68796
4.219480840984033,0,0,1.1372457885742187,0,0,1.2994800000000002
4.224410202994477,0,0,1.6735469604492186,0,0,0.68796
4.227877286990406,0,0,1.2952630981445312,0,0,0.7644
4.231002486980287,0,0,1.484405029296875,0,0,1.1465999999999998
4.234112020989414,0,0,1.4724340209960938,0,0,1.07016
4.237227979989257,0,0,1.0630255371093749,0,0,1.1465999999999998
4.240347235987429,0,0,1.2761094848632812,0,0,0.45864
4.243462806975003,0,0,1.5155296508789062,0,0,0.91728
4.246575099998154,0,0,1.2856862915039062,0,0,0.6115200000000001
4.249690077995183,0,0,1.2306196533203124,0,0,1.37592
4.252804777992424,0,0,1.5227122558593749,0,0,0.07644000000000001
4.255919866991462,0,0,1.4413093994140624,0,0,1.07016
4.259035362978466,0,0,1.1947066284179686,0,0,20
4.262148507987149,0,0,1.2952630981445312,0,0,0.68796
4.2652631899982225,0,0,1.1827356201171875,0,0,0.45864
4.268377389991656,0,0,1.3239935180664062,0,0,1.1465999999999998
4.2714921639999375,0,0,1.3527239379882812,0,0,0.3822
4.274605735001387,0,0,1.66636435546875,0,0,0.84084
4.2777191209897865,0,0,1.3072341064453123,0,0,0.99372
4.280833338998491,0,0,1.24498486328125,0,0,1.07016
4.283954224985791,0,0,1.6519991455078125,0,0,1.37592
4.287068720994284,0,0,1.120486376953125,0,0,0.45864
4.290179198986152,0,0,1.3910311645507811,0,0,0.30576000000000003
4.293291899986798,0,0,1.3144167114257812,0,0,0.68796
4.2964396179886535,0,0,1.4341267944335936,0,0,0.53508
4.299556040001335,0,0,1.158793603515625,0,0,1.07016
4.302671425975859,0,0,1.429338391113281,0,0,0.84084
4.305784644995583,0,0,1.235408056640625,0,0,1.07016
4.30898991797585,0,0,1.1133037719726562,0,0,0.22932
4.312107265985105,0,0,1.3479355346679687,0,0,0.68796
4.31522461399436,0,0,1.3311761230468748,0,0,0.84084
4.318338925979333,0,0,1.2952630981445312,0,0,0.7644
4.321452588977991,0,0,1.5179238525390624,0,0,0.3822
4.324565825983882,0,0,1.484405029296875,0,0,0.91728
4.327679248992354,0,0,1.3024457031249999,0,0,0.91728
4.3308537819830235,0,0,1.3838485595703125,0,0,0.91728
4.333966240985319,0,0,1.4772224243164063,0,0,1.07016
4.337155977991642,0,0,1.1109095703125,0,0,0.53508
4.340276640985394,0,0,1.2641384765625,0,0,0.3822
4.343391044996679,0,0,1.4891934326171874,0,0,0.6115200000000001
4.34656111500226,0,0,1.2497732666015624,0,0,0.22932
4.349678240978392,0,0,1.3766659545898436,0,0,1.1465999999999998
4.352792125981068,0,0,1.37906015625,0,0,0.7644
4.355905325995991,0,0,1.3120225097656248,0,0,0.99372
4.3590203229978215,0,0,1.16837041015625,0,0,0.07644000000000001
4.362130948982667,0,0,1.3000515014648437,0,0,1.07016
4.365246260975255,0,0,1.1348515869140625,0,0,0.53508
4.3683587569976225,0,0,1.1420341918945311,0,0,0.7644
4.371473605977371,0,0,1.2904746948242187,0,0,0.3822
4.374587138998322,0,0,1.2306196533203124,0,0,0.68796
4.377699876000406,0,0,1.2018892333984375,0,0,0.7644
4.380812094983412,0,0,1.2378022583007813,0,0,0.99372
4.383924739988288,0,0,1.467645617675781,0,0,1.2230400000000001
4.387044106988469,0,0,1.1468225952148436,0,0,0.68796
4.390156973997364,0,0,1.2665326782226562,0,0,0.0
4.393269006977789,0,0,1.24498486328125,0,0,0.45864
4.396380873979069,0,0,1.3766659545898436,0,0,0.68796
4.399499777995516,0,0,1.0869675537109373,0,0,0.99372
4.402616774983471,0,0,1.4053963745117186,0,0,1.37592
4.405727770994417,0,0,1.2306196533203124,0,0,1.1465999999999998
4.408909229998244,0,0,1.1252747802734375,0,0,0.30576000000000003
4.412025689001894,0,0,1.369483349609375,0,0,0.7644
4.415140167984646,0,0,1.2473790649414063,0,0,0.53508
4.418252996983938,0,0,1.3718775512695311,0,0,0.68796
4.421376104990486,0,0,1.4604630126953124,0,0,0.6115200000000001
4.424489101977088,0,0,1.5514426757812498,0,0,0.7644
4.4276039869873784,0,0,1.1228805786132812,0,0,0.91728
4.430718649993651,0,0,1.2713210815429687,0,0,1.1465999999999998
4.433831664995523,0,0,1.6400281372070311,0,0,1.2230400000000001
4.43694690297707,0,0,1.0845733520507812,0,0,0.6115200000000001
4.440062065987149,0,0,1.2713210815429687,0,0,0.45864
4.443177691980964,0,0,1.2856862915039062,0,0,0.53508
4.4464739079994615,0,0,1.1348515869140625,0,0,0.6115200000000001
4.449616922996938,0,0,1.218648645019531,0,0,0.84084
4.452903139987029,0,0,1.2904746948242187,0,0,0.68796
4.456017043994507,0,0,1.4149731811523436,0,0,0.84084
4.45912516998942,0,0,1.2880804931640624,0,0,0.53508
4.4622301109775435,0,0,1.5011644409179687,0,0,0.91728
4.46533810798428,0,0,1.1468225952148436,0,0,0.84084
4.4684421040001325,0,0,1.209071838378906,0,0,1.1465999999999998
4.471549304988002,0,0,1.350329736328125,0,0,0.45864
4.474704726977507,0,0,1.1923124267578125,0,0,0.53508
4.478031571983593,0,0,1.0749965454101562,0,0,1.1465999999999998
4.481178808986442,0,0,1.235408056640625,0,0,0.6115200000000001
4.4843018609972205,0,0,1.5969325073242187,0,0,1.2230400000000001
4.487423394981306,0,0,1.2521674682617188,0,0,0.91728
4.490572242997587,0,0,1.3934253662109375,0,0,1.2230400000000001
4.49369286900037,0,0,1.6448165405273436,0,0,0.68796
4.496811199001968,0,0,1.216254443359375,0,0,0.6115200000000001
4.49996830598684,0,0,1.2785036865234374,0,0,0.3822
