Time,AccelX1,AccelY1,AccelZ1,AccelX2,AccelY2,AccelZ2
2.0870007574558258e-05,0,0,1.180341418457031,0,0,0.45864
0.003271723020588979,0,0,1.2713210815429687,0,0,1.1465999999999998
0.006529928010422736,0,0,1.4173673828125,0,0,0.84084
0.009777096012840047,0,0,1.5251064575195312,0,0,0.91728
0.01290413600509055,0,0,1.218648645019531,0,0,1.98744
0.01602813901263289,0,0,1.388636962890625,0,0,0.84084
0.019139512005494907,0,0,1.6352397338867186,0,0,0.45864
0.022406513016903773,0,0,1.1037269653320312,0,0,1.07016
0.025627385010011494,0,0,1.2952630981445312,0,0,1.1465999999999998
0.028763998998329043,0,0,1.0773907470703123,0,0,0.91728
0.03187922399956733,0,0,1.2593500732421874,0,0,0.7644
0.034989708015928045,0,0,1.3168109130859373,0,0,0.30576000000000003
0.0380974700092338,0,0,1.16837041015625,0,0,0.84084
0.04120628800592385,0,0,1.1180921752929687,0,0,1.1465999999999998
0.044314439001027495,0,0,1.3431471313476562,0,0,-9.01992
0.0474291090213228,0,0,1.4628572143554686,0,0,0.7644
0.05053459299961105,0,0,1.458068811035156,0,0,0.84084
0.05364789202576503,0,0,1.1635820068359375,0,0,0.7644
0.056758468999760225,0,0,1.3623007446289062,0,0,0.7644
0.059866990020964295,0,0,1.6160861206054686,0,0,0.84084
0.06298460401012562,0,0,1.3072341064453123,0,0,0.7644
0.06611001401324756,0,0,1.2473790649414063,0,0,0.68796
0.06980747400666587,0,0,1.2306196533203124,0,0,0.84084
0.07378148601856083,0,0,1.1516109985351561,0,0,0.6115200000000001
0.0769059140002355,0,0,1.4508862060546874,0,0,0.91728
0.08001804701052606,0,0,1.5131354492187499,0,0,0.99372
0.0831271420174744,0,0,1.3455413330078123,0,0,0.84084
0.08623501501278952,0,0,1.1252747802734375,0,0,1.37592
0.08934237001813017,0,0,1.407790576171875,0,0,0.7644
0.09244916902389377,0,0,1.0917559570312498,0,0,0.6115200000000001
0.09566109700244851,0,0,1.2665326782226562,0,0,0.84084
0.09849550999933854,0,0,1.3096283081054687,0,0,0.68796
0.10128672001883388,0,0,1.62805712890625,0,0,0.22932
0.10409480100497603,0,0,1.22583125,0,0,0.68796
0.1068846590060275,0,0,1.216254443359375,0,0,0.91728
0.10965894302353263,0,0,1.3838485595703125,0,0,1.2230400000000001
0.11246089401538484,0,0,1.4796166259765624,0,0,1.37592
0.11525547402561642,0,0,1.2665326782226562,0,0,0.84084
0.11804072200902738,0,0,1.2761094848632812,0,0,0.68796
0.12083167201490141,0,0,1.2473790649414063,0,0,0.99372
0.12362212300649844,0,0,1.16837041015625,0,0,0.6115200000000001
0.12640877801459283,0,0,1.2832920898437499,0,0,0.6115200000000001
0.12919789500301704,0,0,1.47482822265625,0,0,0.91728
0.13206697499845177,0,0,1.5969325073242187,0,0,0.84084
0.13488459200016223,0,0,1.2282254516601563,0,0,1.07016
0.1376750610070303,0,0,1.3431471313476562,0,0,0.99372
0.1404633830243256,0,0,1.4245499877929686,0,0,1.07016
0.14325233301497065,0,0,1.4915876342773438,0,0,1.37592
0.14603969201561995,0,0,1.1037269653320312,0,0,1.1465999999999998
0.14882873502210714,0,0,1.2880804931640624,0,0,0.30576000000000003
0.15161574102239683,0,0,1.3383587280273437,0,0,0.99372
0.1544036370178219,0,0,1.1444283935546875,0,0,1.1465999999999998
0.1572228840086609,0,0,1.2617442749023438,0,0,0.6115200000000001
0.16001611200044863,0,0,1.429338391113281,0,0,0.7644
0.1628034700115677,0,0,1.5562310791015623,0,0,-8.867040000000001
0.1655973470187746,0,0,1.2138602416992186,0,0,0.7644
0.16838683502282947,0,0,1.3048399047851562,0,0,1.45236
0.1711770450056065,0,0,1.4413093994140624,0,0,0.68796
0.17396271802135743,0,0,1.2832920898437499,0,0,0.91728
0.1767683170037344,0,0,1.2282254516601563,0,0,0.7644
0.17955891601741314,0,0,1.3527239379882812,0,0,0.3822
0.18234553301590495,0,0,1.3311761230468748,0,0,0.53508
0.1851327810145449,0,0,1.16837041015625,0,0,0.45864
0.18792267600656487,0,0,1.3239935180664062,0,0,0.53508
0.19070881200605072,0,0,1.4724340209960938,0,0,0.7644
0.19350870701600797,0,0,1.2952630981445312,0,0,0.53508
0.19638091602246277,0,0,1.3311761230468748,0,0,0.84084
0.19943486401461996,0,0,1.2665326782226562,0,0,0.3822
0.20253697800217196,0,0,1.5203180541992187,0,0,1.07016
0.20564257400110364,0,0,1.2761094848632812,0,0,0.68796
0.20874670601915568,0,0,1.2976572998046874,0,0,1.1465999999999998
0.21185233900905587,0,0,1.637633935546875,0,0,0.91728
0.21495924901682884,0,0,1.2737152832031249,0,0,1.2230400000000001
0.21811895500286482,0,0,1.3000515014648437,0,0,1.1465999999999998
0.22123777301749215,0,0,1.3192051147460937,0,0,0.99372
0.22434949802118354,0,0,1.2761094848632812,0,0,0.6115200000000001
0.22746048201224767,0,0,1.3120225097656248,0,0,0.68796
0.23062322501209565,0,0,1.3024457031249999,0,0,0.30576000000000003
0.23373896902194247,0,0,1.1324573852539062,0,0,0.99372
0.2375276860257145,0,0,1.1420341918945311,0,0,0.91728
0.24067261500749737,0,0,1.3383587280273437,0,0,-0.22932
0.24379828400560655,0,0,1.1851298217773436,0,0,1.2994800000000002
0.24695597201935016,0,0,1.120486376953125,0,0,1.07016
0.2501097890199162,0,0,1.3263877197265623,0,0,1.45236
0.25322668001172133,0,0,1.4437036010742186,0,0,0.84084
0.2563435720221605,0,0,1.2473790649414063,0,0,0.99372
0.25946100099827163,0,0,1.13006318359375,0,0,0.7644
0.26258281801710837,0,0,1.2593500732421874,0,0,0.7644
0.26570319102029316,0,0,1.6424223388671875,0,0,0.30576000000000003
0.26881880502332933,0,0,1.1133037719726562,0,0,0.99372
0.2719341050251387,0,0,1.3168109130859373,0,0,0.68796
0.2750840140215587,0,0,1.24498486328125,0,0,1.1465999999999998
0.2781989250215702,0,0,1.369483349609375,0,0,0.84084
0.28131877901614644,0,0,1.2832920898437499,0,0,-8.4084
0.28443559701554477,0,0,1.4532804077148436,0,0,0.45864
0.2875514879997354,0,0,1.4820108276367188,0,0,0.68796
0.29066480600158684,0,0,1.2593500732421874,0,0,0.68796
0.29377782699884847,0,0,1.5227122558593749,0,0,1.07016
0.2969295890070498,0,0,1.455674609375,0,0,0.99372
0.300048555014655,0,0,1.1540052001953125,0,0,1.1465999999999998
0.303200057009235,0,0,1.2521674682617188,0,0,1.2230400000000001
0.3063429120229557,0,0,1.3646949462890625,0,0,0.91728
0.3094580809993204,0,0,1.2210428466796874,0,0,0.68796
0.312594954011729,0,0,1.2401964599609374,0,0,0.30576000000000003
0.3157038640056271,0,0,1.2282254516601563,0,0,0.91728
0.318997661001049,0,0,1.0845733520507812,0,0,0.22932
0.3222588660137262,0,0,1.3335703247070312,0,0,1.5288
0.32543105402146466,0,0,1.455674609375,0,0,0.7644
0.32854816800681874,0,0,1.1731588134765625,0,0,0.7644
0.3316661330172792,0,0,1.3287819213867187,0,0,0.53508
0.33477885799948126,0,0,1.4245499877929686,0,0,1.07016
0.33789365700795315,0,0,1.5969325073242187,0,0,0.7644
0.34100738301640376,0,0,1.1611878051757811,0,0,0.84084
0.344159070024034,0,0,1.3742717529296875,0,0,0.84084
0.3472747580090072,0,0,1.1923124267578125,0,0,0.91728
0.3504196120193228,0,0,1.216254443359375,0,0,0.7644
0.35353346701595,0,0,1.3670891479492187,0,0,0.45864
0.3566463030001614,0,0,1.3144167114257812,0,0,0.84084
0.3597596760082524,0,0,1.1133037719726562,0,0,0.68796
0.36287297602393664,0,0,1.3383587280273437,0,0,0.68796
0.3659872930147685,0,0,1.4987702392578124,0,0,0.91728
0.36910001799697056,0,0,1.6256629272460936,0,0,0.68796
0.3722169650136493,0,0,1.0869675537109373,0,0,0.84084
0.3753322830016259,0,0,1.2641384765625,0,0,0.7644
0.37844347101054154,0,0,1.2856862915039062,0,0,0.68796
0.3815569740254432,0,0,1.2210428466796874,0,0,0.3822
0.384670162020484,0,0,1.3551181396484375,0,0,0.22932
0.3877842760120984,0,0,1.177947216796875,0,0,0.91728
0.3908941120025702,0,0,1.1085153686523437,0,0,1.07016
0.39403891100664623,0,0,1.2713210815429687,0,0,1.60524
0.39718878400162794,0,0,1.4173673828125,0,0,1.07016
0.40030380501411855,0,0,1.4987702392578124,0,0,1.1465999999999998
0.40341964102117345,0,0,1.3192051147460937,0,0,0.7644
0.40652994002448395,0,0,1.4053963745117186,0,0,0.7644
0.4096422760048881,0,0,1.6400281372070311,0,0,0.6115200000000001
0.4128025940153748,0,0,1.1156979736328125,0,0,0.91728
0.41592418900108896,0,0,1.3479355346679687,0,0,1.2230400000000001
0.4190721909981221,0,0,1.1851298217773436,0,0,1.2230400000000001
0.42218812002101913,0,0,1.2785036865234374,0,0,0.91728
0.4253029190003872,0,0,1.2521674682617188,0,0,0.6115200000000001
0.42841608900926076,0,0,1.3000515014648437,0,0,0.6115200000000001
0.43153144299867563,0,0,1.199495031738281,0,0,0.68796
0.4346424280083738,0,0,1.3623007446289062,0,0,0.45864
0.4377843929978553,0,0,1.4101847778320311,0,0,0.99372
0.4408975070109591,0,0,1.4772224243164063,0,0,1.1465999999999998
0.4440123430103995,0,0,1.0869675537109373,0,0,-8.56128
0.4471434200240765,0,0,1.458068811035156,0,0,0.68796
0.45025755200185813,0,0,1.1156979736328125,0,0,0.7644
0.4533812029985711,0,0,1.3263877197265623,0,0,0.53508
0.4565518540039193,0,0,1.1420341918945311,0,0,0.0
0.45967135601677,0,0,1.254561669921875,0,0,0.91728
0.46279393302393146,0,0,1.0510545288085937,0,0,1.07016
0.46591212099883705,0,0,1.3670891479492187,0,0,1.37592
0.4690271790022962,0,0,1.5298948608398437,0,0,0.84084
0.47215144100482576,0,0,1.4939818359375,0,0,0.99372
0.47527044400339946,0,0,1.1372457885742187,0,0,0.91728
0.4783872429979965,0,0,1.2521674682617188,0,0,0.53508
0.4815325230010785,0,0,1.6448165405273436,0,0,0.68796
0.4846477670071181,0,0,1.1923124267578125,0,0,0.45864
0.48776186202303506,0,0,1.426944189453125,0,0,1.07016
0.4908743650012184,0,0,1.180341418457031,0,0,1.5288
0.4942337730026338,0,0,1.3000515014648437,0,0,0.7644
0.49740131202270277,0,0,1.2378022583007813,0,0,0.30576000000000003
0.5005180739972275,0,0,1.3670891479492187,0,0,0.68796
0.512830957013648,0,0,1.4006079711914061,0,0,1.2230400000000001
0.5160671070043463,0,0,1.1156979736328125,0,0,0.7644
0.5192016100045294,0,0,1.2593500732421874,0,0,0.91728
0.5223010940244421,0,0,1.5658078857421873,0,0,0.6115200000000001
0.5254023750021588,0,0,1.0917559570312498,0,0,-9.09636
0.5286746910132933,0,0,1.2306196533203124,0,0,0.15288000000000002
0.5318806180148385,0,0,1.0869675537109373,0,0,1.45236
0.5350069359992631,0,0,1.1540052001953125,0,0,0.7644
0.5381276240223087,0,0,1.3623007446289062,0,0,1.2994800000000002
0.5412304420024157,0,0,1.3263877197265623,0,0,0.53508
0.544334906997392,0,0,1.1372457885742187,0,0,0.6115200000000001
0.5474492990178987,0,0,1.3742717529296875,0,0,0.68796
0.550566283025546,0,0,1.43652099609375,0,0,0.68796
0.5536833970109001,0,0,1.4101847778320311,0,0,0.91728
0.5568174180225469,0,0,1.3479355346679687,0,0,0.99372
0.5599589760240633,0,0,1.1611878051757811,0,0,1.2230400000000001
0.5630773500015493,0,0,1.0821791503906248,0,0,0.99372
0.5661730930150952,0,0,1.2785036865234374,0,0,0.68796
0.5693624470150098,0,0,1.3335703247070312,0,0,0.53508
0.5726117080193944,0,0,1.3670891479492187,0,0,0.68796
0.5760608920245431,0,0,1.0941501586914062,0,0,0.91728
0.5793191900011152,0,0,1.2473790649414063,0,0,0.84084
0.5824406740139239,0,0,1.455674609375,0,0,0.6115200000000001
0.5855585660028737,0,0,1.1444283935546875,0,0,0.91728
0.5886644200072624,0,0,1.3000515014648437,0,0,0.68796
0.5917785339988768,0,0,1.3072341064453123,0,0,0.6115200000000001
0.5948958700173534,0,0,1.407790576171875,0,0,1.1465999999999998
0.5981330380018335,0,0,1.216254443359375,0,0,0.68796
0.6009819699975196,0,0,1.2593500732421874,0,0,0.53508
0.6037759949977044,0,0,1.0749965454101562,0,0,0.84084
0.6065540200215764,0,0,1.1875240234375,0,0,0.45864
0.609356155997375,0,0,1.2952630981445312,0,0,0.84084
0.6121489400102291,0,0,1.369483349609375,0,0,0.91728
0.6149746130104177,0,0,1.1875240234375,0,0,0.53508
0.6178006370028015,0,0,1.3335703247070312,0,0,0.84084
0.6206045880098827,0,0,1.1109095703125,0,0,1.45236
0.6234074090025388,0,0,1.3287819213867187,0,0,0.99372
0.6262081559980288,0,0,1.2114660400390624,0,0,1.1465999999999998
0.6289939770067576,0,0,1.0726023437499999,0,0,0.84084
0.6320017960097175,0,0,1.2282254516601563,0,0,0.7644
0.634797876002267,0,0,1.1444283935546875,0,0,0.84084
0.6375969380023889,0,0,1.2856862915039062,0,0,0.7644
0.6403968700033147,0,0,1.2401964599609374,0,0,0.7644
0.6431941360060591,0,0,1.4772224243164063,0,0,0.45864
0.6459719940030482,0,0,1.2976572998046874,0,0,0.91728
0.6487946300185286,0,0,1.3646949462890625,0,0,0.7644
0.6515946550061926,0,0,1.2952630981445312,0,0,0.99372
0.6543894940114114,0,0,1.419761584472656,0,0,0.6115200000000001
0.6571828710148111,0,0,1.3192051147460937,0,0,0.99372
0.6600036360032391,0,0,1.0941501586914062,0,0,0.99372
0.6628319390001707,0,0,1.3215993164062498,0,0,0.91728
0.6682240829977673,0,0,1.1085153686523437,0,0,0.7644
0.6710914590221364,0,0,1.2713210815429687,0,0,0.68796
0.6738766690250486,0,0,1.3000515014648437,0,0,1.2230400000000001
0.676662120007677,0,0,1.5251064575195312,0,0,0.99372
0.6794448490254581,0,0,1.369483349609375,0,0,1.07016
0.6822233740240335,0,0,1.2880804931640624,0,0,1.45236
0.6850047510233708,0,0,1.3263877197265623,0,0,1.2230400000000001
0.6877852379984688,0,0,1.47482822265625,0,0,0.84084
0.6905646520026494,0,0,1.0199299072265624,0,0,0.84084
0.6933652880252339,0,0,1.2737152832031249,0,0,0.3822
0.696191331022419,0,0,1.2569558715820313,0,0,0.68796
0.6989919120096602,0,0,1.1659762084960936,0,0,0.45864
0.7018125470203813,0,0,1.2114660400390624,0,0,-9.01992
0.7046142940234859,0,0,1.455674609375,0,0,0.84084
0.7074124299979303,0,0,1.4341267944335936,0,0,1.37592
0.7102064740029164,0,0,1.2042834350585936,0,0,0.91728
0.7130104060051963,0,0,1.197100830078125,0,0,0.91728
0.7158085789997131,0,0,1.350329736328125,0,0,1.07016
0.71860399201978,0,0,1.3958195678710936,0,0,1.07016
0.7213994430203456,0,0,1.189918225097656,0,0,2.4460800000000003
0.7242040609999094,0,0,1.3527239379882812,0,0,0.30576000000000003
0.7270006960025057,0,0,1.209071838378906,0,0,0.6115200000000001
0.7297978319984395,0,0,1.3168109130859373,0,0,1.1465999999999998
0.7325951720122248,0,0,1.3575123413085937,0,0,0.84084
0.7353939560125582,0,0,1.2665326782226562,0,0,0.91728
0.7381886850052979,0,0,1.438915197753906,0,0,1.1465999999999998
0.7410054870124441,0,0,1.3192051147460937,0,0,1.1465999999999998
0.7438025300216395,0,0,1.3335703247070312,0,0,1.5288
0.7465968700125813,0,0,1.3814543579101561,0,0,1.2230400000000001
0.7493924130103551,0,0,1.43652099609375,0,0,1.2994800000000002
0.7521889380004723,0,0,1.1659762084960936,0,0,0.45864
0.7549861300212797,0,0,1.2641384765625,0,0,0.0
0.7577782840235159,0,0,1.2569558715820313,0,0,0.84084
0.7606063639977947,0,0,1.2785036865234374,0,0,-8.48484
0.7634092410153244,0,0,1.3766659545898436,0,0,0.7644
0.7662054510146845,0,0,1.5083470458984374,0,0,0.84084
0.7696914870175533,0,0,1.5179238525390624,0,0,0.68796
0.772732564015314,0,0,1.2593500732421874,0,0,0.45864
0.7755447370000184,0,0,1.1468225952148436,0,0,0.07644000000000001
0.7783398170140572,0,0,1.2904746948242187,0,0,0.7644
0.7811391020077281,0,0,1.216254443359375,0,0,1.07016
0.7839383300160989,0,0,1.3072341064453123,0,0,0.53508
0.7867337440256961,0,0,1.2880804931640624,0,0,1.1465999999999998
0.7895309720188379,0,0,1.2330138549804688,0,0,1.1465999999999998
0.7927174740179908,0,0,1.20667763671875,0,0,0.91728
0.7955220730218571,0,0,1.2617442749023438,0,0,1.75812
0.7984133930003736,0,0,1.4820108276367188,0,0,0.84084
0.801473747997079,0,0,1.3766659545898436,0,0,1.07016
0.8045895289978944,0,0,1.197100830078125,0,0,0.45864
0.8077059210045263,0,0,1.47482822265625,0,0,0.53508
0.8108172200154513,0,0,1.4867992309570313,0,0,0.84084
0.8139312040002551,0,0,1.0965443603515623,0,0,0.84084
0.8170419660164043,0,0,1.254561669921875,0,0,0.99372
0.8216650820104405,0,0,1.5059528442382812,0,0,1.07016
0.8248245660215616,0,0,1.3287819213867187,0,0,1.2230400000000001
0.8279442350030877,0,0,1.3958195678710936,0,0,0.84084
0.8310988490120508,0,0,1.4053963745117186,0,0,0.30576000000000003
0.8342149259988219,0,0,1.2641384765625,0,0,0.84084
0.8373270209995098,0,0,1.3527239379882812,0,0,0.68796
0.8404411540250294,0,0,1.2330138549804688,0,0,0.99372
0.843556953012012,0,0,1.2234370483398436,0,0,1.2230400000000001
0.8466699930140749,0,0,1.235408056640625,0,0,1.45236
0.8497837920149323,0,0,1.3359645263671873,0,0,0.91728
0.8529001279966906,0,0,1.1061211669921875,0,0,0.91728
0.8560169450065587,0,0,1.1827356201171875,0,0,0.6115200000000001
0.859130411001388,0,0,1.4724340209960938,0,0,1.07016
0.8622536360053346,0,0,1.5921441040039062,0,0,0.7644
0.8654059719992802,0,0,1.0797849487304687,0,0,0.91728
0.8685304750106297,0,0,1.3359645263671873,0,0,0.99372
0.871645866020117,0,0,1.1252747802734375,0,0,1.98744
0.8747593320149463,0,0,1.4125789794921875,0,0,1.75812
0.8778786130133085,0,0,2.1930887207031247,0,0,1.98744
0.8809946710243821,0,0,2.559401574707031,0,0,1.911
0.8841118960117456,0,0,2.6767174560546874,0,0,0.53508
0.8872288990241941,0,0,1.6831237670898436,0,0,0.0
0.8903403640142642,0,0,1.697488977050781,0,0,1.60524
0.8934528120153118,0,0,1.6519991455078125,0,0,1.83456
0.8965675370127428,0,0,1.5801730957031248,0,0,1.83456
0.8997190390073229,0,0,2.1811177124023438,0,0,1.37592
0.9028318940254394,0,0,2.1308394775390624,0,0,1.07016
0.9059465820027981,0,0,1.9393033447265624,0,0,0.99372
0.909140843024943,0,0,1.6639701538085936,0,0,0.84084
0.9122552160115447,0,0,1.8363526733398436,0,0,1.60524
0.9153710340033285,0,0,1.848323681640625,0,0,1.98744
0.9184821660164744,0,0,1.6160861206054686,0,0,1.45236
0.9215952620143071,0,0,1.9129671264648436,0,0,1.911
0.9247089130221866,0,0,2.0733786376953125,0,0,1.37592
0.927824064012384,0,0,1.1156979736328125,0,0,0.6115200000000001
0.9309609180199914,0,0,1.927332336425781,0,0,1.1465999999999998
0.9341084019979462,0,0,1.4341267944335936,0,0,1.75812
0.9373870880226605,0,0,1.8267758666992187,0,0,2.2167600000000003
0.9405877010140102,0,0,1.9704279663085937,0,0,1.75812
0.9437469260010403,0,0,2.152387292480469,0,0,1.1465999999999998
0.946862595010316,0,0,1.936909143066406,0,0,0.91728
0.9499802280042786,0,0,1.4939818359375,0,0,0.53508
0.9530943420249969,0,0,1.1372457885742187,0,0,1.83456
0.9576746060047299,0,0,1.9967641845703124,0,0,2.06388
0.9608136460010428,0,0,1.9536685546875,0,0,0.99372
0.9639257600065321,0,0,1.9895815795898437,0,0,2.14032
0.9670976140187122,0,0,2.068590234375,0,0,1.2230400000000001
0.9702097280242015,0,0,0.8882488159179687,0,0,0.3822
0.9733289150171913,0,0,2.281674182128906,0,0,1.83456
0.9764369920012541,0,0,2.5450363647460934,0,0,1.45236
0.9795433840190526,0,0,1.6400281372070311,0,0,1.1465999999999998
0.9826494239969179,0,0,2.882618798828125,0,0,1.2994800000000002
0.9857560009986628,0,0,0.7589619262695312,0,0,0.68796
0.989095853001345,0,0,1.388636962890625,0,0,2.2931999999999997
0.9922128750185948,0,0,1.6328455322265625,0,0,2.36964
0.9953223220072687,0,0,1.9632453613281249,0,0,0.91728
0.9984581020253245,0,0,1.6256629272460936,0,0,1.1465999999999998
1.0015950860106386,0,0,1.6998831787109374,0,0,1.2994800000000002
1.0048361800145358,0,0,1.419761584472656,0,0,0.7644
1.0080487380037084,0,0,2.157175695800781,0,0,0.15288000000000002
1.0112862760142889,0,0,1.4173673828125,0,0,1.5288
1.0145724440226331,0,0,1.956062756347656,0,0,2.2931999999999997
1.0178051490220241,0,0,1.2713210815429687,0,0,0.6115200000000001
1.0210337059979793,0,0,1.438915197753906,0,0,1.1465999999999998
1.0242688190191984,0,0,2.6862942626953124,0,0,2.2167600000000003
1.027430321002612,0,0,2.418143676757812,0,0,1.75812
1.0306225640233606,0,0,0.7110778930664062,0,0,0.07644000000000001
1.0337961770128459,0,0,2.176329309082031,0,0,0.99372
1.036946086998796,0,0,1.9943699829101562,0,0,0.99372
1.040067515015835,0,0,1.177947216796875,0,0,0.6115200000000001
1.0432316660007928,0,0,2.4253262817382812,0,0,2.36964
1.046349445998203,0,0,2.70065947265625,0,0,1.07016
1.0494693750224542,0,0,-0.14604630126953125,0,0,-0.68796
1.0526144890172873,0,0,3.418919970703125,0,0,3.89844
1.0557497880072333,0,0,2.2074539306640624,0,0,0.6115200000000001
1.0588704940164462,0,0,-0.30406361083984373,0,0,1.1465999999999998
1.0620287000201643,0,0,4.086902233886718,0,0,2.5989600000000004
1.0651763690111693,0,0,2.1883003173828124,0,0,0.68796
1.0683434079983272,0,0,-0.08140285644531249,0,0,0.99372
1.0745400070154574,0,0,-0.4740519287109375,0,0,0.15288000000000002
1.0777793599991128,0,0,1.3335703247070312,0,0,1.2230400000000001
1.081031880021328,0,0,2.4684219116210935,0,0,0.84084
1.0843057890015189,0,0,-0.37828386230468747,0,0,0.68796
1.0875316980236676,0,0,3.0550013183593747,0,0,1.07016
1.0907092550187372,0,0,-0.105344873046875,0,0,9.555
1.0939903120161034,0,0,1.4604630126953124,0,0,1.75812
1.0972786270140205,0,0,2.6479870361328124,0,0,0.84084
1.1005218700156547,0,0,0.076614453125,0,0,0.45864
1.1031531550106592,0,0,2.5426421630859375,0,0,1.37592
1.1046364170033485,0,0,2.6958710693359373,0,0,1.68168
1.1061116040218621,0,0,1.7262193969726563,0,0,0.7644
1.1075990140088834,0,0,-0.8283937744140625,0,0,-1.1465999999999998
1.1090811090252828,0,0,-0.04548983154296875,0,0,0.0
1.110564148024423,0,0,1.5298948608398437,0,0,1.2994800000000002
1.1120415950135794,0,0,2.370259643554687,0,0,1.1465999999999998
1.1134915790171362,0,0,1.4006079711914061,0,0,1.07016
1.114899508014787,0,0,0.2537853759765625,0,0,0.45864
1.1163231960090343,0,0,-0.17477672119140625,0,0,0.3822
1.1177066810196266,0,0,2.070984436035156,0,0,1.07016
1.1190879250061698,0,0,2.7341782958984373,0,0,1.98744
1.1204677619971335,0,0,2.080561242675781,0,0,1.5288
1.121846895024646,0,0,1.4437036010742186,0,0,0.68796
1.1232268050080165,0,0,0.4908113403320312,0,0,-0.53508
1.1246079750126228,0,0,0.5722141967773438,0,0,0.45864
1.1259872380178422,0,0,2.0638018310546875,0,0,1.5288
1.1273675380216446,0,0,2.300827795410156,0,0,1.37592
1.128752800024813,0,0,1.5418658691406248,0,0,1.5288
1.1301317480101716,0,0,0.9313444458007812,0,0,0.84084
1.1315595470077824,0,0,-0.7398083129882812,0,0,-0.6115200000000001
1.1329423100105487,0,0,0.09337386474609374,0,0,0.53508
1.1343219430127647,0,0,1.5442600708007812,0,0,1.2230400000000001
1.1357031310035381,0,0,2.748543505859375,0,0,1.83456
1.1370822830067482,0,0,2.389413256835937,0,0,1.5288
1.1384616010182071,0,0,0.718260498046875,0,0,1.98744
1.1398411600093823,0,0,0.0430956298828125,0,0,-0.68796
1.1412211820133962,0,0,0.5530605834960938,0,0,-0.15288000000000002
1.1426008889975492,0,0,1.944091748046875,0,0,1.2230400000000001
1.143980744003784,0,0,2.750937707519531,0,0,1.75812
1.1453598770021927,0,0,1.5825672973632812,0,0,1.1465999999999998
1.146739547024481,0,0,0.6655880615234374,0,0,0.99372
1.148120605997974,0,0,-0.36391865234375,0,0,0.07644000000000001
1.1495002940064296,0,0,1.0007762939453124,0,0,0.15288000000000002
1.1508793530229013,0,0,1.4604630126953124,0,0,1.2230400000000001
1.1522598750016186,0,0,1.89620771484375,0,0,2.06388
1.1536388780223206,0,0,1.4604630126953124,0,0,0.68796
1.1550319930247497,0,0,1.0510545288085937,0,0,0.99372
1.1564107180165593,0,0,0.718260498046875,0,0,0.7644
1.157789443997899,0,0,1.7429788085937499,0,0,0.99372
1.1591847620147746,0,0,1.7908628417968748,0,0,1.07016
1.1605639690242242,0,0,2.1883003173828124,0,0,1.37592
1.1619423980009742,0,0,1.8028338500976562,0,0,0.53508
1.1633218830102123,0,0,0.2537853759765625,0,0,-0.7644
1.1647022570250556,0,0,0.48123453369140623,0,0,0.53508
1.1660835010115989,0,0,1.388636962890625,0,0,0.68796
1.1674722640018445,0,0,1.7956512451171873,0,0,0.84084
1.1688589330005925,0,0,1.5418658691406248,0,0,0.53508
1.1702458260115236,0,0,1.0534487304687499,0,0,0.99372
1.1716326989990193,0,0,-0.023942016601562498,0,0,-0.7644
1.1730212580005173,0,0,0.41419688720703124,0,0,0.68796
1.1744081130018458,0,0,2.0159177978515626,0,0,2.2167600000000003
1.175795265007764,0,0,2.473210314941406,0,0,1.83456
1.1771817679982632,0,0,1.8626888916015625,0,0,1.45236
1.1785682530025952,0,0,1.0917559570312498,0,0,1.07016
1.1799545340181794,0,0,0.055066638183593745,0,0,0.0
1.1813617029984016,0,0,2.427720483398437,0,0,0.7644
1.1827495220059063,0,0,2.039859814453125,0,0,1.45236
1.1841366169974208,0,0,2.195482922363281,0,0,1.2230400000000001
1.1855236210103612,0,0,1.0390835205078124,0,0,0.3822
1.1869247349968646,0,0,0.49320554199218747,0,0,-9.707880000000001
1.188312942016637,0,0,0.6200982299804687,0,0,0.15288000000000002
1.1896997410221957,0,0,1.8219874633789062,0,0,0.45864
1.1910871150030289,0,0,1.5562310791015623,0,0,1.2994800000000002
1.1924730440077838,0,0,0.93852705078125,0,0,0.99372
1.1938598070119042,0,0,0.7038952880859375,0,0,1.1465999999999998
1.1952472180128098,0,0,0.4860229370117187,0,0,0.22932
1.1966333870077506,0,0,1.1276689819335937,0,0,1.2230400000000001
1.1980199649988208,0,0,2.473210314941406,0,0,2.4460800000000003
1.199407042004168,0,0,2.4684219116210935,0,0,2.06388
1.2007924530189484,0,0,1.350329736328125,0,0,1.1465999999999998
1.2021792710002046,0,0,1.0654197387695312,0,0,0.53508
1.2035659410175867,0,0,0.40940848388671874,0,0,-0.53508
1.2049522220040672,0,0,1.3527239379882812,0,0,1.07016
1.2063392810232472,0,0,2.2266075439453124,0,0,1.68168
1.2077255800249986,0,0,2.1404162841796874,0,0,0.99372
1.2091119170072488,0,0,0.93852705078125,0,0,-0.15288000000000002
1.2104984760226216,0,0,-0.38307226562499996,0,0,0.3822
1.2118861460185144,0,0,-0.28012159423828126,0,0,-0.84084
1.2132733160106,0,0,2.403778466796875,0,0,0.45864
1.2146597820101306,0,0,2.8371289672851563,0,0,1.98744
1.216046396002639,0,0,2.8467057739257813,0,0,0.7644
1.2174323259969242,0,0,1.0845733520507812,0,0,0.91728
1.2188189210137352,0,0,0.16998831787109375,0,0,0.30576000000000003
1.2202057400136255,0,0,-0.603338818359375,0,0,0.15288000000000002
1.221592668996891,0,0,1.465251416015625,0,0,0.45864
1.22297989402432,0,0,2.1164742675781247,0,0,1.98744
1.2243662310065702,0,0,2.118868469238281,0,0,1.1465999999999998
1.2257596040144563,0,0,1.3407529296874998,0,0,1.2230400000000001
1.2271462740027346,0,0,0.5985504150390625,0,0,0.15288000000000002
1.2285324260010384,0,0,0.584185205078125,0,0,1.2230400000000001
1.2299186700256541,0,0,2.1787235107421874,0,0,0.7644
1.2313058210129384,0,0,2.5426421630859375,0,0,1.45236
1.232692195015261,0,0,1.946485949707031,0,0,0.91728
1.2340783090039622,0,0,0.9911994873046874,0,0,0.3822
1.2354650530032814,0,0,0.047884033203124995,0,0,-1.1465999999999998
1.2368528899969533,0,0,1.180341418457031,0,0,1.5288
1.2382390230195597,0,0,2.1906945190429687,0,0,2.2167600000000003
1.2396252110193018,0,0,2.2026655273437497,0,0,1.45236
1.2410114920057822,0,0,1.1061211669921875,0,0,0.7644
1.2424007360241376,0,0,-0.16998831787109375,0,0,0.0
1.2437895170005504,0,0,-0.055066638183593745,0,0,-0.7644
1.2451774470100645,0,0,1.0965443603515623,0,0,1.2230400000000001
1.2465636720007751,0,0,3.239354846191406,0,0,2.75184
1.2479499530163594,0,0,3.1866824096679687,0,0,2.2931999999999997
1.2493369380244985,0,0,0.34715924072265625,0,0,1.07016
1.2507235149969347,0,0,-0.36152445068359373,0,0,-0.15288000000000002
1.2521110190136824,0,0,-0.9983820922851562,0,0,-1.07016
1.253498763020616,0,0,2.5043349365234375,0,0,0.22932
1.254884766007308,0,0,2.9376854370117185,0,0,2.36964
1.2562711210048292,0,0,2.2649147705078123,0,0,1.68168
1.2576569950033445,0,0,1.2330138549804688,0,0,1.911
1.2590455910249148,0,0,-0.03591302490234375,0,0,-0.91728
1.2604321490216535,0,0,-0.316034619140625,0,0,-0.6115200000000001
1.2618264300108422,0,0,1.915361328125,0,0,0.22932
1.2632136740139686,0,0,4.084508032226562,0,0,1.83456
1.264600104012061,0,0,2.597708801269531,0,0,1.5288
1.2659861440188251,0,0,1.5179238525390624,0,0,1.07016
1.2673730550159235,0,0,-1.3934253662109375,0,0,-0.6115200000000001
1.2687664280238096,0,0,-0.612915625,0,0,0.0
1.2701529310143087,0,0,1.3096283081054687,0,0,1.2994800000000002
1.2715395830164198,0,0,3.1411925781249996,0,0,1.07016
1.272925697005121,0,0,2.147598889160156,0,0,1.75812
1.2743119780207053,0,0,0.47165772705078124,0,0,0.99372
1.2756991480127908,0,0,-1.0079588989257813,0,0,-0.3822
1.2770966700045392,0,0,0.28730419921875,0,0,0.45864
1.2784831730241422,0,0,2.70065947265625,0,0,1.68168
1.2798728060151916,0,0,3.1675287963867187,0,0,1.2230400000000001
1.2812586610089056,0,0,1.675941162109375,0,0,0.91728
1.282644535007421,0,0,0.5363011718749999,0,0,0.45864
1.284030872018775,0,0,-0.8164227661132812,0,0,0.0
1.285417523002252,0,0,1.7741034301757812,0,0,0.30576000000000003
1.286803156021051,0,0,2.31758720703125,0,0,1.2994800000000002
1.288189641025383,0,0,2.2864625854492187,0,0,2.14032
1.2895760330138728,0,0,1.455674609375,0,0,0.91728
1.2909797400061507,0,0,-0.03591302490234375,0,0,0.0
1.292366817011498,0,0,-0.5243301635742187,0,0,-0.15288000000000002
1.293754672020441,0,0,1.22583125,0,0,0.99372
1.2951418610173278,0,0,2.834734765625,0,0,1.911
1.2965274559974205,0,0,2.825157958984375,0,0,2.2167600000000003
1.2979138490045443,0,0,2.059013427734375,0,0,2.4460800000000003
1.299300648010103,0,0,-1.216254443359375,0,0,-0.30576000000000003
1.3006872070254758,0,0,-1.1875240234375,0,0,0.0
1.3020740810025018,0,0,0.7062894897460937,0,0,-0.22932
1.303459788003238,0,0,3.6487633300781246,0,0,0.99372
1.304986141010886,0,0,3.1124621582031247,0,0,1.45236
1.3063737190095708,0,0,1.2234370483398436,0,0,2.14032
1.30777738802135,0,0,-0.6751648681640625,0,0,-0.6115200000000001
1.3091677990159951,0,0,0.5410895751953124,0,0,-0.7644
1.3105547100130934,0,0,1.350329736328125,0,0,1.2994800000000002
1.3120664890157059,0,0,2.592920397949219,0,0,0.6115200000000001
1.313461122015724,0,0,1.9847931762695312,0,0,1.68168
1.3148475699999835,0,0,0.9696516723632812,0,0,0.3822
1.3162479250167962,0,0,-0.06464344482421874,0,0,0.53508
1.3176358170167077,0,0,1.3048399047851562,0,0,0.6115200000000001
1.319022876006784,0,0,1.93451494140625,0,0,1.5288
1.3214653310133144,0,0,1.8626888916015625,0,0,1.45236
1.3228730740083847,0,0,1.139639990234375,0,0,0.30576000000000003
1.3242671150073875,0,0,0.28012159423828126,0,0,0.07644000000000001
1.3256542470189743,0,0,1.915361328125,0,0,0.84084
1.3270421950146556,0,0,2.1164742675781247,0,0,1.83456
1.3284284950059373,0,0,1.7693150268554687,0,0,1.37592
1.3298148500034586,0,0,1.426944189453125,0,0,0.91728
1.3312029270164203,0,0,-0.7852981445312499,0,0,-1.2230400000000001
1.3325913560111076,0,0,-0.028730419921875,0,0,-0.84084
1.333980526018422,0,0,1.3934253662109375,0,0,0.91728
1.335392048000358,0,0,3.066972326660156,0,0,1.37592
1.3367787919996772,0,0,2.310404602050781,0,0,2.06388
1.338165517023299,0,0,1.0726023437499999,0,0,2.6754
1.3395522799983155,0,0,-0.48123453369140623,0,0,0.0
1.3409396540082525,0,0,-0.7733271362304687,0,0,-0.22932
1.3423270830244292,0,0,1.8291700683593748,0,0,0.3822
1.343713790003676,0,0,3.210624426269531,0,0,0.53508
1.3451002000074368,0,0,2.9472622436523435,0,0,2.14032
1.3464860370149836,0,0,1.6903063720703124,0,0,2.4460800000000003
1.3478745220054407,0,0,-0.2537853759765625,0,0,0.0
1.3492610810208134,0,0,-0.09337386474609374,0,0,-0.3822
1.3506491760199424,0,0,0.8690952026367187,0,0,0.7644
1.3520371060003527,0,0,1.886630908203125,0,0,0.45864
1.3534233680111356,0,0,2.300827795410156,0,0,0.0
1.3548092970158905,0,0,1.5682020874023437,0,0,1.07016
1.3561955600162037,0,0,0.5698199951171875,0,0,0.30576000000000003
1.357581915013725,0,0,1.465251416015625,0,0,0.3822
1.358969363005599,0,0,1.9919757812499999,0,0,2.52252
1.3603558290051296,0,0,1.4867992309570313,0,0,1.68168
1.361742277018493,0,0,1.197100830078125,0,0,0.53508
1.3631292990176007,0,0,0.25139117431640623,0,0,0.6115200000000001
1.3645145800255705,0,0,0.584185205078125,0,0,0.6115200000000001
1.3659006759990007,0,0,2.0973206542968748,0,0,1.1465999999999998
1.3672866790147964,0,0,2.9496564453125,0,0,1.5288
1.3686719780089334,0,0,1.8124106567382812,0,0,2.06388
1.3700635929999407,0,0,-0.16041151123046873,0,0,1.5288
1.371451559010893,0,0,-0.8116343627929687,0,0,-0.7644
1.3728388030140195,0,0,-0.4525041137695312,0,0,-0.15288000000000002
1.3742259170103353,0,0,2.480392919921875,0,0,0.0
1.3756122910126578,0,0,2.987963671875,0,0,1.37592
1.377000720007345,0,0,2.3032219970703123,0,0,2.06388
1.3783871490159072,0,0,1.1516109985351561,0,0,2.06388
1.3797735050029587,0,0,0.29927520751953124,0,0,0.0
1.3811588970129378,0,0,0.7302315063476562,0,0,-0.22932
1.3825456780032255,0,0,1.5394716674804687,0,0,0.99372
1.3839318850077689,0,0,2.5713725830078125,0,0,1.07016
1.3853183700121008,0,0,1.7980454467773437,0,0,0.99372
1.3867046140076127,0,0,0.7924807495117187,0,0,1.07016
1.3880907840211876,0,0,0.3064578125,0,0,0.0
1.3894765280128922,0,0,1.2904746948242187,0,0,0.45864
1.3908626790216658,0,0,1.6256629272460936,0,0,1.37592
1.3923107370210346,0,0,1.2593500732421874,0,0,1.2994800000000002
1.3936983520106878,0,0,1.209071838378906,0,0,1.45236
1.395087577024242,0,0,1.1540052001953125,0,0,1.07016
1.3964728950231802,0,0,1.1707646118164061,0,0,1.68168
1.3978597870154772,0,0,2.2864625854492187,0,0,1.2230400000000001
1.3992473280231934,0,0,1.608903515625,0,0,1.07016
1.4006334050209261,0,0,0.8595183959960937,0,0,0.45864
1.4020198160142172,0,0,0.3687070556640625,0,0,0.0
1.4034068370237947,0,0,0.37828386230468747,0,0,-0.84084
1.4047932109970134,0,0,0.7134720947265625,0,0,0.53508
1.4061809740087483,0,0,2.408566870117187,0,0,1.68168
1.4075685320131015,0,0,2.5378537597656248,0,0,1.2994800000000002
1.4089554250240326,0,0,1.5753846923828123,0,0,1.37592
1.4103422980115283,0,0,-0.1484405029296875,0,0,0.91728
1.4117300790094305,0,0,-0.6679822631835937,0,0,-0.53508
1.4131178420211654,0,0,1.9991583862304687,0,0,1.2230400000000001
1.4145038450078573,0,0,2.9041666137695312,0,0,2.36964
1.4158898669993505,0,0,3.6535517333984373,0,0,1.98744
1.417276315012714,0,0,1.8459294799804686,0,0,2.06388
1.4186618180247024,0,0,0.4572925170898437,0,0,1.37592
1.4200481360021513,0,0,-0.9959878906249999,0,0,-0.15288000000000002
1.4214349910034798,0,0,0.9840168823242187,0,0,0.30576000000000003
1.4228211610170547,0,0,2.3319524169921872,0,0,1.1465999999999998
1.4242072940105572,0,0,2.370259643554687,0,0,0.99372
1.425593927007867,0,0,1.5346832641601562,0,0,0.0
1.4269807820091955,0,0,-0.5602431884765625,0,0,0.30576000000000003
1.4283707849972416,0,0,-0.08140285644531249,0,0,0.6115200000000001
1.4297576780081727,0,0,1.465251416015625,0,0,1.07016
1.431143885012716,0,0,2.602497204589844,0,0,0.91728
1.4325291290006135,0,0,2.118868469238281,0,0,1.5288
1.4339162429969292,0,0,1.3814543579101561,0,0,1.07016
1.4353031720092986,0,0,0.055066638183593745,0,0,0.53508
1.4366887500218581,0,0,0.63206923828125,0,0,1.911
1.4380751050193794,0,0,3.066972326660156,0,0,1.911
1.4394611260213424,0,0,2.8945898071289062,0,0,1.83456
1.4408474630035926,0,0,1.6400281372070311,0,0,1.60524
1.4422335030103568,0,0,-0.6584054565429687,0,0,0.15288000000000002
1.4436200620257296,0,0,-0.9409212524414062,0,0,-1.68168
1.4450069360027555,0,0,2.310404602050781,0,0,0.07644000000000001
1.4463927730103023,0,0,3.27526787109375,0,0,1.2230400000000001
1.4477788680233061,0,0,3.2920272827148436,0,0,1.37592
1.4491646490059793,0,0,1.1276689819335937,0,0,2.14032
1.450550079025561,0,0,-0.5793968017578125,0,0,0.45864
1.4519369339977857,0,0,-0.8667010009765624,0,0,-0.99372
1.4533233260153793,0,0,1.6519991455078125,0,0,-0.3822
1.4547096629976295,0,0,3.4548329956054684,0,0,2.4460800000000003
1.4560961289971601,0,0,3.1747114013671873,0,0,2.2931999999999997
1.457482391007943,0,0,2.1691467041015624,0,0,1.83456
1.458868154004449,0,0,0.2346317626953125,0,0,1.37592
1.4602547130198218,0,0,-1.2832920898437499,0,0,8.943480000000001
1.4616496600210667,0,0,1.0749965454101562,0,0,0.22932
1.4630485710222274,0,0,3.4452561889648434,0,0,1.75812
1.4644335370103363,0,0,2.6431986328124997,0,0,1.45236
1.4658193000068422,0,0,1.7405846069335937,0,0,1.2994800000000002
1.467205951019423,0,0,-0.7254431030273437,0,0,-0.84084
1.4685980660142377,0,0,-0.6919242797851562,0,0,0.22932
1.4700510130205657,0,0,2.2170307373046874,0,0,1.75812
1.4714627560169902,0,0,2.8802245971679685,0,0,1.2994800000000002
1.4728603520197794,0,0,2.5378537597656248,0,0,2.06388
1.4744292050017975,0,0,1.1611878051757811,0,0,1.75812
1.4758229310100432,0,0,-0.21787235107421873,0,0,9.32568
1.4772226930072065,0,0,1.3072341064453123,0,0,-0.45864
1.4786115669994615,0,0,2.214636535644531,0,0,1.75812
1.4800011990009807,0,0,2.913743420410156,0,0,1.2230400000000001
1.481388443004107,0,0,1.9919757812499999,0,0,1.1465999999999998
1.4827755020232871,0,0,1.005564697265625,0,0,0.84084
1.4841575240134262,0,0,-0.7900865478515624,0,0,-0.84084
1.4855377500061877,0,0,0.7781155395507812,0,0,0.07644000000000001
1.4869560490187723,0,0,3.2561142578125,0,0,1.68168
1.4883474970120005,0,0,3.0238766967773434,0,0,1.98744
1.4897341850155499,0,0,2.0877438476562498,0,0,0.99372
1.4911220960202627,0,0,-1.0726023437499999,0,0,-0.6115200000000001
1.4925096550141461,0,0,-1.7286135986328124,0,0,0.0
1.4938967880152632,0,0,1.9823989746093749,0,0,0.53508
1.4952848280081525,0,0,3.265691064453125,0,0,1.68168
1.4966709419968538,0,0,3.1699229980468746,0,0,2.2931999999999997
1.4980577050009742,0,0,1.697488977050781,0,0,2.36964
1.4994528560200706,0,0,-0.411802685546875,0,0,0.22932
1.5008322299981955,0,0,-1.659181750488281,0,0,-0.6115200000000001
1.5022113810118753,0,0,2.2960393920898436,0,0,0.22932
1.5035990700125694,0,0,4.165910888671875,0,0,0.68796
1.504985925013898,0,0,2.829946362304687,0,0,1.83456
1.506372725008987,0,0,1.0271125122070313,0,0,1.68168
1.507759635016555,0,0,-1.3407529296874998,0,0,-1.5288
1.5091470460174605,0,0,-0.4740519287109375,0,0,-0.99372
1.510534938017372,0,0,0.8020575561523438,0,0,0.30576000000000003
1.511921978002647,0,0,2.779668127441406,0,0,0.91728
1.5133084260160103,0,0,2.7581203125,0,0,1.911
1.5146960030251648,0,0,2.068590234375,0,0,3.13404
1.516083062015241,0,0,-1.0797849487304687,0,0,0.15288000000000002
1.5174705469980836,0,0,0.2753331909179687,0,0,0.7644
1.5188576799992006,0,0,3.27526787109375,0,0,1.5288
1.5202446650073398,0,0,3.095702746582031,0,0,2.4460800000000003
1.521631038020132,0,0,2.6982652709960937,0,0,1.5288
1.5230451890092809,0,0,0.181959326171875,0,0,0.3822
1.5244249520183075,0,0,-0.8882488159179687,0,0,-0.7644
1.5258047149982303,0,0,0.34237083740234375,0,0,8.63772
1.5271896250196733,0,0,2.7174188842773437,0,0,0.30576000000000003
1.528575536009157,0,0,2.480392919921875,0,0,1.37592
1.5299608540080953,0,0,0.814028564453125,0,0,1.45236
1.5313483760110103,0,0,-0.3064578125,0,0,-1.07016
1.5327349900035188,0,0,-0.9457096557617187,0,0,0.30576000000000003
1.5341218640096486,0,0,1.7190367919921874,0,0,1.1465999999999998
1.535508071014192,0,0,2.722207287597656,0,0,1.45236
1.5368935000151396,0,0,2.473210314941406,0,0,1.911
1.538279226020677,0,0,1.7836802368164062,0,0,2.98116
1.5396654510113876,0,0,0.584185205078125,0,0,-0.53508
1.541051417007111,0,0,0.23223756103515625,0,0,0.0
1.5424368840176612,0,0,2.0183119995117185,0,0,1.37592
1.5438226830156054,0,0,2.7724855224609373,0,0,1.45236
1.545210723998025,0,0,2.118868469238281,0,0,1.37592
1.5465959860011935,0,0,1.2785036865234374,0,0,1.45236
1.5479821750195697,0,0,-1.2880804931640624,0,0,-0.45864
1.549368845007848,0,0,0.277727392578125,0,0,-1.1465999999999998
1.5507553660136182,0,0,1.2521674682617188,0,0,0.6115200000000001
1.552141518011922,0,0,2.901772412109375,0,0,1.5288
1.5535270770196803,0,0,2.4444798950195312,0,0,1.83456
1.554921524017118,0,0,1.0630255371093749,0,0,2.52252
1.5563430089969188,0,0,-0.3112462158203125,0,0,0.45864
1.5577377710142173,0,0,0.13407529296874998,0,0,-0.30576000000000003
1.5591367930173874,0,0,1.5466542724609373,0,0,0.6115200000000001
1.5605254070251249,0,0,2.032677209472656,0,0,0.68796
1.5619122070202138,0,0,2.212242333984375,0,0,1.37592
1.5633002660179045,0,0,1.2952630981445312,0,0,0.07644000000000001
1.5646861389977857,0,0,0.08379705810546874,0,0,2.06388
1.5660734760167543,0,0,1.0223241088867188,0,0,2.06388
1.5674606090178713,0,0,1.3000515014648437,0,0,1.07016
1.5688474269991275,0,0,0.8164227661132812,0,0,0.53508
1.5702344300225377,0,0,1.43652099609375,0,0,-8.71416
1.5729727520083543,0,0,2.568978381347656,0,0,1.2230400000000001
1.574385218002135,0,0,2.6886884643554687,0,0,1.5288
1.5757702210103162,0,0,2.0063409912109376,0,0,1.45236
1.5771541690046433,0,0,1.1252747802734375,0,0,0.68796
1.578536893997807,0,0,0.3280056274414062,0,0,0.99372
1.579919231007807,0,0,-0.82360537109375,0,0,-1.45236
1.581305660016369,0,0,1.5418658691406248,0,0,-0.07644000000000001
1.582707293011481,0,0,2.454056701660156,0,0,1.5288
1.584090685006231,0,0,2.375048046875,0,0,2.14032
1.5854734660242684,0,0,1.4149731811523436,0,0,1.75812
1.5868555810011458,0,0,-0.6943184814453125,0,0,0.84084
1.5882389730249997,0,0,-0.74699091796875,0,0,0.0
1.5896216800028924,0,0,1.2713210815429687,0,0,-0.15288000000000002
1.5910063870251179,0,0,2.9759926635742184,0,0,0.91728
1.5923895390005782,0,0,2.602497204589844,0,0,2.06388
1.5937722270027734,0,0,1.2306196533203124,0,0,1.2230400000000001
1.5951560820103623,0,0,-0.062249243164062495,0,0,0.15288000000000002
1.5965381410205737,0,0,-0.35194764404296874,0,0,0.3822
1.5979205520125106,0,0,2.205059729003906,0,0,0.45864
1.5993038510205224,0,0,2.511517541503906,0,0,0.84084
1.6006849470140878,0,0,2.2577321655273437,0,0,1.2994800000000002
1.6020672100130469,0,0,0.8571241943359375,0,0,1.68168
1.6034585279994644,0,0,0.086191259765625,0,0,-0.68796
1.6048418279970065,0,0,1.3934253662109375,0,0,1.2230400000000001
1.606224868010031,0,0,2.0374656127929685,0,0,1.75812
1.6076075940218288,0,0,2.422932080078125,0,0,1.1465999999999998
1.6089896520134062,0,0,1.3646949462890625,0,0,1.1465999999999998
1.6103719150123652,0,0,0.7948749511718749,0,0,2.06388
1.6117605110048316,0,0,-0.06464344482421874,0,0,8.102640000000001
1.6131696430093143,0,0,1.7549498168945312,0,0,0.53508
1.6145538130076602,0,0,2.8371289672851563,0,0,2.4460800000000003
1.6159376320138108,0,0,2.0829554443359375,0,0,0.91728
1.6173199500190094,0,0,1.0965443603515623,0,0,1.07016
1.6187022119993344,0,0,-0.9504980590820312,0,0,0.22932
1.6200862160185352,0,0,-1.1875240234375,0,0,-0.6115200000000001
1.6214694410155062,0,0,1.22583125,0,0,-0.84084
1.6228520190052222,0,0,3.5122938354492184,0,0,1.911
1.62423426299938,0,0,3.0166940917968748,0,0,1.98744
1.6256158589967526,0,0,1.714248388671875,0,0,1.37592
1.627078972000163,0,0,-0.7613561279296874,0,0,-0.30576000000000003
1.628462031017989,0,0,-1.0845733520507812,0,0,0.7644
1.6298447570006829,0,0,1.944091748046875,0,0,0.22932
1.631227760022739,0,0,3.0741549316406247,0,0,2.2167600000000003
1.6326094850082882,0,0,2.9855694702148434,0,0,1.83456
1.6339914150012191,0,0,1.0941501586914062,0,0,1.2230400000000001
1.6353741960192565,0,0,-0.2561795776367187,0,0,-0.6115200000000001
1.6367571250011679,0,0,0.9935936889648437,0,0,0.30576000000000003
1.63813907300937,0,0,2.281674182128906,0,0,1.911
1.639521186996717,0,0,3.076549133300781,0,0,1.45236
1.6409164130163845,0,0,0.9696516723632812,0,0,0.99372
1.6422993790183682,0,0,-0.047884033203124995,0,0,0.6115200000000001
1.6436818820075132,0,0,-0.5722141967773438,0,0,-0.99372
1.6450655710068531,0,0,2.080561242675781,0,0,0.53508
1.6464544630143791,0,0,3.1364041748046874,0,0,1.83456
1.647836725023808,0,0,2.863465185546875,0,0,1.75812
1.6492184880189598,0,0,1.5897499023437498,0,0,1.5288
1.6506008060241584,0,0,0.2753331909179687,0,0,1.45236
1.651983198011294,0,0,-1.458068811035156,0,0,-1.2230400000000001
1.6533660350251012,0,0,1.2928688964843749,0,0,-9.784320000000001
1.6547490380180534,0,0,4.007893579101562,0,0,1.98744
1.6561320790206082,0,0,3.2345664428710936,0,0,1.83456
1.6575136560131796,0,0,2.01112939453125,0,0,2.4460800000000003
1.6588956780033186,0,0,-0.8667010009765624,0,0,0.30576000000000003
1.6602796810038853,0,0,-1.9847931762695312,0,0,0.07644000000000001
1.6616606110183056,0,0,1.867477294921875,0,0,-0.68796
1.663065169006586,0,0,3.6272155151367187,0,0,1.1465999999999998
1.6644410800072365,0,0,3.3399113159179685,0,0,1.83456
1.6658142500091344,0,0,1.5179238525390624,0,0,2.06388
1.6672461420239415,0,0,-0.5243301635742187,0,0,-0.53508
1.6686254230153281,0,0,-0.07422025146484375,0,0,0.84084
1.6699999630218372,0,0,1.1109095703125,0,0,0.0
1.6713759480044246,0,0,2.7341782958984373,0,0,0.6115200000000001
1.6727488040050957,0,0,2.7437551025390623,0,0,2.06388
1.6741216960072052,0,0,2.1787235107421874,0,0,2.4460800000000003
1.6754972360213287,0,0,0.17956512451171874,0,0,-0.3822
1.6768710360047407,0,0,0.2920926025390625,0,0,0.99372
1.678244391019689,0,0,1.484405029296875,0,0,1.1465999999999998
1.6796197280054912,0,0,2.602497204589844,0,0,0.99372
1.6809933800250292,0,0,2.1739351074218747,0,0,1.2994800000000002
1.6823665310221259,0,0,2.0925322509765625,0,0,1.5288
1.6837492940248922,0,0,-0.6823474731445313,0,0,-1.2230400000000001
1.6851346670009661,0,0,0.2657563842773437,0,0,-0.3822
1.6865185040223878,0,0,1.35990654296875,0,0,2.4460800000000003
1.6879061000072397,0,0,2.272097375488281,0,0,0.7644
1.6892900110105984,0,0,2.3223756103515623,0,0,0.99372
1.6906880140013527,0,0,-0.10295067138671875,0,0,0.53508
1.692138516023988,0,0,-1.177947216796875,0,0,-0.30576000000000003
1.6935258900048211,0,0,0.08858546142578125,0,0,-0.99372
1.694929134013364,0,0,3.1364041748046874,0,0,1.2994800000000002
1.696313619002467,0,0,3.418919970703125,0,0,1.75812
1.6976975850120652,0,0,1.7357962036132812,0,0,1.75812
1.6990913470217492,0,0,-0.26336218261718747,0,0,-8.48484
1.7004754800000228,0,0,-1.7764976318359373,0,0,0.0
1.7018591320083942,0,0,0.9313444458007812,0,0,-0.3822
1.7032432460109703,0,0,2.4899697265625,0,0,1.07016
1.7046256570029072,0,0,2.990357873535156,0,0,1.2994800000000002
1.706009271001676,0,0,2.1547814941406247,0,0,2.06388
1.7073930530168582,0,0,0.6512228515624999,0,0,0.0
1.708774982020259,0,0,-0.603338818359375,0,0,0.45864
1.7101593550178222,0,0,0.82360537109375,0,0,0.3822
1.711543266021181,0,0,2.157175695800781,0,0,0.15288000000000002
1.7129254920000676,0,0,2.7748797241210936,0,0,1.911
1.7143080880050547,0,0,2.269703173828125,0,0,2.2167600000000003
1.7156914799998049,0,0,-0.6296750366210937,0,0,9.32568
1.7170753350073937,0,0,-0.11731588134765625,0,0,-0.22932
1.7184591160039417,0,0,1.120486376953125,0,0,1.2994800000000002
1.7198425270034932,0,0,2.8131869506835936,0,0,0.30576000000000003
1.7212259189982433,0,0,2.4588451049804685,0,0,1.83456
1.7226089780160692,0,0,0.41898529052734373,0,0,2.2167600000000003
1.72399201799999,0,0,-0.7158662963867187,0,0,0.0
1.7253749100200366,0,0,-0.26815058593749996,0,0,-0.99372
1.726758636010345,0,0,2.2194249389648437,0,0,1.68168
1.7281424539978616,0,0,2.664746447753906,0,0,1.37592
1.7295254390046466,0,0,2.427720483398437,0,0,1.68168
1.730919850000646,0,0,0.3280056274414062,0,0,1.45236
1.7323040010232944,0,0,-0.7230489013671875,0,0,0.53508
1.733694838010706,0,0,1.4125789794921875,0,0,-0.3822
1.7350797110120766,0,0,2.418143676757812,0,0,0.7644
1.7364626589987893,0,0,2.901772412109375,0,0,3.4398000000000004
1.7378452730190475,0,0,2.2744915771484373,0,0,1.45236
1.739228999009356,0,0,0.32561142578124996,0,0,-0.3822
1.7406114840123337,0,0,-0.5674257934570313,0,0,0.15288000000000002
1.741995043004863,0,0,0.7996633544921875,0,0,0.0
1.7433787129994016,0,0,2.2290017456054687,0,0,0.99372
1.7447612899995875,0,0,2.6719290527343746,0,0,2.90472
1.7461437750025652,0,0,2.205059729003906,0,0,1.911
1.7475274820171762,0,0,-0.39743747558593745,0,0,-0.22932
1.748911244008923,0,0,-0.49799394531249996,0,0,0.22932
1.7502953220100608,0,0,0.6607996582031249,0,0,0.7644
1.7516787330096122,0,0,3.1699229980468746,0,0,0.07644000000000001
1.753061458002776,0,0,3.191470812988281,0,0,1.37592
1.7544439610210247,0,0,2.3678654418945313,0,0,2.4460800000000003
1.7558273910253774,0,0,-0.3950432739257812,0,0,8.7906
1.7574125950050075,0,0,-0.8882488159179687,0,0,-0.99372
1.758825376018649,0,0,1.7429788085937499,0,0,0.45864
1.7603541190037504,0,0,2.2266075439453124,0,0,0.99372
1.7617648070154246,0,0,2.0781670410156248,0,0,1.2994800000000002
1.7631505690224003,0,0,0.8212111694335937,0,0,0.22932
1.764534165005898,0,0,-0.031124621582031248,0,0,0.99372
1.7659194279985968,0,0,1.2808978881835937,0,0,-0.45864
1.7673040790250525,0,0,1.956062756347656,0,0,0.45864
1.768687897012569,0,0,2.308010400390625,0,0,2.06388
1.7700715300161391,0,0,1.9512743530273435,0,0,1.37592
1.771458330011228,0,0,0.8116343627929687,0,0,-0.22932
1.7728416300087702,0,0,0.296881005859375,0,0,0.45864
1.774225558998296,0,0,1.7166425903320313,0,0,1.07016
1.7756030989985447,0,0,2.4349030883789062,0,0,1.1465999999999998
1.776976529014064,0,0,1.7118541870117185,0,0,1.75812
1.7783659390115645,0,0,1.1276689819335937,0,0,1.5288
1.7797429610218387,0,0,-0.622492431640625,0,0,-1.2994800000000002
1.7811184830206912,0,0,0.1149216796875,0,0,0.15288000000000002
1.7824924120213836,0,0,2.7365724975585937,0,0,2.2167600000000003
1.7839528040203732,0,0,2.492363928222656,0,0,0.68796
1.785336326021934,0,0,1.5322890624999999,0,0,1.2230400000000001
1.7867192920239177,0,0,0.15083470458984374,0,0,1.45236
1.788102851016447,0,0,-0.5506663818359374,0,0,-0.15288000000000002
1.7894865389971528,0,0,2.375048046875,0,0,0.22932
1.790879042004235,0,0,2.858676782226562,0,0,2.2167600000000003
1.7922634720162023,0,0,2.7748797241210936,0,0,1.83456
1.7936464750091545,0,0,2.0254946044921875,0,0,1.07016
1.7950304970145226,0,0,0.49799394531249996,0,0,1.07016
1.796412074007094,0,0,-0.4213794921875,0,0,0.0
1.7977951700158883,0,0,1.7501614135742187,0,0,-0.3822
1.7991760250006337,0,0,2.549824768066406,0,0,0.07644000000000001
1.8005489550123457,0,0,1.7573440185546874,0,0,1.5288
1.8019220140122343,0,0,1.5203180541992187,0,0,0.91728
1.803310887014959,0,0,0.4572925170898437,0,0,-0.84084
1.804695539001841,0,0,-0.1580173095703125,0,0,0.91728
1.8060784310218878,0,0,1.4221557861328125,0,0,0.30576000000000003
1.8074628419999499,0,0,2.233790148925781,0,0,0.0
1.8088446780166123,0,0,1.7908628417968748,0,0,1.75812
1.810226589004742,0,0,1.9895815795898437,0,0,1.98744
1.8116090370167512,0,0,-0.1388636962890625,0,0,-1.2230400000000001
1.812991985003464,0,0,0.5961562133789062,0,0,1.07016
1.8144820050220005,0,0,2.887407202148437,0,0,2.06388
1.8159067490196321,0,0,2.583343591308594,0,0,0.22932
1.8172901410143822,0,0,1.5514426757812498,0,0,0.84084
1.818684107012814,0,0,-0.5530605834960938,0,0,1.75812
1.8200693880207837,0,0,-1.0821791503906248,0,0,-1.83456
1.8214627060224302,0,0,2.461239306640625,0,0,-0.99372
1.822937486023875,0,0,3.4428619873046875,0,0,2.82828
1.8243953040218912,0,0,1.9297265380859374,0,0,2.06388
1.8257798260019626,0,0,1.2378022583007813,0,0,1.75812
1.8272126060037408,0,0,-0.5291185668945312,0,0,0.45864
1.8285989430150948,0,0,-0.6296750366210937,0,0,0.3822
1.8299822050030343,0,0,1.848323681640625,0,0,0.0
1.8313655790116172,0,0,3.900154504394531,0,0,1.07016
1.8327468790230341,0,0,2.913743420410156,0,0,2.90472
1.8341292340192012,0,0,1.9225439331054686,0,0,3.0576
1.8355116080201697,0,0,-1.8004396484374998,0,0,-0.91728
1.8368947410199326,0,0,-1.4700398193359374,0,0,-0.68796
1.8382780399988405,0,0,1.1947066284179686,0,0,8.48484
1.8396610800118651,0,0,3.840299462890625,0,0,0.07644000000000001
1.8410426580230705,0,0,3.0550013183593747,0,0,1.45236
1.8424248460214585,0,0,-0.086191259765625,0,0,2.2931999999999997
1.84380801601219,0,0,-1.2665326782226562,0,0,-1.1465999999999998
1.845191075000912,0,0,-1.2306196533203124,0,0,-0.3822
1.8465738560189493,0,0,2.288856787109375,0,0,1.37592
1.8479562300199177,0,0,3.3016040893554686,0,0,1.1465999999999998
1.8493380110012367,0,0,2.6144682128906247,0,0,1.5288
1.850719903013669,0,0,0.28012159423828126,0,0,2.52252
1.8521027399983723,0,0,-0.47884033203125,0,0,-0.6115200000000001
1.8534849840216339,0,0,1.8698714965820311,0,0,0.0
1.8548675799975172,0,0,3.0741549316406247,0,0,2.2167600000000003
1.8562511760101188,0,0,3.8091748413085935,0,0,1.45236
1.8576334200042766,0,0,1.5370774658203123,0,0,1.07016
1.859031201020116,0,0,-0.49799394531249996,0,0,-9.172799999999999
1.86041257501347,0,0,-1.1707646118164061,0,0,-0.7644
1.8618163370119873,0,0,1.8818425048828125,0,0,-0.6115200000000001
1.8631938400212675,0,0,3.725377783203125,0,0,1.45236
1.8645672510028817,0,0,2.703053674316406,0,0,2.2167600000000003
1.865950180013897,0,0,1.6017209106445311,0,0,1.75812
1.8673272390151396,0,0,-2.224213342285156,0,0,-0.84084
1.868772390007507,0,0,-2.3223756103515623,0,0,-1.2230400000000001
1.8701480970194098,0,0,0.16280571289062498,0,0,0.0
1.8715246930078138,0,0,4.398148449707031,0,0,0.22932
1.8728983080072794,0,0,3.3207577026367185,0,0,2.75184
1.8743174590053968,0,0,0.11013327636718749,0,0,1.83456
1.875693759007845,0,0,-1.5825672973632812,0,0,-1.07016
1.8770689470111392,0,0,-2.592920397949219,0,0,-0.7644
1.87844321000739,0,0,1.1707646118164061,0,0,-0.7644
1.8798200840246864,0,0,3.2417490478515623,0,0,0.0
1.8811944019980729,0,0,2.906560815429687,0,0,2.06388
1.8825676460110117,0,0,0.6512228515624999,0,0,0.45864
1.8839519830071367,0,0,-0.9337386474609375,0,0,-0.45864
1.8853368560085073,0,0,-1.1516109985351561,0,0,0.0
1.8867208599986043,0,0,0.97683427734375,0,0,-1.68168
1.8881050670170225,0,0,1.7645266235351562,0,0,2.2167600000000003
1.8894890700175893,0,0,1.7812860351562498,0,0,0.6115200000000001
1.8908724620123394,0,0,2.142810485839844,0,0,1.911
1.8922563360247295,0,0,-0.430956298828125,0,0,3.2869200000000003
1.8936408020090312,0,0,-1.2665326782226562,0,0,-2.90472
1.8950258610129822,0,0,0.28969840087890625,0,0,1.37592
1.8964094010007102,0,0,2.882618798828125,0,0,1.2994800000000002
1.8977934420108795,0,0,3.603273498535156,0,0,-0.30576000000000003
1.89917831501225,0,0,1.944091748046875,0,0,3.21048
1.9005613000190351,0,0,-1.0127473022460938,0,0,-1.75812
1.901946415018756,0,0,-2.3822306518554686,0,0,-1.37592
1.9033316959976219,0,0,-0.6081272216796875,0,0,7.261800000000001
1.9047159950132482,0,0,2.3343466186523436,0,0,1.37592
1.9060992390150204,0,0,2.4875755249023435,0,0,0.22932
1.9074830390163697,0,0,1.2904746948242187,0,0,0.15288000000000002
1.9088738380232826,0,0,0.0047884033203125,0,0,2.75184
1.910257564013591,0,0,-1.656787548828125,0,0,-1.83456
1.9116427889966872,0,0,-1.0271125122070313,0,0,0.22932
1.9130479780142196,0,0,-0.011971008300781249,0,0,-2.36964
1.9144342220097315,0,0,4.675875842285156,0,0,2.75184
1.9158197070064489,0,0,3.42849677734375,0,0,9.555
1.9172028769971803,0,0,2.7174188842773437,0,0,3.4398000000000004
1.918586084007984,0,0,-0.6440402465820312,0,0,0.45864
1.9199709570093546,0,0,-0.6272808349609375,0,0,0.3822
1.9213544980157167,0,0,-1.0797849487304687,0,0,6.80316
1.9227385749982204,0,0,0.7062894897460937,0,0,-2.4460800000000003
1.9241227630118374,0,0,1.707065783691406,0,0,0.3822
1.9255056000256445,0,0,2.7581203125,0,0,1.75812
1.9268887150101364,0,0,1.1755530151367186,0,0,1.2994800000000002
1.9282725700177252,0,0,-1.1085153686523437,0,0,1.2994800000000002
1.929656257998431,0,0,-1.3072341064453123,0,0,-0.6115200000000001
1.9310414100182243,0,0,-0.12449848632812499,0,0,-0.7644
1.9325605970225297,0,0,1.6017209106445311,0,0,-0.22932
1.9339622289990075,0,0,2.4971523315429685,0,0,0.68796
1.9354714720102493,0,0,1.838746875,0,0,0.30576000000000003
1.936954789009178,0,0,1.5179238525390624,0,0,1.83456
1.9384731239988469,0,0,-0.28012159423828126,0,0,0.0
1.9399154230195563,0,0,-0.7565677246093749,0,0,0.0
1.9413006670074537,0,0,0.5147533569335937,0,0,-1.37592
1.9426855409983546,0,0,1.1707646118164061,0,0,0.0
1.9440650260075927,0,0,1.3814543579101561,0,0,0.0
1.9454381770046894,0,0,0.45968671875,0,0,0.0
1.946811236004578,0,0,0.3495534423828125,0,0,0.53508
1.9481953880167566,0,0,0.34715924072265625,0,0,0.30576000000000003
1.9495780210127123,0,0,1.2785036865234374,0,0,0.91728
1.950970950012561,0,0,1.448492004394531,0,0,1.45236
1.9523650830087718,0,0,1.0726023437499999,0,0,1.2230400000000001
1.9537975850107614,0,0,0.9050082275390624,0,0,0.84084
1.9551828850235324,0,0,0.8116343627929687,0,0,0.0
1.9565664250112604,0,0,0.4070142822265625,0,0,-0.22932
1.9579896689974703,0,0,0.6512228515624999,0,0,20
1.9593810610240325,0,0,0.7781155395507812,0,0,-0.84084
1.9607802310201805,0,0,0.5003881469726562,0,0,0.7644
1.9621699010021985,0,0,1.216254443359375,0,0,20
1.9635505519981962,0,0,0.3064578125,0,0,-9.24924
1.9649251850205474,0,0,-0.10773907470703124,0,0,0.99372
1.966300541011151,0,0,0.181959326171875,0,0,0.07644000000000001
1.9676835440041032,0,0,0.49320554199218747,0,0,0.3822
1.969066992023727,0,0,0.7757213378906249,0,0,0.6115200000000001
1.9704499390209094,0,0,2.147598889160156,0,0,1.2994800000000002
1.9718337579979561,0,0,1.9536685546875,0,0,1.07016
1.9732174280215986,0,0,0.7852981445312499,0,0,0.53508
1.9746003200125415,0,0,0.24899697265624998,0,0,0.6115200000000001
1.9759766750212293,0,0,-0.4165910888671875,0,0,-2.14032
1.977351975016063,0,0,0.8188169677734375,0,0,0.0
1.9787257560237776,0,0,1.4413093994140624,0,0,0.22932
1.9801090930122882,0,0,1.7549498168945312,0,0,0.22932
1.9814910770219285,0,0,0.15562310791015624,0,0,1.45236
1.98296941301669,0,0,0.42377369384765623,0,0,-0.45864
1.9843573610123713,0,0,0.2561795776367187,0,0,0.7644
1.9857399010215886,0,0,0.6847416748046875,0,0,-0.30576000000000003
1.9871238490159158,0,0,1.3814543579101561,0,0,1.1465999999999998
1.9885054450132884,0,0,1.7693150268554687,0,0,0.68796
1.989887281000847,0,0,1.2856862915039062,0,0,0.22932
1.9912712850200478,0,0,-0.047884033203124995,0,0,0.15288000000000002
1.9926996210124344,0,0,0.181959326171875,0,0,-1.68168
1.9940842720097862,0,0,0.45489831542968745,0,0,-0.3822
1.9954681649978738,0,0,1.3072341064453123,0,0,-0.45864
1.9968590200005565,0,0,1.3311761230468748,0,0,0.30576000000000003
1.9982419300067704,0,0,1.1109095703125,0,0,0.53508
1.9996242670167703,0,0,0.47644613037109373,0,0,1.37592
2.0010064740199596,0,0,-0.09337386474609374,0,0,0.30576000000000003
2.0023900890082587,0,0,0.04548983154296875,0,0,-0.15288000000000002
2.0037736290250905,0,0,1.1037269653320312,0,0,0.84084
2.0051558910054155,0,0,2.0063409912109376,0,0,0.30576000000000003
2.0065377470164094,0,0,1.6615759521484375,0,0,1.1465999999999998
2.0079201760236174,0,0,0.8882488159179687,0,0,1.1465999999999998
2.009302013000706,0,0,0.3711012573242187,0,0,0.68796
2.0106845710251946,0,0,0.5698199951171875,0,0,0.0
2.012067167001078,0,0,0.6871358764648438,0,0,0.30576000000000003
2.0134494850062765,0,0,0.9361328491210937,0,0,-0.99372
2.0148358040023595,0,0,0.8379705810546875,0,0,-0.45864
2.016220899007749,0,0,1.0223241088867188,0,0,0.07644000000000001
2.0176031440205406,0,0,0.8906430175781249,0,0,0.0
2.0189865730062593,0,0,0.6200982299804687,0,0,0.0
2.0203683170257136,0,0,0.565031591796875,0,0,0.0
2.021750042011263,0,0,0.1388636962890625,0,0,0.0
2.0231327680230606,0,0,0.12449848632812499,0,0,0.0
2.024513771000784,0,0,0.7829039428710937,0,0,0.3822
2.025895978003973,0,0,1.189918225097656,0,0,0.91728
2.027281500020763,0,0,1.6017209106445311,0,0,0.91728
2.0286627630121075,0,0,1.2018892333984375,0,0,1.37592
2.030044988001464,0,0,0.6560112548828124,0,0,0.6115200000000001
2.0314295470016077,0,0,0.1005564697265625,0,0,0.0
2.032811420998769,0,0,0.29927520751953124,0,0,-0.15288000000000002
2.034198091016151,0,0,1.455674609375,0,0,-0.45864
2.0355814460199326,0,0,1.66636435546875,0,0,0.3822
2.036964375001844,0,0,1.7812860351562498,0,0,0.7644
2.038346064015059,0,0,0.430956298828125,0,0,0.3822
2.039728604024276,0,0,0.08858546142578125,0,0,0.07644000000000001
2.041122422000626,0,0,0.0383072265625,0,0,-0.7644
2.0425050180056132,0,0,0.469263525390625,0,0,-0.30576000000000003
2.0438883550232276,0,0,1.1540052001953125,0,0,0.07644000000000001
2.045269988011569,0,0,1.4437036010742186,0,0,0.84084
2.046651712997118,0,0,1.0893617553710937,0,0,0.53508
2.048033994011348,0,0,1.0175357055664063,0,0,0.30576000000000003
2.0494159610243514,0,0,0.3758896606445312,0,0,0.6115200000000001
2.0508048710180447,0,0,0.3064578125,0,0,0.15288000000000002
2.0521871340170037,0,0,1.0893617553710937,0,0,0.45864
2.0535688410163857,0,0,1.3144167114257812,0,0,0.84084
2.0549511029967107,0,0,1.2689268798828124,0,0,0.07644000000000001
2.056333644024562,0,0,0.5865794067382812,0,0,0.6115200000000001
2.0577154619968496,0,0,0.7876923461914062,0,0,0.15288000000000002
2.0590969470213167,0,0,0.718260498046875,0,0,0.22932
2.0604769500205293,0,0,0.7038952880859375,0,0,0.0
2.0618569910002407,0,0,0.5099649536132812,0,0,0.0
2.0632625310099684,0,0,0.6703764648437499,0,0,-0.45864
2.0646382560080383,0,0,1.3623007446289062,0,0,0.22932
2.0660118340165354,0,0,1.4796166259765624,0,0,0.53508
2.067477003001841,0,0,0.8738836059570312,0,0,0.7644
2.068852506024996,0,0,0.5051765502929687,0,0,0.07644000000000001
2.0702258800156415,0,0,0.9720458740234375,0,0,0.45864
2.0716012720076833,0,0,1.1228805786132812,0,0,0.68796
2.073023794015171,0,0,1.5370774658203123,0,0,0.91728
2.0744859810220078,0,0,1.3718775512695311,0,0,1.2230400000000001
2.075900707015535,0,0,1.209071838378906,0,0,1.2230400000000001
2.0772750620089937,0,0,0.928950244140625,0,0,0.6115200000000001
2.0786485470016487,0,0,1.35990654296875,0,0,0.99372
2.080028383003082,0,0,1.8028338500976562,0,0,1.45236
2.0814017570228316,0,0,1.7166425903320313,0,0,1.1465999999999998
2.0827743720146827,0,0,1.6615759521484375,0,0,1.07016
2.084178671007976,0,0,1.0869675537109373,0,0,0.45864
2.085561804007739,0,0,1.0366893188476562,0,0,0.0
2.0869441220129374,0,0,1.199495031738281,0,0,0.45864
2.0883265700249467,0,0,1.6543933471679686,0,0,0.6115200000000001
2.089708129002247,0,0,1.4700398193359374,0,0,0.6115200000000001
2.091091114009032,0,0,1.3215993164062498,0,0,0.99372
2.0924719870090485,0,0,1.1563994018554686,0,0,0.91728
2.0938538610062096,0,0,0.9409212524414062,0,0,0.91728
2.0952368270081934,0,0,1.3048399047851562,0,0,1.37592
2.0966179970127996,0,0,1.5131354492187499,0,0,0.91728
2.097999315999914,0,0,1.6232687255859375,0,0,0.68796
2.0993818740244024,0,0,1.4772224243164063,0,0,0.53508
2.100763119000476,0,0,1.0941501586914062,0,0,1.2994800000000002
2.102144825999858,0,0,1.0797849487304687,0,0,0.99372
2.1035376990039367,0,0,1.0773907470703123,0,0,0.6115200000000001
2.1049196840031072,0,0,1.1156979736328125,0,0,0.6115200000000001
2.106301539024571,0,0,1.4006079711914061,0,0,0.3822
2.107683876005467,0,0,1.3335703247070312,0,0,0.68796
2.1090738979983144,0,0,1.5634136840820312,0,0,1.07016
2.110455326997908,0,0,1.3359645263671873,0,0,0.53508
2.1118365340225864,0,0,1.2904746948242187,0,0,0.53508
2.1132160930137616,0,0,1.2880804931640624,0,0,0.68796
2.114630151016172,0,0,1.1707646118164061,0,0,0.99372
2.1160759320191573,0,0,1.24498486328125,0,0,0.22932
2.1174966570106335,0,0,1.3742717529296875,0,0,0.68796
2.118951862998074,0,0,1.6735469604492186,0,0,0.84084
2.120384144014679,0,0,1.448492004394531,0,0,0.84084
2.1219927740166895,0,0,1.2665326782226562,0,0,0.6115200000000001
2.1247412810043897,0,0,0.9864110839843749,0,0,0.53508
2.126201987004606,0,0,1.1180921752929687,0,0,0.07644000000000001
2.1282435760076623,0,0,1.4341267944335936,0,0,0.7644
2.1303424420184456,0,0,1.4700398193359374,0,0,0.91728
2.1323890300118364,0,0,1.20667763671875,0,0,0.68796
2.13502077900921,0,0,1.1372457885742187,0,0,0.68796
2.136406801000703,0,0,1.3144167114257812,0,0,1.45236
2.137785471015377,0,0,1.3958195678710936,0,0,0.68796
2.139162400009809,0,0,1.5298948608398437,0,0,0.7644
2.1405356629984453,0,0,1.6017209106445311,0,0,0.91728
2.141909055004362,0,0,1.2378022583007813,0,0,1.07016
2.1432829110126477,0,0,1.0223241088867188,0,0,0.7644
2.144655618001707,0,0,0.9744400756835937,0,0,0.6115200000000001
2.146030491014244,0,0,1.1133037719726562,0,0,0.6115200000000001
2.1474056990118697,0,0,1.4532804077148436,0,0,-20
2.1487814800057095,0,0,1.4963760375976562,0,0,0.84084
2.1501550570246764,0,0,1.7477672119140624,0,0,0.91728
2.151550209004199,0,0,1.3670891479492187,0,0,0.53508
2.1529237310169265,0,0,1.120486376953125,0,0,0.68796
2.1542971600138117,0,0,1.139639990234375,0,0,0.45864
2.155672923021484,0,0,1.2114660400390624,0,0,0.68796
2.1570635740063153,0,0,1.5753846923828123,0,0,0.7644
2.1584375590027776,0,0,1.5610194824218748,0,0,1.2994800000000002
2.1598140990245156,0,0,1.2425906616210938,0,0,0.6115200000000001
2.1611874730151612,0,0,1.3072341064453123,0,0,0.68796
2.1625602730200626,0,0,1.2880804931640624,0,0,1.2994800000000002
2.16393490601331,0,0,1.1611878051757811,0,0,0.91728
2.1653085940051824,0,0,1.1420341918945311,0,0,0.91728
2.166681172006065,0,0,1.1659762084960936,0,0,1.07016
2.168054824025603,0,0,1.2761094848632812,0,0,0.30576000000000003
2.169427827000618,0,0,1.3623007446289062,0,0,0.53508
2.17080051600351,0,0,1.5035586425781249,0,0,1.2230400000000001
2.1721917410031892,0,0,1.2425906616210938,0,0,0.84084
2.173565763019724,0,0,1.2401964599609374,0,0,0.6115200000000001
2.1749393960053567,0,0,1.1755530151367186,0,0,0.45864
2.1763308250228874,0,0,1.189918225097656,0,0,0.53508
2.1777134770236444,0,0,1.3359645263671873,0,0,0.07644000000000001
2.1790958320198115,0,0,1.3287819213867187,0,0,0.6115200000000001
2.180477891000919,0,0,1.3287819213867187,0,0,0.84084
2.1818594869982917,0,0,1.3168109130859373,0,0,0.45864
2.183243231003871,0,0,1.3287819213867187,0,0,1.1465999999999998
2.1846232899988536,0,0,1.2880804931640624,0,0,1.07016
2.186005126015516,0,0,1.0989385620117187,0,0,0.91728
2.187388426013058,0,0,1.0797849487304687,0,0,1.45236
2.1887700400257017,0,0,1.2593500732421874,0,0,0.53508
2.190151896007592,0,0,1.3575123413085937,0,0,0.7644
2.191534658020828,0,0,1.6543933471679686,0,0,0.91728
2.1929165870242286,0,0,1.3168109130859373,0,0,0.84084
2.1942980170133524,0,0,1.3168109130859373,0,0,0.53508
2.195680409000488,0,0,1.0797849487304687,0,0,0.3822
2.197062134015141,0,0,1.0917559570312498,0,0,-9.172799999999999
2.198444786015898,0,0,1.2904746948242187,0,0,0.0
2.199827771022683,0,0,1.419761584472656,0,0,0.45864
2.2012097550032195,0,0,1.5825672973632812,0,0,0.6115200000000001
2.202591833018232,0,0,1.5418658691406248,0,0,0.68796
2.203974466014188,0,0,1.3144167114257812,0,0,0.91728
2.205356043006759,0,0,1.0510545288085937,0,0,0.84084
2.2067373800091445,0,0,1.1635820068359375,0,0,1.1465999999999998
2.2081200310203712,0,0,1.3000515014648437,0,0,1.45236
2.209501700999681,0,0,1.4724340209960938,0,0,0.91728
2.210883427003864,0,0,1.3862427612304686,0,0,1.2230400000000001
2.2122876710200217,0,0,1.6304513305664061,0,0,1.07016
2.2136712850187905,0,0,1.2785036865234374,0,0,0.99372
2.21505619600066,0,0,1.1947066284179686,0,0,0.68796
2.216436310001882,0,0,1.2808978881835937,0,0,0.30576000000000003
2.2178186290257145,0,0,1.2114660400390624,0,0,0.3822
2.21921003900934,0,0,1.369483349609375,0,0,0.07644000000000001
2.2206144870142452,0,0,1.5083470458984374,0,0,0.53508
2.221997694025049,0,0,1.6112977172851561,0,0,0.84084
2.223381067014998,0,0,1.2928688964843749,0,0,0.91728
2.2247619970003143,0,0,1.3263877197265623,0,0,0.7644
2.226144648011541,0,0,1.1109095703125,0,0,0.7644
2.22752672599745,0,0,1.0989385620117187,0,0,0.7644
2.228908636025153,0,0,1.189918225097656,0,0,0.45864
2.2302993799967226,0,0,1.3072341064453123,0,0,0.68796
2.2316845870227553,0,0,1.3048399047851562,0,0,0.68796
2.233067220018711,0,0,1.4006079711914061,0,0,0.7644
2.234449964016676,0,0,1.3215993164062498,0,0,1.1465999999999998
2.2358331340074074,0,0,1.1348515869140625,0,0,0.99372
2.237215452012606,0,0,1.0989385620117187,0,0,0.53508
2.238597659015795,0,0,1.1731588134765625,0,0,0.45864
2.2399808110203594,0,0,1.37906015625,0,0,0.22932
2.241362572996877,0,0,1.369483349609375,0,0,0.45864
2.242744503018912,0,0,1.5298948608398437,0,0,0.84084
2.244127173005836,0,0,1.3623007446289062,0,0,0.7644
2.2455121200182475,0,0,1.2856862915039062,0,0,0.68796
2.2468943270214368,0,0,1.1635820068359375,0,0,0.7644
2.2482792010123376,0,0,1.1611878051757811,0,0,0.68796
2.2496612970135175,0,0,1.3072341064453123,0,0,0.15288000000000002
2.251044133998221,0,0,1.4413093994140624,0,0,0.84084
2.252425859012874,0,0,1.4437036010742186,0,0,0.30576000000000003
2.253807400004007,0,0,1.2234370483398436,0,0,0.84084
2.2551902920240536,0,0,1.20667763671875,0,0,1.2994800000000002
2.2565720730053727,0,0,1.1013327636718748,0,0,1.07016
2.2579540950246155,0,0,1.0558429321289062,0,0,0.6115200000000001
2.25933670901577,0,0,1.180341418457031,0,0,0.91728
2.260717379016569,0,0,1.2617442749023438,0,0,0.53508
2.2620973830053117,0,0,1.3168109130859373,0,0,0.6115200000000001
2.2637060130073223,0,0,1.5753846923828123,0,0,0.99372
2.265088961023139,0,0,1.2785036865234374,0,0,1.1465999999999998
2.266462557017803,0,0,1.2761094848632812,0,0,0.6115200000000001
2.2678770780039486,0,0,1.1348515869140625,0,0,0.7644
2.269251545018051,0,0,1.0534487304687499,0,0,0.68796
2.270624400000088,0,0,1.3646949462890625,0,0,0.3822
2.271998217998771,0,0,1.3192051147460937,0,0,0.68796
2.2733710550237447,0,0,1.3814543579101561,0,0,0.7644
2.2747435769997537,0,0,1.3144167114257812,0,0,0.68796
2.2761175430205185,0,0,1.3479355346679687,0,0,0.91728
2.2774904730031267,0,0,1.0965443603515623,0,0,0.91728
2.27886312402552,0,0,1.0127473022460938,0,0,0.84084
2.280237017024774,0,0,1.1923124267578125,0,0,0.68796
2.2816101869975682,0,0,1.2593500732421874,0,0,0.91728
2.282992523018038,0,0,1.3958195678710936,0,0,0.53508
2.284366268024314,0,0,1.637633935546875,0,0,0.91728
2.28573940100614,0,0,1.3192051147460937,0,0,0.99372
2.2871191820013337,0,0,1.1851298217773436,0,0,0.7644
2.2885116480174474,0,0,1.1013327636718748,0,0,0.84084
2.2899605389975477,0,0,1.158793603515625,0,0,0.7644
2.2913458390103187,0,0,1.3527239379882812,0,0,0.0
2.29274752701167,0,0,1.3287819213867187,0,0,0.45864
2.2941331600013655,0,0,1.6328455322265625,0,0,0.91728
2.2955163860169705,0,0,1.2689268798828124,0,0,0.7644
2.296898925997084,0,0,1.2425906616210938,0,0,0.84084
2.2982816330040805,0,0,1.1133037719726562,0,0,0.53508
2.2996644700178877,0,0,1.1276689819335937,0,0,0.53508
2.3010465470142663,0,0,1.3096283081054687,0,0,0.7644
2.3024284389975946,0,0,1.5059528442382812,0,0,0.99372
2.3038109430053737,0,0,1.5298948608398437,0,0,0.3822
2.305183835007483,0,0,1.4437036010742186,0,0,0.6115200000000001
2.3065569500031415,0,0,1.1324573852539062,0,0,0.91728
2.307954805000918,0,0,1.1468225952148436,0,0,0.84084
2.309337159997085,0,0,1.1180921752929687,0,0,0.91728
2.310719571018126,0,0,1.2521674682617188,0,0,1.5288
2.312100981012918,0,0,1.467645617675781,0,0,0.53508
2.3134997810120694,0,0,1.455674609375,0,0,0.53508
2.3148838769993745,0,0,1.5849614990234373,0,0,0.68796
2.3162681579997297,0,0,1.2665326782226562,0,0,1.07016
2.317651272023795,0,0,1.3311761230468748,0,0,0.3822
2.3190307570039295,0,0,1.2306196533203124,0,0,0.3822
2.32040366801084,0,0,1.218648645019531,0,0,0.07644000000000001
2.3217764490109403,0,0,1.3407529296874998,0,0,0.07644000000000001
2.3231882480031345,0,0,1.3910311645507811,0,0,0.68796
2.3246462140232325,0,0,1.5849614990234373,0,0,0.53508
2.3260348650219385,0,0,1.2569558715820313,0,0,0.45864
2.3274223870248534,0,0,1.2378022583007813,0,0,1.07016
2.328805630997522,0,0,1.197100830078125,0,0,0.3822
2.3301876159966923,0,0,1.0845733520507812,0,0,0.99372
2.3315699160157237,0,0,1.1156979736328125,0,0,1.45236
2.332952030003071,0,0,1.3862427612304686,0,0,1.1465999999999998
2.3343338670092635,0,0,1.3359645263671873,0,0,0.6115200000000001
2.3357162030006293,0,0,1.4221557861328125,0,0,0.91728
2.337098836025689,0,0,1.199495031738281,0,0,0.99372
2.3384875990159344,0,0,1.1180921752929687,0,0,0.68796
2.339870158000849,0,0,1.1324573852539062,0,0,0.7644
2.3412519760022406,0,0,1.1611878051757811,0,0,0.30576000000000003
2.3426341460144613,0,0,1.4437036010742186,0,0,-0.15288000000000002
2.344017649011221,0,0,1.4125789794921875,0,0,0.84084
2.3454010040150024,0,0,1.6472107421875,0,0,0.84084
2.3468041550077032,0,0,1.2114660400390624,0,0,0.91728
2.3481869740062393,0,0,1.3215993164062498,0,0,0.68796
2.349572403007187,0,0,1.0941501586914062,0,0,0.68796
2.3509783500048798,0,0,1.0869675537109373,0,0,0.68796
2.352361446013674,0,0,1.218648645019531,0,0,0.6115200000000001
2.35374291302287,0,0,1.3862427612304686,0,0,0.53508
2.3551262310065795,0,0,1.3311761230468748,0,0,0.45864
2.356508067023242,0,0,1.6041151123046875,0,0,0.6115200000000001
2.357889552018605,0,0,1.2808978881835937,0,0,1.07016
2.3592722590256017,0,0,1.1851298217773436,0,0,0.91728
2.360654076997889,0,0,1.0797849487304687,0,0,0.7644
2.3620355440070853,0,0,1.1468225952148436,0,0,1.2230400000000001
2.363419640023494,0,0,1.3407529296874998,0,0,0.45864
2.364800310024293,0,0,1.2928688964843749,0,0,0.7644
2.366181609017076,0,0,1.6328455322265625,0,0,0.99372
2.3675643900060095,0,0,1.2617442749023438,0,0,0.68796
2.368946134025464,0,0,1.35990654296875,0,0,0.68796
2.370328082004562,0,0,1.0869675537109373,0,0,0.45864
2.3717097520129755,0,0,1.1851298217773436,0,0,0.53508
2.3730912739993073,0,0,1.3646949462890625,0,0,0.22932
2.3744726110016927,0,0,1.426944189453125,0,0,0.68796
2.3758560770074837,0,0,1.637633935546875,0,0,0.6115200000000001
2.377237803011667,0,0,1.4700398193359374,0,0,0.68796
2.3786194910062477,0,0,1.2665326782226562,0,0,1.07016
2.3800010870036203,0,0,1.1420341918945311,0,0,1.2230400000000001
2.3813829610007815,0,0,1.209071838378906,0,0,0.91728
2.3827643530094065,0,0,1.3168109130859373,0,0,1.5288
2.384145782009,0,0,1.5155296508789062,0,0,0.68796
2.3855272860091645,0,0,1.3838485595703125,0,0,0.68796
2.3869769550219644,0,0,1.6472107421875,0,0,0.91728
2.388359514006879,0,0,1.2737152832031249,0,0,0.6115200000000001
2.389742258004844,0,0,1.120486376953125,0,0,0.99372
2.3911252980178688,0,0,1.177947216796875,0,0,0.45864
2.3925065610092133,0,0,1.1875240234375,0,0,0.30576000000000003
2.3938882680085953,0,0,1.37906015625,0,0,-20
2.3952831409987994,0,0,1.465251416015625,0,0,0.53508
2.396664422005415,0,0,1.62805712890625,0,0,0.7644
2.3980463890184183,0,0,1.3527239379882812,0,0,0.7644
2.3994293180003297,0,0,1.2401964599609374,0,0,0.91728
2.4008100620121695,0,0,1.158793603515625,0,0,0.45864
2.4021920100203715,0,0,1.177947216796875,0,0,0.68796
2.4035742170235608,0,0,1.3215993164062498,0,0,1.45236
2.404963127017254,0,0,1.4006079711914061,0,0,0.84084
2.4063452790142037,0,0,1.3024457031249999,0,0,0.68796
2.4077272640133742,0,0,1.429338391113281,0,0,0.99372
2.4091087670240086,0,0,1.0821791503906248,0,0,1.1465999999999998
2.410490752023179,0,0,1.3623007446289062,0,0,0.53508
2.4118727000022773,0,0,1.0893617553710937,0,0,0.84084
2.413253981008893,0,0,1.1420341918945311,0,0,0.6115200000000001
2.4146355030243285,0,0,1.37906015625,0,0,-0.3822
2.416018932010047,0,0,1.3718775512695311,0,0,1.07016
2.4174008240224794,0,0,1.426944189453125,0,0,1.1465999999999998
2.4187822900130413,0,0,1.1468225952148436,0,0,0.6115200000000001
2.42016460900777,0,0,1.3072341064453123,0,0,0.7644
2.421546149009373,0,0,1.1156979736328125,0,0,0.6115200000000001
2.4229288000205997,0,0,1.1061211669921875,0,0,0.45864
2.424310193018755,0,0,1.2593500732421874,0,0,0.7644
2.425691437005298,0,0,1.2976572998046874,0,0,0.7644
2.4270739589992445,0,0,1.2761094848632812,0,0,0.45864
2.428455073008081,0,0,1.6160861206054686,0,0,0.22932
2.42983703900245,0,0,1.180341418457031,0,0,1.07016
2.431218876008643,0,0,1.1085153686523437,0,0,0.84084
2.432600379019277,0,0,1.1563994018554686,0,0,0.7644
2.4339820120076183,0,0,1.1851298217773436,0,0,1.2230400000000001
2.435364645003574,0,0,1.22583125,0,0,0.0
2.436746260005748,0,0,1.24498486328125,0,0,0.6115200000000001
2.4381360960251186,0,0,1.6448165405273436,0,0,1.07016
2.4395194700045977,0,0,1.3239935180664062,0,0,0.84084
2.4409017330035567,0,0,1.3048399047851562,0,0,0.68796
2.442283477023011,0,0,1.1109095703125,0,0,0.45864
2.443665739003336,0,0,1.1827356201171875,0,0,0.45864
2.4450478540093172,0,0,1.0893617553710937,0,0,0.07644000000000001
2.4464294869976584,0,0,1.4820108276367188,0,0,0.91728
2.4478117859980557,0,0,1.6160861206054686,0,0,0.68796
2.4491931600205135,0,0,1.6639701538085936,0,0,0.3822
2.450575293012662,0,0,1.3120225097656248,0,0,1.1465999999999998
2.4519571300188545,0,0,1.1635820068359375,0,0,1.07016
2.453338799998164,0,0,1.197100830078125,0,0,0.99372
2.4547204510017764,0,0,1.2761094848632812,0,0,1.37592
2.4561021030240227,0,0,1.5227122558593749,0,0,1.1465999999999998
2.4574837170075625,0,0,1.369483349609375,0,0,0.7644
2.458865443011746,0,0,1.6065093139648436,0,0,0.68796
2.4602477790031116,0,0,1.2425906616210938,0,0,0.84084
2.46162904202356,0,0,1.197100830078125,0,0,0.7644
2.4630392670223955,0,0,1.189918225097656,0,0,0.84084
2.464441603020532,0,0,1.180341418457031,0,0,0.22932
2.465815255010966,0,0,1.3479355346679687,0,0,-0.53508
2.4671926660230383,0,0,1.5275006591796874,0,0,0.3822
2.468584225018276,0,0,1.618480322265625,0,0,0.84084
2.469958672008943,0,0,1.2665326782226562,0,0,0.6115200000000001
2.4713338240107987,0,0,1.3287819213867187,0,0,1.07016
2.472707161010476,0,0,1.1635820068359375,0,0,0.99372
2.4740802200103644,0,0,1.1444283935546875,0,0,0.91728
2.4754834820050746,0,0,1.2976572998046874,0,0,1.2230400000000001
2.476856449007755,0,0,1.37906015625,0,0,0.91728
2.4782291000010446,0,0,1.3048399047851562,0,0,0.7644
2.4796037890191656,0,0,1.350329736328125,0,0,0.7644
2.480978107021656,0,0,1.1923124267578125,0,0,0.68796
2.4823620920069516,0,0,1.2737152832031249,0,0,0.99372
2.48373698402429,0,0,1.0654197387695312,0,0,0.53508
2.4851107280119322,0,0,1.0917559570312498,0,0,0.99372
2.4864832870080136,0,0,1.3335703247070312,0,0,0.07644000000000001
2.48787819800782,0,0,1.3096283081054687,0,0,0.3822
2.4892615340068005,0,0,1.3814543579101561,0,0,0.53508
2.4906447600224055,0,0,1.2880804931640624,0,0,0.6115200000000001
2.4920276339980774,0,0,1.3479355346679687,0,0,0.84084
2.4934107669978403,0,0,1.0654197387695312,0,0,0.7644
2.4947934000228997,0,0,1.0726023437499999,0,0,0.84084
2.4961766250198707,0,0,1.3168109130859373,0,0,0.6115200000000001
2.497559628012823,0,0,1.3958195678710936,0,0,0.91728
2.498943484009942,0,0,1.4508862060546874,0,0,0.53508
2.5003256910131313,0,0,1.8100164550781248,0,0,1.2230400000000001
2.501709287025733,0,0,1.3024457031249999,0,0,1.1465999999999998
2.503093160019489,0,0,1.3048399047851562,0,0,1.1465999999999998
2.5044750710076187,0,0,1.1563994018554686,0,0,0.68796
2.5058578710013535,0,0,1.197100830078125,0,0,1.1465999999999998
2.507242263003718,0,0,1.3000515014648437,0,0,0.53508
2.508624285022961,0,0,1.3335703247070312,0,0,0.99372
2.510007343022153,0,0,1.5969325073242187,0,0,1.07016
2.511391364998417,0,0,1.3239935180664062,0,0,0.91728
2.5127945910207927,0,0,1.1827356201171875,0,0,0.6115200000000001
2.514177446020767,0,0,1.1085153686523437,0,0,0.53508
2.515555171004962,0,0,1.1276689819335937,0,0,0.6115200000000001
2.5169283040158916,0,0,1.2330138549804688,0,0,0.30576000000000003
2.518300938012544,0,0,1.426944189453125,0,0,0.7644
2.519684163009515,0,0,1.4772224243164063,0,0,0.6115200000000001
2.5210787400137633,0,0,1.5179238525390624,0,0,0.68796
2.5224623730173334,0,0,1.254561669921875,0,0,1.2230400000000001
2.523845857998822,0,0,1.0989385620117187,0,0,0.99372
2.5252350280061364,0,0,1.0965443603515623,0,0,0.7644
2.526617587020155,0,0,1.2785036865234374,0,0,1.1465999999999998
2.5280000350030605,0,0,1.3934253662109375,0,0,0.7644
2.5296891090110876,0,0,1.4724340209960938,0,0,0.7644
2.5311247229983564,0,0,1.5442600708007812,0,0,0.7644
2.5325058180023916,0,0,1.2617442749023438,0,0,0.91728
2.533889137004735,0,0,1.0773907470703123,0,0,0.91728
2.5352731950115412,0,0,0.9840168823242187,0,0,0.68796
2.5366568099998403,0,0,1.2593500732421874,0,0,1.2230400000000001
2.538040239014663,0,0,1.4341267944335936,0,0,0.6115200000000001
2.539424205024261,0,0,1.419761584472656,0,0,0.84084
2.540806449018419,0,0,1.6400281372070311,0,0,1.07016
2.5421890639991034,0,0,1.235408056640625,0,0,0.84084
2.5435718260123394,0,0,1.0869675537109373,0,0,0.6115200000000001
2.544954996003071,0,0,1.0797849487304687,0,0,0.6115200000000001
2.546337815001607,0,0,1.1420341918945311,0,0,-9.24924
2.547723059018608,0,0,1.3670891479492187,0,0,0.3822
2.5491072660079226,0,0,1.4006079711914061,0,0,0.6115200000000001
2.5504900840169284,0,0,1.5155296508789062,0,0,0.68796
2.551873754011467,0,0,1.455674609375,0,0,0.7644
2.5532569240021985,0,0,1.1037269653320312,0,0,1.1465999999999998
2.5546399270242546,0,0,1.177947216796875,0,0,1.07016
2.556023356009973,0,0,1.0726023437499999,0,0,0.84084
2.5574063780077267,0,0,1.1659762084960936,0,0,1.37592
2.5587892699986696,0,0,1.3096283081054687,0,0,0.68796
2.5601764770108275,0,0,1.2425906616210938,0,0,0.91728
2.561559888010379,0,0,1.6017209106445311,0,0,0.91728
2.5629438730247784,0,0,1.3024457031249999,0,0,1.07016
2.5643263760139234,0,0,1.2473790649414063,0,0,0.7644
2.565711472008843,0,0,1.1324573852539062,0,0,0.7644
2.5670947530015837,0,0,1.0486603271484374,0,0,0.53508
2.568470682017505,0,0,1.3120225097656248,0,0,0.15288000000000002
2.5698615190049168,0,0,1.5251064575195312,0,0,0.6115200000000001
2.57126630001585,0,0,1.5753846923828123,0,0,0.7644
2.5727150620077737,0,0,1.4006079711914061,0,0,0.84084
2.5741860830166843,0,0,1.3120225097656248,0,0,0.68796
2.575737842998933,0,0,1.20667763671875,0,0,0.45864
2.577123791008489,0,0,1.1156979736328125,0,0,0.68796
2.5785078310000245,0,0,1.3766659545898436,0,0,0.0
2.5799031680217013,0,0,1.3814543579101561,0,0,0.45864
2.58127733800211,0,0,1.599326708984375,0,0,0.45864
2.5826512120256666,0,0,1.4006079711914061,0,0,0.91728
2.584035011008382,0,0,1.1133037719726562,0,0,1.07016
2.5854170150123537,0,0,1.1228805786132812,0,0,1.1465999999999998
2.5867997770255897,0,0,1.0031704956054688,0,0,0.84084
2.5881820770155173,0,0,1.1109095703125,0,0,0.68796
2.5895639689988457,0,0,1.4867992309570313,0,0,0.68796
2.590947139018681,0,0,1.2497732666015624,0,0,0.7644
2.5925939910230227,0,0,1.5203180541992187,0,0,0.84084
2.593994532013312,0,0,1.2785036865234374,0,0,0.99372
2.595388276007725,0,0,1.0773907470703123,0,0,0.6115200000000001
2.596777557017049,0,0,1.139639990234375,0,0,0.53508
2.598165671020979,0,0,1.0893617553710937,0,0,0.53508
2.5995532480010297,0,0,1.37906015625,0,0,9.40212
2.6009413810097612,0,0,1.235408056640625,0,0,0.68796
2.6023282180249225,0,0,1.5801730957031248,0,0,0.91728
2.603711461997591,0,0,1.3144167114257812,0,0,0.7644
2.6050905950251035,0,0,1.3120225097656248,0,0,0.7644
2.6064695800014306,0,0,1.197100830078125,0,0,0.6115200000000001
2.6078583050111774,0,0,1.158793603515625,0,0,0.6115200000000001
2.6092456230253447,0,0,1.3455413330078123,0,0,1.07016
2.6106323120184243,0,0,1.3862427612304686,0,0,0.6115200000000001
2.6121313690091483,0,0,1.3407529296874998,0,0,0.6115200000000001
2.61353170601069,0,0,1.4700398193359374,0,0,0.7644
2.614947394002229,0,0,1.2497732666015624,0,0,1.07016
2.616337656014366,0,0,1.218648645019531,0,0,0.91728
2.6177257710078266,0,0,1.0199299072265624,0,0,1.07016
2.619113885011757,0,0,1.1037269653320312,0,0,1.68168
2.620500314020319,0,0,1.419761584472656,0,0,0.68796
2.621887929009972,0,0,1.4006079711914061,0,0,0.99372
2.6232720800035167,0,0,1.5203180541992187,0,0,0.84084
2.6246498610125855,0,0,1.2617442749023438,0,0,0.99372
2.6260283830051776,0,0,1.2473790649414063,0,0,0.53508
2.6274135350249708,0,0,1.1061211669921875,0,0,0.3822
2.6288001680222806,0,0,0.9696516723632812,0,0,0.30576000000000003
2.630187097005546,0,0,1.407790576171875,0,0,0.15288000000000002
2.631585304014152,0,0,1.4341267944335936,0,0,0.30576000000000003
2.6329732880112715,0,0,1.37906015625,0,0,0.53508
2.6343601810222026,0,0,1.2330138549804688,0,0,0.7644
2.6357470540096983,0,0,1.1324573852539062,0,0,0.7644
2.6371339650067966,0,0,1.1851298217773436,0,0,0.91728
2.638529339019442,0,0,1.1156979736328125,0,0,0.7644
2.6399107860052027,0,0,1.3670891479492187,0,0,1.1465999999999998
2.6412891230138484,0,0,1.4149731811523436,0,0,1.1465999999999998
2.6426673300156835,0,0,1.2234370483398436,0,0,0.99372
2.644055944023421,0,0,1.656787548828125,0,0,0.84084
2.6454426140116993,0,0,1.197100830078125,0,0,0.91728
2.6468288030009717,0,0,1.3215993164062498,0,0,0.84084
2.6482152140233666,0,0,1.1444283935546875,0,0,0.45864
2.6496017720201053,0,0,1.0989385620117187,0,0,1.07016
2.651043423014926,0,0,1.2761094848632812,0,0,0.22932
2.652422130020568,0,0,1.3670891479492187,0,0,0.7644
2.653800245025195,0,0,1.8100164550781248,0,0,0.7644
2.6551828590163495,0,0,1.1540052001953125,0,0,0.6115200000000001
2.6565691770229023,0,0,1.2569558715820313,0,0,0.68796
2.6579615689988714,0,0,1.1755530151367186,0,0,0.45864
2.659354832023382,0,0,1.1372457885742187,0,0,0.30576000000000003
2.6607351319980808,0,0,1.2617442749023438,0,0,0.30576000000000003
2.6621137270121835,0,0,1.4437036010742186,0,0,0.7644
2.663511731021572,0,0,1.4413093994140624,0,0,0.53508
2.664897512004245,0,0,1.3910311645507811,0,0,0.53508
2.666287515021395,0,0,1.2808978881835937,0,0,1.1465999999999998
2.667679592006607,0,0,1.1731588134765625,0,0,1.1465999999999998
2.669066466012737,0,0,1.2689268798828124,0,0,1.1465999999999998
2.6704528400150593,0,0,1.1133037719726562,0,0,1.1465999999999998
2.671839380025631,0,0,1.2761094848632812,0,0,0.45864
2.6732259940181393,0,0,1.3958195678710936,0,0,1.07016
2.674612127011642,0,0,1.697488977050781,0,0,1.07016
2.6759928710234817,0,0,1.24498486328125,0,0,0.84084
2.677370985999005,0,0,1.1444283935546875,0,0,0.53508
2.6787487850233447,0,0,1.1827356201171875,0,0,0.7644
2.6801381219993345,0,0,1.158793603515625,0,0,0.45864
2.6815250880026724,0,0,1.4125789794921875,0,0,0.07644000000000001
2.6829219619976357,0,0,1.5634136840820312,0,0,0.68796
2.6843087980232667,0,0,1.6136919189453125,0,0,1.07016
2.6856950240035076,0,0,1.2378022583007813,0,0,0.7644
2.687082342017675,0,0,1.3335703247070312,0,0,1.2230400000000001
2.688468938024016,0,0,1.2234370483398436,0,0,0.7644
2.6898557190143038,0,0,1.16837041015625,0,0,0.84084
2.6912534260191023,0,0,1.369483349609375,0,0,1.1465999999999998
2.692639244021848,0,0,1.455674609375,0,0,0.6115200000000001
2.6940261920099147,0,0,1.2952630981445312,0,0,0.68796
2.6954140280140564,0,0,1.5969325073242187,0,0,0.99372
2.6968116800126154,0,0,1.235408056640625,0,0,0.91728
2.6981986090249848,0,0,1.1540052001953125,0,0,1.1465999999999998
2.6995860190072563,0,0,1.180341418457031,0,0,0.6115200000000001
2.7009791340096854,0,0,1.209071838378906,0,0,0.53508
2.702366230019834,0,0,1.4030021728515625,0,0,0.15288000000000002
2.703753214009339,0,0,1.4053963745117186,0,0,0.68796
2.705139236000832,0,0,1.6472107421875,0,0,0.91728
2.706525739020435,0,0,1.3192051147460937,0,0,0.68796
2.7079062980192248,0,0,1.1324573852539062,0,0,0.68796
2.709284413023852,0,0,1.1180921752929687,0,0,0.30576000000000003
2.7106621940038167,0,0,1.0678139404296874,0,0,0.6115200000000001
2.7132272029994056,0,0,1.388636962890625,0,0,0.7644
2.7146138730167877,0,0,1.2617442749023438,0,0,0.7644
2.715999913023552,0,0,1.5777788940429687,0,0,0.91728
2.7173857870220672,0,0,1.1875240234375,0,0,0.84084
2.7187708830169868,0,0,1.1611878051757811,0,0,0.99372
2.7201567930169404,0,0,1.1516109985351561,0,0,0.84084
2.7215426480106544,0,0,1.1276689819335937,0,0,0.91728
2.722928541013971,0,0,1.37906015625,0,0,0.07644000000000001
2.7243140439968556,0,0,1.2641384765625,0,0,0.68796
2.7256994729978032,0,0,1.5179238525390624,0,0,0.7644
2.727085402002558,0,0,1.2880804931640624,0,0,0.99372
2.728469906025566,0,0,1.24498486328125,0,0,0.68796
2.729854798002634,0,0,1.199495031738281,0,0,0.84084
2.7312411530001555,0,0,1.254561669921875,0,0,0.68796
2.73262602702016,0,0,1.3431471313476562,0,0,0.68796
2.734011400025338,0,0,1.407790576171875,0,0,0.68796
2.735397793003358,0,0,1.438915197753906,0,0,0.84084
2.7367826480185613,0,0,1.5777788940429687,0,0,0.91728
2.73816785501549,0,0,1.3024457031249999,0,0,0.99372
2.7395534140232485,0,0,0.9983820922851562,0,0,1.07016
2.74099484202452,0,0,1.1420341918945311,0,0,0.84084
2.7424141600204166,0,0,1.180341418457031,0,0,0.99372
2.7438078109989874,0,0,1.2330138549804688,0,0,0.45864
2.74519412900554,0,0,1.3527239379882812,0,0,0.6115200000000001
2.74659952102229,0,0,1.66636435546875,0,0,1.07016
2.747986580012366,0,0,1.2306196533203124,0,0,1.2230400000000001
2.7493735830066726,0,0,1.2018892333984375,0,0,0.99372
2.7507600680110045,0,0,1.149216796875,0,0,0.68796
2.7521406460145954,0,0,1.1947066284179686,0,0,0.45864
2.7535193160001654,0,0,1.4053963745117186,0,0,0.07644000000000001
2.754898134007817,0,0,1.4963760375976562,0,0,0.30576000000000003
2.7563183029997163,0,0,1.5849614990234373,0,0,0.6115200000000001
2.757702621020144,0,0,1.2832920898437499,0,0,0.45864
2.759100051014684,0,0,1.3000515014648437,0,0,1.07016
2.760488443018403,0,0,1.216254443359375,0,0,0.91728
2.7618752240086906,0,0,1.24498486328125,0,0,1.1465999999999998
2.7632630419975612,0,0,1.2425906616210938,0,0,1.2994800000000002
2.7646488410246093,0,0,1.3575123413085937,0,0,0.99372
2.766035789012676,0,0,1.35990654296875,0,0,0.68796
2.7674196070001926,0,0,1.5298948608398437,0,0,1.1465999999999998
2.7687971660052426,0,0,1.2401964599609374,0,0,0.7644
2.7701751330168918,0,0,1.13006318359375,0,0,0.84084
2.7715634690248407,0,0,1.0893617553710937,0,0,0.99372
2.7729503980081063,0,0,1.2497732666015624,0,0,0.15288000000000002
2.774336883012438,0,0,1.429338391113281,0,0,9.631440000000001
2.7757184610236436,0,0,1.4221557861328125,0,0,0.84084
2.777096927020466,0,0,1.5634136840820312,0,0,0.7644
2.7784753930172883,0,0,1.3168109130859373,0,0,0.6115200000000001
2.7798611930047628,0,0,1.3359645263671873,0,0,1.2230400000000001
2.781247159000486,0,0,1.16837041015625,0,0,0.53508
2.782632996008033,0,0,1.1827356201171875,0,0,0.84084
2.7840184430242516,0,0,1.3718775512695311,0,0,0.84084
2.785404224006925,0,0,1.4149731811523436,0,0,0.99372
2.786790024023503,0,0,1.2785036865234374,0,0,0.84084
2.788175694004167,0,0,1.4317325927734375,0,0,0.84084
2.7895692710008007,0,0,1.2497732666015624,0,0,0.99372
2.790965608000988,0,0,1.1827356201171875,0,0,0.91728
2.7923510370019358,0,0,1.0773907470703123,0,0,0.6115200000000001
2.7937368180137128,0,0,0.9600748657226562,0,0,0.91728
2.7951228210004047,0,0,1.5203180541992187,0,0,0.22932
2.796507417020621,0,0,1.5251064575195312,0,0,0.53508
2.7978928280062973,0,0,1.4173673828125,0,0,0.84084
2.7992789609998,0,0,1.216254443359375,0,0,0.91728
2.800664205016801,0,0,1.1947066284179686,0,0,0.53508
2.8020494670199696,0,0,1.0127473022460938,0,0,0.6115200000000001
2.8034361000172794,0,0,1.0893617553710937,0,0,0.45864
2.8048214740119874,0,0,1.2737152832031249,0,0,0.84084
2.8062071810127236,0,0,1.4173673828125,0,0,0.7644
2.8075936100212857,0,0,1.3000515014648437,0,0,0.53508
2.8089789650111925,0,0,1.2689268798828124,0,0,0.68796
2.810364154021954,0,0,1.2114660400390624,0,0,0.99372
2.811750082997605,0,0,1.0941501586914062,0,0,0.91728
2.813178919022903,0,0,1.218648645019531,0,0,0.7644
2.8145749969989993,0,0,1.3359645263671873,0,0,0.84084
2.815961722022621,0,0,1.2497732666015624,0,0,0.68796
2.81734668801073,0,0,1.2401964599609374,0,0,0.7644
2.818735192005988,0,0,1.5490484741210937,0,0,1.1465999999999998
2.820121416996699,0,0,1.2641384765625,0,0,1.07016
2.821507050015498,0,0,1.22583125,0,0,0.53508
2.8228947010065895,0,0,1.1468225952148436,0,0,0.7644
2.825279897020664,0,0,1.3335703247070312,0,0,0.91728
2.8266687340219505,0,0,1.5059528442382812,0,0,0.84084
2.8280536259990185,0,0,1.5322890624999999,0,0,0.84084
2.829436333006015,0,0,1.5442600708007812,0,0,0.68796
2.8308187990041915,0,0,1.22583125,0,0,0.7644
2.8322015250159893,0,0,1.0821791503906248,0,0,1.1465999999999998
2.833593584015034,0,0,1.2234370483398436,0,0,0.84084
2.8349962909996975,0,0,1.2306196533203124,0,0,0.6115200000000001
2.836378924024757,0,0,1.4532804077148436,0,0,0.6115200000000001
2.8377616310026497,0,0,1.5155296508789062,0,0,0.68796
2.839144227007637,0,0,1.5586252807617187,0,0,0.84084
2.8405267850030214,0,0,1.3359645263671873,0,0,0.68796
2.841908789006993,0,0,1.2114660400390624,0,0,0.30576000000000003
2.843292069999734,0,0,1.235408056640625,0,0,0.45864
2.8446732770244125,0,0,1.1563994018554686,0,0,0.3822
2.84605557602481,0,0,1.3383587280273437,0,0,0.07644000000000001
2.847452746005729,0,0,1.2473790649414063,0,0,0.6115200000000001
2.8488353050197475,0,0,1.6328455322265625,0,0,0.91728
2.8502172529988457,0,0,1.467645617675781,0,0,0.91728
2.8515999230148736,0,0,1.3718775512695311,0,0,1.07016
2.852982204,0,0,1.0797849487304687,0,0,1.07016
2.85436424400541,0,0,1.0462661254882812,0,0,0.91728
2.8557473590190057,0,0,1.0989385620117187,0,0,0.99372
2.8571338250185363,0,0,1.5179238525390624,0,0,1.2994800000000002
2.8585158470086753,0,0,1.2330138549804688,0,0,0.99372
2.8598990730242804,0,0,1.4437036010742186,0,0,1.1465999999999998
2.8612813350046054,0,0,1.209071838378906,0,0,1.07016
2.862663338019047,0,0,1.3958195678710936,0,0,0.6115200000000001
2.8640834520047065,0,0,1.1875240234375,0,0,0.45864
2.8654583080206066,0,0,1.1324573852539062,0,0,0.45864
2.866831848019501,0,0,1.429338391113281,0,0,0.0
2.868224074016325,0,0,1.4987702392578124,0,0,0.45864
2.8695984840160236,0,0,1.4915876342773438,0,0,0.6115200000000001
2.8709799320204183,0,0,1.199495031738281,0,0,0.68796
2.8723532870062627,0,0,1.1444283935546875,0,0,0.99372
2.8737951049988624,0,0,1.20667763671875,0,0,0.91728
2.875172644999111,0,0,1.2018892333984375,0,0,0.99372
2.876545667008031,0,0,1.35990654296875,0,0,0.99372
2.8779252630192786,0,0,1.2856862915039062,0,0,0.6115200000000001
2.8793013780086767,0,0,1.2808978881835937,0,0,1.07016
2.880674733023625,0,0,1.678335363769531,0,0,1.07016
2.8820478480192833,0,0,1.3575123413085937,0,0,0.99372
2.883422666025581,0,0,1.3144167114257812,0,0,0.91728
2.884795279998798,0,0,1.0630255371093749,0,0,0.6115200000000001
2.886167839023983,0,0,1.158793603515625,0,0,0.53508
2.8875487690092996,0,0,1.2641384765625,0,0,0.15288000000000002
2.88893051299965,0,0,1.3862427612304686,0,0,0.7644
2.8903119419992436,0,0,1.6328455322265625,0,0,0.91728
2.891694075020496,0,0,1.37906015625,0,0,0.7644
2.893113615020411,0,0,1.199495031738281,0,0,0.53508
2.8944974330079276,0,0,1.158793603515625,0,0,0.84084
2.895880121999653,0,0,1.1563994018554686,0,0,0.84084
2.8972625320020597,0,0,1.3455413330078123,0,0,0.91728
2.8986442949972115,0,0,1.4700398193359374,0,0,0.84084
2.9000264650094323,0,0,1.4508862060546874,0,0,0.91728
2.9014084310038015,0,0,1.5155296508789062,0,0,0.53508
2.902790268009994,0,0,1.3311761230468748,0,0,1.1465999999999998
2.904173642018577,0,0,1.120486376953125,0,0,0.91728
2.9055561080167536,0,0,1.0893617553710937,0,0,0.68796
2.9069391850207467,0,0,1.1851298217773436,0,0,0.91728
2.908321003022138,0,0,1.467645617675781,0,0,0.68796
2.9097030620032456,0,0,1.4604630126953124,0,0,0.84084
2.911196305009071,0,0,1.5825672973632812,0,0,1.2230400000000001
2.9125817340100184,0,0,1.3623007446289062,0,0,1.07016
2.9139641820220277,0,0,1.1851298217773436,0,0,0.45864
2.9153475560015067,0,0,1.1061211669921875,0,0,0.22932
2.9167281150002964,0,0,1.1444283935546875,0,0,0.53508
2.9181099139968865,0,0,1.3335703247070312,0,0,0.0
2.91949176901835,0,0,1.4245499877929686,0,0,0.7644
2.920873791008489,0,0,1.6160861206054686,0,0,0.68796
2.9222715540090576,0,0,1.4867992309570313,0,0,0.53508
2.923653872014256,0,0,1.1085153686523437,0,0,0.99372
2.925035727006616,0,0,0.9935936889648437,0,0,0.91728
2.926417823007796,0,0,1.024718310546875,0,0,0.68796
2.9278002890059724,0,0,1.3718775512695311,0,0,0.84084
2.929182274005143,0,0,1.5346832641601562,0,0,0.91728
2.9305643330153544,0,0,1.5155296508789062,0,0,0.84084
2.931953521008836,0,0,1.3862427612304686,0,0,0.84084
2.9333362840116024,0,0,1.0749965454101562,0,0,1.1465999999999998
2.9347239170165267,0,0,1.158793603515625,0,0,0.6115200000000001
2.9362406780128367,0,0,1.2737152832031249,0,0,0.68796
2.9377161800221074,0,0,1.2928688964843749,0,0,0.6115200000000001
2.9400077660102397,0,0,1.4030021728515625,0,0,1.1465999999999998
2.9413915290206205,0,0,1.2378022583007813,0,0,0.99372
2.9427718649967574,0,0,1.218648645019531,0,0,0.6115200000000001
2.944153684016783,0,0,1.2330138549804688,0,0,1.07016
2.945532131008804,0,0,1.0845733520507812,0,0,0.91728
2.9469438570085913,0,0,1.0917559570312498,0,0,0.7644
2.9483254340011626,0,0,1.3670891479492187,0,0,1.1465999999999998
2.9497049000055995,0,0,1.4508862060546874,0,0,0.68796
2.9510865890188143,0,0,1.39821376953125,0,0,0.68796
2.9524652590043843,0,0,1.5945383056640625,0,0,1.2230400000000001
2.953843188006431,0,0,1.218648645019531,0,0,1.2230400000000001
2.955226895021042,0,0,1.1540052001953125,0,0,0.6115200000000001
2.9566111949970946,0,0,1.1109095703125,0,0,0.45864
2.9580227350234054,0,0,1.0654197387695312,0,0,0.53508
2.959447238012217,0,0,1.2330138549804688,0,0,0.07644000000000001
2.960837185004493,0,0,1.3359645263671873,0,0,0.22932
2.962224467017222,0,0,1.6448165405273436,0,0,0.6115200000000001
2.9636072660214268,0,0,1.5035586425781249,0,0,0.3822
2.9649859180208296,0,0,1.3048399047851562,0,0,0.91728
2.9663842910085805,0,0,1.1444283935546875,0,0,1.07016
2.9677683870249894,0,0,1.2210428466796874,0,0,0.68796
2.9691477240121458,0,0,1.2497732666015624,0,0,1.1465999999999998
2.970526172022801,0,0,1.448492004394531,0,0,0.3822
2.9719143040128984,0,0,1.3934253662109375,0,0,0.84084
2.9733000670094043,0,0,1.5394716674804687,0,0,1.1465999999999998
2.974685404013144,0,0,1.2785036865234374,0,0,1.1465999999999998
2.9760709810070693,0,0,1.2234370483398436,0,0,0.7644
2.9774565210100263,0,0,1.1013327636718748,0,0,0.6115200000000001
2.978841710020788,0,0,1.2641384765625,0,0,0.45864
2.9802266390179284,0,0,1.484405029296875,0,0,20
2.981613031006418,0,0,1.3431471313476562,0,0,0.3822
2.9829992380109616,0,0,1.6711527587890624,0,0,0.53508
2.9843844270217232,0,0,1.3551181396484375,0,0,0.53508
2.9857702820154373,0,0,1.2114660400390624,0,0,0.91728
2.9871567850059364,0,0,1.1276689819335937,0,0,0.45864
2.9885409740090836,0,0,1.197100830078125,0,0,0.84084
2.989926069014473,0,0,1.3311761230468748,0,0,0.99372
2.9913115540111903,0,0,1.5203180541992187,0,0,0.91728
2.9927049460238777,0,0,1.446097802734375,0,0,0.68796
2.9940910050063394,0,0,1.4437036010742186,0,0,0.91728
2.9954810450144578,0,0,1.149216796875,0,0,1.07016
2.9968660669983365,0,0,1.1516109985351561,0,0,1.07016
2.9982511819980573,0,0,1.2761094848632812,0,0,0.68796
2.9996365740080364,0,0,1.2880804931640624,0,0,1.07016
3.001022003008984,0,0,1.4125789794921875,0,0,0.07644000000000001
3.0024076359986793,0,0,1.2593500732421874,0,0,0.7644
3.0037934360152576,0,0,1.5682020874023437,0,0,0.91728
3.005178846011404,0,0,1.180341418457031,0,0,0.91728
3.0065641830151435,0,0,1.0438719238281249,0,0,0.53508
3.00794959400082,0,0,1.218648645019531,0,0,0.07644000000000001
3.009334800997749,0,0,1.0797849487304687,0,0,0.68796
3.010727619024692,0,0,1.4053963745117186,0,0,0.68796
3.0121131960186176,0,0,1.4532804077148436,0,0,0.84084
3.013498496002285,0,0,1.3096283081054687,0,0,0.68796
3.014883647003444,0,0,1.3742717529296875,0,0,0.6115200000000001
3.016269113024464,0,0,1.2713210815429687,0,0,1.07016
3.0176545240101404,0,0,1.0845733520507812,0,0,0.7644
3.0190403050219174,0,0,1.1851298217773436,0,0,0.91728
3.0204254380078055,0,0,1.13006318359375,0,0,0.99372
3.021810775011545,0,0,1.5107412475585937,0,0,0.30576000000000003
3.0231967040163,0,0,1.2641384765625,0,0,0.84084
3.0245818000112195,0,0,1.4867992309570313,0,0,0.91728
3.0259668030194007,0,0,1.2952630981445312,0,0,1.07016
3.027352510020137,0,0,1.1109095703125,0,0,0.7644
3.0287374760082457,0,0,1.1037269653320312,0,0,0.3822
3.030122646014206,0,0,1.2042834350585936,0,0,0.3822
3.031507705018157,0,0,1.2928688964843749,0,0,0.0
3.032893153023906,0,0,1.4245499877929686,0,0,0.68796
3.0342783970118035,0,0,1.4963760375976562,0,0,0.6115200000000001
3.0356650300091133,0,0,1.20667763671875,0,0,0.53508
3.037050255021313,0,0,1.3623007446289062,0,0,0.99372
3.0384354070120025,0,0,1.0965443603515623,0,0,0.68796
3.0398209289996885,0,0,1.0869675537109373,0,0,0.68796
3.0412058390211314,0,0,1.3096283081054687,0,0,1.1465999999999998
3.04259086100501,0,0,1.4437036010742186,0,0,0.99372
3.0439757900021505,0,0,1.2378022583007813,0,0,0.7644
3.0453610340191517,0,0,1.6328455322265625,0,0,0.84084
3.0467463149980176,0,0,1.1947066284179686,0,0,0.7644
3.0481317630037665,0,0,1.3335703247070312,0,0,0.84084
3.0495166550099384,0,0,1.0821791503906248,0,0,0.6115200000000001
3.0509250100003555,0,0,1.139639990234375,0,0,0.53508
3.0523119760036934,0,0,1.4317325927734375,0,0,0.0
3.053703850018792,0,0,1.2689268798828124,0,0,0.6115200000000001
3.055089686997235,0,0,1.5777788940429687,0,0,0.84084
3.0564722460112534,0,0,1.5059528442382812,0,0,0.3822
3.057855360006215,0,0,1.218648645019531,0,0,0.6115200000000001
3.059251974016661,0,0,0.9864110839843749,0,0,0.68796
3.0606401810073294,0,0,1.1372457885742187,0,0,0.7644
3.06202670300263,0,0,1.2952630981445312,0,0,0.84084
3.063420540012885,0,0,1.4939818359375,0,0,0.53508
3.064811023999937,0,0,1.5059528442382812,0,0,0.53508
3.0661971020163037,0,0,1.5442600708007812,0,0,0.99372
3.0675965120026376,0,0,1.2904746948242187,0,0,1.07016
3.068986922997283,0,0,1.1180921752929687,0,0,1.07016
3.070374074013671,0,0,1.3527239379882812,0,0,0.6115200000000001
3.0717563740035985,0,0,1.3263877197265623,0,0,0.91728
3.0731345250096638,0,0,1.4413093994140624,0,0,0.6115200000000001
3.074563861999195,0,0,1.3575123413085937,0,0,1.1465999999999998
3.0760119010228664,0,0,1.5777788940429687,0,0,0.91728
3.0774078300164547,0,0,1.1468225952148436,0,0,0.91728
3.078795130015351,0,0,1.1707646118164061,0,0,0.45864
3.0801770590187516,0,0,1.1659762084960936,0,0,0.30576000000000003
3.081555433018366,0,0,1.2330138549804688,0,0,0.22932
3.082950381009141,0,0,1.429338391113281,0,0,0.0
3.0843385870102793,0,0,1.455674609375,0,0,0.68796
3.085724739008583,0,0,1.649604943847656,0,0,0.68796
3.0871084830141626,0,0,1.37906015625,0,0,0.6115200000000001
3.0884868940047454,0,0,1.189918225097656,0,0,1.07016
3.089864823006792,0,0,1.0271125122070313,0,0,0.7644
3.0912502340215724,0,0,1.0869675537109373,0,0,1.07016
3.09263682999881,0,0,1.2521674682617188,0,0,0.99372
3.094023092009593,0,0,1.4891934326171874,0,0,0.84084
3.095410558016738,0,0,1.2904746948242187,0,0,-9.09636
3.0967980250134133,0,0,1.5849614990234373,0,0,0.91728
3.0982138240069617,0,0,1.1348515869140625,0,0,0.99372
3.099600198009284,0,0,1.1276689819335937,0,0,0.68796
3.100986664008815,0,0,1.2234370483398436,0,0,0.3822
3.102372519002529,0,0,1.139639990234375,0,0,0.45864
3.103755910997279,0,0,1.465251416015625,0,0,0.0
3.105134748009732,0,0,1.446097802734375,0,0,0.84084
3.106512862024829,0,0,1.5298948608398437,0,0,0.99372
3.1079019769968,0,0,1.2617442749023438,0,0,0.68796
3.1092971100006253,0,0,1.1276689819335937,0,0,0.7644
3.1106835390091874,0,0,1.139639990234375,0,0,0.7644
3.1120798570045736,0,0,1.0917559570312498,0,0,0.6115200000000001
3.1134673970227595,0,0,1.369483349609375,0,0,0.68796
3.114853937004227,0,0,1.5682020874023437,0,0,0.68796
3.1162404410133604,0,0,1.2689268798828124,0,0,0.53508
3.1176270360010676,0,0,1.3623007446289062,0,0,0.84084
3.119032558024628,0,0,1.1923124267578125,0,0,1.07016
3.1204190610151272,0,0,1.1013327636718748,0,0,0.68796
3.121805119997589,0,0,1.1013327636718748,0,0,0.68796
3.123189549020026,0,0,1.0965443603515623,0,0,0.7644
3.1245672189979814,0,0,1.4030021728515625,0,0,0.30576000000000003
3.1259455190156586,0,0,1.369483349609375,0,0,0.99372
3.1273310410033446,0,0,1.4508862060546874,0,0,1.2230400000000001
3.128716600011103,0,0,1.1659762084960936,0,0,0.7644
3.1301018070080318,0,0,1.2378022583007813,0,0,0.45864
3.1314873290248215,0,0,1.0869675537109373,0,0,0.53508
3.1328725540079176,0,0,1.1013327636718748,0,0,0.30576000000000003
3.1342572060239036,0,0,1.2569558715820313,0,0,0.45864
3.135642467997968,0,0,1.3407529296874998,0,0,0.84084
3.1370275460067205,0,0,1.4915876342773438,0,0,0.91728
3.1384128270146903,0,0,1.2617442749023438,0,0,0.53508
3.139798515010625,0,0,1.24498486328125,0,0,1.2230400000000001
3.141196166019654,0,0,1.2018892333984375,0,0,0.7644
3.142582002998097,0,0,1.197100830078125,0,0,0.53508
3.143967395008076,0,0,1.3096283081054687,0,0,1.07016
3.1453525840188377,0,0,1.467645617675781,0,0,0.91728
3.1467378649977036,0,0,1.3431471313476562,0,0,0.7644
3.1481231830257457,0,0,1.5969325073242187,0,0,1.1465999999999998
3.149508427013643,0,0,1.2904746948242187,0,0,0.91728
3.150893467012793,0,0,1.197100830078125,0,0,0.68796
3.152279730013106,0,0,1.180341418457031,0,0,0.45864
3.153664862998994,0,0,1.22583125,0,0,0.22932
3.1550495510164183,0,0,1.2617442749023438,0,0,0.0
3.1564319989993237,0,0,1.3359645263671873,0,0,0.91728
3.1578150020213798,0,0,1.5011644409179687,0,0,0.6115200000000001
3.1592114500235766,0,0,1.5011644409179687,0,0,0.53508
3.160599175025709,0,0,1.2928688964843749,0,0,-8.943480000000001
3.1619862530205864,0,0,1.1444283935546875,0,0,0.84084
3.163371997012291,0,0,1.1420341918945311,0,0,1.07016
3.1647689070086926,0,0,1.235408056640625,0,0,1.07016
3.1661553180019837,0,0,1.4030021728515625,0,0,1.1465999999999998
3.1675508769985754,0,0,1.3934253662109375,0,0,0.6115200000000001
3.1689364170015324,0,0,1.6328455322265625,0,0,0.84084
3.1703223090153188,0,0,1.1755530151367186,0,0,1.07016
3.1717078130168375,0,0,1.0534487304687499,0,0,0.91728
3.173092594021,0,0,1.1827356201171875,0,0,0.6115200000000001
3.174478355998872,0,0,1.2617442749023438,0,0,0.45864
3.1758779890078586,0,0,1.4963760375976562,0,0,0.30576000000000003
3.1772633630025666,0,0,1.4030021728515625,0,0,0.99372
3.1786490509985015,0,0,1.618480322265625,0,0,0.99372
3.1800342950155027,0,0,1.3096283081054687,0,0,0.53508
3.1814193910104223,0,0,1.1540052001953125,0,0,0.84084
3.1828048940224107,0,0,1.158793603515625,0,0,0.7644
3.1841899160062894,0,0,1.0989385620117187,0,0,0.7644
3.185582605015952,0,0,1.3215993164062498,0,0,0.99372
3.186970034003025,0,0,1.4006079711914061,0,0,0.84084
3.1883550560160074,0,0,1.5658078857421873,0,0,0.7644
3.1897395590203814,0,0,1.43652099609375,0,0,0.91728
3.191136451001512,0,0,1.0917559570312498,0,0,0.91728
3.1925321580201853,0,0,1.16837041015625,0,0,0.7644
3.1939180310000665,0,0,1.0941501586914062,0,0,0.84084
3.1953062009997666,0,0,1.3096283081054687,0,0,0.84084
3.196691779012326,0,0,1.4532804077148436,0,0,0.53508
3.198077948996797,0,0,1.438915197753906,0,0,0.84084
3.199460452015046,0,0,1.4939818359375,0,0,1.07016
3.2008385850058403,0,0,1.1156979736328125,0,0,0.91728
3.2022170510026626,0,0,1.2234370483398436,0,0,0.68796
3.203604203008581,0,0,1.216254443359375,0,0,0.3822
3.2049907430191524,0,0,1.149216796875,0,0,0.45864
3.206376802001614,0,0,1.4413093994140624,0,0,0.3822
3.207762878999347,0,0,1.4867992309570313,0,0,0.7644
3.209149068017723,0,0,1.2832920898437499,0,0,0.7644
3.2105351820064243,0,0,1.3575123413085937,0,0,0.7644
3.2119212780089583,0,0,1.1516109985351561,0,0,0.99372
3.2133078550104983,0,0,1.1851298217773436,0,0,0.91728
3.214693673013244,0,0,1.0989385620117187,0,0,0.7644
3.216074121010024,0,0,1.2641384765625,0,0,0.91728
3.217452551005408,0,0,1.5203180541992187,0,0,0.7644
3.218830276018707,0,0,1.2880804931640624,0,0,0.91728
3.2202172609977424,0,0,1.649604943847656,0,0,1.2230400000000001
3.221603023004718,0,0,1.2114660400390624,0,0,1.07016
3.222988285997417,0,0,1.2952630981445312,0,0,0.68796
3.2243717340170406,0,0,1.2018892333984375,0,0,0.68796
3.2257692550192587,0,0,1.0941501586914062,0,0,0.84084
3.2274424040224403,0,0,1.4317325927734375,0,0,0.0
3.2288321110245306,0,0,1.2378022583007813,0,0,0.91728
3.23021113302093,0,0,1.5442600708007812,0,0,0.91728
3.231590692012105,0,0,1.2018892333984375,0,0,0.7644
3.2329688990139402,0,0,1.2689268798828124,0,0,0.68796
3.23434762400575,0,0,1.2689268798828124,0,0,0.3822
3.2357283500023186,0,0,1.1180921752929687,0,0,0.53508
3.237107131019002,0,0,1.3359645263671873,0,0,0.7644
3.23848589300178,0,0,1.426944189453125,0,0,0.84084
3.239883545000339,0,0,1.4915876342773438,0,0,0.68796
3.2412685110175516,0,0,1.2880804931640624,0,0,0.68796
3.24265382901649,0,0,1.2234370483398436,0,0,0.99372
3.2440387770184316,0,0,1.1085153686523437,0,0,0.99372
3.245423873013351,0,0,1.1516109985351561,0,0,0.7644
3.2468092839990277,0,0,1.0773907470703123,0,0,0.84084
3.248194231011439,0,0,1.484405029296875,0,0,0.15288000000000002
3.2495794010173995,0,0,1.3551181396484375,0,0,0.6115200000000001
3.250976848998107,0,0,1.5801730957031248,0,0,1.07016
3.2523620190040674,0,0,1.0821791503906248,0,0,0.68796
3.253747207025299,0,0,1.1947066284179686,0,0,1.1465999999999998
3.255133062019013,0,0,1.0941501586914062,0,0,0.6115200000000001
3.256515899003716,0,0,1.0893617553710937,0,0,0.53508
3.25789934702334,0,0,1.3479355346679687,0,0,0.45864
3.259303554019425,0,0,1.419761584472656,0,0,0.3822
3.2606903720006812,0,0,1.4149731811523436,0,0,0.45864
3.2620759490237106,0,0,1.4341267944335936,0,0,0.6115200000000001
3.263461897004163,0,0,1.3215993164062498,0,0,0.91728
3.264853419008432,0,0,1.158793603515625,0,0,1.07016
3.2662393850041553,0,0,1.0845733520507812,0,0,0.84084
3.2676310730166733,0,0,1.197100830078125,0,0,1.2230400000000001
3.2690173170121852,0,0,1.5107412475585937,0,0,0.99372
3.2704040800163057,0,0,1.3575123413085937,0,0,1.07016
3.2717861760174856,0,0,1.5346832641601562,0,0,1.07016
3.273177401017165,0,0,1.254561669921875,0,0,0.6115200000000001
3.274560404010117,0,0,1.3048399047851562,0,0,0.7644
3.276008852000814,0,0,1.1324573852539062,0,0,0.7644
3.2774021320219617,0,0,1.1252747802734375,0,0,0.99372
3.2787887650192715,0,0,1.3120225097656248,0,0,0.15288000000000002
3.2801694170047995,0,0,1.235408056640625,0,0,0.30576000000000003
3.2815478460106533,0,0,1.5131354492187499,0,0,0.53508
3.282934387010755,0,0,1.2641384765625,0,0,0.84084
3.2843297049985267,0,0,1.2569558715820313,0,0,0.91728
3.28570848601521,0,0,0.9457096557617187,0,0,0.7644
3.2870930450153537,0,0,1.1659762084960936,0,0,0.68796
3.2884791960241273,0,0,1.3670891479492187,0,0,0.6115200000000001
3.2898656809993554,0,0,1.5227122558593749,0,0,0.99372
3.291252388007706,0,0,1.5107412475585937,0,0,0.7644
3.2926381870056503,0,0,1.5083470458984374,0,0,0.84084
3.2940240790194366,0,0,1.1635820068359375,0,0,0.91728
3.2954111940052826,0,0,1.1611878051757811,0,0,0.68796
3.2967967900040094,0,0,1.209071838378906,0,0,0.7644
3.2981831450015306,0,0,1.3024457031249999,0,0,0.84084
3.2995647409989033,0,0,1.429338391113281,0,0,0.6115200000000001
3.300942707021022,0,0,1.37906015625,0,0,0.91728
3.3023205250210594,0,0,1.5251064575195312,0,0,0.91728
3.303707066021161,0,0,1.2569558715820313,0,0,0.84084
3.3050919390225317,0,0,1.2641384765625,0,0,0.6115200000000001
3.306476535013644,0,0,1.1228805786132812,0,0,0.6115200000000001
3.307870909018675,0,0,1.1109095703125,0,0,0.91728
3.309255653002765,0,0,1.484405029296875,0,0,0.3822
3.310640859999694,0,0,1.4820108276367188,0,0,0.99372
3.312025993014686,0,0,1.3742717529296875,0,0,0.6115200000000001
3.313411126000574,0,0,1.37906015625,0,0,0.68796
3.3147994070022833,0,0,1.197100830078125,0,0,0.91728
3.3161930950009264,0,0,1.1707646118164061,0,0,0.84084
3.3175940240034834,0,0,1.2306196533203124,0,0,0.7644
3.3189804720168468,0,0,1.199495031738281,0,0,0.99372
3.320365475025028,0,0,1.47482822265625,0,0,0.7644
3.3217501640028786,0,0,1.3144167114257812,0,0,0.45864
3.3231357220211066,0,0,1.3934253662109375,0,0,0.91728
3.3245429660019,0,0,1.209071838378906,0,0,1.07016
3.3260039320157375,0,0,1.3120225097656248,0,0,0.3822
3.327407119999407,0,0,1.24498486328125,0,0,0.53508
3.3287940490117762,0,0,1.1228805786132812,0,0,0.53508
3.330180349003058,0,0,1.448492004394531,0,0,0.22932
3.331567426008405,0,0,1.4772224243164063,0,0,0.6115200000000001
3.3329539660189766,0,0,1.5107412475585937,0,0,0.7644
3.3343406729982235,0,0,1.1875240234375,0,0,0.84084
3.3358700270182453,0,0,1.1372457885742187,0,0,0.68796
3.337288808019366,0,0,1.1875240234375,0,0,0.45864
3.3386767000192776,0,0,1.158793603515625,0,0,0.53508
3.3400647770031355,0,0,1.37906015625,0,0,0.15288000000000002
3.341450521023944,0,0,1.4915876342773438,0,0,0.84084
3.3428572840057313,0,0,1.3072341064453123,0,0,0.7644
3.344243916013511,0,0,1.3168109130859373,0,0,0.6115200000000001
3.3456301420228556,0,0,1.216254443359375,0,0,1.37592
3.3470367380068637,0,0,1.024718310546875,0,0,1.1465999999999998
3.348416148015531,0,0,1.1180921752929687,0,0,0.6115200000000001
3.3497940960223787,0,0,1.2234370483398436,0,0,0.84084
3.351178600016283,0,0,1.4125789794921875,0,0,0.30576000000000003
3.3525641029991675,0,0,1.3335703247070312,0,0,0.7644
3.3539489210234024,0,0,1.407790576171875,0,0,0.99372
3.3553342210070696,0,0,1.1827356201171875,0,0,0.7644
3.356717076007044,0,0,1.1755530151367186,0,0,0.68796
3.3581007269967813,0,0,1.2378022583007813,0,0,0.6115200000000001
3.359544637001818,0,0,1.1923124267578125,0,0,0.53508
3.360942640021676,0,0,1.2425906616210938,0,0,0.15288000000000002
3.3623293100099545,0,0,1.3263877197265623,0,0,0.84084
3.363711036014138,0,0,1.3718775512695311,0,0,0.7644
3.3650897610059474,0,0,1.2306196533203124,0,0,0.68796
3.366468006017385,0,0,1.2569558715820313,0,0,0.84084
3.367854324023938,0,0,1.2761094848632812,0,0,0.84084
3.369239938008832,0,0,1.149216796875,0,0,0.68796
3.37062573802541,0,0,1.3766659545898436,0,0,1.1465999999999998
3.3720112040173262,0,0,1.37906015625,0,0,0.7644
3.3733958920056466,0,0,1.3024457031249999,0,0,0.7644
3.3747810250206385,0,0,1.3838485595703125,0,0,0.91728
3.3761666210193653,0,0,1.158793603515625,0,0,0.91728
3.3775512170104776,0,0,1.2042834350585936,0,0,0.6115200000000001
3.378937091008993,0,0,1.209071838378906,0,0,0.6115200000000001
3.3803218899993226,0,0,1.3096283081054687,0,0,0.68796
3.3817295970220584,0,0,1.4939818359375,0,0,0.30576000000000003
3.3831181740097236,0,0,1.2880804931640624,0,0,0.84084
3.384503492998192,0,0,1.5849614990234373,0,0,0.7644
3.3858898850157857,0,0,1.2521674682617188,0,0,0.7644
3.387276702997042,0,0,1.3215993164062498,0,0,0.84084
3.3886621140118223,0,0,1.2138602416992186,0,0,0.30576000000000003
3.3900483020115644,0,0,1.20667763671875,0,0,0.7644
3.3914313980203588,0,0,1.2761094848632812,0,0,1.1465999999999998
3.3928097900061402,0,0,1.37906015625,0,0,0.6115200000000001
3.394187552999938,0,0,1.4437036010742186,0,0,0.7644
3.3955740010133013,0,0,1.3862427612304686,0,0,1.1465999999999998
3.396959282021271,0,0,1.2856862915039062,0,0,0.99372
3.3983445260091685,0,0,1.0582371337890624,0,0,0.84084
3.3997290469997097,0,0,1.2761094848632812,0,0,0.22932
3.4011231620097533,0,0,1.3072341064453123,0,0,0.3822
3.402518183022039,0,0,1.3718775512695311,0,0,0.0
3.403913464018842,0,0,1.2808978881835937,0,0,0.68796
3.4053008750197478,0,0,1.649604943847656,0,0,0.91728
3.4066870270180516,0,0,1.2856862915039062,0,0,0.3822
3.4080671970150433,0,0,1.2904746948242187,0,0,0.68796
3.4094452550052665,0,0,1.1923124267578125,0,0,0.3822
3.410823074023938,0,0,1.197100830078125,0,0,0.53508
3.4122301140159834,0,0,1.3072341064453123,0,0,0.91728
3.4136136730085127,0,0,1.4987702392578124,0,0,0.91728
3.4150130830239505,0,0,1.5538368774414062,0,0,0.53508
3.4163986790226772,0,0,1.4006079711914061,0,0,0.68796
3.4177839790063445,0,0,1.2018892333984375,0,0,0.99372
3.4191703890101053,0,0,1.0965443603515623,0,0,1.1465999999999998
3.420557004021248,0,0,1.197100830078125,0,0,0.6115200000000001
3.4219429140212014,0,0,1.3239935180664062,0,0,0.45864
3.423329214012483,0,0,1.4939818359375,0,0,0.15288000000000002
3.4247134769975673,0,0,1.5251064575195312,0,0,0.7644
3.4261014240037184,0,0,1.4987702392578124,0,0,0.91728
3.4274865020124707,0,0,1.2234370483398436,0,0,0.91728
3.428871764015639,0,0,1.1061211669921875,0,0,0.7644
3.430257212021388,0,0,1.235408056640625,0,0,0.45864
3.431642493000254,0,0,1.0989385620117187,0,0,0.3822
3.433027478022268,0,0,1.426944189453125,0,0,0.6115200000000001
3.434413000009954,0,0,1.5370774658203123,0,0,0.53508
3.435798540012911,0,0,1.2497732666015624,0,0,0.68796
3.4371833770128433,0,0,1.3144167114257812,0,0,0.53508
3.4385686390160117,0,0,1.1420341918945311,0,0,1.2994800000000002
3.439953809021972,0,0,1.16837041015625,0,0,0.91728
3.441338924021693,0,0,1.1468225952148436,0,0,1.2230400000000001
3.442724538006587,0,0,1.2665326782226562,0,0,0.91728
3.4441100230033044,0,0,1.4101847778320311,0,0,1.07016
3.445494600018719,0,0,1.22583125,0,0,0.99372
3.4468795290158596,0,0,1.3527239379882812,0,0,1.1465999999999998
3.44827671800158,0,0,1.1372457885742187,0,0,-9.09636
3.449662980012363,0,0,1.180341418457031,0,0,0.7644
3.4510489650128875,0,0,1.2306196533203124,0,0,0.53508
3.4524338760238606,0,0,1.1611878051757811,0,0,0.30576000000000003
3.4538189160230104,0,0,1.3000515014648437,0,0,0.22932
3.4552032710053027,0,0,1.3287819213867187,0,0,0.6115200000000001
3.456586273998255,0,0,1.39821376953125,0,0,0.7644
3.457969167007832,0,0,1.209071838378906,0,0,0.22932
3.4593813180108555,0,0,1.3120225097656248,0,0,0.68796
3.4607679690234363,0,0,1.1109095703125,0,0,0.68796
3.4621532690071035,0,0,1.1420341918945311,0,0,0.91728
3.4635385680012405,0,0,1.3623007446289062,0,0,1.2230400000000001
3.464933072013082,0,0,1.388636962890625,0,0,0.68796
3.466317723010434,0,0,1.3096283081054687,0,0,0.91728
3.467702299996745,0,0,1.6711527587890624,0,0,0.99372
3.4690896370157134,0,0,1.3383587280273437,0,0,0.99372
3.470490770007018,0,0,1.3239935180664062,0,0,0.68796
3.471884605998639,0,0,1.1109095703125,0,0,0.91728
3.4732700170134194,0,0,1.216254443359375,0,0,0.15288000000000002
3.4746553350123577,0,0,1.3359645263671873,0,0,0.45864
3.476041357003851,0,0,1.3575123413085937,0,0,0.68796
3.4774268050095998,0,0,1.6615759521484375,0,0,0.91728
3.478811715001939,0,0,1.2330138549804688,0,0,0.84084
3.480197330005467,0,0,1.2737152832031249,0,0,1.07016
3.4815824260003865,0,0,1.3431471313476562,0,0,0.53508
3.4829699850233737,0,0,1.1827356201171875,0,0,0.45864
3.484354747022735,0,0,1.3646949462890625,0,0,0.68796
3.4857395100116264,0,0,1.4030021728515625,0,0,0.6115200000000001
3.487125254003331,0,0,1.4628572143554686,0,0,0.6115200000000001
3.488510294002481,0,0,1.608903515625,0,0,1.07016
3.48989587102551,0,0,1.2473790649414063,0,0,0.84084
3.4912939670030028,0,0,1.1228805786132812,0,0,0.91728
3.4926971180248074,0,0,1.0989385620117187,0,0,0.91728
3.4940825660014525,0,0,1.2904746948242187,0,0,1.07016
3.4954681810049806,0,0,1.4006079711914061,0,0,0.45864
3.4968528320023324,0,0,1.3287819213867187,0,0,0.7644
3.4982407060160767,0,0,1.5466542724609373,0,0,0.84084
3.499625876022037,0,0,1.0773907470703123,0,0,0.7644
3.5010103050153702,0,0,1.1133037719726562,0,0,0.3822
3.5023952150077093,0,0,1.2210428466796874,0,0,0.45864
3.5037807000044268,0,0,1.177947216796875,0,0,0.6115200000000001
3.5051657040021382,0,0,1.426944189453125,0,0,0.3822
3.5065505590173416,0,0,1.4149731811523436,0,0,0.84084
3.5079357660142705,0,0,1.6208745239257811,0,0,0.7644
3.5093208990001585,0,0,1.3096283081054687,0,0,0.53508
3.5107058830035385,0,0,1.3551181396484375,0,0,1.1465999999999998
3.5120913500140887,0,0,1.0678139404296874,0,0,0.91728
3.513476446009008,0,0,1.1659762084960936,0,0,0.68796
3.514861727016978,0,0,1.3168109130859373,0,0,1.1465999999999998
3.516247193008894,0,0,1.465251416015625,0,0,1.07016
3.517643585015321,0,0,1.4987702392578124,0,0,1.07016
3.5190294770000037,0,0,1.4915876342773438,0,0,0.99372
3.5204146100149956,0,0,1.209071838378906,0,0,0.91728
3.521799613023177,0,0,1.0342951171875,0,0,0.7644
3.523185802012449,0,0,1.177947216796875,0,0,0.45864
3.5245701570238452,0,0,1.1563994018554686,0,0,0.45864
3.5259550120099448,0,0,1.426944189453125,0,0,0.0
3.5273402190068737,0,0,1.4053963745117186,0,0,0.6115200000000001
3.5287246300140396,0,0,1.2665326782226562,0,0,0.91728
3.5301092070003506,0,0,1.2138602416992186,0,0,0.6115200000000001
3.531494451017352,0,0,1.3766659545898436,0,0,0.7644
3.532889251015149,0,0,1.197100830078125,0,0,0.68796
3.534274773002835,0,0,1.1061211669921875,0,0,0.84084
3.5356664980063215,0,0,1.2928688964843749,0,0,1.07016
3.5370515380054712,0,0,1.4796166259765624,0,0,0.99372
3.53843698601122,0,0,1.3263877197265623,0,0,0.91728
3.539822118997108,0,0,1.4030021728515625,0,0,0.84084
3.5412067330034915,0,0,1.2497732666015624,0,0,1.07016
3.5425917180255055,0,0,1.0869675537109373,0,0,0.68796
3.5439773880061693,0,0,1.2521674682617188,0,0,0.45864
3.5453621140040923,0,0,1.189918225097656,0,0,0.68796
