Time,AccelX1,AccelY1,AccelZ1,AccelX2,AccelY2,AccelZ2
4.556000931188464e-06,0,0,0.0,0,0,1.07016
0.003758250008104369,0,0,0.0,0,0,0.91728
0.007387149991700426,0,0,0.0,0,0,0.7644
0.011384378012735397,0,0,0.0,0,0,1.2994800000000002
0.014907186006894335,0,0,0.0,0,0,0.6115200000000001
0.018427569011691958,0,0,0.0,0,0,0.84084
0.021945524989860132,0,0,0.0,0,0,0.7644
0.02545474100043066,0,0,0.0,0,0,0.7644
0.02896858600433916,0,0,0.0,0,0,1.07016
0.03248095000162721,0,0,0.0,0,0,-9.172799999999999
0.03599953599041328,0,0,0.0,0,0,1.07016
0.039513455994892865,0,0,0.0,0,0,0.91728
0.04315420700004324,0,0,0.0,0,0,0.30576000000000003
0.04674757001339458,0,0,0.0,0,0,1.1465999999999998
0.05026221199659631,0,0,0.0,0,0,0.68796
0.05377735401270911,0,0,0.0,0,0,1.45236
0.05728901398833841,0,0,0.0,0,0,0.53508
0.060807803994975984,0,0,0.0,0,0,0.45864
0.06431901900214143,0,0,0.0,0,0,0.91728
0.06783219799399376,0,0,0.0,0,0,0.53508
0.07140794998849742,0,0,0.0,0,0,1.45236
0.07501399799366482,0,0,0.0,0,0,0.68796
0.07858671300346032,0,0,0.0,0,0,1.60524
0.08215907600242645,0,0,0.0,0,0,0.91728
0.08567218101234175,0,0,0.0,0,0,0.99372
0.08918671199353412,0,0,0.0,0,0,1.07016
0.09269944598781876,0,0,0.0,0,0,1.1465999999999998
0.09621284701279365,0,0,0.0,0,0,0.91728
0.09972504401230253,0,0,0.0,0,0,-9.172799999999999
0.10324970399960876,0,0,0.0,0,0,1.2994800000000002
0.10676234599668533,0,0,0.0,0,0,0.84084
0.11027408001245931,0,0,0.0,0,0,0.53508
0.11380029600695707,0,0,0.0,0,0,0.07644000000000001
0.11731477099237964,0,0,0.0,0,0,0.7644
0.12082819099305198,0,0,0.0,0,0,1.1465999999999998
0.12433877700823359,0,0,0.0,0,0,0.0
0.12784895600634627,0,0,0.0,0,0,1.2230400000000001
0.13135882001370192,0,0,0.0,0,0,0.68796
0.1348683690011967,0,0,0.0,0,0,0.15288000000000002
0.13839047300280072,0,0,0.0,0,0,0.99372
0.1420176690153312,0,0,0.0,0,0,0.53508
0.14557129199965857,0,0,0.0,0,0,0.30576000000000003
0.1486909750092309,0,0,0.0,0,0,0.91728
0.151809178001713,0,0,0.0,0,0,1.1465999999999998
0.1549248980008997,0,0,0.0,0,0,0.91728
0.15821428399067372,0,0,0.0,0,0,0.30576000000000003
0.1628571710025426,0,0,0.0,0,0,0.53508
0.16598344699013978,0,0,0.0,0,0,0.7644
0.1691005009924993,0,0,0.0,0,0,1.07016
0.17224468401400372,0,0,0.0,0,0,0.99372
0.1753588120045606,0,0,0.0,0,0,0.91728
0.17847099600476213,0,0,0.0,0,0,0.6115200000000001
0.18158477201359347,0,0,0.0,0,0,0.99372
0.18469764100154862,0,0,0.0,0,0,0.99372
0.18781225100974552,0,0,0.0,0,0,0.84084
0.1909302489948459,0,0,0.0,0,0,1.07016
0.19404430300346576,0,0,0.0,0,0,1.07016
0.19715967201045714,0,0,0.0,0,0,1.2230400000000001
0.20027011499041691,0,0,0.0,0,0,0.7644
0.20340676099294797,0,0,0.0,0,0,0.7644
0.20652100100414827,0,0,0.0,0,0,0.22932
0.20963423998910002,0,0,0.0,0,0,1.5288
0.21277708999696188,0,0,0.0,0,0,-9.09636
0.2158958849904593,0,0,0.0,0,0,1.2994800000000002
0.2190101419982966,0,0,0.0,0,0,0.7644
0.22212421501171775,0,0,0.0,0,0,0.84084
0.22523823200026527,0,0,0.0,0,0,0.30576000000000003
0.22834919398883358,0,0,0.0,0,0,0.6115200000000001
0.2314606549916789,0,0,0.0,0,0,0.91728
0.23457365401554853,0,0,0.0,0,0,0.84084
0.23769194798660465,0,0,0.0,0,0,0.91728
0.24080094700912014,0,0,0.0,0,0,0.45864
0.24394663001294248,0,0,0.0,0,0,1.1465999999999998
0.247100776003208,0,0,0.0,0,0,0.3822
0.2502172749955207,0,0,0.0,0,0,2.6754
0.2533333289902657,0,0,0.0,0,0,0.84084
0.25644375299452804,0,0,0.0,0,0,1.07016
0.259563066996634,0,0,0.0,0,0,0.91728
0.26267539800028317,0,0,0.0,0,0,1.1465999999999998
0.2657885820080992,0,0,0.0,0,0,1.07016
0.2689243580098264,0,0,0.0,0,0,0.6115200000000001
0.27203726398875006,0,0,0.0,0,0,0.68796
0.2751503369945567,0,0,0.0,0,0,0.68796
0.27826240900321864,0,0,0.0,0,0,1.2994800000000002
0.2813838520087302,0,0,0.0,0,0,0.99372
0.2844951279985253,0,0,0.0,0,0,1.1465999999999998
0.2876070339989383,0,0,0.0,0,0,0.45864
0.2907188849931117,0,0,0.0,0,0,1.07016
0.2938308829907328,0,0,0.0,0,0,0.68796
0.296945289010182,0,0,0.0,0,0,0.15288000000000002
0.3000566030095797,0,0,0.0,0,0,1.2230400000000001
0.30317310101236217,0,0,0.0,0,0,1.37592
0.3062863959930837,0,0,0.0,0,0,1.1465999999999998
0.309400894009741,0,0,0.0,0,0,0.7644
0.31251255999086425,0,0,0.0,0,0,0.68796
0.317198520002421,0,0,0.0,0,0,0.7644
0.3203235550026875,0,0,0.0,0,0,0.68796
0.3234321099880617,0,0,0.0,0,0,1.2994800000000002
0.32653831198695116,0,0,0.0,0,0,0.99372
0.3296440510021057,0,0,0.0,0,0,1.45236
0.33277934600482695,0,0,0.0,0,0,0.91728
0.3359147509909235,0,0,0.0,0,0,0.84084
0.33902219400624745,0,0,0.0,0,0,0.15288000000000002
0.3421572480001487,0,0,0.0,0,0,1.2230400000000001
0.3452662650088314,0,0,0.0,0,0,0.3822
0.3483739680086728,0,0,0.0,0,0,1.2230400000000001
0.35148287401534617,0,0,0.0,0,0,0.91728
0.35458942799596116,0,0,0.0,0,0,0.99372
0.35769683399121277,0,0,0.0,0,0,0.68796
0.36080533199128695,0,0,0.0,0,0,0.45864
0.3639104609901551,0,0,0.0,0,0,0.99372
0.36701699599507265,0,0,0.0,0,0,0.6115200000000001
0.37014066099072807,0,0,0.0,0,0,1.1465999999999998
0.37324875200283714,0,0,0.0,0,0,0.91728
0.3763491399877239,0,0,0.0,0,0,1.07016
0.3794704530155286,0,0,0.0,0,0,0.30576000000000003
0.382579433004139,0,0,0.0,0,0,0.6115200000000001
0.38568693201523274,0,0,0.0,0,0,0.68796
0.3887949300114997,0,0,0.0,0,0,0.68796
0.39190831800806336,0,0,0.0,0,0,1.07016
0.3950125759874936,0,0,0.0,0,0,1.2230400000000001
0.3981179629918188,0,0,0.0,0,0,0.91728
0.4012247770151589,0,0,0.0,0,0,0.68796
0.4043266089865938,0,0,0.0,0,0,0.3822
0.4074299040075857,0,0,0.0,0,0,0.6115200000000001
0.4105586429941468,0,0,0.0,0,0,1.2994800000000002
0.41383678698912263,0,0,0.0,0,0,0.99372
0.4169604890048504,0,0,0.0,0,0,0.91728
0.4200648769910913,0,0,0.0,0,0,0.6115200000000001
0.4231715239875484,0,0,0.0,0,0,0.68796
0.4262747449974995,0,0,0.0,0,0,0.68796
0.42937841001548804,0,0,0.0,0,0,0.53508
0.4324798900051974,0,0,0.0,0,0,0.68796
0.4355823700025212,0,0,0.0,0,0,1.07016
0.43868583199218847,0,0,0.0,0,0,0.68796
0.4417915150115732,0,0,0.0,0,0,0.7644
0.4449496250017546,0,0,0.0,0,0,0.6115200000000001
0.4480532160087023,0,0,0.0,0,0,0.84084
0.451155843999004,0,0,0.0,0,0,0.0
0.45425982400774956,0,0,0.0,0,0,0.99372
0.45736456400481984,0,0,0.0,0,0,0.53508
0.46048119201441295,0,0,0.0,0,0,1.2994800000000002
0.4635848749894649,0,0,0.0,0,0,0.84084
0.4667380030150525,0,0,0.0,0,0,1.2230400000000001
0.46984635401167907,0,0,0.0,0,0,0.91728
0.47295096301240847,0,0,0.0,0,0,0.68796
0.4760534990055021,0,0,0.0,0,0,0.6115200000000001
0.47916838599485345,0,0,0.0,0,0,1.07016
0.4822820140107069,0,0,0.0,0,0,0.91728
0.48538729100255296,0,0,0.0,0,0,0.6115200000000001
0.4884890120010823,0,0,0.0,0,0,0.99372
0.4915926399989985,0,0,0.0,0,0,0.30576000000000003
0.49469556499389,0,0,0.0,0,0,0.53508
0.49780239700339735,0,0,0.0,0,0,0.6115200000000001
0.500906228000531,0,0,0.0,0,0,0.3822
0.5151150530145969,0,0,0.0,0,0,0.6115200000000001
0.5184166780090891,0,0,0.0,0,0,0.99372
0.5215338809939567,0,0,0.0,0,0,1.1465999999999998
0.5246360460005235,0,0,0.0,0,0,0.6115200000000001
0.5277392110147048,0,0,0.0,0,0,1.2230400000000001
0.5308410249999724,0,0,0.0,0,0,0.7644
0.5339917269884609,0,0,0.0,0,0,0.7644
0.5371066690131556,0,0,0.0,0,0,0.99372
0.5404513319954276,0,0,0.0,0,0,1.1465999999999998
0.5436661250132602,0,0,0.0,0,0,1.1465999999999998
0.5468951410148293,0,0,0.0,0,0,0.53508
0.5505312629975379,0,0,0.0,0,0,1.1465999999999998
0.5536894270044286,0,0,0.0,0,0,1.1465999999999998
0.556796815013513,0,0,0.0,0,0,1.07016
0.5599012390011922,0,0,0.0,0,0,1.1465999999999998
0.5630040900141466,0,0,0.0,0,0,0.45864
0.5661079029960092,0,0,0.0,0,0,0.84084
0.5692128830123693,0,0,0.0,0,0,0.53508
0.5723207890114281,0,0,0.0,0,0,0.68796
0.5754240840033162,0,0,0.0,0,0,0.91728
0.5785990820149891,0,0,0.0,0,0,1.5288
0.5817042470152956,0,0,0.0,0,0,1.1465999999999998
0.5848273749870714,0,0,0.0,0,0,0.7644
0.5881325009977445,0,0,0.0,0,0,0.53508
0.5912506289896555,0,0,0.0,0,0,0.68796
0.5943562019965611,0,0,0.0,0,0,0.68796
0.5974627000105102,0,0,0.0,0,0,1.2994800000000002
0.6005640320072416,0,0,0.0,0,0,0.7644
0.6036661420075689,0,0,0.0,0,0,0.91728
0.6067690110066906,0,0,0.0,0,0,0.68796
0.6099462679994758,0,0,0.0,0,0,0.6115200000000001
0.6130542299943045,0,0,0.0,0,0,1.2994800000000002
0.6164196330064442,0,0,0.0,0,0,1.07016
0.6195405749895144,0,0,0.0,0,0,1.37592
0.6226934620062821,0,0,0.0,0,0,0.7644
0.6258046829898376,0,0,0.0,0,0,0.53508
0.6289144589973148,0,0,0.0,0,0,0.6115200000000001
0.6320177910092752,0,0,0.0,0,0,0.53508
0.6351219379866961,0,0,0.0,0,0,0.99372
0.6382270659960341,0,0,0.0,0,0,1.45236
0.6413330840005074,0,0,0.0,0,0,0.99372
0.6444339530135039,0,0,0.0,0,0,0.45864
0.6476020429981872,0,0,0.0,0,0,1.07016
0.6504019160056487,0,0,0.0,0,0,1.2230400000000001
0.6531903629947919,0,0,0.0,0,0,1.07016
0.6560570680012461,0,0,0.0,0,0,1.2994800000000002
0.6588567740109283,0,0,0.0,0,0,1.45236
0.6617457010142971,0,0,0.0,0,0,0.7644
0.6646250920020975,0,0,0.0,0,0,1.2994800000000002
0.6674159649992362,0,0,0.0,0,0,1.07016
0.6702300409961026,0,0,0.0,0,0,0.99372
0.6730512840149458,0,0,0.0,0,0,0.68796
0.6758384899876546,0,0,0.0,0,0,0.15288000000000002
0.6786408069892786,0,0,0.0,0,0,0.68796
0.6814405499899294,0,0,0.0,0,0,0.84084
0.6842280529963318,0,0,0.0,0,0,1.2994800000000002
0.6870150179893244,0,0,0.0,0,0,0.84084
0.6899083530006465,0,0,0.0,0,0,0.3822
0.6926952069916297,0,0,0.0,0,0,1.2994800000000002
0.6954881729907356,0,0,0.0,0,0,1.75812
0.6982758050144184,0,0,0.0,0,0,0.99372
0.7010689369926695,0,0,0.0,0,0,1.37592
0.7039920859970152,0,0,0.0,0,0,1.07016
0.7070439369999804,0,0,0.0,0,0,0.68796
0.709912975988118,0,0,0.0,0,0,0.7644
0.712904512998648,0,0,0.0,0,0,1.2230400000000001
0.7157805140013807,0,0,0.0,0,0,1.2230400000000001
0.7186178500123788,0,0,0.0,0,0,1.2994800000000002
0.7214435919886455,0,0,0.0,0,0,1.2230400000000001
0.7242389470047783,0,0,0.0,0,0,0.6115200000000001
0.7270369309990201,0,0,0.0,0,0,1.1465999999999998
0.729836692014942,0,0,0.0,0,0,1.5288
0.7326620650128461,0,0,0.0,0,0,0.45864
0.7354592710034922,0,0,0.0,0,0,0.53508
0.7382560700061731,0,0,0.0,0,0,1.07016
0.7410525539889932,0,0,0.0,0,0,0.53508
0.7438427600136492,0,0,0.0,0,0,0.6115200000000001
0.7466742059914395,0,0,0.0,0,0,0.15288000000000002
0.7494791719946079,0,0,0.0,0,0,1.07016
0.7522783039894421,0,0,0.0,0,0,1.45236
0.7550765280029736,0,0,0.0,0,0,0.7644
0.7580656759964768,0,0,0.0,0,0,0.7644
0.7608791420061607,0,0,0.0,0,0,1.2994800000000002
0.7637003290001303,0,0,0.0,0,0,1.1465999999999998
0.7664983500144444,0,0,0.0,0,0,1.911
0.7693008520000149,0,0,0.0,0,0,1.45236
0.7720977439894341,0,0,0.0,0,0,0.84084
0.7748955049901269,0,0,0.0,0,0,0.84084
0.7776954710134305,0,0,0.0,0,0,0.15288000000000002
0.7804917320027016,0,0,0.0,0,0,0.7644
0.7832888829871081,0,0,0.0,0,0,0.91728
0.7860865149996243,0,0,0.0,0,0,0.68796
0.7888825540139806,0,0,0.0,0,0,1.1465999999999998
0.7916616869915742,0,0,0.0,0,0,0.84084
0.7967581789998803,0,0,0.0,0,0,0.91728
0.7995549410115927,0,0,0.0,0,0,0.7644
0.8030399720009882,0,0,0.0,0,0,1.2230400000000001
0.8058718809916172,0,0,0.0,0,0,0.99372
0.8086674209916964,0,0,0.0,0,0,0.91728
0.8114644419983961,0,0,0.0,0,0,1.45236
0.814259962993674,0,0,0.0,0,0,1.1465999999999998
0.8170589839864988,0,0,0.0,0,0,0.3822
0.8198533749964554,0,0,0.0,0,0,0.91728
0.8226536180009134,0,0,0.0,0,0,0.6115200000000001
0.8254517320019659,0,0,0.0,0,0,0.45864
0.8282452340063173,0,0,0.0,0,0,-0.15288000000000002
0.83104305100278,0,0,0.0,0,0,0.53508
0.8338408689887729,0,0,0.0,0,0,1.07016
0.8366363710083533,0,0,0.0,0,0,0.84084
0.8394310399889946,0,0,0.0,0,0,1.37592
0.8422235430043656,0,0,0.0,0,0,0.99372
0.8452505609893706,0,0,0.0,0,0,0.99372
0.8481325989996549,0,0,0.0,0,0,0.22932
0.8512484309903812,0,0,0.0,0,0,0.53508
0.8543666519981343,0,0,0.0,0,0,0.45864
0.8574826690019108,0,0,0.0,0,0,1.07016
0.8605940380075481,0,0,0.0,0,0,1.2230400000000001
0.8637066840019543,0,0,0.0,0,0,1.5288
0.867040568991797,0,0,0.0,0,0,-8.63772
0.8701604930101894,0,0,0.0,0,0,0.30576000000000003
0.8732768989866599,0,0,0.0,0,0,1.07016
0.8763896010059398,0,0,0.0,0,0,1.68168
0.8795042480051052,0,0,0.0,0,0,2.52252
0.8826257649925537,0,0,0.0,0,0,2.4460800000000003
0.8857379860128276,0,0,0.0,0,0,0.84084
0.8888920950121246,0,0,0.0,0,0,0.7644
0.8920068159932271,0,0,0.0,0,0,1.83456
0.8951212220126763,0,0,0.0,0,0,1.07016
0.8982357390050311,0,0,0.0,0,0,0.91728
0.9013503300084267,0,0,0.0,0,0,1.98744
0.9044636060134508,0,0,0.0,0,0,2.06388
0.9075771050120238,0,0,0.0,0,0,1.45236
0.9120825119898655,0,0,0.0,0,0,1.07016
0.9152668059978168,0,0,0.0,0,0,1.37592
0.9183865259983577,0,0,0.0,0,0,0.53508
0.921506746992236,0,0,0.0,0,0,1.68168
0.9246205230010673,0,0,0.0,0,0,1.83456
0.927734633005457,0,0,0.0,0,0,1.37592
0.9313762359961402,0,0,0.0,0,0,0.91728
0.9345126599946525,0,0,0.0,0,0,1.5288
0.9376220109988935,0,0,0.0,0,0,1.75812
0.9407643050071783,0,0,0.0,0,0,2.5989600000000004
0.9438508040038869,0,0,0.0,0,0,0.99372
0.9469887650047895,0,0,0.0,0,0,1.60524
0.9500958189892117,0,0,0.0,0,0,0.53508
0.9532041139900684,0,0,0.0,0,0,1.911
0.9563064649992157,0,0,0.0,0,0,1.45236
0.9594122779963072,0,0,0.0,0,0,2.6754
0.9625189430080354,0,0,0.0,0,0,1.45236
0.9656264600052964,0,0,0.0,0,0,0.99372
0.9690369179879781,0,0,0.0,0,0,0.6115200000000001
0.9721406210155692,0,0,0.0,0,0,1.83456
0.9752474899869412,0,0,0.0,0,0,2.2931999999999997
0.9783564330136869,0,0,0.0,0,0,0.68796
0.9814500240026973,0,0,0.0,0,0,0.99372
0.9845347449881956,0,0,0.0,0,0,0.84084
0.987642855005106,0,0,0.0,0,0,1.1465999999999998
0.9907479830144439,0,0,0.0,0,0,1.07016
0.9938500369898975,0,0,0.0,0,0,1.1465999999999998
0.9969618690083735,0,0,0.0,0,0,0.6115200000000001
1.000066553009674,0,0,0.0,0,0,0.0
1.0033121790038422,0,0,0.0,0,0,0.30576000000000003
1.0065358800056856,0,0,0.0,0,0,1.1465999999999998
1.009771062002983,0,0,0.0,0,0,0.68796
1.013017226010561,0,0,0.0,0,0,2.98116
1.0162298899958842,0,0,0.0,0,0,2.52252
1.0194297390116844,0,0,0.0,0,0,0.15288000000000002
1.0226779769873247,0,0,0.0,0,0,1.75812
1.0258624929992948,0,0,0.0,0,0,3.0576
1.029154952004319,0,0,0.0,0,0,-0.45864
1.0323350240068976,0,0,0.0,0,0,0.15288000000000002
1.0354779479966965,0,0,0.0,0,0,2.4460800000000003
1.038586779992329,0,0,0.0,0,0,0.30576000000000003
1.0417005560011603,0,0,0.0,0,0,8.867040000000001
1.044818110007327,0,0,0.0,0,0,3.66912
1.0478852759988513,0,0,0.0,0,0,0.30576000000000003
1.0504452440072782,0,0,0.0,0,0,-0.99372
1.053019546001451,0,0,0.0,0,0,2.06388
1.055553496000357,0,0,0.0,0,0,2.52252
1.05812190900906,0,0,0.0,0,0,0.22932
1.0606860439875163,0,0,0.0,0,0,0.68796
1.063243993994547,0,0,0.0,0,0,3.0576
1.0657875550095923,0,0,0.0,0,0,0.68796
1.0683749490126502,0,0,0.0,0,0,-0.99372
1.0709940269880462,0,0,0.0,0,0,0.45864
1.0736353649990633,0,0,0.0,0,0,-9.32568
1.0763127579994034,0,0,0.0,0,0,0.07644000000000001
1.078991243004566,0,0,0.0,0,0,1.1465999999999998
1.081917984993197,0,0,0.0,0,0,2.14032
1.0845312669989653,0,0,0.0,0,0,1.07016
1.0871357719879597,0,0,0.0,0,0,1.37592
1.089755666005658,0,0,0.0,0,0,0.22932
1.0924376320035663,0,0,0.0,0,0,-9.784320000000001
1.0951345619978383,0,0,0.0,0,0,1.2994800000000002
1.0978328060009517,0,0,0.0,0,0,2.14032
1.1004386999993585,0,0,0.0,0,0,0.0
1.1031506480067037,0,0,0.0,0,0,0.84084
1.1058180780091789,0,0,0.0,0,0,1.1465999999999998
1.108491711987881,0,0,0.0,0,0,0.15288000000000002
1.1111140860011801,0,0,0.0,0,0,0.7644
1.1136521479929797,0,0,0.0,0,0,0.30576000000000003
1.1161789309990127,0,0,0.0,0,0,0.3822
1.1187094550114125,0,0,0.0,0,0,2.06388
1.1212389240099583,0,0,0.0,0,0,1.07016
1.1237642999913078,0,0,0.0,0,0,-0.30576000000000003
1.1263003060012124,0,0,0.0,0,0,1.2230400000000001
1.1288577000086661,0,0,0.0,0,0,0.7644
1.1313851320010144,0,0,0.0,0,0,-1.2230400000000001
1.1339164529927075,0,0,0.0,0,0,1.37592
1.1364429770037532,0,0,0.0,0,0,3.0576
1.1389705009933095,0,0,0.0,0,0,1.07016
1.1415119880111888,0,0,0.0,0,0,9.32568
1.144055920012761,0,0,0.0,0,0,1.45236
1.1466298319865018,0,0,0.0,0,0,1.83456
1.1491748930129688,0,0,0.0,0,0,-0.30576000000000003
1.1517182690149639,0,0,0.0,0,0,1.1465999999999998
1.154261960007716,0,0,0.0,0,0,1.911
1.1568062989972532,0,0,0.0,0,0,1.1465999999999998
1.1593495449924376,0,0,0.0,0,0,1.83456
1.1619283650070429,0,0,0.0,0,0,0.84084
1.1645429070049431,0,0,0.0,0,0,0.0
1.167086097993888,0,0,0.0,0,0,1.2230400000000001
1.169630510994466,0,0,0.0,0,0,0.07644000000000001
1.1721722760121338,0,0,0.0,0,0,0.07644000000000001
1.1747027809906285,0,0,0.0,0,0,1.68168
1.177262231009081,0,0,0.0,0,0,1.5288
1.1798067369963974,0,0,0.0,0,0,-0.45864
1.1823536499869078,0,0,0.0,0,0,1.83456
1.184896896011196,0,0,0.0,0,0,0.53508
1.1874373639875557,0,0,0.0,0,0,-0.7644
1.189983702992322,0,0,0.0,0,0,1.2994800000000002
1.1925253939989489,0,0,0.0,0,0,0.99372
1.195090547989821,0,0,0.0,0,0,0.84084
1.1976334610080812,0,0,0.0,0,0,1.60524
1.2001723920111544,0,0,0.0,0,0,1.45236
1.2027121570135932,0,0,0.0,0,0,0.3822
1.205323402013164,0,0,0.0,0,0,0.99372
1.2078773519897368,0,0,0.0,0,0,1.911
1.2104192650003824,0,0,0.0,0,0,0.22932
1.2129627520043869,0,0,0.0,0,0,0.91728
1.2155008139961865,0,0,0.0,0,0,2.36964
1.218045429995982,0,0,0.0,0,0,1.83456
1.2205845100106671,0,0,0.0,0,0,0.53508
1.223125718999654,0,0,0.0,0,0,1.5288
1.2256682800070848,0,0,0.0,0,0,1.45236
1.2282069709908683,0,0,0.0,0,0,0.84084
1.2307506799988914,0,0,0.0,0,0,2.14032
1.2332919079926796,0,0,0.0,0,0,0.7644
1.2358308210095856,0,0,0.0,0,0,0.0
1.238371901010396,0,0,0.0,0,0,3.21048
1.2409531100129243,0,0,0.0,0,0,0.0
1.2434954670025036,0,0,0.0,0,0,-1.2994800000000002
1.2460406390018761,0,0,0.0,0,0,2.2167600000000003
1.2486743849876802,0,0,0.0,0,0,1.1465999999999998
1.2516867550148163,0,0,0.0,0,0,0.07644000000000001
1.2548033269995358,0,0,0.0,0,0,1.37592
1.2579203259956557,0,0,0.0,0,0,0.91728
1.2610450650099665,0,0,0.0,0,0,9.631440000000001
1.2641577670001425,0,0,0.0,0,0,1.98744
1.2672732289938722,0,0,0.0,0,0,-0.53508
1.2703914679877926,0,0,0.0,0,0,2.36964
1.2735092070070095,0,0,0.0,0,0,1.37592
1.2766216869931668,0,0,0.0,0,0,0.30576000000000003
1.2797883700113744,0,0,0.0,0,0,1.45236
1.2829785530047957,0,0,0.0,0,0,-1.37592
1.286086181004066,0,0,0.0,0,0,2.4460800000000003
1.2891854199988302,0,0,0.0,0,0,1.37592
1.2922809190058615,0,0,0.0,0,0,9.631440000000001
1.2954000660101883,0,0,0.0,0,0,1.83456
1.2985162870027125,0,0,0.0,0,0,0.30576000000000003
1.3017895240045618,0,0,0.0,0,0,1.60524
1.3049469850084279,0,0,0.0,0,0,1.60524
1.308048372011399,0,0,0.0,0,0,0.22932
1.3111468899878673,0,0,0.0,0,0,1.37592
1.314247369999066,0,0,0.0,0,0,1.07016
1.317421979008941,0,0,0.0,0,0,1.60524
1.320568921015365,0,0,0.0,0,0,1.37592
1.323683678987436,0,0,0.0,0,0,-0.53508
1.326803733012639,0,0,0.0,0,0,1.911
1.3299239909974858,0,0,0.0,0,0,1.1465999999999998
1.3330426370084751,0,0,0.0,0,0,0.30576000000000003
1.3361545620136894,0,0,0.0,0,0,1.83456
1.3392677640076727,0,0,0.0,0,0,-0.3822
1.342384003015468,0,0,0.0,0,0,0.68796
1.3454988900048193,0,0,0.0,0,0,1.75812
1.3486509440117516,0,0,0.0,0,0,0.30576000000000003
1.3517683680111077,0,0,0.0,0,0,1.45236
1.3549256440019235,0,0,0.0,0,0,-9.32568
1.3583528799936175,0,0,0.0,0,0,2.5989600000000004
1.3615150259865914,0,0,0.0,0,0,0.84084
1.3646282459958456,0,0,0.0,0,0,9.631440000000001
1.3677663739945274,0,0,0.0,0,0,2.4460800000000003
1.3709333350125235,0,0,0.0,0,0,-0.84084
1.3741473320114892,0,0,0.0,0,0,1.5288
1.3772800159931649,0,0,0.0,0,0,0.99372
1.380392902996391,0,0,0.0,0,0,0.30576000000000003
1.3835089200001676,0,0,0.0,0,0,1.2994800000000002
1.3866247890109662,0,0,0.0,0,0,0.45864
1.3897414729872253,0,0,0.0,0,0,1.2230400000000001
1.3928932670096401,0,0,0.0,0,0,0.6115200000000001
1.3960099690011702,0,0,0.0,0,0,0.91728
1.3991254309949,0,0,0.0,0,0,0.7644
1.402244280994637,0,0,0.0,0,0,1.37592
1.4053597610036377,0,0,0.0,0,0,1.68168
1.408472962997621,0,0,0.0,0,0,-8.4084
1.4116010539873969,0,0,0.0,0,0,-0.30576000000000003
1.4148002740112133,0,0,0.0,0,0,1.2994800000000002
1.4179985120135825,0,0,0.0,0,0,1.1465999999999998
1.4211172510113101,0,0,0.0,0,0,0.84084
1.4242291020054836,0,0,0.0,0,0,1.5288
1.4273440079996362,0,0,0.0,0,0,9.631440000000001
1.4304608759994153,0,0,0.0,0,0,1.37592
1.4336192450136878,0,0,0.0,0,0,0.84084
1.4367666130128782,0,0,0.0,0,0,0.45864
1.4398847779957578,0,0,0.0,0,0,1.98744
1.4429984249873087,0,0,0.0,0,0,9.09636
1.446115146012744,0,0,0.0,0,0,2.14032
1.4492648100131191,0,0,0.0,0,0,0.22932
1.4523868639953434,0,0,0.0,0,0,0.30576000000000003
1.4555004560097586,0,0,0.0,0,0,1.60524
1.4586156390141696,0,0,0.0,0,0,-0.22932
1.4617358779942151,0,0,0.0,0,0,1.83456
1.464909839007305,0,0,0.0,0,0,1.37592
1.4680328750109766,0,0,0.0,0,0,-0.22932
1.4711477429955266,0,0,0.0,0,0,1.2230400000000001
1.4742630569962785,0,0,0.0,0,0,1.2994800000000002
1.477380444004666,0,0,0.0,0,0,0.3822
1.4804937200096902,0,0,0.0,0,0,0.91728
1.4836428670096211,0,0,0.0,0,0,0.7644
1.4867478100059088,0,0,0.0,0,0,1.83456
1.4898471230117138,0,0,0.0,0,0,1.07016
1.4929451770149171,0,0,0.0,0,0,0.0
1.4960392320062965,0,0,0.0,0,0,1.5288
1.4991573409934063,0,0,0.0,0,0,-1.1465999999999998
1.502299376996234,0,0,0.0,0,0,2.2931999999999997
1.5054374120081775,0,0,0.0,0,0,2.14032
1.5085348729917314,0,0,0.0,0,0,-0.7644
1.5116365019930527,0,0,0.0,0,0,1.83456
1.5147357409878168,0,0,0.0,0,0,1.60524
1.5178484430070966,0,0,0.0,0,0,1.60524
1.5209937749896199,0,0,0.0,0,0,0.6115200000000001
1.5241105140012223,0,0,0.0,0,0,0.30576000000000003
1.5272291240107734,0,0,0.0,0,0,1.37592
1.5303459000133444,0,0,0.0,0,0,1.45236
1.533464398002252,0,0,0.0,0,0,0.45864
1.5365786380134523,0,0,0.0,0,0,0.7644
1.5396952469891403,0,0,0.0,0,0,8.943480000000001
1.542812875006348,0,0,0.0,0,0,1.60524
1.54595548499492,0,0,0.0,0,0,1.75812
1.5491053900041152,0,0,0.0,0,0,-1.07016
1.5522246850014199,0,0,0.0,0,0,2.06388
1.5553423129895236,0,0,0.0,0,0,0.0
1.5584585340111516,0,0,0.0,0,0,0.53508
1.5615765689872205,0,0,0.0,0,0,1.75812
1.564692031010054,0,0,0.0,0,0,1.2994800000000002
1.5678106769919395,0,0,0.0,0,0,1.68168
1.5709277130081318,0,0,0.0,0,0,-0.53508
1.5740478780062404,0,0,0.0,0,0,1.911
1.5771665239881258,0,0,0.0,0,0,1.45236
1.580580926995026,0,0,0.0,0,0,-0.3822
1.5837035180011299,0,0,0.0,0,0,1.83456
1.5868222379940562,0,0,0.0,0,0,-0.68796
1.5899732550024055,0,0,0.0,0,0,0.84084
1.593080013000872,0,0,0.0,0,0,1.68168
1.5961937149986625,0,0,0.0,0,0,0.6115200000000001
1.599308695003856,0,0,0.0,0,0,1.2230400000000001
1.60242626699619,0,0,0.0,0,0,-8.71416
1.6055455619934946,0,0,0.0,0,0,1.5288
1.608658134995494,0,0,0.0,0,0,0.30576000000000003
1.61177898501046,0,0,0.0,0,0,0.30576000000000003
1.6149190019932576,0,0,0.0,0,0,1.2994800000000002
1.618033667007694,0,0,0.0,0,0,0.53508
1.6211483319930267,0,0,0.0,0,0,0.0
1.6242614049988333,0,0,0.0,0,0,1.5288
1.6273766249942128,0,0,0.0,0,0,-0.7644
1.630493420001585,0,0,0.0,0,0,0.53508
1.6336106960079633,0,0,0.0,0,0,1.2994800000000002
1.6367902499914635,0,0,0.0,0,0,0.15288000000000002
1.639909618999809,0,0,0.0,0,0,1.83456
1.643025839002803,0,0,0.0,0,0,-1.07016
1.646139023010619,0,0,0.0,0,0,2.4460800000000003
1.6492801879940089,0,0,0.0,0,0,1.5288
1.6523914090066683,0,0,0.0,0,0,0.53508
1.6555041290121153,0,0,0.0,0,0,1.07016
1.6586607010103762,0,0,0.0,0,0,-0.99372
1.6617852179915644,0,0,0.0,0,0,1.75812
1.6650426970154513,0,0,0.0,0,0,1.1465999999999998
1.6682099720055703,0,0,0.0,0,0,0.30576000000000003
1.6713281190022826,0,0,0.0,0,0,0.3822
1.6744425990036689,0,0,0.0,0,0,1.83456
1.6775587270094547,0,0,0.0,0,0,1.2230400000000001
1.6806692999962252,0,0,0.0,0,0,-0.07644000000000001
1.6838231309957337,0,0,0.0,0,0,0.7644
1.6869407029880676,0,0,0.0,0,0,0.30576000000000003
1.6900384429900441,0,0,0.0,0,0,1.60524
1.693136868008878,0,0,0.0,0,0,-0.30576000000000003
1.6962347920052707,0,0,0.0,0,0,2.52252
1.6993588090117555,0,0,0.0,0,0,8.71416
1.7025101780018304,0,0,0.0,0,0,1.1465999999999998
1.7056470089883078,0,0,0.0,0,0,1.911
1.7087724519951735,0,0,0.0,0,0,1.68168
1.7142580689978786,0,0,0.0,0,0,2.4460800000000003
1.7175441950093955,0,0,0.0,0,0,9.47856
1.7207672109943815,0,0,0.0,0,0,1.37592
1.7238945430144668,0,0,0.0,0,0,0.15288000000000002
1.727015726006357,0,0,0.0,0,0,0.99372
1.7301243729889393,0,0,0.0,0,0,1.68168
1.733243927010335,0,0,0.0,0,0,0.3822
1.7364047770097386,0,0,0.0,0,0,1.98744
1.739526682998985,0,0,0.0,0,0,-0.53508
1.7426507000054698,0,0,0.0,0,0,1.83456
1.7457715870114043,0,0,0.0,0,0,2.98116
1.7488934739958495,0,0,0.0,0,0,-0.99372
1.752116452989867,0,0,0.0,0,0,2.14032
1.755067157006124,0,0,0.0,0,0,0.68796
1.7578659559949301,0,0,0.0,0,0,0.0
1.7606650690140668,0,0,0.0,0,0,1.68168
1.763463720009895,0,0,0.0,0,0,0.0
1.766262037010165,0,0,0.0,0,0,2.06388
1.76906259500538,0,0,0.0,0,0,0.7644
1.771859246015083,0,0,0.0,0,0,0.30576000000000003
1.7746905620151665,0,0,0.0,0,0,1.911
1.7774986939912196,0,0,0.0,0,0,0.7644
1.7802948449971154,0,0,0.0,0,0,9.40212
1.783093144011218,0,0,0.0,0,0,0.6115200000000001
1.7858924420143012,0,0,0.0,0,0,2.14032
1.7886898890137672,0,0,0.0,0,0,0.53508
1.7914879659947474,0,0,0.0,0,0,0.45864
1.794286357006058,0,0,0.0,0,0,1.45236
1.79708458200912,0,0,0.0,0,0,-0.53508
1.7998826029943302,0,0,0.0,0,0,0.99372
1.8026829010050278,0,0,0.0,0,0,2.2931999999999997
1.8054819589888211,0,0,0.0,0,0,0.07644000000000001
1.8082789430045523,0,0,0.0,0,0,2.14032
1.8110779270064086,0,0,0.0,0,0,-0.22932
1.813877225999022,0,0,0.0,0,0,1.45236
1.8166861910140142,0,0,0.0,0,0,1.68168
1.8194889709993731,0,0,0.0,0,0,-2.14032
1.822305306995986,0,0,0.0,0,0,2.4460800000000003
1.8251065679942258,0,0,0.0,0,0,1.2994800000000002
1.827902107994305,0,0,0.0,0,0,-0.6115200000000001
1.8307019440107979,0,0,0.0,0,0,1.83456
1.83350098298979,0,0,0.0,0,0,1.37592
1.836297244997695,0,0,0.0,0,0,-0.68796
1.839095247007208,0,0,0.0,0,0,0.7644
1.8418934720102698,0,0,0.0,0,0,1.68168
1.8446908819896635,0,0,0.0,0,0,0.45864
1.8474901620065793,0,0,0.0,0,0,0.91728
1.8502866830094717,0,0,0.0,0,0,2.98116
1.8531756839947775,0,0,0.0,0,0,-0.30576000000000003
1.856253183010267,0,0,0.0,0,0,2.4460800000000003
1.8593700150086079,0,0,0.0,0,0,-2.06388
1.862487662001513,0,0,0.0,0,0,0.7644
1.8656065489922184,0,0,0.0,0,0,1.911
1.868761751014972,0,0,0.0,0,0,-1.5288
1.8718829709978309,0,0,0.0,0,0,2.14032
1.8750000250001904,0,0,0.0,0,0,-9.24924
1.8781221900135279,0,0,0.0,0,0,0.53508
1.8812493740115315,0,0,0.0,0,0,1.07016
1.8843681500002276,0,0,0.0,0,0,6.6502799999999995
1.8874865930119995,0,0,0.0,0,0,2.5989600000000004
1.8905914810020477,0,0,0.0,0,0,0.45864
1.8937029789958615,0,0,0.0,0,0,0.53508
1.8968200889939908,0,0,0.0,0,0,2.6754
1.8999351800011937,0,0,0.0,0,0,-1.60524
1.9030602340062615,0,0,0.0,0,0,-1.2994800000000002
1.9061775470036082,0,0,0.0,0,0,3.822
1.9092846940038726,0,0,0.0,0,0,0.91728
1.9123793409962673,0,0,0.0,0,0,1.1465999999999998
1.9169683580112178,0,0,0.0,0,0,0.68796
1.920188521995442,0,0,0.0,0,0,-3.822
1.9233049459871836,0,0,0.0,0,0,-1.07016
1.92640587099595,0,0,0.0,0,0,2.14032
1.9295127209916245,0,0,0.0,0,0,0.0
1.9326203679956961,0,0,0.0,0,0,0.0
1.9357274590001907,0,0,0.0,0,0,0.91728
1.9388362909958232,0,0,0.0,0,0,0.0
1.9419583450071514,0,0,0.0,0,0,-0.30576000000000003
1.9450886209961027,0,0,0.0,0,0,-0.53508
1.9481959349941462,0,0,0.0,0,0,0.53508
1.9513058039883617,0,0,0.0,0,0,1.2994800000000002
1.9544519500050228,0,0,0.0,0,0,1.37592
1.957562430005055,0,0,0.0,0,0,-0.15288000000000002
1.9606786879885476,0,0,0.0,0,0,0.84084
1.9642765689932276,0,0,0.0,0,0,0.30576000000000003
1.9673980489897076,0,0,0.0,0,0,0.0
1.970506881014444,0,0,0.0,0,0,0.7644
1.9736083610041533,0,0,0.0,0,0,1.45236
1.9766927669988945,0,0,0.0,0,0,-0.53508
1.9798048769880552,0,0,0.0,0,0,-0.30576000000000003
1.9829171900055371,0,0,0.0,0,0,0.0
1.986025244987104,0,0,0.0,0,0,9.40212
1.9891256880073342,0,0,0.0,0,0,0.53508
1.9922092049964704,0,0,0.0,0,0,1.5288
1.9953206109930761,0,0,0.0,0,0,-0.45864
1.9984295910107903,0,0,0.0,0,0,0.99372
2.001539460005006,0,0,0.0,0,0,0.0
2.0046940880129114,0,0,0.0,0,0,0.22932
2.0077884380007163,0,0,0.0,0,0,0.22932
2.01089551098994,0,0,0.0,0,0,0.68796
2.014082748995861,0,0,0.0,0,0,0.3822
2.0172190250013955,0,0,0.0,0,0,0.0
2.020360727008665,0,0,0.0,0,0,9.47856
2.023477632988943,0,0,0.0,0,0,0.0
2.026593409013003,0,0,0.0,0,0,0.7644
2.0297084630001336,0,0,0.0,0,0,0.53508
2.032822239998495,0,0,0.0,0,0,0.0
2.0359355160035193,0,0,0.0,0,0,1.45236
2.0390483289957047,0,0,0.0,0,0,0.0
2.0421613279904705,0,0,0.0,0,0,1.07016
2.0452753819990903,0,0,0.0,0,0,0.45864
2.048388788010925,0,0,0.0,0,0,0.3822
2.051502768008504,0,0,0.0,0,0,0.3822
2.054653822007822,0,0,0.0,0,0,0.6115200000000001
2.0577691349899396,0,0,0.0,0,0,0.0
2.060884189006174,0,0,0.0,0,0,9.40212
2.063996798999142,0,0,0.0,0,0,0.68796
2.0671097789891064,0,0,0.0,0,0,0.0
2.070256536011584,0,0,0.0,0,0,0.68796
2.0733781830058433,0,0,0.0,0,0,1.1465999999999998
2.0764926070114598,0,0,0.0,0,0,1.45236
2.079610012995545,0,0,0.0,0,0,0.30576000000000003
2.082731195987435,0,0,0.0,0,0,0.68796
2.085847417009063,0,0,0.0,0,0,0.3822
2.089010766998399,0,0,0.0,0,0,0.7644
2.0921082469867542,0,0,0.0,0,0,2.6754
2.0952280230121687,0,0,0.0,0,0,0.84084
2.098343669989845,0,0,0.0,0,0,0.68796
2.1014605019881856,0,0,0.0,0,0,0.68796
2.104577963007614,0,0,0.0,0,0,0.6115200000000001
2.107692721008789,0,0,0.0,0,0,0.7644
2.1121065740007907,0,0,0.0,0,0,0.91728
2.1153007939865347,0,0,0.0,0,0,0.6115200000000001
2.1184827359975316,0,0,0.0,0,0,0.6115200000000001
2.1221283200138714,0,0,0.0,0,0,0.30576000000000003
2.1253181509964634,0,0,0.0,0,0,0.22932
2.1284972600114997,0,0,0.0,0,0,1.07016
2.132155769999372,0,0,0.0,0,0,0.7644
2.135355748992879,0,0,0.0,0,0,0.84084
2.138552227988839,0,0,0.0,0,0,0.68796
2.141803392005386,0,0,0.0,0,0,0.45864
2.1450537590135355,0,0,0.0,0,0,0.6115200000000001
2.1482386449933983,0,0,0.0,0,0,0.6115200000000001
2.1526097400055733,0,0,0.0,0,0,0.53508
2.1557605339912698,0,0,0.0,0,0,0.84084
2.1585479810019024,0,0,0.0,0,0,0.53508
2.1613324460049625,0,0,0.0,0,0,0.6115200000000001
2.164117781998357,0,0,0.0,0,0,0.91728
2.166986542986706,0,0,0.0,0,0,0.7644
2.1698166010028217,0,0,0.0,0,0,0.99372
2.1726146769942716,0,0,0.0,0,0,0.53508
2.1753989580029156,0,0,0.0,0,0,0.84084
2.1782044779974967,0,0,0.0,0,0,1.2994800000000002
2.1810119439905975,0,0,0.0,0,0,0.6115200000000001
2.1838075020059478,0,0,0.0,0,0,0.84084
2.1866036519932095,0,0,0.0,0,0,0.3822
2.189430969010573,0,0,0.0,0,0,0.0
2.192224361002445,0,0,0.0,0,0,0.84084
2.1950205670145806,0,0,0.0,0,0,0.68796
2.197852346987929,0,0,0.0,0,0,0.53508
2.2006476820097305,0,0,0.0,0,0,0.6115200000000001
2.203443739999784,0,0,0.0,0,0,0.3822
2.206238612998277,0,0,0.0,0,0,1.1465999999999998
2.209033838007599,0,0,0.0,0,0,0.99372
2.2118280259892344,0,0,0.0,0,0,0.7644
2.2146251579979435,0,0,0.0,0,0,0.99372
2.2174926589941606,0,0,0.0,0,0,0.6115200000000001
2.220289273012895,0,0,0.0,0,0,0.84084
2.223085664008977,0,0,0.0,0,0,0.99372
2.2258806670142803,0,0,0.0,0,0,0.68796
2.2286761320137884,0,0,0.0,0,0,0.45864
2.2314722079900093,0,0,0.0,0,0,0.6115200000000001
2.2342666180047672,0,0,0.0,0,0,0.7644
2.2370624729956035,0,0,0.0,0,0,0.3822
2.2398548079945613,0,0,0.0,0,0,0.30576000000000003
2.242655829002615,0,0,0.0,0,0,0.45864
2.2454540909966454,0,0,0.0,0,0,0.91728
2.2482493160059676,0,0,0.0,0,0,0.91728
2.2510460219928063,0,0,0.0,0,0,0.99372
2.2539283570076805,0,0,0.0,0,0,0.6115200000000001
2.2569033750041854,0,0,0.0,0,0,0.6115200000000001
2.2600237999868114,0,0,0.0,0,0,-9.784320000000001
2.2631405759893823,0,0,0.0,0,0,0.68796
2.2662655189924408,0,0,0.0,0,0,0.68796
2.269390831992496,0,0,0.0,0,0,0.68796
2.272501089988509,0,0,0.0,0,0,0.45864
2.275646977010183,0,0,0.0,0,0,0.99372
2.2787773460149765,0,0,0.0,0,0,0.68796
2.2819352140068077,0,0,0.0,0,0,0.7644
2.285083527007373,0,0,0.0,0,0,0.91728
2.2881812480045483,0,0,0.0,0,0,0.84084
2.2912789690017235,0,0,0.0,0,0,0.68796
2.2943790970020927,0,0,0.0,0,0,0.84084
2.29749022499891,0,0,0.0,0,0,0.84084
2.3006025569920894,0,0,0.0,0,0,0.45864
2.30376207298832,0,0,0.0,0,0,0.6115200000000001
2.306958127010148,0,0,0.0,0,0,0.7644
2.310058884002501,0,0,0.0,0,0,0.7644
2.31315777200507,0,0,0.0,0,0,0.6115200000000001
2.316259715007618,0,0,0.0,0,0,1.1465999999999998
2.3194252690009307,0,0,0.0,0,0,0.91728
2.3225311010028236,0,0,0.0,0,0,0.53508
2.3256414140050765,0,0,0.0,0,0,1.07016
2.3287540239980444,0,0,0.0,0,0,0.6115200000000001
2.3318665219994728,0,0,0.0,0,0,0.53508
2.334979261009721,0,0,0.0,0,0,0.99372
2.3380940560018644,0,0,0.0,0,0,0.99372
2.341206887998851,0,0,0.0,0,0,0.0
2.344359868002357,0,0,0.0,0,0,0.7644
2.3474763109989,0,0,0.0,0,0,0.30576000000000003
2.3505897909926716,0,0,0.0,0,0,1.2230400000000001
2.3537438809871674,0,0,0.0,0,0,0.53508
2.3568935270013753,0,0,0.0,0,0,0.99372
2.3600195070030168,0,0,0.0,0,0,0.91728
2.363132802012842,0,0,0.0,0,0,0.6115200000000001
2.3662424299982376,0,0,0.0,0,0,0.6115200000000001
2.369384465011535,0,0,0.0,0,0,0.68796
2.3725028340122662,0,0,0.0,0,0,0.53508
2.3756168510008138,0,0,0.0,0,0,0.68796
2.37876481199055,0,0,0.0,0,0,1.1465999999999998
2.381880495988298,0,0,0.0,0,0,0.84084
2.3850218830048107,0,0,0.0,0,0,0.84084
2.388135585002601,0,0,0.0,0,0,0.53508
2.391248658008408,0,0,0.0,0,0,0.45864
2.3943619900092017,0,0,0.0,0,0,0.84084
2.397476635989733,0,0,0.0,0,0,1.2230400000000001
2.4005880420154426,0,0,0.0,0,0,1.2230400000000001
2.403701484989142,0,0,0.0,0,0,1.07016
2.406830076011829,0,0,0.0,0,0,0.3822
2.409982240991667,0,0,0.0,0,0,1.68168
2.413098943012301,0,0,0.0,0,0,0.22932
2.41625695998664,0,0,0.0,0,0,0.91728
2.419522197014885,0,0,0.0,0,0,1.45236
2.4226367509982083,0,0,0.0,0,0,0.45864
2.4257523420092184,0,0,0.0,0,0,0.6115200000000001
2.4289069139922503,0,0,0.0,0,0,0.6115200000000001
2.4320228020078503,0,0,0.0,0,0,0.53508
2.435136929998407,0,0,0.0,0,0,0.45864
2.4382494470046367,0,0,0.0,0,0,1.07016
2.4413653160154354,0,0,0.0,0,0,0.99372
2.4444781659985892,0,0,0.0,0,0,0.84084
2.4475925540027674,0,0,0.0,0,0,0.45864
2.4507074969878886,0,0,0.0,0,0,0.6115200000000001
2.4538568840071093,0,0,0.0,0,0,1.1465999999999998
2.457036417996278,0,0,0.0,0,0,0.7644
2.460151842999039,0,0,0.0,0,0,1.2230400000000001
2.463265638012672,0,0,0.0,0,0,0.68796
2.466378913988592,0,0,0.0,0,0,0.30576000000000003
2.469498541991925,0,0,0.0,0,0,0.6115200000000001
2.4726077810046263,0,0,0.0,0,0,0.84084
2.4757535200042184,0,0,0.0,0,0,0.99372
2.478884148003999,0,0,0.0,0,0,1.2994800000000002
2.4820704600133467,0,0,0.0,0,0,1.1465999999999998
2.4851769960077945,0,0,0.0,0,0,0.7644
2.488272346992744,0,0,0.0,0,0,0.45864
2.491370308009209,0,0,0.0,0,0,0.6115200000000001
2.4944692889985163,0,0,0.0,0,0,0.53508
2.497579343005782,0,0,0.0,0,0,0.7644
2.5006929890078027,0,0,0.0,0,0,1.2994800000000002
2.5038489320140798,0,0,0.0,0,0,0.6115200000000001
2.5069484680134337,0,0,0.0,0,0,0.3822
2.5100481330009643,0,0,0.0,0,0,0.84084
2.5131452979985625,0,0,0.0,0,0,0.53508
2.516238648997387,0,0,0.0,0,0,1.07016
2.5193572959979065,0,0,0.0,0,0,1.37592
2.522473738004919,0,0,0.0,0,0,0.99372
2.5255904590012506,0,0,0.0,0,0,0.6115200000000001
2.5287047720048577,0,0,0.0,0,0,0.6115200000000001
2.531852993008215,0,0,0.0,0,0,0.6115200000000001
2.535030619997997,0,0,0.0,0,0,0.22932
2.5381778959999792,0,0,0.0,0,0,0.84084
2.5412952280021273,0,0,0.0,0,0,0.68796
2.5444070599914994,0,0,0.0,0,0,1.1465999999999998
2.547528335999232,0,0,0.0,0,0,0.53508
2.5506417969882023,0,0,0.0,0,0,0.84084
2.553755611006636,0,0,0.0,0,0,0.53508
2.5569111829972826,0,0,0.0,0,0,0.68796
2.5601110690040514,0,0,0.0,0,0,0.99372
2.5632276789983734,0,0,0.0,0,0,0.91728
2.56634369600215,0,0,0.0,0,0,0.99372
2.569460878992686,0,0,0.0,0,0,0.68796
2.5725724149961025,0,0,0.0,0,0,0.84084
2.575716376013588,0,0,0.0,0,0,0.15288000000000002
2.5788470229890663,0,0,0.0,0,0,1.07016
2.581965927995043,0,0,0.0,0,0,0.91728
2.5850802049972117,0,0,0.0,0,0,1.1465999999999998
2.5881933880154975,0,0,0.0,0,0,0.68796
2.5913056090066675,0,0,0.0,0,0,0.84084
2.594418571010465,0,0,0.0,0,0,0.30576000000000003
2.5975330139917787,0,0,0.0,0,0,0.7644
2.6006427720130887,0,0,0.0,0,0,0.84084
2.6037563070131,0,0,0.0,0,0,0.7644
2.60687330600922,0,0,0.0,0,0,0.84084
2.6101048949931283,0,0,0.0,0,0,1.07016
2.6132303010090254,0,0,0.0,0,0,0.68796
2.6163217260036618,0,0,0.0,0,0,0.15288000000000002
2.6194387059949804,0,0,0.0,0,0,1.2230400000000001
2.622553222987335,0,0,0.0,0,0,0.68796
2.6256677950150333,0,0,0.0,0,0,1.37592
2.6287810349895153,0,0,0.0,0,0,0.6115200000000001
2.6318935889867134,0,0,0.0,0,0,0.68796
2.6350066240120213,0,0,0.0,0,0,0.7644
2.6381200670148246,0,0,0.0,0,0,0.68796
2.6412339730013628,0,0,0.0,0,0,0.91728
2.6443469900113996,0,0,0.0,0,0,0.91728
2.6474611739977263,0,0,0.0,0,0,0.7644
2.650577986991266,0,0,0.0,0,0,0.6115200000000001
2.6536906709952746,0,0,0.0,0,0,0.91728
2.656916205014568,0,0,0.0,0,0,0.0
2.6600347039930057,0,0,0.0,0,0,0.7644
2.663149202009663,0,0,0.0,0,0,0.91728
2.6663080329890363,0,0,0.0,0,0,1.45236
2.66953056800412,0,0,0.0,0,0,0.68796
2.6726768809894565,0,0,0.0,0,0,0.84084
2.675794656999642,0,0,0.0,0,0,0.6115200000000001
2.6789123770140577,0,0,0.0,0,0,0.84084
2.6822329479909968,0,0,0.0,0,0,1.2994800000000002
2.685338039009366,0,0,0.0,0,0,0.7644
2.6884318339871243,0,0,0.0,0,0,0.7644
2.6915294250065926,0,0,0.0,0,0,0.68796
2.6946288679901045,0,0,0.0,0,0,0.7644
2.697741384996334,0,0,0.0,0,0,0.45864
2.700890550011536,0,0,0.0,0,0,0.99372
2.7040480480063707,0,0,0.0,0,0,0.91728
2.707159417012008,0,0,0.0,0,0,0.84084
2.710258008009987,0,0,0.0,0,0,0.6115200000000001
2.7135383569984697,0,0,0.0,0,0,0.53508
2.7168585559993517,0,0,0.0,0,0,1.2994800000000002
2.7201035899925046,0,0,0.0,0,0,0.68796
2.723235310986638,0,0,0.0,0,0,1.2230400000000001
2.7263369580032304,0,0,0.0,0,0,0.68796
2.7294362529937644,0,0,0.0,0,0,0.3822
2.7325319740048144,0,0,0.0,0,0,0.68796
2.735627749993,0,0,0.0,0,0,0.68796
2.7387260640098248,0,0,0.0,0,0,1.1465999999999998
2.7418234329961706,0,0,0.0,0,0,0.53508
2.744935302005615,0,0,0.0,0,0,1.07016
2.7480535590148065,0,0,0.0,0,0,0.53508
2.7511730210098904,0,0,0.0,0,0,0.6115200000000001
2.7542902230052277,0,0,0.0,0,0,0.53508
2.7574469989922363,0,0,0.0,0,0,0.91728
2.76056216401048,0,0,0.0,0,0,0.91728
2.763678124989383,0,0,0.0,0,0,0.91728
2.7667941419931594,0,0,0.0,0,0,0.91728
2.7699125109938905,0,0,0.0,0,0,0.6115200000000001
2.7730622320086695,0,0,0.0,0,0,0.53508
2.7761774710088503,0,0,0.0,0,0,0.45864
2.779548207006883,0,0,0.0,0,0,0.6115200000000001
2.7826678910059854,0,0,0.0,0,0,0.0
2.7857861109951045,0,0,0.0,0,0,0.99372
2.7889024990145117,0,0,0.0,0,0,0.0
2.7920180530054495,0,0,0.0,0,0,0.53508
2.7951328470080625,0,0,0.0,0,0,0.91728
2.7982495310134254,0,0,0.0,0,0,1.45236
2.8014104739995673,0,0,0.0,0,0,0.91728
2.804527378990315,0,0,0.0,0,0,1.07016
2.8076431560039055,0,0,0.0,0,0,0.7644
2.8107592099986505,0,0,0.0,0,0,0.45864
2.8138774299877696,0,0,0.0,0,0,0.6115200000000001
2.817023520998191,0,0,0.0,0,0,0.68796
2.8201405750005506,0,0,0.0,0,0,0.91728
2.8232563700003084,0,0,0.0,0,0,0.68796
2.8263604799867608,0,0,0.0,0,0,1.1465999999999998
2.829474571015453,0,0,0.0,0,0,0.07644000000000001
2.8325895509915426,0,0,0.0,0,0,0.6115200000000001
2.835704753000755,0,0,0.0,0,0,0.53508
2.8388194919971284,0,0,0.0,0,0,0.6115200000000001
2.841965102008544,0,0,0.0,0,0,0.68796
2.845091711002169,0,0,0.0,0,0,0.91728
2.848206413007574,0,0,0.0,0,0,0.91728
2.8513208189979196,0,0,0.0,0,0,0.91728
2.854435557994293,0,0,0.0,0,0,0.68796
2.8575842599966563,0,0,0.0,0,0,0.68796
2.8607832579873502,0,0,0.0,0,0,0.22932
2.863902237993898,0,0,0.0,0,0,0.99372
2.867017106997082,0,0,0.0,0,0,0.91728
2.8701565680094063,0,0,0.0,0,0,1.1465999999999998
2.8732736769889016,0,0,0.0,0,0,0.6115200000000001
2.876390176010318,0,0,0.0,0,0,0.91728
2.879507562989602,0,0,0.0,0,0,0.07644000000000001
2.882656820991542,0,0,0.0,0,0,0.7644
2.886095463007223,0,0,0.0,0,0,1.37592
2.8891965729999356,0,0,0.0,0,0,0.84084
2.8922920349868946,0,0,0.0,0,0,0.6115200000000001
2.8953895890153944,0,0,0.0,0,0,1.07016
2.8985054579970893,0,0,0.0,0,0,0.91728
2.901626141014276,0,0,0.0,0,0,0.7644
2.9049484150018543,0,0,0.0,0,0,0.45864
2.90805080300197,0,0,0.0,0,0,0.99372
2.9111513569951057,0,0,0.0,0,0,0.22932
2.914250189001905,0,0,0.0,0,0,0.7644
2.9174455380125437,0,0,0.0,0,0,0.7644
2.920615073002409,0,0,0.0,0,0,1.45236
2.9237329050083645,0,0,0.0,0,0,0.7644
2.9268488849920686,0,0,0.0,0,0,0.91728
2.929963291011518,0,0,0.0,0,0,0.22932
2.9333647119929083,0,0,0.0,0,0,0.91728
2.9364873580052517,0,0,0.0,0,0,1.07016
2.9396033750090282,0,0,0.0,0,0,0.7644
2.942719243990723,0,0,0.0,0,0,0.68796
2.9458369280037005,0,0,0.0,0,0,2.14032
2.948960278008599,0,0,0.0,0,0,-9.09636
2.952080165996449,0,0,0.0,0,0,0.22932
2.955196071998216,0,0,0.0,0,0,1.60524
2.958348495012615,0,0,0.0,0,0,0.84084
2.961464789987076,0,0,0.0,0,0,1.37592
2.964577473991085,0,0,0.0,0,0,0.68796
2.9677001209929585,0,0,0.0,0,0,1.07016
2.970897043996956,0,0,0.0,0,0,0.6115200000000001
2.974014504987281,0,0,0.0,0,0,0.84084
2.9771308740018867,0,0,0.0,0,0,0.91728
2.9802429279952776,0,0,0.0,0,0,0.99372
2.9833569639886264,0,0,0.0,0,0,0.68796
2.9864715920120943,0,0,0.0,0,0,0.45864
2.9895873309869785,0,0,0.0,0,0,1.07016
2.9926991820102558,0,0,0.0,0,0,0.3822
2.995815088012023,0,0,0.0,0,0,0.7644
2.9989311230019666,0,0,0.0,0,0,1.07016
3.002048085007118,0,0,0.0,0,0,1.37592
3.0053428770042956,0,0,0.0,0,0,0.84084
3.0084891350124963,0,0,0.0,0,0,0.91728
3.0115884300030302,0,0,0.0,0,0,0.68796
3.014688910014229,0,0,0.0,0,0,0.6115200000000001
3.0178012599935755,0,0,0.0,0,0,0.91728
3.0209174620104022,0,0,0.0,0,0,0.68796
3.024032609013375,0,0,0.0,0,0,0.84084
3.0271472739987075,0,0,0.0,0,0,0.91728
3.030260736006312,0,0,0.0,0,0,0.7644
3.0333787160052452,0,0,0.0,0,0,0.30576000000000003
3.0364910289936233,0,0,0.0,0,0,0.91728
3.0396118240023497,0,0,0.0,0,0,0.68796
3.042727988999104,0,0,0.0,0,0,0.84084
3.045843321015127,0,0,0.0,0,0,0.3822
3.048959540989017,0,0,0.0,0,0,1.2230400000000001
3.0520735589961987,0,0,0.0,0,0,1.07016
3.0551881499995943,0,0,0.0,0,0,0.6115200000000001
3.058335943991551,0,0,0.0,0,0,0.99372
3.061451924004359,0,0,0.0,0,0,0.68796
3.0645867369894404,0,0,0.0,0,0,0.99372
3.0677175319870003,0,0,0.0,0,0,1.1465999999999998
3.070835104008438,0,0,0.0,0,0,0.99372
3.0739868250093423,0,0,0.0,0,0,0.30576000000000003
3.0771036189980805,0,0,0.0,0,0,0.91728
3.080473781010369,0,0,0.0,0,0,0.99372
3.0836230569984764,0,0,0.0,0,0,0.91728
3.086726870998973,0,0,0.0,0,0,0.53508
3.08982444301364,0,0,0.0,0,0,0.99372
3.092946146003669,0,0,0.0,0,0,0.68796
3.0960414219880477,0,0,0.0,0,0,0.68796
3.099159884004621,0,0,0.0,0,0,1.2230400000000001
3.102520285989158,0,0,0.0,0,0,0.68796
3.1056940619891975,0,0,0.0,0,0,0.91728
3.1087913009978365,0,0,0.0,0,0,0.68796
3.1118865039898083,0,0,0.0,0,0,1.2230400000000001
3.1149842430022545,0,0,0.0,0,0,0.07644000000000001
3.1181003529927693,0,0,0.0,0,0,0.99372
3.121218702988699,0,0,0.0,0,0,0.84084
3.124333554005716,0,0,0.0,0,0,0.68796
3.127434033987811,0,0,0.0,0,0,0.99372
3.130548292014282,0,0,0.0,0,0,1.2994800000000002
3.1336656599887647,0,0,0.0,0,0,0.84084
3.136779344000388,0,0,0.0,0,0,0.53508
3.1398941579973325,0,0,0.0,0,0,0.99372
3.143007859995123,0,0,0.0,0,0,0.7644
3.1461226730025373,0,0,0.0,0,0,0.3822
3.1492389120103326,0,0,0.0,0,0,1.1465999999999998
3.152350669988664,0,0,0.0,0,0,1.1465999999999998
3.155463780014543,0,0,0.0,0,0,0.84084
3.1586605919874273,0,0,0.0,0,0,0.7644
3.1617875350057147,0,0,0.0,0,0,0.84084
3.1649043110082857,0,0,0.0,0,0,0.53508
3.1681056230154354,0,0,0.0,0,0,0.53508
3.171273065992864,0,0,0.0,0,0,1.1465999999999998
3.1743894719984382,0,0,0.0,0,0,0.91728
3.1775048220006283,0,0,0.0,0,0,0.68796
3.1806159499974456,0,0,0.0,0,0,0.53508
3.1837290599942207,0,0,0.0,0,0,0.30576000000000003
3.1868430949980393,0,0,0.0,0,0,0.6115200000000001
3.189961019990733,0,0,0.0,0,0,1.2230400000000001
3.193075721996138,0,0,0.0,0,0,1.07016
3.1962157390080392,0,0,0.0,0,0,1.5288
3.1993324409995694,0,0,0.0,0,0,0.3822
3.202445514005376,0,0,0.0,0,0,0.53508
3.2055599559971597,0,0,0.0,0,0,0.7644
3.208670121995965,0,0,0.0,0,0,0.84084
3.2119305260130204,0,0,0.0,0,0,1.1465999999999998
3.215054116997635,0,0,0.0,0,0,0.84084
3.2181668750126846,0,0,0.0,0,0,0.91728
3.2212815399980173,0,0,0.0,0,0,0.45864
3.224392389995046,0,0,0.0,0,0,0.68796
3.2275060740066692,0,0,0.0,0,0,0.15288000000000002
3.2306281279888935,0,0,0.0,0,0,0.99372
3.2337419780087657,0,0,0.0,0,0,0.68796
3.2369137539935764,0,0,0.0,0,0,1.37592
3.2400278449931648,0,0,0.0,0,0,-9.172799999999999
3.2431457320053596,0,0,0.0,0,0,1.07016
3.2462627310014796,0,0,0.0,0,0,0.45864
3.2493768779968377,0,0,0.0,0,0,0.68796
3.252487468998879,0,0,0.0,0,0,0.68796
3.255600097007118,0,0,0.0,0,0,0.91728
3.258745725004701,0,0,0.0,0,0,0.84084
3.2619197219901253,0,0,0.0,0,0,0.7644
3.265066219988512,0,0,0.0,0,0,0.45864
3.268315494991839,0,0,0.0,0,0,0.15288000000000002
3.2714374749921262,0,0,0.0,0,0,0.84084
3.2745507700019516,0,0,0.0,0,0,0.6115200000000001
3.2776626019913238,0,0,0.0,0,0,1.07016
3.280770378012676,0,0,0.0,0,0,0.68796
3.283879043010529,0,0,0.0,0,0,0.68796
3.2869898380013183,0,0,0.0,0,0,0.68796
3.2900947440066375,0,0,0.0,0,0,0.6115200000000001
3.293199909996474,0,0,0.0,0,0,0.6115200000000001
3.2963042419869453,0,0,0.0,0,0,0.6115200000000001
3.299408702994697,0,0,0.0,0,0,0.3822
3.30251736799255,0,0,0.0,0,0,-8.867040000000001
3.3056280890014023,0,0,0.0,0,0,1.1465999999999998
3.3088019760034513,0,0,0.0,0,0,0.30576000000000003
3.31190969698946,0,0,0.0,0,0,0.7644
3.315014824998798,0,0,0.0,0,0,0.7644
3.3181351750099566,0,0,0.0,0,0,0.30576000000000003
3.321263377001742,0,0,0.0,0,0,0.7644
3.3243661540036555,0,0,0.0,0,0,1.07016
3.327503170003183,0,0,0.0,0,0,1.1465999999999998
3.3306063170020934,0,0,0.0,0,0,0.45864
3.3337084089871496,0,0,0.0,0,0,0.3822
3.3368120370141696,0,0,0.0,0,0,0.3822
3.33991175799747,0,0,0.0,0,0,9.707880000000001
3.3430136450042482,0,0,0.0,0,0,1.2230400000000001
3.346127218013862,0,0,0.0,0,0,0.99372
3.3492335870105308,0,0,0.0,0,0,1.1465999999999998
3.35233347400208,0,0,0.0,0,0,0.3822
3.355435177014442,0,0,0.0,0,0,1.1465999999999998
3.3585742859868333,0,0,0.0,0,0,0.53508
3.3616766550112516,0,0,0.0,0,0,0.7644
3.3648039679974318,0,0,0.0,0,0,1.07016
3.3679070780053735,0,0,0.0,0,0,0.99372
3.3710099839954637,0,0,0.0,0,0,1.1465999999999998
3.3741127790126484,0,0,0.0,0,0,0.6115200000000001
3.377215056010755,0,0,0.0,0,0,0.84084
3.3803316650155466,0,0,0.0,0,0,0.22932
3.3834346270014066,0,0,0.0,0,0,0.84084
3.386536181002157,0,0,0.0,0,0,0.3822
3.389642919995822,0,0,0.0,0,0,1.07016
3.3927740300132427,0,0,0.0,0,0,0.91728
3.3958778429951053,0,0,0.0,0,0,1.1465999999999998
3.398980157013284,0,0,0.0,0,0,1.2230400000000001
3.4020862670149654,0,0,0.0,0,0,0.53508
3.405191599013051,0,0,0.0,0,0,0.84084
3.4082902079971973,0,0,0.0,0,0,0.53508
3.4113925030105747,0,0,0.0,0,0,0.7644
3.4144945580046624,0,0,0.0,0,0,0.99372
3.4176065750070848,0,0,0.0,0,0,0.7644
3.421402156993281,0,0,0.0,0,0,0.07644000000000001
3.424545173998922,0,0,0.0,0,0,0.99372
3.427664023998659,0,0,0.0,0,0,1.2230400000000001
3.4307799669913948,0,0,0.0,0,0,1.1465999999999998
3.433923817006871,0,0,0.0,0,0,0.6115200000000001
3.4371015740034636,0,0,0.0,0,0,0.91728
3.4402173880080227,0,0,0.0,0,0,0.45864
3.4436340680113062,0,0,0.0,0,0,0.7644
3.446943804010516,0,0,0.0,0,0,1.45236
3.450069081009133,0,0,0.0,0,0,0.68796
3.4531887829944026,0,0,0.0,0,0,0.91728
3.4563041150104254,0,0,0.0,0,0,0.6115200000000001
3.4594891679880675,0,0,0.0,0,0,0.45864
3.4626258139905985,0,0,0.0,0,0,0.84084
3.4657480900059454,0,0,0.0,0,0,0.45864
3.469114751991583,0,0,0.0,0,0,0.6115200000000001
3.472234621003736,0,0,0.0,0,0,0.15288000000000002
3.4753562310070265,0,0,0.0,0,0,0.99372
3.4784728400118183,0,0,0.0,0,0,0.53508
3.481592541997088,0,0,0.0,0,0,0.7644
3.4847025409981143,0,0,0.0,0,0,0.6115200000000001
3.4878325019963086,0,0,0.0,0,0,1.2230400000000001
3.490947390004294,0,0,0.0,0,0,0.7644
3.494061055011116,0,0,0.0,0,0,0.7644
3.497175424010493,0,0,0.0,0,0,0.3822
3.5002882000117097,0,0,0.0,0,0,0.45864
3.503404827992199,0,0,0.0,0,0,0.45864
3.5065195859933738,0,0,0.0,0,0,0.6115200000000001
3.509639418014558,0,0,0.0,0,0,0.99372
3.512756915995851,0,0,0.0,0,0,-9.172799999999999
3.5158747480018064,0,0,0.0,0,0,0.7644
3.5189889130124357,0,0,0.0,0,0,0.3822
3.5221016709983815,0,0,0.0,0,0,0.07644000000000001
3.525213799002813,0,0,0.0,0,0,0.91728
3.528326075989753,0,0,0.0,0,0,1.1465999999999998
3.5314385739911813,0,0,0.0,0,0,0.99372
3.5345521470007952,0,0,0.0,0,0,1.2230400000000001
3.537665774987545,0,0,0.0,0,0,0.7644
3.5407769219891634,0,0,0.0,0,0,0.6115200000000001
3.5438863830058835,0,0,0.0,0,0,0.15288000000000002
3.5470975289936177,0,0,0.0,0,0,1.07016
3.5502129530068487,0,0,0.0,0,0,0.99372
3.553328876994783,0,0,0.0,0,0,1.07016
3.5564405609911773,0,0,0.0,0,0,0.68796
3.5595896519953385,0,0,0.0,0,0,0.68796
3.5627315760066267,0,0,0.0,0,0,0.6115200000000001
3.5658470740017947,0,0,0.0,0,0,0.7644
3.5689606099913362,0,0,0.0,0,0,0.84084
3.5720749419997446,0,0,0.0,0,0,0.91728
3.5751904220087454,0,0,0.0,0,0,1.1465999999999998
3.578303198009962,0,0,0.0,0,0,0.68796
3.581416030006949,0,0,0.0,0,0,0.7644
3.5845262880029622,0,0,0.0,0,0,0.30576000000000003
3.5876390830089804,0,0,0.0,0,0,1.07016
3.590770729002543,0,0,0.0,0,0,0.45864
3.5938846910139546,0,0,0.0,0,0,0.53508
3.597021207009675,0,0,0.0,0,0,0.7644
3.600133410014678,0,0,0.0,0,0,1.07016
3.603245723003056,0,0,0.0,0,0,0.84084
3.6063607220130507,0,0,0.0,0,0,0.30576000000000003
3.609474238997791,0,0,0.0,0,0,0.68796
3.6125895520090126,0,0,0.0,0,0,0.45864
3.6157020129903685,0,0,0.0,0,0,0.84084
3.6188143820036203,0,0,0.0,0,0,0.99372
3.621961769007612,0,0,0.0,0,0,0.84084
3.6250747489975765,0,0,0.0,0,0,0.45864
3.6281863409967627,0,0,0.0,0,0,0.91728
3.6312989500002004,0,0,0.0,0,0,0.68796
3.6344115039973985,0,0,0.0,0,0,0.6115200000000001
3.63752374399337,0,0,0.0,0,0,0.91728
3.6406667600094806,0,0,0.0,0,0,0.91728
3.64377890698961,0,0,0.0,0,0,0.30576000000000003
3.6470030519994907,0,0,0.0,0,0,0.91728
3.650120736012468,0,0,0.0,0,0,0.53508
3.6532380860007834,0,0,0.0,0,0,0.6115200000000001
3.656350455014035,0,0,0.0,0,0,0.07644000000000001
3.6595149720087647,0,0,0.0,0,0,0.84084
3.6626349150028545,0,0,0.0,0,0,0.6115200000000001
3.6657514499966055,0,0,0.0,0,0,1.1465999999999998
3.6689122630050406,0,0,0.0,0,0,0.84084
3.672469793003984,0,0,0.0,0,0,0.7644
3.675635308987694,0,0,0.0,0,0,0.53508
3.678769641002873,0,0,0.0,0,0,0.7644
3.6818821209890302,0,0,0.0,0,0,1.07016
3.6850380079995375,0,0,0.0,0,0,0.99372
3.688164005987346,0,0,0.0,0,0,0.6115200000000001
3.691279505001148,0,0,0.0,0,0,0.45864
3.694395225000335,0,0,0.0,0,0,0.68796
3.6975027059961576,0,0,0.0,0,0,0.53508
3.700597351999022,0,0,0.0,0,0,0.91728
3.7037192579882685,0,0,0.0,0,0,0.68796
3.7068326270091347,0,0,0.0,0,0,0.6115200000000001
3.709973996010376,0,0,0.0,0,0,0.6115200000000001
3.7142865910136607,0,0,0.0,0,0,0.6115200000000001
3.717621974996291,0,0,0.0,0,0,0.0
3.721241449005902,0,0,0.0,0,0,0.84084
3.724510057014413,0,0,0.0,0,0,0.68796
3.7277444239880424,0,0,0.0,0,0,0.3822
3.7310539569880348,0,0,0.0,0,0,0.7644
3.734306602011202,0,0,0.0,0,0,0.7644
3.7376072100014426,0,0,0.0,0,0,0.68796
3.7408362069982104,0,0,0.0,0,0,0.84084
3.74403574099415,0,0,0.0,0,0,0.84084
3.747230720007792,0,0,0.0,0,0,0.45864
3.7504339030128904,0,0,0.0,0,0,0.68796
3.7535380680055823,0,0,0.0,0,0,1.1465999999999998
3.7566319740144536,0,0,0.0,0,0,0.45864
3.7599051750148647,0,0,0.0,0,0,0.6115200000000001
3.7628266380052082,0,0,0.0,0,0,0.68796
3.76515483201365,0,0,0.0,0,0,0.68796
3.7674816549988464,0,0,0.0,0,0,0.84084
3.769804367009783,0,0,0.0,0,0,0.0
3.7721171349985525,0,0,0.0,0,0,0.99372
3.774445957998978,0,0,0.0,0,0,0.99372
3.7767722439893987,0,0,0.0,0,0,0.68796
3.7790834560000803,0,0,0.0,0,0,1.1465999999999998
3.7814064460108057,0,0,0.0,0,0,0.6115200000000001
3.7837315470096655,0,0,0.0,0,0,0.68796
3.7860581100103445,0,0,0.0,0,0,0.84084
3.788383895996958,0,0,0.0,0,0,0.53508
3.790710367989959,0,0,0.0,0,0,1.2230400000000001
3.793036969000241,0,0,0.0,0,0,1.07016
3.7953603659989312,0,0,0.0,0,0,1.2994800000000002
3.7976864110096358,0,0,0.0,0,0,0.30576000000000003
3.800011604995234,0,0,0.0,0,0,0.15288000000000002
3.802359705005074,0,0,0.0,0,0,0.68796
3.8046838990121614,0,0,0.0,0,0,0.53508
3.8070092030102387,0,0,0.0,0,0,0.99372
3.8093362860090565,0,0,0.0,0,0,0.3822
3.811660645995289,0,0,0.0,0,0,0.68796
3.8139865059929434,0,0,0.0,0,0,0.68796
3.816311755013885,0,0,0.0,0,0,0.91728
3.818637577991467,0,0,0.0,0,0,0.84084
3.8209642709989566,0,0,0.0,0,0,0.0
3.8232878349954262,0,0,0.0,0,0,0.53508
3.8256152140093036,0,0,0.0,0,0,0.91728
3.827939815004356,0,0,0.0,0,0,0.6115200000000001
3.8302661380148493,0,0,0.0,0,0,1.1465999999999998
3.832611571997404,0,0,0.0,0,0,0.53508
3.8349372280063108,0,0,0.0,0,0,0.68796
3.8372593660023995,0,0,0.0,0,0,0.6115200000000001
3.839583171007689,0,0,0.0,0,0,0.68796
3.841906938003376,0,0,0.0,0,0,1.37592
3.844230521004647,0,0,0.0,0,0,0.84084
3.846554585004924,0,0,0.0,0,0,1.1465999999999998
3.8488791850104462,0,0,0.0,0,0,0.45864
3.8512031199934427,0,0,0.0,0,0,1.2994800000000002
3.853527480008779,0,0,0.0,0,0,0.84084
3.85584922900307,0,0,0.0,0,0,0.91728
3.858172033011215,0,0,0.0,0,0,1.07016
3.8605589850049,0,0,0.0,0,0,0.84084
3.8632775630103424,0,0,0.0,0,0,0.7644
3.866399875987554,0,0,0.0,0,0,0.84084
3.869516892998945,0,0,0.0,0,0,0.53508
3.872627947013825,0,0,0.0,0,0,0.53508
3.8757412979903165,0,0,0.0,0,0,0.84084
3.8788546480063815,0,0,0.0,0,0,0.53508
3.8819680910091847,0,0,0.0,0,0,2.4460800000000003
3.885080570995342,0,0,0.0,0,0,0.7644
3.8885080839972943,0,0,0.0,0,0,0.68796
3.891616693988908,0,0,0.0,0,0,-8.943480000000001
3.894717988994671,0,0,0.0,0,0,1.07016
3.8978182839928195,0,0,0.0,0,0,0.99372
3.9009220600128174,0,0,0.0,0,0,-9.24924
3.9041277059877757,0,0,0.0,0,0,0.91728
3.9072293339995667,0,0,0.0,0,0,1.07016
3.9103276479872875,0,0,0.0,0,0,0.68796
3.9134258129925,0,0,0.0,0,0,0.84084
3.9165189049963374,0,0,0.0,0,0,0.6115200000000001
3.9196525320003275,0,0,0.0,0,0,0.53508
3.9228257150098216,0,0,0.0,0,0,0.53508
3.9260429719870444,0,0,0.0,0,0,0.84084
3.9291628590144683,0,0,0.0,0,0,0.68796
3.932274986989796,0,0,0.0,0,0,0.99372
3.935388301004423,0,0,0.0,0,0,0.6115200000000001
3.938500540010864,0,0,0.0,0,0,0.99372
3.9416147239971906,0,0,0.0,0,0,0.45864
3.9447590179916006,0,0,0.0,0,0,0.68796
3.947875423997175,0,0,0.0,0,0,0.91728
3.950987477990566,0,0,0.0,0,0,0.84084
3.954120125010377,0,0,0.0,0,0,1.07016
3.957235548994504,0,0,0.0,0,0,0.53508
3.9603821210039314,0,0,0.0,0,0,0.84084
3.963498452998465,0,0,0.0,0,0,0.30576000000000003
3.966611970012309,0,0,0.0,0,0,0.68796
3.9697247649892233,0,0,0.0,0,0,0.53508
3.9728708929906134,0,0,0.0,0,0,0.84084
3.975984780001454,0,0,0.0,0,0,0.53508
3.9791149079974275,0,0,0.0,0,0,0.91728
3.982233796006767,0,0,0.0,0,0,0.7644
3.985348015994532,0,0,0.0,0,0,1.1465999999999998
3.988457941013621,0,0,0.0,0,0,0.7644
3.9915702730068006,0,0,0.0,0,0,0.53508
3.994683011987945,0,0,0.0,0,0,0.0
3.9977974180073943,0,0,0.0,0,0,0.84084
4.0009098240116145,0,0,0.0,0,0,0.91728
4.004028969997307,0,0,0.0,0,0,1.2994800000000002
4.00720083899796,0,0,0.0,0,0,0.45864
4.010305225994671,0,0,0.0,0,0,0.99372
4.01340246599284,0,0,0.0,0,0,0.6115200000000001
4.01649529801216,0,0,0.0,0,0,-8.943480000000001
4.0195948889886495,0,0,0.0,0,0,0.99372
4.022731017001206,0,0,0.0,0,0,0.68796
4.02584583000862,0,0,0.0,0,0,0.6115200000000001
4.028987958008656,0,0,0.0,0,0,0.84084
4.032100493990583,0,0,0.0,0,0,0.68796
4.035213585011661,0,0,0.0,0,0,1.07016
4.038327028014464,0,0,0.0,0,0,0.7644
4.041440619010245,0,0,0.0,0,0,-9.172799999999999
4.044553229003213,0,0,0.0,0,0,0.45864
4.047667782986537,0,0,0.0,0,0,0.84084
4.0507807260146365,0,0,0.0,0,0,0.91728
4.053894354001386,0,0,0.0,0,0,0.84084
4.057011852011783,0,0,0.0,0,0,0.91728
4.06013359100325,0,0,0.0,0,0,0.3822
4.0632816450088285,0,0,0.0,0,0,0.53508
4.0663956989883445,0,0,0.0,0,0,0.0
4.069509401015239,0,0,0.0,0,0,0.91728
4.07261991899577,0,0,0.0,0,0,0.84084
4.07573208399117,0,0,0.0,0,0,0.84084
4.078845064010238,0,0,0.0,0,0,0.99372
4.081961524992948,0,0,0.0,0,0,1.2230400000000001
4.0850976899964735,0,0,0.0,0,0,0.22932
4.088612554012798,0,0,0.0,0,0,0.84084
4.091716811992228,0,0,0.0,0,0,0.53508
4.09481514399522,0,0,0.0,0,0,0.68796
4.097915716993157,0,0,0.0,0,0,0.45864
4.101039103989024,0,0,0.0,0,0,0.68796
4.104192286991747,0,0,0.0,0,0,0.68796
4.107294007990276,0,0,0.0,0,0,1.2994800000000002
4.11039384000469,0,0,0.0,0,0,0.91728
4.113490598014323,0,0,0.0,0,0,1.1465999999999998
4.116583338007331,0,0,0.0,0,0,0.6115200000000001
4.119701946998248,0,0,0.0,0,0,0.91728
4.122837483009789,0,0,0.0,0,0,0.84084
4.125956239993684,0,0,0.0,0,0,0.7644
4.129071239003679,0,0,0.0,0,0,0.91728
4.132185293012299,0,0,0.0,0,0,0.3822
4.135300494992407,0,0,0.0,0,0,1.2230400000000001
4.138414771994576,0,0,0.0,0,0,-9.555
4.141534102993319,0,0,0.0,0,0,1.2230400000000001
4.144647028006148,0,0,0.0,0,0,0.68796
4.147762729990063,0,0,0.0,0,0,0.53508
4.150895210012095,0,0,0.0,0,0,0.91728
4.154021782014752,0,0,0.0,0,0,1.1465999999999998
4.157137873000465,0,0,0.0,0,0,0.84084
4.1602509829972405,0,0,0.0,0,0,0.53508
4.163399481010856,0,0,0.0,0,0,0.68796
4.16651551699033,0,0,0.0,0,0,0.7644
4.1696320149931125,0,0,0.0,0,0,-0.45864
4.172818938997807,0,0,0.0,0,0,0.91728
4.17600608500652,0,0,0.0,0,0,0.91728
4.179122139001265,0,0,0.0,0,0,0.7644
4.182234618987422,0,0,0.0,0,0,0.7644
4.185349191015121,0,0,0.0,0,0,1.07016
4.188459411991062,0,0,0.0,0,0,0.68796
4.191572298994288,0,0,0.0,0,0,0.6115200000000001
4.194684946007328,0,0,0.0,0,0,0.84084
4.19779824098805,0,0,0.0,0,0,0.7644
4.200910868996289,0,0,0.0,0,0,0.7644
4.2040214049920905,0,0,0.0,0,0,0.7644
4.207133885007352,0,0,0.0,0,0,0.68796
4.210245569003746,0,0,0.0,0,0,0.6115200000000001
4.213359215005767,0,0,0.0,0,0,0.7644
4.216502713010414,0,0,0.0,0,0,0.7644
4.219631451996975,0,0,0.0,0,0,0.6115200000000001
4.222754543006886,0,0,0.0,0,0,0.7644
4.22586493100971,0,0,0.0,0,0,0.99372
4.229028614005074,0,0,0.0,0,0,0.99372
4.2321412049932405,0,0,0.0,0,0,1.07016
4.235253815015312,0,0,0.0,0,0,0.68796
4.238366609992227,0,0,0.0,0,0,0.99372
4.241480016004061,0,0,0.0,0,0,0.30576000000000003
4.244589440000709,0,0,0.0,0,0,0.84084
4.247702124004718,0,0,0.0,0,0,0.68796
4.2508146410109475,0,0,0.0,0,0,0.99372
4.253959769004723,0,0,0.0,0,0,1.07016
4.257076823007083,0,0,0.0,0,0,0.84084
4.260185969003942,0,0,0.0,0,0,0.84084
4.26333248600713,0,0,0.0,0,0,0.84084
4.266445281013148,0,0,0.0,0,0,0.53508
4.269558261003112,0,0,0.0,0,0,0.45864
4.272669592988677,0,0,0.0,0,0,0.07644000000000001
4.2757803139975294,0,0,0.0,0,0,0.99372
4.278927459992701,0,0,0.0,0,0,0.84084
4.282040457997937,0,0,0.0,0,0,1.45236
4.285153734992491,0,0,0.0,0,0,1.1465999999999998
4.2887130430026446,0,0,0.0,0,0,0.3822
4.29190722500789,0,0,0.0,0,0,0.53508
4.295005038991803,0,0,0.0,0,0,0.91728
4.298102834000019,0,0,0.0,0,0,0.99372
4.301209536002716,0,0,0.0,0,0,0.68796
4.304366719006794,0,0,0.0,0,0,0.84084
4.307468254992273,0,0,0.0,0,0,0.68796
4.310567458014702,0,0,0.0,0,0,0.84084
4.313664827001048,0,0,0.0,0,0,0.53508
4.316786176990718,0,0,0.0,0,0,1.07016
4.319981545006158,0,0,0.0,0,0,0.6115200000000001
4.323105173010845,0,0,0.0,0,0,2.2931999999999997
4.326211320003495,0,0,0.0,0,0,0.68796
4.329331966000609,0,0,0.0,0,0,0.99372
4.332446982996771,0,0,0.0,0,0,0.91728
4.335559444996761,0,0,0.0,0,0,0.7644
4.338673073012615,0,0,0.0,0,0,1.98744
4.341786275006598,0,0,0.0,0,0,0.53508
4.344910977000836,0,0,0.0,0,0,0.30576000000000003
4.348052863992052,0,0,0.0,0,0,0.99372
4.351166289008688,0,0,0.0,0,0,0.84084
4.354279991006479,0,0,0.0,0,0,1.1465999999999998
4.357394285994815,0,0,0.0,0,0,0.6115200000000001
4.360569395008497,0,0,0.0,0,0,0.7644
4.363719688990386,0,0,0.0,0,0,0.6115200000000001
4.366831077000825,0,0,0.0,0,0,0.6115200000000001
4.36998374099494,0,0,0.0,0,0,0.91728
4.373101665987633,0,0,0.0,0,0,0.99372
4.376216848992044,0,0,0.0,0,0,0.91728
4.379333940014476,0,0,0.0,0,0,1.07016
4.38244843899156,0,0,0.0,0,0,1.1465999999999998
4.385565992997726,0,0,0.0,0,0,0.68796
4.388677879993338,0,0,0.0,0,0,0.91728
4.391792304988485,0,0,0.0,0,0,0.6115200000000001
4.394910470000468,0,0,0.0,0,0,0.45864
4.398025580012472,0,0,0.0,0,0,0.53508
4.401143041002797,0,0,0.0,0,0,0.99372
4.404257373011205,0,0,0.0,0,0,1.07016
4.407371334003983,0,0,0.0,0,0,1.07016
4.410494462994393,0,0,0.0,0,0,0.7644
4.4136104240024,0,0,0.0,0,0,0.6115200000000001
4.416791144001763,0,0,0.0,0,0,0.30576000000000003
4.419909771997482,0,0,0.0,0,0,0.99372
4.423083861998748,0,0,0.0,0,0,0.7644
4.426340247999178,0,0,0.0,0,0,0.91728
4.429462542990223,0,0,0.0,0,0,0.91728
4.432573652011342,0,0,0.0,0,0,1.07016
4.435685169999488,0,0,0.0,0,0,0.22932
4.4387989829992875,0,0,0.0,0,0,0.6115200000000001
4.441914204013301,0,0,0.0,0,0,0.91728
4.445030979986768,0,0,0.0,0,0,0.53508
4.448143755987985,0,0,0.0,0,0,0.30576000000000003
4.451256847009063,0,0,0.0,0,0,0.68796
4.454369160986971,0,0,0.0,0,0,1.07016
4.457482714991784,0,0,0.0,0,0,1.2230400000000001
4.460593899013475,0,0,0.0,0,0,0.7644
4.463775506999809,0,0,0.0,0,0,0.99372
4.466918727994198,0,0,0.0,0,0,0.45864
4.4700314110086765,0,0,0.0,0,0,0.68796
4.473152391001349,0,0,0.0,0,0,0.84084
4.476263482996728,0,0,0.0,0,0,0.91728
4.479409721010597,0,0,0.0,0,0,0.53508
4.482522961014183,0,0,0.0,0,0,0.7644
4.485633033007616,0,0,0.0,0,0,0.53508
4.488840642006835,0,0,0.0,0,0,1.37592
4.491942566004582,0,0,0.0,0,0,1.1465999999999998
4.495038972992916,0,0,0.0,0,0,0.53508
4.498137174989097,0,0,0.0,0,0,0.68796
