Time,AccelX1,AccelY1,AccelZ1,AccelX2,AccelY2,AccelZ2
5.370005965232849e-06,0,0,1.235408056640625,0,0,0.53508
0.004430558008607477,0,0,1.2282254516601563,0,0,0.53508
0.008440342993708327,0,0,1.2952630981445312,0,0,0.91728
0.011995225999271497,0,0,1.1875240234375,0,0,0.0
0.015510794008150697,0,0,1.4820108276367188,0,0,0.68796
0.019061530008912086,0,0,1.3311761230468748,0,0,0.99372
0.022589839005377144,0,0,1.16837041015625,0,0,-9.784320000000001
0.02611736999824643,0,0,1.2856862915039062,0,0,0.91728
0.029634495003847405,0,0,1.2330138549804688,0,0,0.84084
0.03318091499386355,0,0,1.1133037719726562,0,0,0.91728
0.036861297005089,0,0,1.3311761230468748,0,0,0.68796
0.04052351199788973,0,0,1.4173673828125,0,0,0.68796
0.04405569098889828,0,0,1.1228805786132812,0,0,0.68796
0.047567000990966335,0,0,1.599326708984375,0,0,0.68796
0.05107351401238702,0,0,1.3263877197265623,0,0,0.84084
0.05456525000045076,0,0,1.199495031738281,0,0,0.84084
0.05808520800201222,0,0,1.4724340209960938,0,0,0.91728
0.06160610998631455,0,0,1.3120225097656248,0,0,0.7644
0.06516656698659062,0,0,1.3575123413085937,0,0,0.45864
0.06868256098823622,0,0,1.62805712890625,0,0,2.36964
0.07219270398491062,0,0,1.3718775512695311,0,0,0.84084
0.07580386500922032,0,0,1.2713210815429687,0,0,0.99372
0.07962804098497145,0,0,1.5370774658203123,0,0,0.7644
0.08319262700388208,0,0,1.3024457031249999,0,0,0.53508
0.08674676998634823,0,0,1.3383587280273437,0,0,0.68796
0.09026661599637009,0,0,1.5179238525390624,0,0,1.07016
0.09376568498555571,0,0,1.1875240234375,0,0,0.99372
0.09728342099697329,0,0,1.3192051147460937,0,0,0.3822
0.10090871001011692,0,0,1.458068811035156,0,0,0.84084
0.10425344799295999,0,0,1.1228805786132812,0,0,0.7644
0.10736487299436703,0,0,1.2617442749023438,0,0,0.84084
0.11045676199137233,0,0,1.4437036010742186,0,0,0.68796
0.11357694701291621,0,0,1.24498486328125,0,0,0.91728
0.11668301999452524,0,0,1.20667763671875,0,0,0.6115200000000001
0.1197949830093421,0,0,1.3766659545898436,0,0,0.7644
0.1229105009988416,0,0,1.3335703247070312,0,0,0.84084
0.12602216700906865,0,0,1.0965443603515623,0,0,0.68796
0.12913687000400387,0,0,1.4772224243164063,0,0,0.3822
0.13224885100498796,0,0,1.4628572143554686,0,0,0.7644
0.13536068401299417,0,0,1.20667763671875,0,0,0.84084
0.13891267898725346,0,0,1.4939818359375,0,0,0.84084
0.14204719598637894,0,0,1.43652099609375,0,0,1.1465999999999998
0.1451640849991236,0,0,1.3263877197265623,0,0,1.07016
0.1482797320059035,0,0,1.3144167114257812,0,0,0.6115200000000001
0.15139288001228124,0,0,1.6831237670898436,0,0,0.6115200000000001
0.154509212996345,0,0,1.2928688964843749,0,0,0.7644
0.15762387900031172,0,0,1.1563994018554686,0,0,0.53508
0.16073887899983674,0,0,1.2306196533203124,0,0,0.7644
0.16384737798944116,0,0,1.2689268798828124,0,0,1.07016
0.1670162100053858,0,0,1.1659762084960936,0,0,1.37592
0.17013076599687338,0,0,1.3623007446289062,0,0,0.6115200000000001
0.17325413500657305,0,0,1.6112977172851561,0,0,0.68796
0.17644911500974558,0,0,1.149216796875,0,0,0.6115200000000001
0.17956678199698217,0,0,1.3407529296874998,0,0,0.6115200000000001
0.1826793919899501,0,0,1.637633935546875,0,0,0.99372
0.18579857700387947,0,0,1.3742717529296875,0,0,0.68796
0.18891239099320956,0,0,1.1611878051757811,0,0,0.30576000000000003
0.19202555698575452,0,0,1.3718775512695311,0,0,0.84084
0.19513872399693355,0,0,1.3072341064453123,0,0,0.84084
0.19828411200433038,0,0,1.1109095703125,0,0,0.99372
0.20143548099440522,0,0,1.5179238525390624,0,0,0.45864
0.20455027700518258,0,0,1.3335703247070312,0,0,0.91728
0.20766401701257564,0,0,1.1923124267578125,0,0,0.45864
0.21077568299369887,0,0,1.235408056640625,0,0,0.53508
0.21388870099326596,0,0,1.62805712890625,0,0,0.68796
0.2170025160012301,0,0,1.2665326782226562,0,0,0.91728
0.22011451498838142,0,0,1.1085153686523437,0,0,0.0
0.22322869999334216,0,0,1.4604630126953124,0,0,0.84084
0.2263383110112045,0,0,1.4245499877929686,0,0,0.84084
0.2298808239866048,0,0,1.177947216796875,0,0,0.3822
0.2330190819920972,0,0,1.467645617675781,0,0,0.84084
0.23614402598468587,0,0,1.4053963745117186,0,0,0.7644
0.23929165498702787,0,0,1.149216796875,0,0,0.6115200000000001
0.24241243200958706,0,0,1.467645617675781,0,0,0.6115200000000001
0.24552828300511464,0,0,1.5227122558593749,0,0,1.07016
0.24864530100603588,0,0,1.0989385620117187,0,0,0.99372
0.25176372699206695,0,0,1.199495031738281,0,0,0.6115200000000001
0.2548875779903028,0,0,1.235408056640625,0,0,0.7644
0.2580036330036819,0,0,1.3359645263671873,0,0,0.6115200000000001
0.2611207620066125,0,0,1.1228805786132812,0,0,0.30576000000000003
0.26425018699956127,0,0,1.3192051147460937,0,0,0.68796
0.26739226101199165,0,0,1.3215993164062498,0,0,0.91728
0.27051296399440616,0,0,1.0582371337890624,0,0,0.7644
0.27362744498532265,0,0,1.465251416015625,0,0,0.6115200000000001
0.2767434070119634,0,0,1.5322890624999999,0,0,0.91728
0.2798589809972327,0,0,1.2689268798828124,0,0,0.68796
0.2830212019907776,0,0,1.3646949462890625,0,0,0.84084
0.28611779399216175,0,0,1.5562310791015623,0,0,0.91728
0.2892374609946273,0,0,1.2928688964843749,0,0,0.84084
0.29235416400479153,0,0,1.1013327636718748,0,0,0.0
0.29547096000169404,0,0,1.235408056640625,0,0,0.99372
0.2985850700060837,0,0,1.3335703247070312,0,0,0.53508
0.3017397169896867,0,0,1.218648645019531,0,0,0.68796
0.3048632350109983,0,0,1.3239935180664062,0,0,0.7644
0.3079795310040936,0,0,1.6831237670898436,0,0,1.07016
0.3110972710128408,0,0,1.189918225097656,0,0,0.99372
0.3142103450081777,0,0,1.2282254516601563,0,0,0.3822
0.31732682598521933,0,0,1.4413093994140624,0,0,0.99372
0.3204411400074605,0,0,1.3383587280273437,0,0,1.07016
0.32355849200394005,0,0,1.1923124267578125,0,0,0.15288000000000002
0.32668695400934666,0,0,1.2641384765625,0,0,0.7644
0.3303855950071011,0,0,1.3766659545898436,0,0,0.99372
0.33352944601210766,0,0,1.13006318359375,0,0,0.45864
0.3366523520089686,0,0,1.2282254516601563,0,0,0.07644000000000001
0.33977277801022865,0,0,1.5227122558593749,0,0,1.07016
0.3428959810116794,0,0,1.216254443359375,0,0,0.68796
0.34601162900798954,0,0,1.4532804077148436,0,0,1.07016
0.3491282949980814,0,0,1.4053963745117186,0,0,1.07016
0.352243108995026,0,0,1.2282254516601563,0,0,0.91728
0.35536147898528725,0,0,1.3646949462890625,0,0,0.99372
0.3584801079996396,0,0,1.35990654296875,0,0,0.53508
0.36159701499855146,0,0,1.254561669921875,0,0,0.84084
0.3647427730029449,0,0,1.2210428466796874,0,0,-9.47856
0.36792534598498605,0,0,1.2713210815429687,0,0,0.6115200000000001
0.3711080669891089,0,0,1.1372457885742187,0,0,0.68796
0.3742241779982578,0,0,1.1827356201171875,0,0,0.6115200000000001
0.3773404920066241,0,0,1.3383587280273437,0,0,1.07016
0.38045614000293426,0,0,1.5658078857421873,0,0,0.84084
0.38357241699122824,0,0,1.1947066284179686,0,0,1.07016
0.38674373101093806,0,0,1.3311761230468748,0,0,0.84084
0.3898621929984074,0,0,1.158793603515625,0,0,0.91728
0.3929779519967269,0,0,1.2425906616210938,0,0,-8.867040000000001
0.3960972109925933,0,0,1.1659762084960936,0,0,0.0
0.39921191398752853,0,0,1.3407529296874998,0,0,0.99372
0.40236113499850035,0,0,1.3168109130859373,0,0,1.1465999999999998
0.4054765790060628,0,0,1.1085153686523437,0,0,1.2994800000000002
0.4085910230060108,0,0,1.2713210815429687,0,0,0.91728
0.4117083929886576,0,0,1.5705962890624998,0,0,1.07016
0.4148524850024842,0,0,1.3335703247070312,0,0,0.84084
0.41797450301237404,0,0,1.3742717529296875,0,0,-9.09636
0.4210911869886331,0,0,1.5586252807617187,0,0,0.91728
0.42420781700639054,0,0,1.2904746948242187,0,0,0.6115200000000001
0.4273256679880433,0,0,1.1180921752929687,0,0,0.0
0.43043770399526693,0,0,1.2785036865234374,0,0,0.91728
0.4335504629998468,0,0,1.3048399047851562,0,0,0.84084
0.43666405498515815,0,0,1.0941501586914062,0,0,1.1465999999999998
0.4397786099871155,0,0,1.3311761230468748,0,0,0.45864
0.44289403600851074,0,0,1.43652099609375,0,0,1.1465999999999998
0.44600736899883486,0,0,1.1755530151367186,0,0,0.68796
0.4491655720048584,0,0,1.35990654296875,0,0,0.7644
0.4522843860031571,0,0,1.5298948608398437,0,0,0.53508
0.455405199987581,0,0,1.3742717529296875,0,0,0.6115200000000001
0.4585176630062051,0,0,1.199495031738281,0,0,0.0
0.46166756900493056,0,0,1.4724340209960938,0,0,1.2994800000000002
0.46482978999847546,0,0,1.2737152832031249,0,0,0.84084
0.46795047499472275,0,0,1.1707646118164061,0,0,1.1465999999999998
0.47108430799562484,0,0,1.4221557861328125,0,0,0.84084
0.47419919600361027,0,0,1.6831237670898436,0,0,1.2230400000000001
0.4773165840015281,0,0,1.1635820068359375,0,0,0.53508
0.48043449100805447,0,0,1.0797849487304687,0,0,0.30576000000000003
0.4835496569867246,0,0,1.2521674682617188,0,0,0.68796
0.48666265700012445,0,0,1.2832920898437499,0,0,0.68796
0.4897782859916333,0,0,1.2713210815429687,0,0,0.53508
0.49289328599115834,0,0,1.3551181396484375,0,0,1.2230400000000001
0.4960078409931157,0,0,1.2856862915039062,0,0,0.91728
0.4991233769978862,0,0,1.1755530151367186,0,0,1.2994800000000002
0.5022679879912175,0,0,1.5083470458984374,0,0,-9.172799999999999
0.5146250239922665,0,0,1.2880804931640624,0,0,1.1465999999999998
0.5178493550047278,0,0,1.13006318359375,0,0,0.53508
0.5209890950063709,0,0,1.0749965454101562,0,0,0.6115200000000001
0.5240975019987673,0,0,1.2378022583007813,0,0,0.84084
0.5272003349964507,0,0,1.2569558715820313,0,0,0.91728
0.5303583710046951,0,0,1.1444283935546875,0,0,1.5288
0.5335521480010357,0,0,1.3623007446289062,0,0,0.45864
0.5366556099907029,0,0,1.5538368774414062,0,0,1.1465999999999998
0.5397862209938467,0,0,1.1707646118164061,0,0,0.6115200000000001
0.5428965169994626,0,0,1.3335703247070312,0,0,0.6115200000000001
0.5459938310086727,0,0,1.5370774658203123,0,0,0.91728
0.5491129599977285,0,0,1.3670891479492187,0,0,2.36964
0.5522283120080829,0,0,1.1180921752929687,0,0,0.6115200000000001
0.5553440889925696,0,0,1.2713210815429687,0,0,0.99372
0.5584564780001529,0,0,1.2976572998046874,0,0,0.7644
0.561571107013151,0,0,1.0965443603515623,0,0,1.45236
0.5646892729855608,0,0,1.2832920898437499,0,0,0.53508
0.5678042350045871,0,0,1.3096283081054687,0,0,1.07016
0.570944826991763,0,0,1.2976572998046874,0,0,0.3822
0.5741189369873609,0,0,1.3168109130859373,0,0,0.91728
0.5773346019850578,0,0,1.608903515625,0,0,0.84084
0.5805316010082606,0,0,1.3431471313476562,0,0,0.68796
0.5836620439949911,0,0,1.350329736328125,0,0,0.91728
0.5867718030058313,0,0,1.5298948608398437,0,0,0.53508
0.5898873209953308,0,0,1.2521674682617188,0,0,0.91728
0.5930407650012057,0,0,1.1947066284179686,0,0,0.30576000000000003
0.5961561349977273,0,0,1.35990654296875,0,0,0.68796
0.5992732449958567,0,0,1.465251416015625,0,0,1.911
0.602508890995523,0,0,1.1156979736328125,0,0,0.91728
0.6055478359921835,0,0,1.350329736328125,0,0,0.99372
0.6083480060042348,0,0,1.458068811035156,0,0,-9.32568
0.6111487130110618,0,0,1.35990654296875,0,0,0.84084
0.6139459020050708,0,0,1.0989385620117187,0,0,0.07644000000000001
0.6168235150107648,0,0,1.2330138549804688,0,0,0.53508
0.6196409630065318,0,0,1.209071838378906,0,0,1.2230400000000001
0.6224380960047711,0,0,1.139639990234375,0,0,0.84084
0.6252360070066061,0,0,1.3263877197265623,0,0,0.7644
0.6280323799874168,0,0,1.2401964599609374,0,0,0.84084
0.6308607170067262,0,0,1.3000515014648437,0,0,0.7644
0.6336569789855275,0,0,1.0414777221679687,0,0,0.3822
0.6364886669907719,0,0,1.2473790649414063,0,0,0.68796
0.6420170269848313,0,0,1.3527239379882812,0,0,0.91728
0.6448182890017051,0,0,1.0558429321289062,0,0,1.07016
0.6476146260101814,0,0,1.4030021728515625,0,0,0.68796
0.6504141110053752,0,0,1.6256629272460936,0,0,0.84084
0.6532109660038259,0,0,1.3742717529296875,0,0,0.99372
0.6560089880076703,0,0,1.2114660400390624,0,0,0.30576000000000003
0.6588292499945965,0,0,1.2306196533203124,0,0,0.99372
0.6616241789888591,0,0,1.2641384765625,0,0,0.3822
0.6644297750026453,0,0,1.3670891479492187,0,0,0.91728
0.6672625560022425,0,0,1.3670891479492187,0,0,0.6115200000000001
0.6700587630039081,0,0,1.5179238525390624,0,0,1.98744
0.6728633960010484,0,0,1.2641384765625,0,0,0.53508
0.6756609920121264,0,0,1.0702081420898437,0,0,1.2994800000000002
0.6784553100005724,0,0,1.22583125,0,0,0.91728
0.6812501279928256,0,0,1.6232687255859375,0,0,1.1465999999999998
0.6840462060063146,0,0,1.2330138549804688,0,0,0.68796
0.6868833749904297,0,0,1.158793603515625,0,0,0.22932
0.6898407289991155,0,0,1.3144167114257812,0,0,0.91728
0.6927762299892493,0,0,1.2497732666015624,0,0,0.84084
0.6956041780067608,0,0,1.0486603271484374,0,0,0.45864
0.698401865985943,0,0,1.3168109130859373,0,0,0.45864
0.7011979809904005,0,0,1.4030021728515625,0,0,0.0
0.7039968910103198,0,0,1.2378022583007813,0,0,0.91728
0.7070037070079707,0,0,1.197100830078125,0,0,0.6115200000000001
0.7101177249860484,0,0,1.4867992309570313,0,0,0.68796
0.7132311690074857,0,0,1.458068811035156,0,0,0.84084
0.7163518170127645,0,0,1.1516109985351561,0,0,0.30576000000000003
0.7194634269981179,0,0,1.3383587280273437,0,0,0.68796
0.7225759639986791,0,0,1.6256629272460936,0,0,0.84084
0.7257247589877807,0,0,1.13006318359375,0,0,0.6115200000000001
0.728838203009218,0,0,1.3359645263671873,0,0,0.68796
0.7319503329927102,0,0,1.3670891479492187,0,0,0.6115200000000001
0.7350640909862705,0,0,1.3000515014648437,0,0,0.84084
0.7381722760037519,0,0,1.0438719238281249,0,0,0.7644
0.7413155899848789,0,0,1.4317325927734375,0,0,0.6115200000000001
0.7444347009877674,0,0,1.2904746948242187,0,0,0.45864
0.7475791809847578,0,0,1.005564697265625,0,0,0.7644
0.7506966069922782,0,0,1.3168109130859373,0,0,0.84084
0.7538538459921256,0,0,1.5035586425781249,0,0,1.07016
0.7569673460093327,0,0,1.2856862915039062,0,0,0.7644
0.7601046230120119,0,0,1.3527239379882812,0,0,0.3822
0.7632181599910837,0,0,1.2952630981445312,0,0,0.84084
0.7663299370033201,0,0,1.2425906616210938,0,0,0.6115200000000001
0.7694447140092961,0,0,1.1276689819335937,0,0,0.0
0.7725576029915828,0,0,1.3359645263671873,0,0,0.84084
0.7756720840116031,0,0,1.1228805786132812,0,0,0.84084
0.7787829170119949,0,0,0.9864110839843749,0,0,1.45236
0.78189602700877,0,0,1.22583125,0,0,0.99372
0.7850085079844575,0,0,1.5705962890624998,0,0,0.91728
0.7881212859938387,0,0,1.1540052001953125,0,0,0.91728
0.7912353959982283,0,0,1.2378022583007813,0,0,0.84084
0.7943457479996141,0,0,1.3527239379882812,0,0,0.3822
0.7974583210016135,0,0,1.2689268798828124,0,0,0.6115200000000001
0.8013464410032611,0,0,1.2689268798828124,0,0,0.99372
0.8045383470016532,0,0,1.4724340209960938,0,0,0.53508
0.8076559950131923,0,0,1.2425906616210938,0,0,0.68796
0.8107688459858764,0,0,1.1013327636718748,0,0,0.22932
0.8138828270020895,0,0,1.3144167114257812,0,0,0.91728
0.8169964560074732,0,0,1.2856862915039062,0,0,1.07016
0.8201123820035718,0,0,1.139639990234375,0,0,0.84084
0.8232275299960747,0,0,1.2856862915039062,0,0,0.84084
0.8263371959910728,0,0,1.3646949462890625,0,0,1.1465999999999998
0.8295107320009265,0,0,1.1731588134765625,0,0,-9.09636
0.8326933970092796,0,0,1.3311761230468748,0,0,0.6115200000000001
0.8358129340049345,0,0,1.455674609375,0,0,0.6115200000000001
0.8390493390033953,0,0,1.2330138549804688,0,0,0.91728
0.8421702829946298,0,0,1.1635820068359375,0,0,0.15288000000000002
0.8452840049867518,0,0,1.2976572998046874,0,0,1.2994800000000002
0.8483978000003844,0,0,1.2665326782226562,0,0,0.7644
0.851516669994453,0,0,1.1180921752929687,0,0,1.45236
0.8546270589868072,0,0,1.455674609375,0,0,0.91728
0.8577414659957867,0,0,1.5275006591796874,0,0,1.1465999999999998
0.8608842430112418,0,0,1.0749965454101562,0,0,0.53508
0.8640114270092454,0,0,1.1563994018554686,0,0,0.53508
0.8671346860064659,0,0,1.3862427612304686,0,0,0.91728
0.8702457780018449,0,0,1.3479355346679687,0,0,0.53508
0.8733634070085827,0,0,1.1755530151367186,0,0,0.3822
0.8764772590075154,0,0,1.3407529296874998,0,0,0.68796
0.8795914250076748,0,0,1.2976572998046874,0,0,0.84084
0.8827343870070763,0,0,1.0773907470703123,0,0,1.2230400000000001
0.8858540350047406,0,0,1.3048399047851562,0,0,0.30576000000000003
0.8889679420099128,0,0,1.5945383056640625,0,0,0.84084
0.8920915519993287,0,0,1.2952630981445312,0,0,0.45864
0.8952735319908243,0,0,1.369483349609375,0,0,0.6115200000000001
0.8983871059899684,0,0,1.5825672973632812,0,0,0.91728
0.9015166239987593,0,0,1.2617442749023438,0,0,0.84084
0.9047411220089998,0,0,1.158793603515625,0,0,0.84084
0.9078603069938254,0,0,1.235408056640625,0,0,0.45864
0.9110115460061934,0,0,1.1707646118164061,0,0,0.84084
0.9141253790003248,0,0,1.1851298217773436,0,0,0.6115200000000001
0.9172391940082889,0,0,1.3144167114257812,0,0,0.30576000000000003
0.920359229989117,0,0,1.3407529296874998,0,0,0.91728
0.9234818219847512,0,0,1.1947066284179686,0,0,0.68796
0.926595136988908,0,0,1.3048399047851562,0,0,0.6115200000000001
0.9297110619954765,0,0,1.6615759521484375,0,0,0.6115200000000001
0.9328253949934151,0,0,1.3575123413085937,0,0,0.7644
0.9359725789981894,0,0,1.1133037719726562,0,0,0.68796
0.9391751700022724,0,0,1.5897499023437498,0,0,0.6115200000000001
0.9422913730086293,0,0,1.2713210815429687,0,0,0.68796
0.9454056140093599,0,0,1.1707646118164061,0,0,0.6115200000000001
0.9485198910115287,0,0,1.4891934326171874,0,0,0.53508
0.9516346130112652,0,0,1.5131354492187499,0,0,0.91728
0.9547497970052063,0,0,1.2210428466796874,0,0,0.53508
0.9578638529928867,0,0,1.3239935180664062,0,0,0.68796
0.9609787219960708,0,0,1.6160861206054686,0,0,0.68796
0.964095962990541,0,0,1.3407529296874998,0,0,1.07016
0.9672189989942126,0,0,1.2282254516601563,0,0,2.06388
0.9703317020030227,0,0,1.465251416015625,0,0,0.7644
0.973444183007814,0,0,1.3479355346679687,0,0,0.6115200000000001
0.9765568310103845,0,0,1.0342951171875,0,0,0.3822
0.9796707940113265,0,0,1.388636962890625,0,0,0.6115200000000001
0.9827856259944383,0,0,1.2593500732421874,0,0,0.07644000000000001
0.9858993109955918,0,0,1.0845733520507812,0,0,0.45864
0.989011144003598,0,0,1.3239935180664062,0,0,0.68796
0.9921254029904958,0,0,1.3431471313476562,0,0,1.1465999999999998
0.9952394209976774,0,0,1.1252747802734375,0,0,0.99372
0.9983506060088985,0,0,1.2425906616210938,0,0,0.68796
1.0014907160075381,0,0,1.2521674682617188,0,0,0.68796
1.0047442509967368,0,0,1.1540052001953125,0,0,0.6115200000000001
1.0079732490121387,0,0,1.0175357055664063,0,0,0.6115200000000001
1.0112244320043828,0,0,1.3096283081054687,0,0,1.07016
1.0144436529953964,0,0,1.197100830078125,0,0,0.7644
1.017685316997813,0,0,0.9888052856445312,0,0,1.07016
1.0209233339992352,0,0,1.2617442749023438,0,0,0.53508
1.024162849993445,0,0,1.1755530151367186,0,0,0.84084
1.0273562560032587,0,0,1.1611878051757811,0,0,0.68796
1.0305411249864846,0,0,1.3120225097656248,0,0,0.7644
1.0337218279892113,0,0,1.659181750488281,0,0,0.84084
1.0368676790094469,0,0,1.3766659545898436,0,0,0.6115200000000001
1.0402436940057669,0,0,1.3263877197265623,0,0,0.68796
1.0433829340036027,0,0,1.5897499023437498,0,0,0.68796
1.0465200259932317,0,0,1.3766659545898436,0,0,0.53508
1.049668877007207,0,0,1.1348515869140625,0,0,0.6115200000000001
1.0528435420128517,0,0,1.3359645263671873,0,0,0.6115200000000001
1.0559814859880134,0,0,1.2976572998046874,0,0,0.84084
1.0591125960054342,0,0,1.0797849487304687,0,0,1.2230400000000001
1.0623010759882163,0,0,1.446097802734375,0,0,0.53508
1.0654624459857587,0,0,1.446097802734375,0,0,0.99372
1.068598944984842,0,0,1.0917559570312498,0,0,0.6115200000000001
1.0718241469876375,0,0,1.3646949462890625,0,0,0.6115200000000001
1.0751151260046754,0,0,1.4700398193359374,0,0,0.91728
1.0783296609879471,0,0,1.2761094848632812,0,0,1.07016
1.082922197994776,0,0,1.4604630126953124,0,0,0.3822
1.0861671780003235,0,0,1.3000515014648437,0,0,0.6115200000000001
1.0893996939994395,0,0,1.0989385620117187,0,0,0.91728
1.0927130990021396,0,0,1.2952630981445312,0,0,1.1465999999999998
1.095971392991487,0,0,1.426944189453125,0,0,0.99372
1.0992308350105304,0,0,1.158793603515625,0,0,0.68796
1.1024656480003614,0,0,1.1109095703125,0,0,0.53508
1.1057572939898819,0,0,1.5490484741210937,0,0,0.99372
1.1090112540114205,0,0,1.2832920898437499,0,0,0.7644
1.110456347989384,0,0,1.1923124267578125,0,0,1.07016
1.1119278490077704,0,0,1.0726023437499999,0,0,0.91728
1.1133713870076463,0,0,1.3527239379882812,0,0,0.68796
1.1149102950002998,0,0,1.5203180541992187,0,0,0.68796
1.116388961992925,0,0,1.5825672973632812,0,0,0.84084
1.1177717050013598,0,0,1.2808978881835937,0,0,0.7644
1.1191562989843078,0,0,1.3024457031249999,0,0,0.99372
1.1205362640030216,0,0,1.0989385620117187,0,0,0.7644
1.1219149320095312,0,0,1.1635820068359375,0,0,0.7644
1.1233016379992478,0,0,1.2856862915039062,0,0,0.0
1.1246815290069208,0,0,1.2928688964843749,0,0,0.53508
1.1260711229988374,0,0,1.5035586425781249,0,0,0.53508
1.127452273009112,0,0,1.3742717529296875,0,0,0.6115200000000001
1.128831831010757,0,0,1.3575123413085937,0,0,0.99372
1.1302113879937679,0,0,1.1875240234375,0,0,0.84084
1.13160070500453,0,0,1.1228805786132812,0,0,0.68796
1.1329875029914547,0,0,1.3096283081054687,0,0,1.2994800000000002
1.1343670790083706,0,0,1.3048399047851562,0,0,0.68796
1.1357484509935603,0,0,1.2617442749023438,0,0,0.84084
1.137127860012697,0,0,1.4867992309570313,0,0,0.7644
1.1385064919886645,0,0,1.1156979736328125,0,0,0.84084
1.1398965859843884,0,0,1.2401964599609374,0,0,1.07016
1.141284254990751,0,0,1.1540052001953125,0,0,1.07016
1.1426715900015552,0,0,0.9504980590820312,0,0,0.68796
1.1440527770027984,0,0,1.407790576171875,0,0,0.15288000000000002
1.1454318710020743,0,0,1.4341267944335936,0,0,0.53508
1.146833595004864,0,0,1.3215993164062498,0,0,0.45864
1.148213078995468,0,0,1.419761584472656,0,0,0.45864
1.1495916550047696,0,0,1.3623007446289062,0,0,0.91728
1.1509791749995202,0,0,1.1635820068359375,0,0,0.99372
1.1523672879848164,0,0,1.0534487304687499,0,0,0.91728
1.1537542339938227,0,0,1.1180921752929687,0,0,1.37592
1.1551434209977742,0,0,1.3527239379882812,0,0,0.7644
1.1565292009909172,0,0,1.3527239379882812,0,0,0.91728
1.1579163509886712,0,0,1.4867992309570313,0,0,0.91728
1.159299277991522,0,0,1.1875240234375,0,0,0.68796
1.1606779290013947,0,0,1.2713210815429687,0,0,0.99372
1.1620564670010936,0,0,1.1707646118164061,0,0,0.7644
1.1634440989873838,0,0,1.139639990234375,0,0,0.22932
1.1648301749955863,0,0,1.254561669921875,0,0,0.15288000000000002
1.166216751007596,0,0,1.3072341064453123,0,0,0.3822
1.1676549930125475,0,0,1.3335703247070312,0,0,0.53508
1.1690709939866792,0,0,1.3239935180664062,0,0,0.7644
1.1704576259944588,0,0,1.2952630981445312,0,0,0.99372
1.1718426269944757,0,0,1.189918225097656,0,0,0.7644
1.1741632290068083,0,0,1.218648645019531,0,0,0.91728
1.1755789339949843,0,0,1.369483349609375,0,0,0.07644000000000001
1.1769658059929498,0,0,1.199495031738281,0,0,0.68796
1.1783507530053612,0,0,1.4508862060546874,0,0,1.07016
1.1797364949889015,0,0,1.235408056640625,0,0,1.1465999999999998
1.1811204229888972,0,0,1.3263877197265623,0,0,0.91728
1.182504202995915,0,0,1.177947216796875,0,0,0.7644
1.183890482003335,0,0,1.1635820068359375,0,0,0.45864
1.1852739290043246,0,0,1.2593500732421874,0,0,0.68796
1.1866574299929198,0,0,1.3575123413085937,0,0,0.91728
1.1880415799969342,0,0,1.484405029296875,0,0,0.6115200000000001
1.1894246010051575,0,0,1.455674609375,0,0,0.7644
1.1908274359884672,0,0,1.3024457031249999,0,0,0.84084
1.192212011985248,0,0,1.2808978881835937,0,0,0.91728
1.1935949579929002,0,0,1.1276689819335937,0,0,0.7644
1.194978737999918,0,0,1.2952630981445312,0,0,1.07016
1.196362221002346,0,0,1.3575123413085937,0,0,0.3822
1.197745871002553,0,0,1.5203180541992187,0,0,0.53508
1.1991306880081538,0,0,1.5801730957031248,0,0,1.07016
1.2005141899862792,0,0,1.2737152832031249,0,0,0.99372
1.2018971359939314,0,0,1.2521674682617188,0,0,0.99372
1.2032795269915368,0,0,1.177947216796875,0,0,0.91728
1.2046622879861388,0,0,1.1468225952148436,0,0,0.45864
1.2060456039907876,0,0,1.2497732666015624,0,0,0.45864
1.207429661997594,0,0,1.35990654296875,0,0,0.53508
1.208812441007467,0,0,1.1659762084960936,0,0,0.53508
1.2101957210106775,0,0,1.4508862060546874,0,0,0.84084
1.2115786120120902,0,0,1.3718775512695311,0,0,0.91728
1.212961429002462,0,0,1.2018892333984375,0,0,0.84084
1.2143446159898303,0,0,1.1156979736328125,0,0,0.91728
1.2157278209924698,0,0,1.1037269653320312,0,0,1.1465999999999998
1.217110989993671,0,0,1.3000515014648437,0,0,0.22932
1.2184939729922917,0,0,1.2330138549804688,0,0,0.91728
1.219877104012994,0,0,1.5275006591796874,0,0,0.99372
1.2212604210071731,0,0,1.2808978881835937,0,0,1.37592
1.2226437380013522,0,0,1.22583125,0,0,0.91728
1.2240270549955312,0,0,1.1013327636718748,0,0,0.84084
1.2254095189855434,0,0,1.2042834350585936,0,0,0.45864
1.2267931140086148,0,0,1.1420341918945311,0,0,0.45864
1.2281760229961947,0,0,1.438915197753906,0,0,0.6115200000000001
1.2295590619905852,0,0,1.3359645263671873,0,0,0.68796
1.2309433420014102,0,0,1.3623007446289062,0,0,0.53508
1.2323256770032458,0,0,1.37906015625,0,0,0.84084
1.233708938001655,0,0,1.3407529296874998,0,0,0.84084
1.235093699011486,0,0,1.0965443603515623,0,0,0.6115200000000001
1.23647588599124,0,0,1.20667763671875,0,0,1.07016
1.2378591099986807,0,0,1.3239935180664062,0,0,0.22932
1.2392437790113036,0,0,1.35990654296875,0,0,0.84084
1.2406268549966626,0,0,1.668758557128906,0,0,0.99372
1.242009968002094,0,0,1.2785036865234374,0,0,1.07016
1.243387950991746,0,0,1.3383587280273437,0,0,0.7644
1.244761620007921,0,0,1.1133037719726562,0,0,0.7644
1.2461347510106862,0,0,1.1611878051757811,0,0,0.84084
1.2475171420082916,0,0,1.2713210815429687,0,0,0.7644
1.2488997550099157,0,0,1.4221557861328125,0,0,0.91728
1.2502813859900925,0,0,1.39821376953125,0,0,0.84084
1.2516649989993311,0,0,1.5634136840820312,0,0,0.7644
1.2530469089979306,0,0,1.3359645263671873,0,0,0.91728
1.254428669984918,0,0,1.35990654296875,0,0,0.53508
1.2558109870005865,0,0,0.9792284790039062,0,0,0.53508
1.2571923960058484,0,0,1.0726023437499999,0,0,0.99372
1.258574156992836,0,0,1.235408056640625,0,0,0.53508
1.2599558999936562,0,0,1.2210428466796874,0,0,0.53508
1.2613380310067441,0,0,1.5155296508789062,0,0,0.53508
1.262720847997116,0,0,1.429338391113281,0,0,0.99372
1.2640997199923731,0,0,1.3000515014648437,0,0,0.68796
1.265513666003244,0,0,1.2713210815429687,0,0,0.7644
1.2668987599899992,0,0,1.1444283935546875,0,0,0.45864
1.2682730029919185,0,0,1.2593500732421874,0,0,0.68796
1.269646078988444,0,0,1.3766659545898436,0,0,0.84084
1.2711385060101748,0,0,1.458068811035156,0,0,0.53508
1.2725292110117152,0,0,1.5562310791015623,0,0,0.53508
1.2739039910084102,0,0,1.3096283081054687,0,0,1.07016
1.2752805670024827,0,0,1.2497732666015624,0,0,0.99372
1.2766538099967875,0,0,1.209071838378906,0,0,0.99372
1.2780266820045654,0,0,1.1707646118164061,0,0,1.07016
1.2794021279842127,0,0,1.3168109130859373,0,0,0.45864
1.280775427003391,0,0,1.2665326782226562,0,0,0.7644
1.2821479839913081,0,0,1.637633935546875,0,0,1.1465999999999998
1.2835279860009905,0,0,1.3455413330078123,0,0,0.7644
1.2849011179932859,0,0,1.2808978881835937,0,0,0.7644
1.286274009005865,0,0,1.1252747802734375,0,0,0.91728
1.2876707880059257,0,0,1.1228805786132812,0,0,0.3822
1.289052604988683,0,0,1.3048399047851562,0,0,0.68796
1.290434494992951,0,0,1.4628572143554686,0,0,0.84084
1.2918165709997993,0,0,1.4987702392578124,0,0,0.53508
1.293198498984566,0,0,1.4939818359375,0,0,0.45864
1.294580148998648,0,0,1.2593500732421874,0,0,0.84084
1.2959626509982627,0,0,1.2761094848632812,0,0,0.84084
1.297344633989269,0,0,1.0797849487304687,0,0,0.91728
1.2987275809864514,0,0,1.209071838378906,0,0,0.6115200000000001
1.3001089899917133,0,0,1.2904746948242187,0,0,0.15288000000000002
1.3014907879987732,0,0,1.3527239379882812,0,0,0.68796
1.3028734939871356,0,0,1.7214309936523438,0,0,0.53508
1.3042543109913822,0,0,1.3814543579101561,0,0,0.84084
1.3056365720112808,0,0,1.2808978881835937,0,0,0.84084
1.3070199619978666,0,0,1.0821791503906248,0,0,0.91728
1.3084870559978299,0,0,1.1252747802734375,0,0,0.53508
1.3098713539948221,0,0,1.3479355346679687,0,0,0.53508
1.3112548190110829,0,0,1.3910311645507811,0,0,0.84084
1.3126366910000797,0,0,1.2689268798828124,0,0,0.3822
1.3140190079866443,0,0,1.5107412475585937,0,0,0.84084
1.3154018979985267,0,0,1.2521674682617188,0,0,1.1465999999999998
1.3167842520051636,0,0,1.1468225952148436,0,0,0.91728
1.3181664389849175,0,0,1.01514150390625,0,0,0.91728
1.319549162988551,0,0,1.1635820068359375,0,0,0.91728
1.3209310910024215,0,0,1.3479355346679687,0,0,0.22932
1.3223134450090583,0,0,1.2689268798828124,0,0,0.53508
1.3236962429946288,0,0,1.5227122558593749,0,0,1.2230400000000001
1.3250781710084993,0,0,1.3215993164062498,0,0,0.91728
1.326460190990474,0,0,1.235408056640625,0,0,1.07016
1.3278423600131646,0,0,1.1516109985351561,0,0,0.6115200000000001
1.329268230998423,0,0,1.1755530151367186,0,0,0.68796
1.3307268070057034,0,0,1.2928688964843749,0,0,0.68796
1.3321158819890115,0,0,1.350329736328125,0,0,0.68796
1.333498366002459,0,0,1.3024457031249999,0,0,0.53508
1.3348820899846032,0,0,1.3527239379882812,0,0,0.68796
1.3362636099918745,0,0,1.3527239379882812,0,0,1.1465999999999998
1.3376466119952966,0,0,1.1061211669921875,0,0,0.91728
1.3390306509973016,0,0,1.0366893188476562,0,0,1.07016
1.3404130229901057,0,0,1.218648645019531,0,0,0.91728
1.341795246989932,0,0,1.4030021728515625,0,0,0.3822
1.3431806569860782,0,0,1.2378022583007813,0,0,0.91728
1.344562454993138,0,0,1.388636962890625,0,0,1.07016
1.3459442899911664,0,0,1.3144167114257812,0,0,0.99372
1.347338180989027,0,0,1.3383587280273437,0,0,2.2167600000000003
1.3487214049964678,0,0,1.0414777221679687,0,0,0.84084
1.350105629011523,0,0,1.0965443603515623,0,0,0.3822
1.3514892050006893,0,0,1.1947066284179686,0,0,0.53508
1.3528707810037304,0,0,1.429338391113281,0,0,0.22932
1.3542772450018674,0,0,1.2808978881835937,0,0,0.53508
1.355684062000364,0,0,1.2521674682617188,0,0,0.6115200000000001
1.357066025986569,0,0,1.216254443359375,0,0,0.91728
1.3584484170132782,0,0,1.1827356201171875,0,0,0.99372
1.3598316780116875,0,0,1.0773907470703123,0,0,0.7644
1.3612139020115137,0,0,1.2018892333984375,0,0,1.37592
1.36259612601134,0,0,1.3646949462890625,0,0,0.7644
1.3639797389914747,0,0,1.199495031738281,0,0,0.84084
1.365362204000121,0,0,1.6112977172851561,0,0,1.1465999999999998
1.3667451509973034,0,0,1.2282254516601563,0,0,0.91728
1.368126929999562,0,0,1.2832920898437499,0,0,0.7644
1.3695090989931487,0,0,1.1252747802734375,0,0,0.68796
1.3708923409867566,0,0,1.1851298217773436,0,0,0.53508
1.3722732510068454,0,0,1.3575123413085937,0,0,-9.24924
1.373656715004472,0,0,1.2976572998046874,0,0,0.53508
1.3750392909860238,0,0,1.4604630126953124,0,0,0.53508
1.376421422988642,0,0,1.5634136840820312,0,0,0.53508
1.3778035730065312,0,0,1.2330138549804688,0,0,0.7644
1.379186537989881,0,0,1.13006318359375,0,0,0.91728
1.380585595004959,0,0,1.1875240234375,0,0,0.68796
1.381967652007006,0,0,1.2234370483398436,0,0,1.2230400000000001
1.383349987998372,0,0,1.3742717529296875,0,0,1.07016
1.3847317670006305,0,0,1.3383587280273437,0,0,0.84084
1.386113306012703,0,0,1.6041151123046875,0,0,0.99372
1.38749541901052,0,0,1.2761094848632812,0,0,0.84084
1.3888768100005109,0,0,1.180341418457031,0,0,0.45864
1.3902584229945205,0,0,1.2425906616210938,0,0,0.6115200000000001
1.3916407029901166,0,0,1.1827356201171875,0,0,0.3822
1.3930218899913598,0,0,1.3646949462890625,0,0,0.30576000000000003
1.394403076992603,0,0,1.5275006591796874,0,0,0.53508
1.3957852449966595,0,0,1.5418658691406248,0,0,0.45864
1.39716717301053,0,0,1.4245499877929686,0,0,0.6115200000000001
1.3985486380115617,0,0,1.3072341064453123,0,0,0.68796
1.3999304359895177,0,0,1.197100830078125,0,0,0.99372
1.401312344998587,0,0,1.0175357055664063,0,0,0.91728
1.402694477001205,0,0,1.1851298217773436,0,0,1.1465999999999998
1.4041099229943939,0,0,1.2952630981445312,0,0,0.91728
1.405491813988192,0,0,1.3072341064453123,0,0,0.84084
1.4068743899988476,0,0,1.465251416015625,0,0,0.91728
1.408255835995078,0,0,1.2928688964843749,0,0,0.68796
1.4096372640051413,0,0,1.2330138549804688,0,0,0.7644
1.4110191729851067,0,0,1.199495031738281,0,0,0.68796
1.4124004899931606,0,0,0.9265560424804687,0,0,0.30576000000000003
1.4137812319968361,0,0,1.2497732666015624,0,0,0.6115200000000001
1.4151628270046785,0,0,1.3048399047851562,0,0,0.45864
1.4166138459986541,0,0,1.6160861206054686,0,0,0.45864
1.4179972000129055,0,0,1.3551181396484375,0,0,0.6115200000000001
1.4193800170032773,0,0,1.3072341064453123,0,0,0.84084
1.4207612960017286,0,0,1.2234370483398436,0,0,0.7644
1.4221432610065676,0,0,1.0749965454101562,0,0,1.1465999999999998
1.4235253740043845,0,0,1.2928688964843749,0,0,0.91728
1.4249068209901452,0,0,1.3934253662109375,0,0,0.91728
1.4262885079951957,0,0,1.3335703247070312,0,0,1.1465999999999998
1.4276699170004576,0,0,1.4772224243164063,0,0,0.84084
1.4290532890008762,0,0,1.2737152832031249,0,0,1.07016
1.4304348840087187,0,0,1.3479355346679687,0,0,0.84084
1.431816792988684,0,0,1.120486376953125,0,0,0.6115200000000001
1.4331981650029775,0,0,1.1540052001953125,0,0,0.45864
1.43457946300623,0,0,1.4149731811523436,0,0,0.84084
1.4359615950088482,0,0,1.4891934326171874,0,0,0.6115200000000001
1.4373427999962587,0,0,1.3646949462890625,0,0,0.6115200000000001
1.4387407840113156,0,0,1.216254443359375,0,0,0.6115200000000001
1.4401244150067214,0,0,1.3024457031249999,0,0,1.07016
1.4415057690057438,0,0,1.2521674682617188,0,0,0.68796
1.442888307996327,0,0,1.0893617553710937,0,0,1.07016
1.4442687729897443,0,0,1.1635820068359375,0,0,1.2994800000000002
1.445650070992997,0,0,1.4101847778320311,0,0,0.84084
1.447032610012684,0,0,1.2785036865234374,0,0,0.91728
1.448406834009802,0,0,1.6112977172851561,0,0,1.07016
1.4497817989904433,0,0,1.2210428466796874,0,0,0.68796
1.4511616340023465,0,0,1.2401964599609374,0,0,0.7644
1.4525430990033783,0,0,1.1372457885742187,0,0,0.7644
1.4539244899933692,0,0,1.1276689819335937,0,0,0.7644
1.4553060840116814,0,0,1.2641384765625,0,0,0.22932
1.4566874190059025,0,0,1.35990654296875,0,0,0.6115200000000001
1.4580682360101491,0,0,1.4413093994140624,0,0,0.53508
1.459450349007966,0,0,1.3838485595703125,0,0,0.30576000000000003
1.4608316470112186,0,0,1.2689268798828124,0,0,0.84084
1.4622128900082316,0,0,1.2928688964843749,0,0,0.84084
1.4635938919964246,0,0,1.0438719238281249,0,0,0.84084
1.4649769309908152,0,0,1.1468225952148436,0,0,1.1465999999999998
1.4663768949976657,0,0,1.3742717529296875,0,0,0.6115200000000001
1.4677523789869156,0,0,1.254561669921875,0,0,0.53508
1.4691257319936994,0,0,1.5514426757812498,0,0,0.91728
1.47049840100226,0,0,1.3862427612304686,0,0,0.84084
1.4718914399854839,0,0,1.3096283081054687,0,0,0.91728
1.4732649050129112,0,0,1.1516109985351561,0,0,0.6115200000000001
1.4746379249845631,0,0,1.0869675537109373,0,0,0.6115200000000001
1.4760130009963177,0,0,1.3359645263671873,0,0,0.3822
1.4773864659946412,0,0,1.446097802734375,0,0,0.3822
1.478775986994151,0,0,1.5825672973632812,0,0,0.6115200000000001
1.480151247989852,0,0,1.426944189453125,0,0,0.45864
1.4815237500006333,0,0,1.216254443359375,0,0,0.91728
1.4828980109887198,0,0,1.1228805786132812,0,0,0.91728
1.4842711979872547,0,0,1.218648645019531,0,0,0.91728
1.4856434410030488,0,0,1.2761094848632812,0,0,1.45236
1.4870241280004848,0,0,1.3623007446289062,0,0,0.91728
1.488406741002109,0,0,1.3742717529296875,0,0,0.6115200000000001
1.4897890579886734,0,0,1.7022773803710936,0,0,0.99372
1.4911735230125487,0,0,1.2904746948242187,0,0,0.6115200000000001
1.492555117001757,0,0,1.139639990234375,0,0,0.84084
1.4939375999965705,0,0,1.20667763671875,0,0,0.7644
1.4953206760110334,0,0,1.0821791503906248,0,0,0.30576000000000003
1.4967029000108596,0,0,1.407790576171875,0,0,0.07644000000000001
1.4980854209861718,0,0,1.407790576171875,0,0,0.6115200000000001
1.4994683859986253,0,0,1.2761094848632812,0,0,0.45864
1.500850962009281,0,0,1.37906015625,0,0,0.6115200000000001
1.5022331489890348,0,0,1.2521674682617188,0,0,1.07016
1.503615372988861,0,0,1.120486376953125,0,0,0.99372
1.5049979669856839,0,0,1.1420341918945311,0,0,0.84084
1.5063805429963395,0,0,1.1444283935546875,0,0,1.45236
1.5077661749965046,0,0,1.4317325927734375,0,0,0.6115200000000001
1.509148657991318,0,0,1.2976572998046874,0,0,0.91728
1.5105306039913557,0,0,1.4915876342773438,0,0,1.2230400000000001
1.5119140690076165,0,0,1.1923124267578125,0,0,1.07016
1.513296700984938,0,0,1.3383587280273437,0,0,0.6115200000000001
1.5146789060090668,0,0,1.0989385620117187,0,0,0.45864
1.5160612229956314,0,0,1.0989385620117187,0,0,0.45864
1.5174427989986725,0,0,1.3359645263671873,0,0,0.0
1.5188265230099205,0,0,1.3335703247070312,0,0,0.53508
1.5202080619928893,0,0,1.2641384765625,0,0,0.6115200000000001
1.5215904710057657,0,0,1.2425906616210938,0,0,0.53508
1.522973805986112,0,0,1.3359645263671873,0,0,1.1465999999999998
1.5243553270120174,0,0,1.2904746948242187,0,0,0.84084
1.5257381800038274,0,0,1.1037269653320312,0,0,1.2994800000000002
1.5271211639919784,0,0,1.1875240234375,0,0,1.45236
1.5285018690046854,0,0,1.37906015625,0,0,0.68796
1.5298847049998585,0,0,1.2497732666015624,0,0,0.68796
1.5312620580079965,0,0,1.608903515625,0,0,0.84084
1.532635115989251,0,0,1.2880804931640624,0,0,1.1465999999999998
1.534007987997029,0,0,1.2904746948242187,0,0,0.6115200000000001
1.5353901569906157,0,0,1.1276689819335937,0,0,0.7644
1.5367711219878402,0,0,1.1324573852539062,0,0,0.53508
1.5381686789914966,0,0,1.2378022583007813,0,0,0.0
1.5395514960109722,0,0,1.3479355346679687,0,0,0.3822
1.5409330159891397,0,0,1.43652099609375,0,0,0.53508
1.5423149619891774,0,0,1.5083470458984374,0,0,0.45864
1.5436964640102815,0,0,1.3455413330078123,0,0,0.84084
1.5450774469936732,0,0,1.1755530151367186,0,0,1.2230400000000001
1.546458911994705,0,0,1.0845733520507812,0,0,1.07016
1.547840729006566,0,0,1.1252747802734375,0,0,1.68168
1.549222119996557,0,0,1.2497732666015624,0,0,0.6115200000000001
1.5506031769909896,0,0,1.2976572998046874,0,0,0.91728
1.551984938007081,0,0,1.6400281372070311,0,0,0.68796
1.553365792002296,0,0,1.2761094848632812,0,0,0.91728
1.554747830989072,0,0,1.2904746948242187,0,0,0.68796
1.5561289440083783,0,0,1.1540052001953125,0,0,0.68796
1.5575101310096215,0,0,1.2282254516601563,0,0,0.7644
1.5588919110014103,0,0,1.2665326782226562,0,0,0.0
1.5602735980064608,0,0,1.2569558715820313,0,0,0.3822
1.5616549149854109,0,0,1.4724340209960938,0,0,0.30576000000000003
1.563037693995284,0,0,1.4413093994140624,0,0,0.84084
1.5644187149882782,0,0,1.369483349609375,0,0,1.2994800000000002
1.5657999019895215,0,0,1.2042834350585936,0,0,0.91728
1.5671988849935587,0,0,1.3623007446289062,0,0,0.68796
1.5685802760126535,0,0,1.2138602416992186,0,0,1.37592
1.56997281400254,0,0,1.3742717529296875,0,0,0.45864
1.5713693349971436,0,0,1.3527239379882812,0,0,0.84084
1.5727515399921685,0,0,1.5466542724609373,0,0,0.91728
1.5741332639881875,0,0,1.2904746948242187,0,0,0.84084
1.5755152110068593,0,0,1.216254443359375,0,0,0.99372
1.5768966379982885,0,0,1.1252747802734375,0,0,0.53508
1.5782780110021122,0,0,1.0486603271484374,0,0,0.30576000000000003
1.5797154559986666,0,0,1.3527239379882812,0,0,0.07644000000000001
1.5811531799845397,0,0,1.429338391113281,0,0,0.7644
1.582537570007844,0,0,1.5514426757812498,0,0,0.53508
1.5839243869995698,0,0,1.426944189453125,0,0,0.45864
1.5853060740046203,0,0,1.0965443603515623,0,0,0.99372
1.5866875950014219,0,0,1.235408056640625,0,0,0.91728
1.588070058991434,0,0,1.1540052001953125,0,0,0.7644
1.5894515060062986,0,0,1.2665326782226562,0,0,1.2994800000000002
1.5908348220109474,0,0,1.3335703247070312,0,0,0.68796
1.5922155469888821,0,0,1.4628572143554686,0,0,1.07016
1.5935957340116147,0,0,1.5753846923828123,0,0,0.84084
1.5949784950062167,0,0,1.2330138549804688,0,0,0.7644
1.596378829999594,0,0,1.199495031738281,0,0,0.7644
1.5977607579843607,0,0,1.0678139404296874,0,0,0.45864
1.5991439629870001,0,0,1.13006318359375,0,0,0.53508
1.600524261011742,0,0,1.37906015625,0,0,0.07644000000000001
1.601905577990692,0,0,1.37906015625,0,0,0.7644
1.6032876349927392,0,0,1.2713210815429687,0,0,0.6115200000000001
1.604668933985522,0,0,1.2713210815429687,0,0,0.68796
1.6060503800108563,0,0,1.2401964599609374,0,0,1.1465999999999998
1.6074321409978438,0,0,1.180341418457031,0,0,0.91728
1.6088137360056862,0,0,1.1755530151367186,0,0,0.91728
1.6101951079908758,0,0,1.197100830078125,0,0,1.37592
1.6115791100019123,0,0,1.4341267944335936,0,0,0.7644
1.6129679449950345,0,0,1.3766659545898436,0,0,1.1465999999999998
1.6143502980121411,0,0,1.5059528442382812,0,0,0.99372
1.6157475220097695,0,0,1.3263877197265623,0,0,0.91728
1.6171309500059579,0,0,1.2641384765625,0,0,0.68796
1.618512193002971,0,0,1.149216796875,0,0,0.84084
1.6198885469930246,0,0,1.1348515869140625,0,0,0.30576000000000003
1.6212612710078247,0,0,1.20667763671875,0,0,20
1.6226348099880852,0,0,1.3575123413085937,0,0,0.68796
1.6240190519893076,0,0,1.4891934326171874,0,0,0.7644
1.6254018690087833,0,0,1.2521674682617188,0,0,0.45864
1.6267796859901864,0,0,1.2952630981445312,0,0,1.07016
1.6281532800057903,0,0,1.3766659545898436,0,0,0.99372
1.6295263379870448,0,0,1.0630255371093749,0,0,1.1465999999999998
1.6309056179889012,0,0,1.1444283935546875,0,0,1.45236
1.6322872680029832,0,0,1.2497732666015624,0,0,0.68796
1.6336689360032324,0,0,1.3527239379882812,0,0,0.84084
1.635050382988993,0,0,1.6352397338867186,0,0,0.99372
1.636431958002504,0,0,1.2497732666015624,0,0,0.6115200000000001
1.6378133310063276,0,0,1.1563994018554686,0,0,0.53508
1.6391956839943305,0,0,1.0007762939453124,0,0,0.30576000000000003
1.640588945010677,0,0,1.158793603515625,0,0,0.3822
1.6419709289912134,0,0,1.2497732666015624,0,0,0.0
1.6433530049980618,0,0,1.2785036865234374,0,0,0.45864
1.6447343030013144,0,0,1.5490484741210937,0,0,0.30576000000000003
1.6461153790005483,0,0,1.6639701538085936,0,0,0.68796
1.6475060840020888,0,0,1.4125789794921875,0,0,0.99372
1.6488876049988903,0,0,1.2378022583007813,0,0,0.84084
1.650268033001339,0,0,1.2952630981445312,0,0,0.91728
1.6516519600118045,0,0,1.2856862915039062,0,0,1.2230400000000001
1.653033554990543,0,0,1.3862427612304686,0,0,1.07016
1.6544147419917863,0,0,1.4317325927734375,0,0,0.7644
1.6558120400004555,0,0,1.6807295654296874,0,0,1.07016
1.6571999859879725,0,0,1.3120225097656248,0,0,1.1465999999999998
1.6585813949932344,0,0,1.0989385620117187,0,0,0.68796
1.6599632310098968,0,0,1.139639990234375,0,0,0.22932
1.661344658001326,0,0,1.2473790649414063,0,0,0.45864
1.6627258269872982,0,0,1.3455413330078123,0,0,0.0
1.6641106989991385,0,0,1.4700398193359374,0,0,0.84084
1.6655153679894283,0,0,1.66636435546875,0,0,0.3822
1.6668932950124145,0,0,1.458068811035156,0,0,0.7644
1.6682662419916596,0,0,1.3431471313476562,0,0,1.2230400000000001
1.6696391699952073,0,0,1.1755530151367186,0,0,0.91728
1.671014246006962,0,0,1.1133037719726562,0,0,0.68796
1.6724382470129058,0,0,1.3096283081054687,0,0,0.91728
1.6738116380001884,0,0,1.3120225097656248,0,0,0.68796
1.6751869180006906,0,0,1.3766659545898436,0,0,0.53508
1.6765593829913996,0,0,1.5179238525390624,0,0,0.68796
1.677931885002181,0,0,1.2713210815429687,0,0,1.07016
1.6793065530073363,0,0,1.158793603515625,0,0,0.84084
1.6806790549890138,0,0,1.1923124267578125,0,0,0.68796
1.682053686992731,0,0,1.2210428466796874,0,0,0.7644
1.6834297069872264,0,0,1.3742717529296875,0,0,0.15288000000000002
1.6848021910118405,0,0,1.3527239379882812,0,0,0.7644
1.686175173992524,0,0,1.4149731811523436,0,0,0.91728
1.690449901012471,0,0,1.2425906616210938,0,0,0.91728
1.6918878460128326,0,0,1.0582371337890624,0,0,0.53508
1.6932959400000982,0,0,1.2210428466796874,0,0,0.99372
1.6946697759849485,0,0,1.3742717529296875,0,0,0.91728
1.6960449629987124,0,0,1.1563994018554686,0,0,0.53508
1.6974181130062789,0,0,1.4030021728515625,0,0,0.91728
1.698792114999378,0,0,1.254561669921875,0,0,0.91728
1.7001651909959037,0,0,1.180341418457031,0,0,1.07016
1.7015377490024548,0,0,1.1468225952148436,0,0,0.7644
1.7029436209995765,0,0,0.9528922607421875,0,0,0.7644
1.7043264929961879,0,0,1.254561669921875,0,0,0.0
1.7057087720022537,0,0,1.254561669921875,0,0,0.6115200000000001
1.7070915889926255,0,0,1.4939818359375,0,0,0.91728
1.7084732390067074,0,0,1.3120225097656248,0,0,0.6115200000000001
1.7098549630027264,0,0,1.3335703247070312,0,0,0.84084
1.7112507429847028,0,0,1.2306196533203124,0,0,0.7644
1.712632189010037,0,0,1.1635820068359375,0,0,0.91728
1.714014060999034,0,0,1.3144167114257812,0,0,0.91728
1.7153964519966394,0,0,1.35990654296875,0,0,0.99372
1.7167868980031926,0,0,1.2976572998046874,0,0,0.53508
1.7181766589928884,0,0,1.5370774658203123,0,0,0.53508
1.7195589760085568,0,0,1.4030021728515625,0,0,1.07016
1.720940478000557,0,0,1.2665326782226562,0,0,1.07016
1.7223224799963646,0,0,1.0965443603515623,0,0,1.07016
1.7237092040013522,0,0,1.1755530151367186,0,0,0.68796
1.7250912240124308,0,0,1.3215993164062498,0,0,0.0
1.7264730040042195,0,0,1.2617442749023438,0,0,0.45864
1.727855172008276,0,0,1.5825672973632812,0,0,0.99372
1.7292362849984784,0,0,1.209071838378906,0,0,0.68796
1.730617824010551,0,0,1.2306196533203124,0,0,0.7644
1.7319997340091504,0,0,1.1611878051757811,0,0,0.91728
1.7333809580013622,0,0,1.0630255371093749,0,0,0.45864
1.7347725889994763,0,0,1.2210428466796874,0,0,0.84084
1.7361539980047382,0,0,1.3551181396484375,0,0,0.68796
1.7375358149874955,0,0,1.3407529296874998,0,0,0.84084
1.7389187059889082,0,0,1.6256629272460936,0,0,0.6115200000000001
1.7403004849911667,0,0,1.3120225097656248,0,0,0.68796
1.7416819320060313,0,0,1.199495031738281,0,0,0.68796
1.7430649710004218,0,0,1.1563994018554686,0,0,1.07016
1.744445602002088,0,0,1.199495031738281,0,0,0.68796
1.7458269929920789,0,0,1.5251064575195312,0,0,0.0
1.7472266239929013,0,0,1.2880804931640624,0,0,0.7644
1.7486081820097752,0,0,1.5610194824218748,0,0,0.7644
1.7499947579926811,0,0,1.2593500732421874,0,0,0.91728
1.7513768149947282,0,0,1.3838485595703125,0,0,0.84084
1.7527584279887378,0,0,1.1228805786132812,0,0,1.07016
1.7541403560026083,0,0,1.2306196533203124,0,0,0.53508
1.7555221540096682,0,0,1.3144167114257812,0,0,0.68796
1.7569036739878356,0,0,1.3215993164062498,0,0,0.68796
1.7582851760089397,0,0,1.4317325927734375,0,0,0.84084
1.7596673629886936,0,0,1.5131354492187499,0,0,0.68796
1.7610484760079999,0,0,1.3048399047851562,0,0,0.84084
1.7624297750007827,0,0,1.2114660400390624,0,0,0.7644
1.76381177600706,0,0,1.158793603515625,0,0,0.6115200000000001
1.765193260012893,0,0,1.216254443359375,0,0,1.07016
1.7665735759946983,0,0,1.3263877197265623,0,0,0.45864
1.7679560969991144,0,0,1.35990654296875,0,0,0.6115200000000001
1.7693373580113985,0,0,1.6543933471679686,0,0,0.99372
1.7707195080001839,0,0,1.2521674682617188,0,0,0.68796
1.7721006209903862,0,0,1.22583125,0,0,0.91728
1.7734820490004495,0,0,1.2234370483398436,0,0,0.68796
1.774872514011804,0,0,1.197100830078125,0,0,0.3822
1.7762537930102553,0,0,1.3215993164062498,0,0,0.91728
1.7776353140070569,0,0,1.43652099609375,0,0,0.68796
1.7790177970018703,0,0,1.2713210815429687,0,0,-9.09636
1.7804010770050809,0,0,1.484405029296875,0,0,0.6115200000000001
1.7817824860103428,0,0,1.3527239379882812,0,0,0.91728
1.7831652660097461,0,0,1.2210428466796874,0,0,1.07016
1.7845461379911285,0,0,1.0797849487304687,0,0,0.68796
1.7859272320056334,0,0,1.1659762084960936,0,0,0.99372
1.787308844999643,0,0,1.3527239379882812,0,0,0.15288000000000002
1.788690235989634,0,0,1.3359645263671873,0,0,0.6115200000000001
1.7900784790108446,0,0,1.4413093994140624,0,0,0.7644
1.7914602769888006,0,0,1.2880804931640624,0,0,0.7644
1.792841168004088,0,0,1.3359645263671873,0,0,0.99372
1.7942228729953058,0,0,1.149216796875,0,0,0.6115200000000001
1.795604207989527,0,0,1.20667763671875,0,0,2.06388
1.7969858210126404,0,0,1.1133037719726562,0,0,0.45864
1.7983675639843568,0,0,1.3527239379882812,0,0,0.45864
1.7997444180073217,0,0,1.254561669921875,0,0,0.7644
1.80111723500886,0,0,1.3455413330078123,0,0,0.99372
1.8024902920005843,0,0,1.2880804931640624,0,0,0.84084
1.8038725900114514,0,0,1.3718775512695311,0,0,0.91728
1.805253480997635,0,0,1.1420341918945311,0,0,0.99372
1.8066346310079098,0,0,1.1923124267578125,0,0,1.1465999999999998
1.8080152809852734,0,0,1.3575123413085937,0,0,0.45864
1.809396505006589,0,0,1.3239935180664062,0,0,0.68796
1.8107774519885425,0,0,1.5059528442382812,0,0,0.68796
1.812159065011656,0,0,1.209071838378906,0,0,0.68796
1.813540400005877,0,0,1.2952630981445312,0,0,1.1465999999999998
1.8149229759874288,0,0,1.369483349609375,0,0,0.53508
1.8163116440118756,0,0,1.1324573852539062,0,0,0.45864
1.8176937389944214,0,0,1.3646949462890625,0,0,0.3822
1.8190768150088843,0,0,1.3263877197265623,0,0,0.45864
1.8204853349889163,0,0,1.3838485595703125,0,0,0.53508
1.8218669850029983,0,0,1.6400281372070311,0,0,1.1465999999999998
1.8232514869887382,0,0,1.3934253662109375,0,0,1.1465999999999998
1.8246331549889874,0,0,1.2904746948242187,0,0,0.91728
1.826013898011297,0,0,1.2234370483398436,0,0,0.84084
1.8273959179932717,0,0,1.1444283935546875,0,0,1.68168
1.8287772159965243,0,0,1.3215993164062498,0,0,0.45864
1.830216420989018,0,0,1.3623007446289062,0,0,0.99372
1.8316481630026828,0,0,1.5610194824218748,0,0,0.91728
1.8330522759933956,0,0,1.3144167114257812,0,0,1.2230400000000001
1.834441295999568,0,0,1.3215993164062498,0,0,0.84084
1.8358236869971734,0,0,1.3192051147460937,0,0,0.7644
1.8372056150110438,0,0,1.1827356201171875,0,0,0.6115200000000001
1.8385865240124986,0,0,1.2832920898437499,0,0,0.0
1.839968284999486,0,0,1.2832920898437499,0,0,0.53508
1.841350008995505,0,0,1.5107412475585937,0,0,0.45864
1.8427328630059492,0,0,1.5203180541992187,0,0,0.68796
1.8441136800101958,0,0,1.2401964599609374,0,0,1.1465999999999998
1.8454955329943914,0,0,1.216254443359375,0,0,0.99372
1.8468770910112653,0,0,1.1324573852539062,0,0,1.07016
1.84825800001272,0,0,1.2330138549804688,0,0,1.2230400000000001
1.8496392059896607,0,0,1.5035586425781249,0,0,0.7644
1.8510221710021142,0,0,1.4413093994140624,0,0,0.91728
1.8524022469937336,0,0,1.4963760375976562,0,0,1.1465999999999998
1.8537838229967747,0,0,1.3383587280273437,0,0,1.07016
1.8551720280083828,0,0,1.2593500732421874,0,0,0.53508
1.8565531409985851,0,0,1.2042834350585936,0,0,0.3822
1.8579337729897816,0,0,1.0606313354492187,0,0,0.6115200000000001
1.8593155150010716,0,0,1.350329736328125,0,0,0.0
1.8606957579904702,0,0,1.2473790649414063,0,0,0.45864
1.8620771669957321,0,0,1.6065093139648436,0,0,0.30576000000000003
1.8634590209985618,0,0,1.484405029296875,0,0,0.68796
1.8648383010004181,0,0,1.3239935180664062,0,0,0.7644
1.8664702250098344,0,0,1.158793603515625,0,0,0.7644
1.8678507639851887,0,0,1.2210428466796874,0,0,0.45864
1.8692242479883134,0,0,1.369483349609375,0,0,1.68168
1.8705972309981007,0,0,1.24498486328125,0,0,0.6115200000000001
1.8721118429966737,0,0,1.407790576171875,0,0,1.07016
1.873484899988398,0,0,1.458068811035156,0,0,0.7644
1.8748599950049538,0,0,1.235408056640625,0,0,0.91728
1.8762324780109338,0,0,1.197100830078125,0,0,0.84084
1.877618758007884,0,0,1.1324573852539062,0,0,0.68796
1.8789939080015756,0,0,1.3407529296874998,0,0,0.91728
1.8803667619940825,0,0,1.438915197753906,0,0,0.22932
1.8817390970070846,0,0,1.388636962890625,0,0,0.68796
1.8831133400090039,0,0,1.6017209106445311,0,0,0.7644
1.8844856380019337,0,0,1.2952630981445312,0,0,0.99372
1.8858579359948635,0,0,1.2306196533203124,0,0,0.99372
1.8872521790035535,0,0,1.1444283935546875,0,0,0.6115200000000001
1.888633939990541,0,0,1.0726023437499999,0,0,0.68796
1.8900153680006042,0,0,1.3024457031249999,0,0,0.6115200000000001
1.8915123129845597,0,0,1.3575123413085937,0,0,0.68796
1.892894777993206,0,0,1.2425906616210938,0,0,0.68796
1.894276112987427,0,0,1.5083470458984374,0,0,0.45864
1.8956689480110072,0,0,1.3455413330078123,0,0,1.07016
1.8970503759919666,0,0,1.2641384765625,0,0,0.7644
1.89843174800626,0,0,1.235408056640625,0,0,0.99372
1.899812435003696,0,0,1.0917559570312498,0,0,0.99372
1.9011940289929044,0,0,1.3646949462890625,0,0,0.68796
1.90280514000915,0,0,1.4604630126953124,0,0,0.99372
1.9042310109944083,0,0,1.4413093994140624,0,0,0.91728
1.9056189210095908,0,0,1.3359645263671873,0,0,0.7644
1.9070038300123997,0,0,1.254561669921875,0,0,0.84084
1.9083840909879655,0,0,1.1659762084960936,0,0,0.7644
1.9097637599916197,0,0,1.2138602416992186,0,0,0.84084
1.9111458910047077,0,0,1.2976572998046874,0,0,0.0
1.9125258369895164,0,0,1.4628572143554686,0,0,0.45864
1.9139166910026688,0,0,1.3646949462890625,0,0,0.45864
1.9152984519896563,0,0,1.3862427612304686,0,0,0.53508
1.9166774539917242,0,0,1.2521674682617188,0,0,1.07016
1.9180561600078363,0,0,1.2665326782226562,0,0,1.1465999999999998
1.9194449950009584,0,0,1.13006318359375,0,0,0.84084
1.920832273986889,0,0,1.2114660400390624,0,0,1.45236
1.922233146004146,0,0,1.4437036010742186,0,0,1.07016
1.9236203700129408,0,0,1.24498486328125,0,0,0.6115200000000001
1.925006798002869,0,0,1.4700398193359374,0,0,1.07016
1.9263936890056357,0,0,1.218648645019531,0,0,1.07016
1.9277808390033897,0,0,1.3120225097656248,0,0,0.6115200000000001
1.9291673960105982,0,0,1.218648645019531,0,0,0.68796
1.930553898011567,0,0,1.13006318359375,0,0,0.45864
1.9319409930030815,0,0,1.39821376953125,0,0,0.0
1.9333274939854164,0,0,1.3527239379882812,0,0,0.68796
1.9347152739937883,0,0,1.3670891479492187,0,0,0.53508
1.9361022569937631,0,0,1.3072341064453123,0,0,0.53508
1.9374896110093687,0,0,1.3359645263671873,0,0,0.99372
1.9388765199983027,0,0,1.0917559570312498,0,0,0.99372
1.9402631520060822,0,0,1.0438719238281249,0,0,0.53508
1.9416496159974486,0,0,1.1133037719726562,0,0,1.1465999999999998
1.943036637007026,0,0,1.407790576171875,0,0,0.99372
1.944422527012648,0,0,1.2952630981445312,0,0,1.07016
1.9458092880086042,0,0,1.5945383056640625,0,0,0.99372
1.9472018830128945,0,0,1.2976572998046874,0,0,0.91728
1.9487131419882644,0,0,1.3575123413085937,0,0,0.84084
1.9501166630070657,0,0,1.0965443603515623,0,0,0.99372
1.951504163997015,0,0,1.0941501586914062,0,0,0.6115200000000001
1.9528907769999932,0,0,1.2856862915039062,0,0,0.0
1.9542777980095707,0,0,1.3239935180664062,0,0,0.91728
1.9556902989861555,0,0,1.6639701538085936,0,0,0.84084
1.957077078986913,0,0,1.3215993164062498,0,0,0.68796
1.958464228984667,0,0,1.5131354492187499,0,0,0.7644
1.959851305000484,0,0,1.1540052001953125,0,0,0.53508
1.9612383990024682,0,0,1.1252747802734375,0,0,0.84084
1.9626254749891814,0,0,1.149216796875,0,0,0.84084
1.9640119950054213,0,0,1.2856862915039062,0,0,0.45864
1.965438199986238,0,0,1.3383587280273437,0,0,0.53508
1.966828145988984,0,0,1.6304513305664061,0,0,0.7644
1.9682142219971865,0,0,1.3120225097656248,0,0,1.1465999999999998
1.9696007060119882,0,0,1.3742717529296875,0,0,1.1465999999999998
1.9709881889866665,0,0,1.1133037719726562,0,0,1.07016
1.9723740610061213,0,0,1.3000515014648437,0,0,1.60524
1.9737611929886043,0,0,1.438915197753906,0,0,0.6115200000000001
1.9751483059953898,0,0,1.2952630981445312,0,0,0.84084
1.9765341409947723,0,0,1.6017209106445311,0,0,0.6115200000000001
1.9779204019869212,0,0,1.2904746948242187,0,0,0.7644
1.979310884984443,0,0,1.3838485595703125,0,0,0.6115200000000001
1.9806973680097144,0,0,1.35990654296875,0,0,0.53508
1.9820839810126927,0,0,1.1851298217773436,0,0,0.68796
1.9834708530106582,0,0,1.0917559570312498,0,0,-0.15288000000000002
1.9848587439919356,0,0,1.3192051147460937,0,0,0.6115200000000001
1.9862453759997152,0,0,1.4532804077148436,0,0,0.68796
1.9876322110067122,0,0,1.6256629272460936,0,0,0.99372
1.9890186940028798,0,0,1.3239935180664062,0,0,1.1465999999999998
1.9904050480108708,0,0,1.2569558715820313,0,0,1.2230400000000001
1.9917921049927827,0,0,1.1947066284179686,0,0,0.99372
1.99317864398472,0,0,1.1731588134765625,0,0,1.5288
1.9945650899899192,0,0,1.2976572998046874,0,0,0.91728
1.995951907010749,0,0,1.3766659545898436,0,0,0.7644
1.9973386309866328,0,0,1.6472107421875,0,0,0.91728
1.9987255960004404,0,0,1.2569558715820313,0,0,0.91728
2.0001125230046455,0,0,1.3072341064453123,0,0,0.53508
2.001499061996583,0,0,1.2018892333984375,0,0,0.6115200000000001
2.002886786009185,0,0,1.1875240234375,0,0,0.30576000000000003
2.004273047001334,0,0,1.3646949462890625,0,0,-0.30576000000000003
2.005660030990839,0,0,1.419761584472656,0,0,0.45864
2.007046940008877,0,0,1.5849614990234373,0,0,0.3822
2.0084401819913182,0,0,1.43652099609375,0,0,0.6115200000000001
2.009832962008659,0,0,1.2808978881835937,0,0,0.91728
2.0112205559853464,0,0,1.1516109985351561,0,0,1.07016
2.0126065769873094,0,0,1.1659762084960936,0,0,0.68796
2.013992911990499,0,0,1.2497732666015624,0,0,1.2230400000000001
2.015379413991468,0,0,1.35990654296875,0,0,0.91728
2.016767674998846,0,0,1.3000515014648437,0,0,0.84084
2.018153973011067,0,0,1.5514426757812498,0,0,0.91728
2.0195402709941845,0,0,1.3479355346679687,0,0,0.91728
2.0209265509911347,0,0,1.199495031738281,0,0,0.6115200000000001
2.0223135339911096,0,0,1.0582371337890624,0,0,0.91728
2.0237014059966896,0,0,1.2114660400390624,0,0,0.45864
2.0250879260129295,0,0,1.3838485595703125,0,0,0.0
2.026474612997845,0,0,1.3192051147460937,0,0,0.53508
2.027861040987773,0,0,1.62805712890625,0,0,0.68796
2.029247802012833,0,0,1.3239935180664062,0,0,0.6115200000000001
2.0306344520067796,0,0,1.2306196533203124,0,0,1.1465999999999998
2.0320213609957136,0,0,1.1707646118164061,0,0,0.7644
2.0334078629966825,0,0,1.2138602416992186,0,0,0.84084
2.0347943840024527,0,0,1.1611878051757811,0,0,1.2994800000000002
2.0361733669997193,0,0,1.4149731811523436,0,0,0.91728
2.037551554007223,0,0,1.2210428466796874,0,0,1.1465999999999998
2.0389377970132045,0,0,1.4891934326171874,0,0,0.91728
2.040324501984287,0,0,1.3072341064453123,0,0,0.91728
2.041711171012139,0,0,1.3263877197265623,0,0,0.6115200000000001
2.043101023999043,0,0,1.0366893188476562,0,0,0.7644
2.044486525992397,0,0,1.1851298217773436,0,0,0.53508
2.045872471993789,0,0,1.3000515014648437,0,0,0.0
2.0472590109857265,0,0,1.3527239379882812,0,0,0.30576000000000003
2.0486454390047584,0,0,1.465251416015625,0,0,0.91728
2.0500358110002708,0,0,1.35990654296875,0,0,1.2230400000000001
2.0514227020030376,0,0,1.3718775512695311,0,0,1.1465999999999998
2.0528221109998412,0,0,1.1061211669921875,0,0,0.6115200000000001
2.0542083350010216,0,0,1.1252747802734375,0,0,0.7644
2.055594392004423,0,0,1.3623007446289062,0,0,0.91728
2.0569805609993637,0,0,1.3646949462890625,0,0,0.68796
2.058366691984702,0,0,1.3551181396484375,0,0,0.45864
2.0597530830127653,0,0,1.5945383056640625,0,0,0.30576000000000003
2.0611388070101384,0,0,1.3383587280273437,0,0,1.2230400000000001
2.0625245129922405,0,0,1.2713210815429687,0,0,0.91728
2.0639109399926383,0,0,1.1061211669921875,0,0,0.68796
2.065304312010994,0,0,1.1516109985351561,0,0,0.84084
2.066717147012241,0,0,1.2832920898437499,0,0,0.22932
2.0681080379872583,0,0,1.3742717529296875,0,0,0.91728
2.0694959289976396,0,0,1.6519991455078125,0,0,0.84084
2.070879929990042,0,0,1.2138602416992186,0,0,0.84084
2.0722613770049065,0,0,1.2425906616210938,0,0,0.68796
2.0736402309848927,0,0,1.1635820068359375,0,0,0.7644
2.075026843987871,0,0,1.1276689819335937,0,0,0.68796
2.076413605012931,0,0,1.3551181396484375,0,0,0.68796
2.0778003289888147,0,0,1.3072341064453123,0,0,0.45864
2.0791841270111036,0,0,1.3766659545898436,0,0,0.3822
2.080585572985001,0,0,1.656787548828125,0,0,0.91728
2.082909749005921,0,0,1.2521674682617188,0,0,0.91728
2.084299676003866,0,0,1.2808978881835937,0,0,0.91728
2.08568682600162,0,0,1.0749965454101562,0,0,0.30576000000000003
2.0870749950117897,0,0,1.3335703247070312,0,0,-0.30576000000000003
2.0884722739865538,0,0,1.2665326782226562,0,0,0.68796
2.0900759770011064,0,0,1.6448165405273436,0,0,0.6115200000000001
2.0914854790025856,0,0,1.254561669921875,0,0,1.07016
2.092873462010175,0,0,1.2904746948242187,0,0,0.84084
2.094260612007929,0,0,1.1707646118164061,0,0,0.84084
2.0956430950027425,0,0,1.1013327636718748,0,0,0.45864
2.0970213930122554,0,0,1.3096283081054687,0,0,0.45864
2.0984155799960718,0,0,1.5227122558593749,0,0,0.91728
2.0998047300090548,0,0,1.608903515625,0,0,0.6115200000000001
2.1011917509895284,0,0,1.5490484741210937,0,0,0.45864
2.1025782900105696,0,0,1.2880804931640624,0,0,1.07016
2.1039650510065258,0,0,1.2713210815429687,0,0,0.6115200000000001
2.105351348989643,0,0,1.0941501586914062,0,0,0.7644
2.1067394989950117,0,0,1.1947066284179686,0,0,1.07016
2.1081265560060274,0,0,1.2832920898437499,0,0,0.53508
2.109513336006785,0,0,1.3072341064453123,0,0,0.7644
2.110900670988485,0,0,1.484405029296875,0,0,1.07016
2.1122867650119588,0,0,1.1851298217773436,0,0,0.91728
2.1136733969906345,0,0,1.2521674682617188,0,0,0.68796
2.1150602500129025,0,0,1.1611878051757811,0,0,1.07016
2.116454436996719,0,0,1.1875240234375,0,0,0.53508
2.118191471992759,0,0,1.3455413330078123,0,0,0.0
2.1196303429896943,0,0,1.4125789794921875,0,0,0.45864
2.1218888350122143,0,0,1.369483349609375,0,0,0.45864
2.1233507249853574,0,0,1.2330138549804688,0,0,0.84084
2.125251276011113,0,0,1.1947066284179686,0,0,0.7644
2.127239752007881,0,0,1.2042834350585936,0,0,0.53508
2.128717604005942,0,0,1.3383587280273437,0,0,0.7644
2.1301522350113373,0,0,1.3359645263671873,0,0,0.68796
2.132109711994417,0,0,1.5969325073242187,0,0,0.45864
2.134239148988854,0,0,1.3048399047851562,0,0,0.68796
2.1358111489971634,0,0,1.0510545288085937,0,0,0.68796
2.1372109279909637,0,0,1.1731588134765625,0,0,0.3822
2.1385911149845924,0,0,1.35990654296875,0,0,0.15288000000000002
2.1399755610036664,0,0,1.3048399047851562,0,0,0.53508
2.14135491498746,0,0,1.465251416015625,0,0,0.6115200000000001
2.142747195000993,0,0,1.2880804931640624,0,0,0.6115200000000001
2.1441319189907517,0,0,1.254561669921875,0,0,1.1465999999999998
2.1455295690102503,0,0,1.3072341064453123,0,0,-8.7906
2.146917495992966,0,0,1.0630255371093749,0,0,0.7644
2.1482964429887943,0,0,1.1875240234375,0,0,1.5288
2.1496758149878588,0,0,1.43652099609375,0,0,0.53508
2.1510565580101684,0,0,1.3096283081054687,0,0,1.1465999999999998
2.1524347820086405,0,0,1.6543933471679686,0,0,0.7644
2.1538127649982926,0,0,1.3646949462890625,0,0,0.84084
2.1551931189897005,0,0,1.2737152832031249,0,0,0.68796
2.156572268984746,0,0,1.1180921752929687,0,0,0.7644
2.15795069700107,0,0,1.199495031738281,0,0,0.6115200000000001
2.1593347169982735,0,0,1.3718775512695311,0,0,0.22932
2.1607138119870797,0,0,1.3168109130859373,0,0,0.6115200000000001
2.162094850995345,0,0,1.5155296508789062,0,0,0.7644
2.163481388997752,0,0,1.5251064575195312,0,0,0.68796
2.1648600769985933,0,0,1.3120225097656248,0,0,0.99372
2.1662385409872513,0,0,1.0773907470703123,0,0,1.07016
2.1676263209956232,0,0,1.2018892333984375,0,0,1.07016
2.169004692987073,0,0,1.2641384765625,0,0,1.1465999999999998
2.170382640004391,0,0,1.2593500732421874,0,0,0.68796
2.1717632339859847,0,0,1.419761584472656,0,0,0.6115200000000001
2.1731416810071096,0,0,1.6927005737304686,0,0,0.91728
2.174540923006134,0,0,1.2785036865234374,0,0,0.91728
2.175948646996403,0,0,1.2832920898437499,0,0,0.68796
2.177328518999275,0,0,1.3072341064453123,0,0,0.53508
2.1787284839956556,0,0,1.1635820068359375,0,0,0.6115200000000001
2.1801078369899187,0,0,1.2856862915039062,0,0,0.0
2.181486301997211,0,0,1.3000515014648437,0,0,0.45864
2.182873062993167,0,0,1.5059528442382812,0,0,0.53508
2.184260120993713,0,0,1.4030021728515625,0,0,0.91728
2.1856467520119622,0,0,1.3646949462890625,0,0,0.84084
2.187044643011177,0,0,1.2138602416992186,0,0,0.7644
2.1884241820080206,0,0,1.0079588989257813,0,0,0.68796
2.189809701987542,0,0,1.2138602416992186,0,0,1.37592
2.191195185005199,0,0,1.458068811035156,0,0,1.2230400000000001
2.1925821689947043,0,0,1.2282254516601563,0,0,0.68796
2.193969151994679,0,0,1.6160861206054686,0,0,0.7644
2.1953559500107076,0,0,1.3000515014648437,0,0,0.91728
2.1967421929875854,0,0,1.1875240234375,0,0,0.84084
2.1981285460060462,0,0,1.139639990234375,0,0,0.7644
2.199515270011034,0,0,1.209071838378906,0,0,0.68796
2.2009019200049806,0,0,1.3551181396484375,0,0,0.0
2.202287811000133,0,0,1.4341267944335936,0,0,0.3822
2.203674813004909,0,0,1.5394716674804687,0,0,0.91728
2.2050607040000614,0,0,1.3455413330078123,0,0,0.68796
2.2064470569894183,0,0,1.2401964599609374,0,0,0.99372
2.207839300011983,0,0,1.197100830078125,0,0,0.6115200000000001
2.209225634986069,0,0,1.0773907470703123,0,0,0.45864
2.210611674003303,0,0,1.3000515014648437,0,0,1.07016
2.2119982310105115,0,0,1.3359645263671873,0,0,0.91728
2.21338454799843,0,0,1.2569558715820313,0,0,0.53508
2.2147719569911715,0,0,1.5418658691406248,0,0,0.68796
2.216158032999374,0,0,1.1013327636718748,0,0,0.91728
2.2175443680025637,0,0,1.2401964599609374,0,0,0.68796
2.21893131401157,0,0,1.2306196533203124,0,0,0.84084
2.2203167979896534,0,0,1.209071838378906,0,0,0.7644
2.2217026139842346,0,0,1.3000515014648437,0,0,0.0
2.223089653009083,0,0,1.24498486328125,0,0,0.3822
2.2244754880084656,0,0,1.5179238525390624,0,0,0.53508
2.2258619900094345,0,0,1.216254443359375,0,0,0.6115200000000001
2.2272486219881102,0,0,1.3215993164062498,0,0,0.99372
2.22863514200435,0,0,1.1563994018554686,0,0,0.99372
2.230021458992269,0,0,1.1755530151367186,0,0,0.6115200000000001
2.231408238003496,0,0,1.1276689819335937,0,0,1.07016
2.2328027400071733,0,0,1.3359645263671873,0,0,0.7644
2.23418920498807,0,0,1.3239935180664062,0,0,0.84084
2.2355760030040983,0,0,1.3838485595703125,0,0,0.68796
2.23696330099483,0,0,1.2665326782226562,0,0,0.68796
2.238411208993057,0,0,1.3168109130859373,0,0,0.68796
2.239805877994513,0,0,1.0295067138671874,0,0,0.84084
2.241192916990258,0,0,1.1013327636718748,0,0,0.68796
2.242580010992242,0,0,1.3168109130859373,0,0,0.84084
2.2439664760022424,0,0,1.2880804931640624,0,0,1.1465999999999998
2.245366291987011,0,0,1.5466542724609373,0,0,0.84084
2.246783015987603,0,0,1.2521674682617188,0,0,0.84084
2.2481705920072272,0,0,1.2617442749023438,0,0,0.99372
2.2495572789921425,0,0,1.177947216796875,0,0,0.84084
2.2509434839885216,0,0,1.2282254516601563,0,0,0.68796
2.2523378930054605,0,0,1.35990654296875,0,0,0.0
2.2539363559917547,0,0,1.3000515014648437,0,0,0.68796
2.2553327649948187,0,0,1.438915197753906,0,0,0.91728
2.2567209519911557,0,0,1.3096283081054687,0,0,0.53508
2.258108601992717,0,0,1.2737152832031249,0,0,1.1465999999999998
2.2594954000087455,0,0,1.3120225097656248,0,0,0.6115200000000001
2.2608820130117238,0,0,1.0941501586914062,0,0,0.91728
2.2622685889946297,0,0,1.139639990234375,0,0,1.2994800000000002
2.263658165000379,0,0,1.3455413330078123,0,0,0.7644
2.2650451110093854,0,0,1.2928688964843749,0,0,0.3822
2.2664442980021704,0,0,1.6519991455078125,0,0,0.7644
2.2678312810021453,0,0,1.2737152832031249,0,0,0.84084
2.2692178940051235,0,0,1.2473790649414063,0,0,0.68796
2.270608043996617,0,0,1.209071838378906,0,0,0.68796
2.272001397010172,0,0,1.120486376953125,0,0,0.3822
2.2733871589880437,0,0,1.3431471313476562,0,0,0.30576000000000003
2.274776031001238,0,0,1.2665326782226562,0,0,0.68796
2.276162772992393,0,0,1.5298948608398437,0,0,0.53508
2.277566108008614,0,0,1.2378022583007813,0,0,0.84084
2.2789534800103866,0,0,1.3742717529296875,0,0,0.91728
2.2803399639960844,0,0,1.2617442749023438,0,0,0.7644
2.2817263909964822,0,0,1.0582371337890624,0,0,0.6115200000000001
2.28311022699927,0,0,1.1731588134765625,0,0,0.53508
2.284488450997742,0,0,1.3407529296874998,0,0,0.53508
2.2858665449894033,0,0,1.3575123413085937,0,0,0.68796
2.2872659729910083,0,0,1.4915876342773438,0,0,0.6115200000000001
2.2886526040092576,0,0,1.199495031738281,0,0,0.99372
2.290039124985924,0,0,1.2401964599609374,0,0,1.2230400000000001
2.291426275012782,0,0,1.2689268798828124,0,0,1.07016
2.2928128319908865,0,0,1.24498486328125,0,0,0.6115200000000001
2.2941988889942877,0,0,1.2521674682617188,0,0,0.6115200000000001
2.295595723990118,0,0,1.3359645263671873,0,0,0.7644
2.2969823369930964,0,0,1.6112977172851561,0,0,0.84084
2.2983686729858164,0,0,1.4796166259765624,0,0,0.7644
2.299754915002268,0,0,1.3239935180664062,0,0,1.07016
2.3011416950030252,0,0,1.1516109985351561,0,0,0.84084
2.3025282339949626,0,0,1.1755530151367186,0,0,0.53508
2.303923142986605,0,0,1.2880804931640624,0,0,0.30576000000000003
2.305310236988589,0,0,1.3551181396484375,0,0,0.53508
2.3066969240026083,0,0,1.4101847778320311,0,0,0.6115200000000001
2.308100018010009,0,0,1.5394716674804687,0,0,0.68796
2.309486427984666,0,0,1.3048399047851562,0,0,1.2230400000000001
2.310872762987856,0,0,1.3168109130859373,0,0,0.7644
2.312258894002298,0,0,1.1061211669921875,0,0,0.7644
2.3136449700105004,0,0,1.235408056640625,0,0,1.1465999999999998
2.3150321200082544,0,0,1.3958195678710936,0,0,0.7644
2.3164172880060505,0,0,1.446097802734375,0,0,0.84084
2.317803290003212,0,0,1.599326708984375,0,0,0.53508
2.3191899769881275,0,0,1.235408056640625,0,0,0.84084
2.32058188598603,0,0,1.2593500732421874,0,0,0.84084
2.3219686659867875,0,0,1.1324573852539062,0,0,0.7644
2.323354835010832,0,0,1.0726023437499999,0,0,0.45864
2.3247405769943725,0,0,1.3527239379882812,0,0,0.15288000000000002
2.3261267830093857,0,0,1.39821376953125,0,0,0.53508
2.327513247000752,0,0,1.6543933471679686,0,0,0.53508
2.3288996379997116,0,0,1.4915876342773438,0,0,0.6115200000000001
2.3302907879988197,0,0,1.35990654296875,0,0,0.91728
2.33295732998522,0,0,1.0510545288085937,0,0,0.84084
2.3343403130129445,0,0,1.20667763671875,0,0,0.7644
2.33572994498536,0,0,1.3718775512695311,0,0,0.53508
2.3371169840102084,0,0,1.2832920898437499,0,0,0.99372
2.3385137819859665,0,0,1.4245499877929686,0,0,0.99372
2.3399028760031797,0,0,1.2785036865234374,0,0,0.7644
2.3412902299896814,0,0,1.3431471313476562,0,0,0.84084
2.3426770830119494,0,0,1.1061211669921875,0,0,0.68796
2.344067936995998,0,0,1.1252747802734375,0,0,0.45864
2.345454624010017,0,0,1.3120225097656248,0,0,0.0
2.3468472920067143,0,0,1.438915197753906,0,0,0.53508
2.3482345909869764,0,0,1.369483349609375,0,0,0.53508
2.349621333007235,0,0,1.3239935180664062,0,0,0.68796
2.351008705009008,0,0,1.35990654296875,0,0,1.07016
2.352394576999359,0,0,1.1755530151367186,0,0,1.1465999999999998
2.3537809870031197,0,0,1.1228805786132812,0,0,0.7644
2.35517198900925,0,0,1.1013327636718748,0,0,1.1465999999999998
2.3565580639988184,0,0,1.3551181396484375,0,0,0.7644
2.357944159011822,0,0,1.2904746948242187,0,0,0.7644
2.3593309379939456,0,0,1.6136919189453125,0,0,0.91728
2.3607174959906843,0,0,1.2761094848632812,0,0,0.84084
2.3621036460099276,0,0,1.4101847778320311,0,0,0.84084
2.3635125549917575,0,0,1.180341418457031,0,0,0.6115200000000001
2.364900649001356,0,0,1.1252747802734375,0,0,0.91728
2.3662939839996397,0,0,1.2521674682617188,0,0,0.45864
2.3676808190066367,0,0,1.3168109130859373,0,0,0.84084
2.369067747000372,0,0,1.4221557861328125,0,0,0.91728
2.370454563992098,0,0,1.2401964599609374,0,0,0.68796
2.3718407140113413,0,0,1.2617442749023438,0,0,1.07016
2.3732269190077204,0,0,1.2785036865234374,0,0,0.7644
2.3746135139954276,0,0,1.0941501586914062,0,0,0.91728
2.3759997189918067,0,0,1.2210428466796874,0,0,1.2994800000000002
2.37738586901105,0,0,1.3862427612304686,0,0,1.07016
2.378772371012019,0,0,1.2785036865234374,0,0,0.99372
2.3801586689951364,0,0,1.5346832641601562,0,0,0.68796
2.3815449670073576,0,0,1.2378022583007813,0,0,0.7644
2.3829327469866257,0,0,1.1851298217773436,0,0,0.84084
2.3843184710131027,0,0,1.1348515869140625,0,0,0.68796
2.3857048059871886,0,0,1.1875240234375,0,0,0.3822
2.3870920490007848,0,0,1.2689268798828124,0,0,0.0
2.388477475993568,0,0,1.3527239379882812,0,0,0.6115200000000001
2.3898635520017706,0,0,1.4772224243164063,0,0,0.6115200000000001
2.3912497390119825,0,0,1.4772224243164063,0,0,0.6115200000000001
2.3926379999902565,0,0,1.2976572998046874,0,0,1.2230400000000001
2.394024075998459,0,0,1.3168109130859373,0,0,1.1465999999999998
2.395410725992406,0,0,1.1372457885742187,0,0,0.7644
2.396796876011649,0,0,1.2234370483398436,0,0,1.2230400000000001
2.398183451994555,0,0,1.2282254516601563,0,0,0.68796
2.3995698429935146,0,0,1.3311761230468748,0,0,0.53508
2.400956233992474,0,0,1.6328455322265625,0,0,1.2230400000000001
2.40234280898585,0,0,1.3527239379882812,0,0,0.84084
2.40372932999162,0,0,1.3215993164062498,0,0,0.7644
2.405116406007437,0,0,1.1659762084960936,0,0,0.84084
2.406503073987551,0,0,1.1827356201171875,0,0,0.30576000000000003
2.4078892430115957,0,0,1.3359645263671873,0,0,0.0
2.409284614986973,0,0,1.2569558715820313,0,0,0.68796
2.410671246005222,0,0,1.5538368774414062,0,0,0.6115200000000001
2.412057748006191,0,0,1.426944189453125,0,0,0.3822
2.4134444720111787,0,0,1.3742717529296875,0,0,1.07016
2.414831400004914,0,0,1.1563994018554686,0,0,0.6115200000000001
2.4162219199934043,0,0,1.0606313354492187,0,0,0.84084
2.4176084589853417,0,0,1.2641384765625,0,0,1.37592
2.418995868007187,0,0,1.2282254516601563,0,0,0.84084
2.4203806850127876,0,0,1.4173673828125,0,0,0.7644
2.4217745380010456,0,0,1.5921441040039062,0,0,1.1465999999999998
2.4231620770005975,0,0,1.2641384765625,0,0,0.7644
2.4245480980025604,0,0,1.1875240234375,0,0,0.7644
2.4259345250029583,0,0,1.1037269653320312,0,0,0.84084
2.427321249007946,0,0,1.218648645019531,0,0,0.68796
2.4287077329936437,0,0,1.2928688964843749,0,0,0.0
2.430094048992032,0,0,1.5131354492187499,0,0,0.45864
2.4314804220048245,0,0,1.5658078857421873,0,0,0.68796
2.432866646006005,0,0,1.3000515014648437,0,0,0.6115200000000001
2.434253498999169,0,0,1.2785036865234374,0,0,0.68796
2.435639686009381,0,0,1.158793603515625,0,0,0.84084
2.437025557999732,0,0,1.1444283935546875,0,0,0.6115200000000001
2.438411820010515,0,0,1.20667763671875,0,0,1.2230400000000001
2.4397986179974396,0,0,1.39821376953125,0,0,0.6115200000000001
2.4411846569855697,0,0,1.235408056640625,0,0,0.30576000000000003
2.442570954997791,0,0,1.4891934326171874,0,0,1.1465999999999998
2.4439575310098007,0,0,1.3144167114257812,0,0,0.91728
2.445344050996937,0,0,1.1611878051757811,0,0,0.91728
2.4467313489876688,0,0,1.1372457885742187,0,0,0.91728
2.448122277011862,0,0,1.0965443603515623,0,0,0.22932
2.449508630001219,0,0,1.3910311645507811,0,0,0.6115200000000001
2.450895446992945,0,0,1.39821376953125,0,0,0.68796
2.4522815409873147,0,0,1.5466542724609373,0,0,0.7644
2.4536745799996424,0,0,1.3168109130859373,0,0,0.6115200000000001
2.455062174994964,0,0,1.2473790649414063,0,0,0.84084
2.4564477509993594,0,0,1.1133037719726562,0,0,0.84084
2.4578340300067794,0,0,1.0031704956054688,0,0,0.6115200000000001
2.459226401988417,0,0,1.2569558715820313,0,0,0.22932
2.460613497009035,0,0,1.3383587280273437,0,0,0.68796
2.4620001100120135,0,0,1.3239935180664062,0,0,0.99372
2.4633868710079696,0,0,1.3742717529296875,0,0,0.6115200000000001
2.464773649990093,0,0,1.2234370483398436,0,0,1.1465999999999998
2.46616072600591,0,0,1.3048399047851562,0,0,0.91728
2.4675625239906367,0,0,1.0414777221679687,0,0,0.99372
2.4689513409975916,0,0,1.0989385620117187,0,0,0.84084
2.4703383430023678,0,0,1.3527239379882812,0,0,0.7644
2.4717736770107877,0,0,1.3335703247070312,0,0,0.84084
2.473161400994286,0,0,1.455674609375,0,0,0.68796
2.474548383994261,0,0,1.2306196533203124,0,0,0.7644
2.4759354050038382,0,0,1.3718775512695311,0,0,0.84084
2.477322369988542,0,0,0.9552864624023437,0,0,0.91728
2.4787442779925186,0,0,1.0893617553710937,0,0,0.53508
2.480147797992686,0,0,1.3527239379882812,0,0,0.0
2.481535541010089,0,0,1.3000515014648437,0,0,0.30576000000000003
2.4829228759917896,0,0,1.3263877197265623,0,0,0.6115200000000001
2.4843090449867304,0,0,1.3407529296874998,0,0,0.6115200000000001
2.4856956389849074,0,0,1.2665326782226562,0,0,1.07016
2.487083232990699,0,0,1.3335703247070312,0,0,0.91728
2.4884694580105133,0,0,1.0941501586914062,0,0,1.07016
2.489856441010488,0,0,1.1707646118164061,0,0,1.5288
2.4912451280106325,0,0,1.37906015625,0,0,0.68796
2.4926313330070116,0,0,1.254561669921875,0,0,1.07016
2.4940178540127818,0,0,1.5897499023437498,0,0,1.1465999999999998
2.4954052809916902,0,0,1.3192051147460937,0,0,0.6115200000000001
2.49680748701212,0,0,1.3455413330078123,0,0,0.7644
2.498195580992615,0,0,1.1516109985351561,0,0,0.91728
2.499582916003419,0,0,1.0941501586914062,0,0,0.3822
2.5009696400084067,0,0,1.235408056640625,0,0,0.15288000000000002
2.5023569200129714,0,0,1.3359645263671873,0,0,0.68796
2.5037438290019054,0,0,1.43652099609375,0,0,0.45864
2.5051301089988556,0,0,1.6232687255859375,0,0,0.53508
2.506516499008285,0,0,1.2976572998046874,0,0,1.1465999999999998
2.5079031490022317,0,0,1.2521674682617188,0,0,0.84084
2.509289743989939,0,0,1.197100830078125,0,0,1.07016
2.5106765420059673,0,0,1.197100830078125,0,0,1.5288
2.51206348798587,0,0,1.3263877197265623,0,0,0.68796
2.5134501380089205,0,0,1.3383587280273437,0,0,0.68796
2.5148374179843813,0,0,1.4053963745117186,0,0,0.7644
2.5162232159927953,0,0,1.2593500732421874,0,0,0.84084
2.5176098099909723,0,0,1.2521674682617188,0,0,0.91728
2.5189968310005497,0,0,1.1276689819335937,0,0,0.84084
2.5203826100041624,0,0,1.2306196533203124,0,0,0.53508
2.5217691120051313,0,0,1.2401964599609374,0,0,0.0
2.523156151000876,0,0,1.3718775512695311,0,0,0.6115200000000001
2.524542189989006,0,0,1.6208745239257811,0,0,0.84084
2.525928783987183,0,0,1.5083470458984374,0,0,0.84084
2.5273152489971835,0,0,1.2425906616210938,0,0,0.99372
2.5287022319971584,0,0,1.2234370483398436,0,0,0.6115200000000001
2.5300887339981273,0,0,1.177947216796875,0,0,0.6115200000000001
2.531475458003115,0,0,1.2138602416992186,0,0,1.07016
2.532862071006093,0,0,1.2665326782226562,0,0,0.45864
2.5342486099980306,0,0,1.429338391113281,0,0,0.53508
2.5356306489848066,0,0,1.5442600708007812,0,0,0.68796
2.5370092619850766,0,0,1.2856862915039062,0,0,0.84084
2.5383949670067523,0,0,1.2928688964843749,0,0,0.91728
2.5397862289974,0,0,1.1085153686523437,0,0,0.6115200000000001
2.541179138002917,0,0,1.1563994018554686,0,0,0.84084
2.54256491700653,0,0,1.2976572998046874,0,0,0.15288000000000002
2.5439508449926507,0,0,1.2330138549804688,0,0,0.84084
2.5453365510038566,0,0,1.6543933471679686,0,0,0.68796
2.54672810799093,0,0,1.47482822265625,0,0,0.84084
2.548114406003151,0,0,1.3742717529296875,0,0,0.99372
2.549501389003126,0,0,1.1468225952148436,0,0,0.84084
2.5508903540030587,0,0,1.0845733520507812,0,0,0.68796
2.552275688998634,0,0,1.3479355346679687,0,0,0.84084
2.553661616984755,0,0,1.3072341064453123,0,0,0.6115200000000001
2.555048451991752,0,0,1.3431471313476562,0,0,0.3822
2.556433454010403,0,0,1.426944189453125,0,0,0.68796
2.557819640991511,0,0,1.1085153686523437,0,0,0.91728
2.5592065319942776,0,0,1.2138602416992186,0,0,0.6115200000000001
2.560592107998673,0,0,1.1037269653320312,0,0,0.91728
2.561978554003872,0,0,1.1133037719726562,0,0,0.6115200000000001
2.563364611007273,0,0,1.35990654296875,0,0,0.6115200000000001
2.5647503540094476,0,0,1.2425906616210938,0,0,0.91728
2.5661362819955684,0,0,1.637633935546875,0,0,0.68796
2.567523653997341,0,0,1.3838485595703125,0,0,0.68796
2.5689093040127773,0,0,1.2330138549804688,0,0,0.7644
2.570295009005349,0,0,1.1037269653320312,0,0,0.7644
2.5716808809957,0,0,1.1037269653320312,0,0,0.91728
2.573066568991635,0,0,1.2593500732421874,0,0,1.1465999999999998
2.5744521069864277,0,0,1.3646949462890625,0,0,0.6115200000000001
2.5758385169901885,0,0,1.3742717529296875,0,0,0.68796
2.577224036998814,0,0,1.4053963745117186,0,0,0.68796
2.5786095760122407,0,0,1.2952630981445312,0,0,0.99372
2.579995632986538,0,0,1.35990654296875,0,0,0.7644
2.5814027460000943,0,0,1.1635820068359375,0,0,0.15288000000000002
2.5836800700053573,0,0,1.3527239379882812,0,0,0.0
2.585088015999645,0,0,1.3024457031249999,0,0,0.3822
2.586477092001587,0,0,1.5179238525390624,0,0,0.3822
2.5878636309935246,0,0,1.426944189453125,0,0,0.53508
2.589249781012768,0,0,1.4030021728515625,0,0,1.07016
2.5906360980006866,0,0,1.2378022583007813,0,0,0.91728
2.592022155004088,0,0,1.2880804931640624,0,0,0.91728
2.59340786098619,0,0,1.1947066284179686,0,0,1.2994800000000002
2.5948013809975237,0,0,1.2282254516601563,0,0,0.53508
2.59618790098466,0,0,1.3455413330078123,0,0,0.84084
2.597581459005596,0,0,1.637633935546875,0,0,1.1465999999999998
2.598972442006925,0,0,1.4724340209960938,0,0,0.91728
2.6003574439964723,0,0,1.218648645019531,0,0,0.99372
2.6017429640050977,0,0,1.0726023437499999,0,0,0.84084
2.6031296880100854,0,0,1.20667763671875,0,0,0.45864
2.6045145420066547,0,0,1.4532804077148436,0,0,-9.47856
2.6059019319945946,0,0,1.4891934326171874,0,0,0.30576000000000003
2.6072884339955635,0,0,1.5729904907226562,0,0,0.30576000000000003
2.608674899005564,0,0,1.5179238525390624,0,0,0.45864
2.6100607340049464,0,0,1.2880804931640624,0,0,1.1465999999999998
2.6114479399984702,0,0,1.1947066284179686,0,0,0.91728
2.6128336820111144,0,0,0.9720458740234375,0,0,0.91728
2.614219442999456,0,0,1.3000515014648437,0,0,1.5288
2.615605611994397,0,0,1.2785036865234374,0,0,1.07016
2.616991262009833,0,0,1.2856862915039062,0,0,1.2994800000000002
2.618376727012219,0,0,1.62805712890625,0,0,1.2230400000000001
2.6197624689957593,0,0,1.2330138549804688,0,0,1.07016
2.621147933998145,0,0,1.3335703247070312,0,0,0.84084
2.6225334359914996,0,0,1.1085153686523437,0,0,0.68796
2.6239190489868633,0,0,1.1061211669921875,0,0,0.45864
2.625304662011331,0,0,1.3311761230468748,0,0,0.07644000000000001
2.626690200995654,0,0,1.2425906616210938,0,0,0.53508
2.628077536006458,0,0,1.5849614990234373,0,0,0.45864
2.6294705559848808,0,0,1.3742717529296875,0,0,0.30576000000000003
2.6308573730057105,0,0,1.3311761230468748,0,0,0.7644
2.6322422260127496,0,0,1.2521674682617188,0,0,0.84084
2.6336282650008798,0,0,1.20667763671875,0,0,0.99372
2.635014859988587,0,0,1.3072341064453123,0,0,1.2994800000000002
2.636400010000216,0,0,1.3646949462890625,0,0,0.7644
2.6377858449995983,0,0,1.2473790649414063,0,0,0.68796
2.6391727729933336,0,0,1.5179238525390624,0,0,0.7644
2.6405579969868995,0,0,1.2665326782226562,0,0,1.2994800000000002
2.6419464979844633,0,0,1.2832920898437499,0,0,0.91728
2.6433326299884357,0,0,1.0989385620117187,0,0,0.91728
2.644718521012692,0,0,1.2138602416992186,0,0,0.6115200000000001
2.646104726009071,0,0,1.3335703247070312,0,0,0.0
2.6474923199857585,0,0,1.3742717529296875,0,0,0.3822
2.648877933010226,0,0,1.2737152832031249,0,0,0.45864
2.6502642320119776,0,0,1.2473790649414063,0,0,0.84084
2.651650048006559,0,0,1.3024457031249999,0,0,0.68796
2.653035624010954,0,0,1.1013327636718748,0,0,0.68796
2.6544214409950655,0,0,1.0917559570312498,0,0,0.6115200000000001
2.6558150349883363,0,0,1.2234370483398436,0,0,0.99372
2.6572048520029057,0,0,1.369483349609375,0,0,0.45864
2.6585910200083163,0,0,1.2425906616210938,0,0,0.84084
2.6599769110034686,0,0,1.4867992309570313,0,0,0.91728
2.661362598009873,0,0,1.3311761230468748,0,0,0.7644
2.66274948901264,0,0,1.3192051147460937,0,0,0.84084
2.664136342005804,0,0,1.0414777221679687,0,0,0.3822
2.6655220850079786,0,0,1.13006318359375,0,0,0.84084
2.6669092350057326,0,0,1.3718775512695311,0,0,0.22932
2.668299440003466,0,0,1.2785036865234374,0,0,0.53508
2.66968523801188,0,0,1.4006079711914061,0,0,0.53508
2.6710728140024003,0,0,1.199495031738281,0,0,0.99372
2.6724707419925835,0,0,1.2856862915039062,0,0,0.91728
2.673857780988328,0,0,1.2497732666015624,0,0,1.1465999999999998
2.675244523008587,0,0,1.0917559570312498,0,0,0.7644
2.676630561996717,0,0,1.139639990234375,0,0,0.91728
2.6780167859978974,0,0,1.3766659545898436,0,0,0.84084
2.679403121001087,0,0,1.3000515014648437,0,0,0.53508
2.6807892709912267,0,0,1.4700398193359374,0,0,0.45864
2.682177420996595,0,0,1.3048399047851562,0,0,0.99372
2.6835638489865232,0,0,1.1516109985351561,0,0,0.84084
2.6849499809904955,0,0,1.1228805786132812,0,0,0.91728
2.6863360749848653,0,0,1.1875240234375,0,0,0.91728
2.6877250210091006,0,0,1.2928688964843749,0,0,0.68796
2.6893508159846533,0,0,1.3407529296874998,0,0,1.07016
2.6908748539863154,0,0,1.6807295654296874,0,0,0.91728
2.6933721379900817,0,0,1.2617442749023438,0,0,1.07016
2.694783546990948,0,0,1.3766659545898436,0,0,0.84084
2.6961719570099376,0,0,1.1827356201171875,0,0,0.45864
2.6975586809858214,0,0,1.3431471313476562,0,0,0.7644
2.6989455159928184,0,0,1.3263877197265623,0,0,0.3822
2.700331202999223,0,0,1.4101847778320311,0,0,0.30576000000000003
2.701727853011107,0,0,1.5897499023437498,0,0,0.68796
2.7031142250052653,0,0,1.3120225097656248,0,0,0.7644
2.704500227002427,0,0,1.0989385620117187,0,0,0.84084
2.705886246985756,0,0,1.1875240234375,0,0,0.91728
2.707273267005803,0,0,1.216254443359375,0,0,0.99372
2.708659288007766,0,0,1.2641384765625,0,0,0.53508
2.7100455299951136,0,0,1.2832920898437499,0,0,1.07016
2.711429994989885,0,0,1.6017209106445311,0,0,1.07016
2.7128134969971143,0,0,1.4030021728515625,0,0,0.91728
2.714197664987296,0,0,1.2737152832031249,0,0,0.7644
2.7156278520124033,0,0,1.1180921752929687,0,0,0.68796
2.717016649985453,0,0,1.189918225097656,0,0,0.6115200000000001
2.7184108000074048,0,0,1.3144167114257812,0,0,0.07644000000000001
2.719798542006174,0,0,1.4628572143554686,0,0,0.30576000000000003
2.721185341011733,0,0,1.5466542724609373,0,0,0.3822
2.722572434984613,0,0,1.458068811035156,0,0,0.68796
2.723959900002228,0,0,1.350329736328125,0,0,1.2994800000000002
2.725346641993383,0,0,1.3359645263671873,0,0,0.91728
2.7267340139951557,0,0,1.139639990234375,0,0,1.07016
2.7281210719957016,0,0,1.3311761230468748,0,0,0.99372
2.729508165997686,0,0,1.3263877197265623,0,0,0.7644
2.730895871995017,0,0,1.3287819213867187,0,0,0.7644
2.7322822810092475,0,0,1.6256629272460936,0,0,0.7644
2.733669153007213,0,0,1.3455413330078123,0,0,0.99372
2.735056155011989,0,0,1.3646949462890625,0,0,1.1465999999999998
2.736442230991088,0,0,1.2737152832031249,0,0,0.6115200000000001
2.7378306399914436,0,0,1.189918225097656,0,0,0.6115200000000001
2.7392189569945913,0,0,1.35990654296875,0,0,0.0
2.740605922008399,0,0,1.484405029296875,0,0,0.53508
2.741992683004355,0,0,1.5777788940429687,0,0,0.53508
2.7433793699892703,0,0,1.4173673828125,0,0,0.68796
2.7447663159982767,0,0,1.24498486328125,0,0,1.1465999999999998
2.746153318003053,0,0,1.24498486328125,0,0,1.07016
2.747540226991987,0,0,1.199495031738281,0,0,-8.867040000000001
2.748928913992131,0,0,1.3311761230468748,0,0,1.1465999999999998
2.7503161010099575,0,0,1.3838485595703125,0,0,0.91728
2.7517020470113494,0,0,1.3215993164062498,0,0,0.7644
2.7530888080073055,0,0,1.5322890624999999,0,0,0.91728
2.7544754210102838,0,0,1.1252747802734375,0,0,1.07016
2.7558622189972084,0,0,1.3407529296874998,0,0,0.3822
2.757249405985931,0,0,1.149216796875,0,0,0.91728
2.7586358900007326,0,0,1.2210428466796874,0,0,0.6115200000000001
2.7600227060029283,0,0,1.2880804931640624,0,0,0.22932
2.761419466987718,0,0,1.3479355346679687,0,0,0.45864
2.762829894985771,0,0,1.3766659545898436,0,0,0.7644
2.764216988987755,0,0,1.2808978881835937,0,0,0.53508
2.7656040459987707,0,0,1.2952630981445312,0,0,1.07016
2.766998473991407,0,0,1.158793603515625,0,0,0.91728
2.7683855679933913,0,0,1.1516109985351561,0,0,0.84084
2.7697724220051896,0,0,1.209071838378906,0,0,0.99372
2.7711603679927066,0,0,1.3168109130859373,0,0,0.7644
2.7725460740039125,0,0,1.235408056640625,0,0,0.91728
2.773945371998707,0,0,1.5251064575195312,0,0,0.7644
2.775332780991448,0,0,1.3551181396484375,0,0,0.7644
2.7767195609922055,0,0,1.3551181396484375,0,0,1.07016
2.7781060069974046,0,0,1.0678139404296874,0,0,0.68796
2.7794926569913514,0,0,1.1180921752929687,0,0,0.45864
2.7808787699905224,0,0,1.3359645263671873,0,0,0.07644000000000001
2.782265419984469,0,0,1.3144167114257812,0,0,0.45864
2.7836538850096986,0,0,1.22583125,0,0,0.68796
2.7850405529898126,0,0,1.2569558715820313,0,0,0.84084
2.7864272959996015,0,0,1.4221557861328125,0,0,0.99372
2.7878141310065985,0,0,1.01514150390625,0,0,0.99372
2.789200855011586,0,0,1.1037269653320312,0,0,0.53508
2.7905864490021486,0,0,1.1109095703125,0,0,0.91728
2.7919730069988873,0,0,1.3479355346679687,0,0,0.7644
2.793359583010897,0,0,1.3479355346679687,0,0,0.6115200000000001
2.794746881001629,0,0,1.678335363769531,0,0,0.68796
2.796134511998389,0,0,1.235408056640625,0,0,1.1465999999999998
2.797521013999358,0,0,1.3024457031249999,0,0,0.45864
2.7989081270061433,0,0,1.0654197387695312,0,0,0.53508
2.800294202985242,0,0,1.1707646118164061,0,0,0.7644
2.801680964010302,0,0,1.20667763671875,0,0,0.07644000000000001
2.8030679099902045,0,0,1.3215993164062498,0,0,0.7644
2.804454171011457,0,0,1.4053963745117186,0,0,0.7644
2.8058470620017033,0,0,1.2785036865234374,0,0,0.91728
2.8072468969912734,0,0,1.4221557861328125,0,0,0.84084
2.8086336579872295,0,0,1.2425906616210938,0,0,0.84084
2.81001988198841,0,0,1.189918225097656,0,0,0.45864
2.811406624998199,0,0,1.369483349609375,0,0,0.91728
2.812793625984341,0,0,1.3551181396484375,0,0,0.6115200000000001
2.8141792390088085,0,0,1.3239935180664062,0,0,0.6115200000000001
2.815565925993724,0,0,1.5586252807617187,0,0,0.7644
2.816953002009541,0,0,1.3862427612304686,0,0,0.91728
2.8183394669904374,0,0,1.2282254516601563,0,0,0.7644
2.8197260060114786,0,0,1.3120225097656248,0,0,0.6115200000000001
2.8211127299873624,0,0,1.2569558715820313,0,0,0.84084
2.8224993610056117,0,0,1.3766659545898436,0,0,0.0
2.8238856219977606,0,0,1.2378022583007813,0,0,0.84084
2.8252723650075495,0,0,1.6017209106445311,0,0,0.7644
2.82665858900873,0,0,1.43652099609375,0,0,0.91728
2.8280452390026767,0,0,1.3263877197265623,0,0,0.6115200000000001
2.8294313520018477,0,0,1.1348515869140625,0,0,0.91728
2.8308194460114464,0,0,1.1827356201171875,0,0,0.53508
2.8322274849924725,0,0,1.369483349609375,0,0,-9.47856
2.8339662599901203,0,0,1.3383587280273437,0,0,0.45864
2.8353672990051564,0,0,1.39821376953125,0,0,0.53508
2.8367560599872377,0,0,1.2952630981445312,0,0,0.45864
2.8381460059899837,0,0,1.2928688964843749,0,0,0.99372
2.839535267004976,0,0,1.1324573852539062,0,0,0.84084
2.8409224729985,0,0,1.0845733520507812,0,0,0.84084
2.842309400992235,0,0,1.177947216796875,0,0,1.07016
2.8436905140115414,0,0,1.2306196533203124,0,0,0.99372
2.845069181988947,0,0,1.2976572998046874,0,0,0.91728
2.846479480009293,0,0,1.659181750488281,0,0,0.7644
2.8478842960030306,0,0,1.2234370483398436,0,0,1.1465999999999998
2.8492917050025426,0,0,1.2234370483398436,0,0,0.84084
2.850680373987416,0,0,1.0773907470703123,0,0,0.53508
2.8520681349909864,0,0,1.1348515869140625,0,0,0.7644
2.8534558590035886,0,0,1.2378022583007813,0,0,-0.15288000000000002
2.8548439719888847,0,0,1.2928688964843749,0,0,0.45864
2.856230676989071,0,0,1.5610194824218748,0,0,0.45864
2.8576175310008693,0,0,1.6041151123046875,0,0,0.68796
2.859002885001246,0,0,1.3144167114257812,0,0,1.07016
2.860380627011182,0,0,1.1013327636718748,0,0,0.91728
2.8617591290094424,0,0,1.1037269653320312,0,0,0.84084
2.863146168005187,0,0,1.2521674682617188,0,0,1.2230400000000001
2.864532595995115,0,0,1.5035586425781249,0,0,0.84084
2.865919042000314,0,0,1.3742717529296875,0,0,0.91728
2.867314784991322,0,0,1.5849614990234373,0,0,0.91728
2.8686994159943424,0,0,1.2808978881835937,0,0,0.99372
2.870086065988289,0,0,1.3096283081054687,0,0,0.68796
2.8714783460018225,0,0,1.1611878051757811,0,0,0.84084
2.8728639220062178,0,0,1.2330138549804688,0,0,0.53508
2.8742491459997837,0,0,1.3096283081054687,0,0,0.22932
2.8756352399941534,0,0,1.4987702392578124,0,0,0.45864
2.877029870986007,0,0,1.5251064575195312,0,0,0.91728
2.8784164290118497,0,0,1.3718775512695311,0,0,0.7644
2.879803430987522,0,0,1.2473790649414063,0,0,1.07016
2.8811901730077807,0,0,1.1540052001953125,0,0,0.84084
2.8825761940097436,0,0,0.9265560424804687,0,0,0.53508
2.8839623619860504,0,0,1.1611878051757811,0,0,0.68796
2.885348456009524,0,0,1.4173673828125,0,0,0.68796
2.886734477011487,0,0,1.649604943847656,0,0,0.68796
2.8881458670075517,0,0,1.6328455322265625,0,0,0.99372
2.889526184007991,0,0,1.3479355346679687,0,0,1.2994800000000002
2.8909566669899505,0,0,1.2042834350585936,0,0,1.07016
2.8923452429880854,0,0,1.1947066284179686,0,0,0.99372
2.8937394479871728,0,0,1.199495031738281,0,0,0.91728
2.89512800500961,0,0,1.3359645263671873,0,0,0.07644000000000001
2.896514266001759,0,0,1.3646949462890625,0,0,0.91728
2.8979020089900587,0,0,1.608903515625,0,0,0.7644
2.8992895289848093,0,0,1.2617442749023438,0,0,0.68796
2.9006763270008378,0,0,1.2378022583007813,0,0,0.84084
2.9020635329943616,0,0,1.024718310546875,0,0,0.45864
2.9034554419922642,0,0,0.9624690673828125,0,0,0.45864
2.9048924619855825,0,0,1.3814543579101561,0,0,1.2994800000000002
2.906274000997655,0,0,1.455674609375,0,0,0.53508
2.9077268539986107,0,0,1.5969325073242187,0,0,0.53508
2.90911435498856,0,0,1.4963760375976562,0,0,1.07016
2.910501023987308,0,0,1.3168109130859373,0,0,0.91728
2.9118874699925072,0,0,1.2473790649414063,0,0,1.07016
2.913273804995697,0,0,1.0845733520507812,0,0,0.91728
2.9146601220127195,0,0,1.2521674682617188,0,0,1.2230400000000001
2.916046975995414,0,0,1.4245499877929686,0,0,0.7644
2.917432921996806,0,0,1.2785036865234374,0,0,0.68796
2.918819682992762,0,0,1.5682020874023437,0,0,0.68796
2.9202059069939423,0,0,1.3407529296874998,0,0,0.99372
2.92159238999011,0,0,1.3263877197265623,0,0,1.07016
2.922979874012526,0,0,1.0941501586914062,0,0,0.7644
2.924364950013114,0,0,1.216254443359375,0,0,0.84084
2.925751617993228,0,0,1.2521674682617188,0,0,0.3822
2.927138823986752,0,0,1.3814543579101561,0,0,0.45864
2.928524251008639,0,0,1.369483349609375,0,0,0.45864
2.9300196040130686,0,0,1.4508862060546874,0,0,0.68796
2.931409087002976,0,0,1.3407529296874998,0,0,1.07016
2.9327943850075826,0,0,1.2306196533203124,0,0,0.99372
2.9341797759989277,0,0,1.1085153686523437,0,0,0.7644
2.9355657779960893,0,0,1.1133037719726562,0,0,0.99372
2.93696574200294,0,0,1.3551181396484375,0,0,0.45864
2.938352355005918,0,0,1.3646949462890625,0,0,0.91728
2.9397390790109057,0,0,1.5442600708007812,0,0,0.84084
2.9411246179952286,0,0,1.2401964599609374,0,0,0.68796
2.942509971995605,0,0,1.2761094848632812,0,0,0.91728
2.9438952330092434,0,0,1.158793603515625,0,0,0.91728
2.9452809010108467,0,0,1.1372457885742187,0,0,0.84084
2.9466663479979616,0,0,1.2713210815429687,0,0,0.45864
2.948052182997344,0,0,1.2713210815429687,0,0,0.0
2.9494454439845867,0,0,1.5251064575195312,0,0,0.84084
2.950835816009203,0,0,1.2976572998046874,0,0,0.6115200000000001
2.952221373008797,0,0,1.2617442749023438,0,0,0.91728
2.9536069860041607,0,0,1.1516109985351561,0,0,0.68796
2.9549934880051296,0,0,1.1252747802734375,0,0,0.6115200000000001
2.956378267990658,0,0,1.189918225097656,0,0,0.99372
2.957763899001293,0,0,1.407790576171875,0,0,0.6115200000000001
2.959150493989,0,0,1.3455413330078123,0,0,0.7644
2.9605359960114583,0,0,1.5825672973632812,0,0,0.91728
2.9619223490008153,0,0,1.2521674682617188,0,0,0.91728
2.9633078509941697,0,0,1.22583125,0,0,0.84084
2.9646934829943348,0,0,1.1037269653320312,0,0,0.68796
2.9660796700045466,0,0,1.1875240234375,0,0,0.84084
2.9674655600101687,0,0,1.2593500732421874,0,0,0.3822
2.968851265992271,0,0,1.35990654296875,0,0,0.68796
2.970237416011514,0,0,1.5322890624999999,0,0,0.84084
2.971623176999856,0,0,1.2330138549804688,0,0,0.7644
2.9730086970084812,0,0,1.2856862915039062,0,0,0.99372
2.9743949770054314,0,0,1.209071838378906,0,0,0.7644
2.975781070999801,0,0,1.0366893188476562,0,0,0.68796
2.977167072996963,0,0,1.3718775512695311,0,0,0.99372
2.9785525379993487,0,0,1.2425906616210938,0,0,0.84084
2.9799380030017346,0,0,1.4125789794921875,0,0,0.45864
2.981330115988385,0,0,1.5562310791015623,0,0,1.1465999999999998
2.982716894999612,0,0,1.3383587280273437,0,0,0.99372
2.9841029710078146,0,0,1.2593500732421874,0,0,0.7644
2.98548854701221,0,0,1.1085153686523437,0,0,0.68796
2.986875622998923,0,0,1.2042834350585936,0,0,0.68796
2.988260309997713,0,0,1.3407529296874998,0,0,0.15288000000000002
2.989645866997307,0,0,1.2473790649414063,0,0,0.68796
2.991032183985226,0,0,1.5083470458984374,0,0,0.53508
2.992417278001085,0,0,1.4532804077148436,0,0,0.84084
2.99380315101007,0,0,1.22583125,0,0,0.91728
2.995189651992405,0,0,1.1372457885742187,0,0,0.91728
2.996574821008835,0,0,1.1659762084960936,0,0,0.68796
2.997960618988145,0,0,1.2785036865234374,0,0,-8.63772
2.999348935991293,0,0,1.254561669921875,0,0,0.91728
3.000735234003514,0,0,1.4053963745117186,0,0,0.6115200000000001
3.00212045799708,0,0,1.5849614990234373,0,0,1.2994800000000002
3.0035137189843226,0,0,1.2713210815429687,0,0,1.1465999999999998
3.004896831989754,0,0,1.1875240234375,0,0,1.07016
3.006282093003392,0,0,1.1731588134765625,0,0,1.07016
3.007677427987801,0,0,1.235408056640625,0,0,0.45864
3.009063856006833,0,0,1.3335703247070312,0,0,0.0
3.0104499319859315,0,0,1.4772224243164063,0,0,0.53508
3.0118357299943455,0,0,1.5753846923828123,0,0,0.6115200000000001
3.0132216199999675,0,0,1.465251416015625,0,0,0.53508
3.014607363002142,0,0,1.3096283081054687,0,0,1.1465999999999998
3.015993142995285,0,0,1.1037269653320312,0,0,0.84084
3.0173788300016895,0,0,1.0103531005859374,0,0,0.6115200000000001
3.0187653680040967,0,0,1.218648645019531,0,0,1.5288
3.020150703989202,0,0,1.47482822265625,0,0,0.7644
3.0215364650066476,0,0,1.455674609375,0,0,0.6115200000000001
3.022922503994778,0,0,1.5251064575195312,0,0,0.99372
3.0243140049860813,0,0,1.2689268798828124,0,0,1.1465999999999998
3.025700341007905,0,0,1.2401964599609374,0,0,0.7644
3.027086452988442,0,0,1.1635820068359375,0,0,0.84084
3.0284718069888186,0,0,1.1109095703125,0,0,0.30576000000000003
3.029858197987778,0,0,1.3168109130859373,0,0,0.22932
3.0312443480070215,0,0,1.2665326782226562,0,0,0.3822
3.0326297569845337,0,0,1.659181750488281,0,0,0.53508
3.0340154810110107,0,0,1.350329736328125,0,0,0.84084
3.0354019459919073,0,0,1.3287819213867187,0,0,0.91728
3.036805262003327,0,0,1.2473790649414063,0,0,0.99372
3.0381919119972736,0,0,1.1947066284179686,0,0,0.91728
3.039577840012498,0,0,1.3192051147460937,0,0,0.68796
3.0409637859847862,0,0,1.35990654296875,0,0,0.84084
3.042349510011263,0,0,1.2401964599609374,0,0,0.53508
3.043735604995163,0,0,1.4987702392578124,0,0,0.84084
3.0451207729929592,0,0,1.3575123413085937,0,0,0.99372
3.0465065340104047,0,0,1.3168109130859373,0,0,0.6115200000000001
3.047892906994093,0,0,1.1563994018554686,0,0,0.7644
3.049278519989457,0,0,1.0893617553710937,0,0,0.99372
3.0506636509962846,0,0,1.4341267944335936,0,0,0.07644000000000001
3.052060337999137,0,0,1.4221557861328125,0,0,0.45864
3.053447154990863,0,0,1.4772224243164063,0,0,0.30576000000000003
3.0548335450002924,0,0,1.35990654296875,0,0,0.7644
3.0562190469936468,0,0,1.2880804931640624,0,0,0.68796
3.057604864006862,0,0,1.13006318359375,0,0,0.7644
3.058991069003241,0,0,1.0893617553710937,0,0,0.7644
3.060376053006621,0,0,1.3215993164062498,0,0,0.6115200000000001
3.061761110002408,0,0,1.388636962890625,0,0,0.68796
3.0631469269865192,0,0,1.2306196533203124,0,0,0.84084
3.06453198401141,0,0,1.3431471313476562,0,0,0.68796
3.0659278559905943,0,0,1.3646949462890625,0,0,1.37592
3.0675615399959497,0,0,1.1947066284179686,0,0,1.07016
3.068968559993664,0,0,1.1276689819335937,0,0,0.91728
3.070355487987399,0,0,1.1611878051757811,0,0,0.84084
3.0717452490061987,0,0,1.3623007446289062,0,0,0.6115200000000001
3.0731486580043565,0,0,1.3551181396484375,0,0,0.53508
3.0745345120085403,0,0,1.4939818359375,0,0,0.99372
3.075920587987639,0,0,1.235408056640625,0,0,0.99372
3.077306218998274,0,0,1.2330138549804688,0,0,0.7644
3.078691461996641,0,0,1.0941501586914062,0,0,0.91728
3.080079796985956,0,0,1.1755530151367186,0,0,0.53508
3.0814646320068277,0,0,1.3455413330078123,0,0,0.6115200000000001
3.0833495350088924,0,0,1.4724340209960938,0,0,0.91728
3.0847908330033533,0,0,1.618480322265625,0,0,0.91728
3.0861810199858155,0,0,1.2401964599609374,0,0,0.84084
3.087568799004657,0,0,1.2473790649414063,0,0,0.91728
3.0889555600006133,0,0,1.1875240234375,0,0,0.7644
3.0903420069953427,0,0,1.1180921752929687,0,0,0.6115200000000001
3.0917286009935196,0,0,1.22583125,0,0,0.6115200000000001
3.0931150100077502,0,0,1.2737152832031249,0,0,0.6115200000000001
3.0945012340089306,0,0,1.5610194824218748,0,0,0.53508
3.0958878099918365,0,0,1.455674609375,0,0,0.91728
3.0972735899849795,0,0,1.3263877197265623,0,0,0.68796
3.0986595359863713,0,0,1.1348515869140625,0,0,1.07016
3.100045705010416,0,0,1.180341418457031,0,0,0.84084
3.10143126201001,0,0,1.3144167114257812,0,0,0.91728
3.1028191710065585,0,0,1.3766659545898436,0,0,0.6115200000000001
3.10420498799067,0,0,1.2473790649414063,0,0,0.99372
3.1055901380022988,0,0,1.4437036010742186,0,0,0.6115200000000001
3.1069768060115166,0,0,1.2928688964843749,0,0,0.7644
3.108361679012887,0,0,1.2306196533203124,0,0,0.6115200000000001
3.1097471620014403,0,0,1.1851298217773436,0,0,0.7644
3.1111337379843462,0,0,1.216254443359375,0,0,0.22932
3.1125383689941373,0,0,1.3096283081054687,0,0,0.0
3.1139244259975385,0,0,1.350329736328125,0,0,0.45864
3.115311447007116,0,0,1.3000515014648437,0,0,0.45864
3.1166972260107286,0,0,1.4006079711914061,0,0,0.6115200000000001
3.118082580011105,0,0,1.2832920898437499,0,0,1.07016
3.1194685630034655,0,0,1.2210428466796874,0,0,1.1465999999999998
3.1208541950036306,0,0,1.177947216796875,0,0,0.91728
3.122241918987129,0,0,1.3479355346679687,0,0,1.2994800000000002
3.123628697998356,0,0,1.37906015625,0,0,0.6115200000000001
3.125021662999643,0,0,1.24498486328125,0,0,0.68796
3.1264078870008234,0,0,1.484405029296875,0,0,0.91728
3.1277937960112467,0,0,1.1923124267578125,0,0,0.84084
3.1291795389843173,0,0,1.3766659545898436,0,0,0.68796
3.1305647070112173,0,0,1.1156979736328125,0,0,0.53508
3.1319507650041487,0,0,1.158793603515625,0,0,0.45864
3.133336285012774,0,0,1.2378022583007813,0,0,-0.22932
3.134723656985443,0,0,1.2976572998046874,0,0,0.30576000000000003
3.1361077520123217,0,0,1.2401964599609374,0,0,0.6115200000000001
3.1374919939844403,0,0,1.2761094848632812,0,0,0.7644
3.1389200139965396,0,0,1.2689268798828124,0,0,1.1465999999999998
3.1403074789850507,0,0,1.2569558715820313,0,0,0.99372
3.141702166001778,0,0,1.0869675537109373,0,0,0.68796
3.1430924639862496,0,0,1.1516109985351561,0,0,1.2994800000000002
3.1444774660049006,0,0,1.369483349609375,0,0,0.91728
3.1458630230044946,0,0,1.3263877197265623,0,0,0.7644
3.147256803000346,0,0,1.5490484741210937,0,0,0.99372
3.148642860003747,0,0,1.2521674682617188,0,0,1.07016
3.1500288429961074,0,0,1.2952630981445312,0,0,0.84084
3.1514144190005027,0,0,1.1444283935546875,0,0,0.6115200000000001
3.152799828996649,0,0,1.1731588134765625,0,0,0.6115200000000001
3.1541852930095047,0,0,1.3766659545898436,0,0,0.0
3.1555709250096697,0,0,1.2689268798828124,0,0,0.30576000000000003
3.1569712409982458,0,0,1.4772224243164063,0,0,0.30576000000000003
3.1583574099931866,0,0,1.2473790649414063,0,0,0.53508
3.1597435410076287,0,0,1.4101847778320311,0,0,1.1465999999999998
3.1611288390122354,0,0,1.2952630981445312,0,0,0.99372
3.162514749012189,0,0,1.0462661254882812,0,0,1.07016
3.163900768995518,0,0,1.2042834350585936,0,0,1.1465999999999998
3.1652862709888723,0,0,1.235408056640625,0,0,0.68796
3.1666715320025105,0,0,1.3407529296874998,0,0,0.99372
3.1680580340034794,0,0,1.5969325073242187,0,0,0.7644
3.1694434430100955,0,0,1.3000515014648437,0,0,0.91728
3.170829648996005,0,0,1.3192051147460937,0,0,0.7644
3.172215075988788,0,0,1.3670891479492187,0,0,0.68796
3.1736005599959753,0,0,1.180341418457031,0,0,0.45864
3.1750055240117945,0,0,1.4891934326171874,0,0,0.0
3.1764185260108206,0,0,1.3431471313476562,0,0,0.68796
3.1778051019937266,0,0,1.5442600708007812,0,0,0.7644
3.1791920659889,0,0,1.465251416015625,0,0,0.91728
3.1805778270063456,0,0,1.3000515014648437,0,0,1.1465999999999998
3.181963495997479,0,0,1.209071838378906,0,0,0.84084
3.1833667200116906,0,0,1.180341418457031,0,0,0.53508
3.184753351000836,0,0,1.2952630981445312,0,0,1.37592
3.1861394089937676,0,0,1.4053963745117186,0,0,0.30576000000000003
3.187525096000172,0,0,1.419761584472656,0,0,0.53508
3.188910560013028,0,0,1.5586252807617187,0,0,0.84084
3.1902961359883193,0,0,1.2401964599609374,0,0,0.91728
3.191681508993497,0,0,1.2282254516601563,0,0,0.68796
3.1930670290021226,0,0,1.2114660400390624,0,0,0.99372
3.194452716008527,0,0,1.2497732666015624,0,0,0.84084
3.195838810002897,0,0,1.35990654296875,0,0,0.0
3.1972243310010526,0,0,1.4700398193359374,0,0,0.7644
3.198609832994407,0,0,1.5945383056640625,0,0,0.68796
3.2000018160033505,0,0,1.4413093994140624,0,0,0.99372
3.2013885769993067,0,0,1.3551181396484375,0,0,0.6115200000000001
3.2027755420131143,0,0,1.209071838378906,0,0,0.68796
3.2041606919956394,0,0,1.209071838378906,0,0,0.68796
3.2055462489952333,0,0,1.2330138549804688,0,0,0.99372
3.2069323059986345,0,0,1.3718775512695311,0,0,0.68796
3.208317734010052,0,0,1.5155296508789062,0,0,0.3822
3.2097034770122264,0,0,1.4987702392578124,0,0,0.91728
3.2110897559905425,0,0,1.1947066284179686,0,0,1.07016
3.212474703002954,0,0,1.2306196533203124,0,0,0.84084
3.213860760006355,0,0,1.0773907470703123,0,0,0.45864
3.215246614010539,0,0,1.216254443359375,0,0,0.53508
3.2166321160038933,0,0,1.3646949462890625,0,0,0.68796
3.218017636012519,0,0,1.4149731811523436,0,0,0.7644
3.219403433991829,0,0,1.659181750488281,0,0,0.45864
3.2207891030120663,0,0,1.2785036865234374,0,0,0.30576000000000003
3.222174808004638,0,0,1.3718775512695311,0,0,0.84084
3.223560606013052,0,0,1.20667763671875,0,0,0.6115200000000001
3.2249464229971636,0,0,1.0917559570312498,0,0,0.30576000000000003
3.2263317210017703,0,0,1.3431471313476562,0,0,1.37592
3.2277170380111784,0,0,1.458068811035156,0,0,0.53508
3.229102873010561,0,0,1.3527239379882812,0,0,0.91728
3.2304880600131582,0,0,1.5562310791015623,0,0,1.07016
3.231873617012752,0,0,1.3646949462890625,0,0,1.07016
3.2332589710131288,0,0,1.2737152832031249,0,0,0.84084
3.2346444170107134,0,0,1.0989385620117187,0,0,0.53508
3.236028751998674,0,0,1.120486376953125,0,0,0.84084
3.2374416060047224,0,0,1.3455413330078123,0,0,0.53508
3.238921254989691,0,0,1.3024457031249999,0,0,0.68796
3.240333274996374,0,0,1.5514426757812498,0,0,0.99372
3.241752683010418,0,0,1.2832920898437499,0,0,1.1465999999999998
3.2431421850051265,0,0,1.254561669921875,0,0,0.91728
3.2445358539989684,0,0,1.1372457885742187,0,0,0.91728
3.2459214300033636,0,0,1.1276689819335937,0,0,0.84084
3.2473074680019636,0,0,1.3670891479492187,0,0,0.30576000000000003
3.2486928410071414,0,0,1.4245499877929686,0,0,0.6115200000000001
3.2500785090087447,0,0,1.3048399047851562,0,0,0.53508
3.2514649000077043,0,0,1.3814543579101561,0,0,0.6115200000000001
3.2528501790075097,0,0,1.2497732666015624,0,0,0.91728
3.254235736996634,0,0,1.158793603515625,0,0,1.07016
3.255621313001029,0,0,1.0319009155273438,0,0,0.84084
3.2570075179974083,0,0,1.180341418457031,0,0,1.37592
3.258393038995564,0,0,1.3958195678710936,0,0,0.91728
3.259778854990145,0,0,1.254561669921875,0,0,0.99372
3.2611647270096,0,0,1.6208745239257811,0,0,0.91728
3.2625509520003106,0,0,1.2665326782226562,0,0,0.84084
3.263936453004135,0,0,1.2282254516601563,0,0,0.84084
3.2653267880086787,0,0,1.1324573852539062,0,0,0.7644
3.266714030993171,0,0,1.0989385620117187,0,0,0.15288000000000002
3.2681000329903327,0,0,1.1180921752929687,0,0,0.0
3.269493200990837,0,0,1.37906015625,0,0,0.53508
3.2708792029879987,0,0,1.3383587280273437,0,0,0.6115200000000001
3.272268909000559,0,0,1.3263877197265623,0,0,0.53508
3.2736546139931306,0,0,1.24498486328125,0,0,1.07016
3.275040448992513,0,0,1.2521674682617188,0,0,1.07016
3.2764256180089433,0,0,1.139639990234375,0,0,0.7644
3.277811064006528,0,0,1.3359645263671873,0,0,1.2230400000000001
3.2791973619896453,0,0,1.4341267944335936,0,0,0.84084
3.2805828459968325,0,0,1.2856862915039062,0,0,1.07016
3.2819685509894043,0,0,1.5849614990234373,0,0,0.99372
3.2833541829895694,0,0,1.2401964599609374,0,0,0.7644
3.2847397580044344,0,0,1.2856862915039062,0,0,0.84084
3.286125352984527,0,0,1.3335703247070312,0,0,0.68796
3.2875212249928154,0,0,1.2497732666015624,0,0,0.3822
3.288910986011615,0,0,1.3335703247070312,0,0,0.0
3.2902961729851086,0,0,1.3359645263671873,0,0,0.3822
3.291681619011797,0,0,1.5825672973632812,0,0,0.45864
3.293067251011962,0,0,1.5586252807617187,0,0,0.3822
3.2944527530053165,0,0,1.2330138549804688,0,0,0.84084
3.295838827994885,0,0,1.189918225097656,0,0,1.1465999999999998
3.297224607988028,0,0,1.1013327636718748,0,0,0.84084
3.298609627992846,0,0,1.2569558715820313,0,0,1.37592
3.3000025560031645,0,0,1.2473790649414063,0,0,1.07016
3.3013882800005376,0,0,1.3623007446289062,0,0,0.84084
3.3027750969922636,0,0,1.6472107421875,0,0,1.1465999999999998
3.3041608390049078,0,0,1.2952630981445312,0,0,1.2230400000000001
3.3055471559928264,0,0,1.2569558715820313,0,0,0.7644
3.3069334540050477,0,0,1.0893617553710937,0,0,0.53508
3.308318808005424,0,0,1.2018892333984375,0,0,0.53508
3.30970427300781,0,0,1.35990654296875,0,0,0.0
3.311090625997167,0,0,1.4867992309570313,0,0,0.53508
3.312475701997755,0,0,1.5969325073242187,0,0,0.6115200000000001
3.3138609630113933,0,0,1.4724340209960938,0,0,0.68796
3.315246705984464,0,0,1.3263877197265623,0,0,1.1465999999999998
3.316632911009947,0,0,1.1420341918945311,0,0,1.07016
3.318018283986021,0,0,0.9600748657226562,0,0,0.6115200000000001
3.3194042110117152,0,0,1.2952630981445312,0,0,1.2230400000000001
3.320789638994029,0,0,1.4341267944335936,0,0,0.6115200000000001
3.322174900007667,0,0,1.4987702392578124,0,0,0.68796
3.3235987160005607,0,0,1.5155296508789062,0,0,0.91728
3.324987625994254,0,0,1.3263877197265623,0,0,0.91728
3.326373830990633,0,0,1.1755530151367186,0,0,1.07016
3.327760276995832,0,0,1.0869675537109373,0,0,0.99372
3.3291459640022367,0,0,1.2210428466796874,0,0,0.68796
3.3305316329933703,0,0,1.388636962890625,0,0,0.30576000000000003
3.331928319996223,0,0,1.465251416015625,0,0,0.7644
3.3333281360100955,0,0,1.5897499023437498,0,0,0.68796
3.334816137008602,0,0,1.2880804931640624,0,0,0.91728
3.336225879000267,0,0,1.2234370483398436,0,0,0.6115200000000001
3.3376104919880163,0,0,1.1827356201171875,0,0,2.2931999999999997
3.3390127349994145,0,0,1.0319009155273438,0,0,0.91728
3.3404014029947575,0,0,1.2856862915039062,0,0,0.91728
3.3417890160053503,0,0,1.3527239379882812,0,0,0.68796
3.3431775179924443,0,0,1.6328455322265625,0,0,0.6115200000000001
3.3445631120121107,0,0,1.5083470458984374,0,0,0.91728
3.345949484006269,0,0,1.2641384765625,0,0,0.99372
3.3473359310009982,0,0,1.1755530151367186,0,0,0.68796
3.3487224880082067,0,0,1.149216796875,0,0,0.91728
3.3501089900091756,0,0,1.3359645263671873,0,0,1.07016
3.351496251008939,0,0,1.3814543579101561,0,0,0.22932
3.352882270992268,0,0,1.2737152832031249,0,0,0.84084
3.354268772993237,0,0,1.6448165405273436,0,0,1.07016
3.3556566819897853,0,0,1.2665326782226562,0,0,0.7644
3.3570433690038044,0,0,1.2497732666015624,0,0,0.6115200000000001
3.3584479260025546,0,0,1.120486376953125,0,0,0.68796
3.3598352799890563,0,0,1.0893617553710937,0,0,0.30576000000000003
3.3612214119930286,0,0,1.3048399047851562,0,0,0.6115200000000001
3.3626079880050384,0,0,1.4317325927734375,0,0,0.84084
3.3639949889911804,0,0,1.2617442749023438,0,0,0.84084
3.3653814170102123,0,0,1.4341267944335936,0,0,0.68796
3.366857084009098,0,0,1.2569558715820313,0,0,1.37592
3.368245900986949,0,0,1.197100830078125,0,0,1.2230400000000001
3.3696323840122204,0,0,1.1372457885742187,0,0,1.07016
3.371020607999526,0,0,1.218648645019531,0,0,1.2230400000000001
3.3724062769906595,0,0,1.3862427612304686,0,0,0.7644
3.373792205005884,0,0,1.3407529296874998,0,0,0.68796
3.3751891319989227,0,0,1.5251064575195312,0,0,1.2994800000000002
3.3765762640105095,0,0,1.369483349609375,0,0,1.1465999999999998
3.3779626169998664,0,0,1.3192051147460937,0,0,0.7644
3.379350192990387,0,0,1.209071838378906,0,0,0.91728
3.3807364359963685,0,0,1.1037269653320312,0,0,0.3822
3.3821224749844987,0,0,1.3766659545898436,0,0,0.0
3.3835089950007387,0,0,1.2665326782226562,0,0,0.68796
3.384895385999698,0,0,1.3527239379882812,0,0,0.53508
3.3862819059868343,0,0,1.2928688964843749,0,0,0.7644
3.3876635750057176,0,0,1.4053963745117186,0,0,0.99372
3.3890418540104292,0,0,1.2018892333984375,0,0,0.99372
3.390419726987602,0,0,1.1109095703125,0,0,1.07016
3.3918099690054078,0,0,1.1133037719726562,0,0,0.91728
3.3931959529872984,0,0,1.3958195678710936,0,0,0.84084
3.394581342989113,0,0,1.3359645263671873,0,0,0.99372
3.3959665120055433,0,0,1.5514426757812498,0,0,0.84084
3.3973519029968884,0,0,1.2713210815429687,0,0,1.2230400000000001
3.3987375530123245,0,0,1.1540052001953125,0,0,0.53508
3.4001232580048963,0,0,1.1156979736328125,0,0,0.91728
3.4015087409934495,0,0,1.1468225952148436,0,0,0.6115200000000001
3.402894150989596,0,0,1.3742717529296875,0,0,0.0
3.404277892987011,0,0,1.3383587280273437,0,0,0.30576000000000003
3.405661525001051,0,0,1.4891934326171874,0,0,0.30576000000000003
3.4070589340117294,0,0,1.2617442749023438,0,0,0.7644
3.408445712993853,0,0,1.2713210815429687,0,0,0.91728
3.4098316410090774,0,0,1.0821791503906248,0,0,1.2994800000000002
3.411218105989974,0,0,1.1540052001953125,0,0,1.07016
3.4126021820120513,0,0,1.3527239379882812,0,0,1.45236
3.413987461011857,0,0,1.369483349609375,0,0,0.91728
3.4153732039849274,0,0,1.2880804931640624,0,0,0.6115200000000001
3.416775335004786,0,0,1.608903515625,0,0,0.84084
3.418159836990526,0,0,1.2330138549804688,0,0,0.84084
3.419552097999258,0,0,1.3263877197265623,0,0,1.07016
3.420937582006445,0,0,1.0821791503906248,0,0,0.84084
3.4223230280040298,0,0,1.1540052001953125,0,0,0.7644
3.4237090479873586,0,0,1.3551181396484375,0,0,-0.22932
3.425096087012207,0,0,1.3168109130859373,0,0,0.53508
3.4264824590063654,0,0,1.5945383056640625,0,0,0.30576000000000003
3.427867738995701,0,0,1.5921441040039062,0,0,0.84084
3.429252962989267,0,0,1.2880804931640624,0,0,0.91728
3.430638038989855,0,0,1.218648645019531,0,0,0.99372
3.4320233920007013,0,0,1.1444283935546875,0,0,0.7644
3.433408523997059,0,0,1.2521674682617188,0,0,0.99372
3.4347942669992335,0,0,1.455674609375,0,0,0.91728
3.4361780459876172,0,0,1.43652099609375,0,0,0.84084
3.437561769998865,0,0,1.5370774658203123,0,0,0.68796
3.4389593829982914,0,0,1.3431471313476562,0,0,1.1465999999999998
3.4403467180090956,0,0,1.218648645019531,0,0,0.99372
3.4417319239873905,0,0,1.1228805786132812,0,0,0.45864
3.443118388997391,0,0,1.1085153686523437,0,0,0.99372
3.44450348301325,0,0,1.3000515014648437,0,0,0.07644000000000001
3.445888726011617,0,0,1.3431471313476562,0,0,0.6115200000000001
3.4472801350057125,0,0,1.6160861206054686,0,0,0.91728
3.4486660250113346,0,0,1.3215993164062498,0,0,0.68796
3.4500507499906234,0,0,1.2378022583007813,0,0,0.91728
3.4514367330120876,0,0,1.1755530151367186,0,0,0.91728
3.45282232700265,0,0,1.0773907470703123,0,0,0.3822
3.4542076810030267,0,0,1.3144167114257812,0,0,0.6115200000000001
3.455593424005201,0,0,1.3048399047851562,0,0,0.7644
3.456978814007016,0,0,1.6328455322265625,0,0,0.91728
3.458364463993348,0,0,1.5203180541992187,0,0,0.6115200000000001
3.459760372992605,0,0,1.2952630981445312,0,0,0.84084
3.461145542009035,0,0,1.1923124267578125,0,0,0.91728
3.462551042990526,0,0,1.158793603515625,0,0,0.91728
3.463938564003911,0,0,1.2018892333984375,0,0,0.84084
3.4653683429933153,0,0,1.3192051147460937,0,0,0.15288000000000002
3.466776121989824,0,0,1.3766659545898436,0,0,1.07016
3.4681720130029134,0,0,1.6304513305664061,0,0,0.91728
3.4695720699965023,0,0,1.3000515014648437,0,0,0.7644
3.4709590899874456,0,0,1.2904746948242187,0,0,1.07016
3.4723462219990324,0,0,1.1635820068359375,0,0,0.68796
3.473733482998796,0,0,0.9888052856445312,0,0,0.45864
3.4751335220062174,0,0,1.3263877197265623,0,0,0.99372
3.4765191900078207,0,0,1.2785036865234374,0,0,0.45864
3.477904598985333,0,0,1.3072341064453123,0,0,0.45864
3.479297101002885,0,0,1.4820108276367188,0,0,0.6115200000000001
3.480682566005271,0,0,1.3455413330078123,0,0,0.68796
3.482067567994818,0,0,1.199495031738281,0,0,0.99372
3.4834532550012227,0,0,1.1133037719726562,0,0,1.07016
3.4848447570111603,0,0,1.0965443603515623,0,0,1.37592
3.486348183010705,0,0,1.4341267944335936,0,0,1.07016
3.4877414620132186,0,0,1.2330138549804688,0,0,0.84084
3.489135871990584,0,0,1.4963760375976562,0,0,0.99372
3.4905214839964174,0,0,1.369483349609375,0,0,1.07016
3.491907541989349,0,0,1.218648645019531,0,0,0.6115200000000001
3.4932929879869334,0,0,1.1324573852539062,0,0,0.68796
3.4946783230116125,0,0,1.1827356201171875,0,0,0.30576000000000003
3.496063677011989,0,0,1.3144167114257812,0,0,0.0
3.497448585985694,0,0,1.3742717529296875,0,0,0.53508
3.4988391810038593,0,0,1.3623007446289062,0,0,0.53508
3.5002248119853903,0,0,1.4987702392578124,0,0,0.6115200000000001
3.5016099250060506,0,0,1.3144167114257812,0,0,1.07016
3.502995760005433,0,0,1.16837041015625,0,0,1.2994800000000002
3.5043805399909616,0,0,1.0031704956054688,0,0,0.91728
3.5057655230048113,0,0,1.1947066284179686,0,0,1.2994800000000002
3.5071688950120006,0,0,1.3287819213867187,0,0,1.1465999999999998
3.5085542669985443,0,0,1.216254443359375,0,0,0.99372
3.5099390470131766,0,0,1.458068811035156,0,0,1.1465999999999998
3.5113241969957016,0,0,1.2378022583007813,0,0,0.91728
3.5127097360091284,0,0,1.35990654296875,0,0,0.84084
3.514095163991442,0,0,1.0414777221679687,0,0,0.91728
3.515481609996641,0,0,1.0773907470703123,0,0,0.3822
3.5168666300014593,0,0,1.3742717529296875,0,0,-0.15288000000000002
3.5182531510072295,0,0,1.3527239379882812,0,0,-9.40212
3.5196391890058294,0,0,1.4006079711914061,0,0,0.68796
3.521024524990935,0,0,1.2737152832031249,0,0,0.45864
3.5224098970065825,0,0,1.3048399047851562,0,0,0.99372
3.5237954359909054,0,0,1.1635820068359375,0,0,0.7644
3.5251810300105717,0,0,1.1061211669921875,0,0,0.6115200000000001
3.526565717009362,0,0,1.1468225952148436,0,0,1.2230400000000001
3.5279511449916754,0,0,1.4006079711914061,0,0,1.2230400000000001
3.5293357759946957,0,0,1.3958195678710936,0,0,0.84084
3.5307211299950723,0,0,1.5945383056640625,0,0,0.84084
3.532106242986629,0,0,1.2832920898437499,0,0,1.2994800000000002
3.5334994299919344,0,0,1.2497732666015624,0,0,0.84084
3.53488519100938,0,0,1.0366893188476562,0,0,0.91728
3.5362676740041934,0,0,1.0749965454101562,0,0,0.53508
3.5376511389913503,0,0,1.3934253662109375,0,0,0.0
3.539049418992363,0,0,1.2737152832031249,0,0,0.3822
3.5404368650051765,0,0,1.5466542724609373,0,0,0.3822
3.54182253300678,0,0,1.6136919189453125,0,0,0.68796
3.5432088689995,0,0,1.2832920898437499,0,0,0.6115200000000001
3.544593962986255,0,0,1.1156979736328125,0,0,0.91728
3.5459797799994703,0,0,1.1420341918945311,0,0,0.7644
3.547365319012897,0,0,1.24498486328125,0,0,1.2230400000000001
3.5487501909956336,0,0,1.2976572998046874,0,0,0.99372
3.5501429330033716,0,0,1.369483349609375,0,0,0.84084
3.551528990996303,0,0,1.5825672973632812,0,0,0.68796
3.5529145110049285,0,0,1.3383587280273437,0,0,1.07016
3.554300493997289,0,0,1.2976572998046874,0,0,0.68796
3.5556861069926526,0,0,1.149216796875,0,0,1.1465999999999998
3.557071868010098,0,0,1.177947216796875,0,0,0.84084
3.558457554987399,0,0,1.2689268798828124,0,0,0.22932
3.5598439649911597,0,0,1.3575123413085937,0,0,0.91728
3.561229615006596,0,0,1.6065093139648436,0,0,0.7644
3.5626151530013885,0,0,1.5179238525390624,0,0,0.6115200000000001
3.564000877988292,0,0,1.3455413330078123,0,0,0.7644
3.5653860830061603,0,0,1.1635820068359375,0,0,0.84084
3.566772639984265,0,0,1.1659762084960936,0,0,0.91728
3.5681582349934615,0,0,1.2761094848632812,0,0,1.1465999999999998
3.5695435699890368,0,0,1.3024457031249999,0,0,0.68796
3.570929849985987,0,0,1.4820108276367188,0,0,0.45864
3.572323406988289,0,0,1.4915876342773438,0,0,0.68796
3.573709037998924,0,0,1.3311761230468748,0,0,0.91728
3.5750953370006755,0,0,1.2330138549804688,0,0,0.99372
3.576479726994876,0,0,1.0845733520507812,0,0,0.99372
3.5778651919972617,0,0,1.2497732666015624,0,0,0.6115200000000001
3.579250620008679,0,0,1.369483349609375,0,0,0.0
3.580636158993002,0,0,1.2904746948242187,0,0,0.91728
3.5820220120076556,0,0,1.637633935546875,0,0,1.07016
3.5834084220114164,0,0,1.3168109130859373,0,0,0.68796
3.5848229599941988,0,0,1.22583125,0,0,0.68796
3.5862592209887225,0,0,1.1156979736328125,0,0,0.53508
3.587657500000205,0,0,1.1252747802734375,0,0,0.68796
3.5890436499903444,0,0,1.3551181396484375,0,0,0.07644000000000001
