Time,AccelX1,AccelY1,AccelZ1,AccelX2,AccelY2,AccelZ2
3.777997335419059e-06,0,0,1.39821376953125,0,0,1.5288
0.003643931995611638,0,0,1.0749965454101562,0,0,1.2994800000000002
0.007261475984705612,0,0,1.2521674682617188,0,0,0.99372
0.010899852990405634,0,0,1.2378022583007813,0,0,0.68796
0.014413823984796181,0,0,1.3168109130859373,0,0,1.2994800000000002
0.017926812986843288,0,0,1.5275006591796874,0,0,0.6115200000000001
0.021424487989861518,0,0,1.0510545288085937,0,0,0.84084
0.024927866994403303,0,0,1.2713210815429687,0,0,1.2230400000000001
0.02855818800162524,0,0,1.2425906616210938,0,0,0.68796
0.032150749990250915,0,0,1.0773907470703123,0,0,0.84084
0.03565474000060931,0,0,1.2473790649414063,0,0,0.15288000000000002
0.03916030400432646,0,0,1.6424223388671875,0,0,0.84084
0.042647552996641025,0,0,1.0869675537109373,0,0,0.6115200000000001
0.04615685698809102,0,0,1.2713210815429687,0,0,0.53508
0.04966279098880477,0,0,1.1707646118164061,0,0,0.91728
0.05331272300099954,0,0,1.20667763671875,0,0,0.6115200000000001
0.056817768985638395,0,0,1.3144167114257812,0,0,0.68796
0.06032446198514663,0,0,1.438915197753906,0,0,0.99372
0.06383385899243876,0,0,1.3192051147460937,0,0,0.6115200000000001
0.06734027399215847,0,0,1.3335703247070312,0,0,0.91728
0.07095896598184481,0,0,1.1348515869140625,0,0,0.6115200000000001
0.07466232299339026,0,0,1.1540052001953125,0,0,0.6115200000000001
0.07828068200615235,0,0,1.5131354492187499,0,0,0.15288000000000002
0.0817905229923781,0,0,1.5059528442382812,0,0,0.45864
0.08529786500730552,0,0,1.3215993164062498,0,0,0.84084
0.0889108529954683,0,0,1.2689268798828124,0,0,0.91728
0.09214930899906904,0,0,1.1540052001953125,0,0,0.7644
0.09494069698848762,0,0,1.2617442749023438,0,0,0.84084
0.09773093700641766,0,0,1.2401964599609374,0,0,1.45236
0.10052362200804055,0,0,1.426944189453125,0,0,0.84084
0.10332552800537087,0,0,1.3431471313476562,0,0,0.99372
0.10610300899134018,0,0,1.16837041015625,0,0,0.6115200000000001
0.1088817679847125,0,0,1.2737152832031249,0,0,0.30576000000000003
0.11168435998843051,0,0,1.2737152832031249,0,0,0.84084
0.11447628500172868,0,0,1.158793603515625,0,0,0.7644
0.11726950600859709,0,0,1.2641384765625,0,0,0.45864
0.1200628950027749,0,0,1.2473790649414063,0,0,0.68796
0.12285013499786146,0,0,1.0965443603515623,0,0,0.99372
0.12564041200676002,0,0,1.16837041015625,0,0,0.99372
0.1284719289978966,0,0,1.1372457885742187,0,0,0.7644
0.1313435010088142,0,0,1.5298948608398437,0,0,0.99372
0.13416538899764419,0,0,1.4006079711914061,0,0,0.53508
0.1369679810013622,0,0,1.22583125,0,0,0.6115200000000001
0.13977248000446707,0,0,1.3192051147460937,0,0,0.07644000000000001
0.1425717379897833,0,0,1.3479355346679687,0,0,0.7644
0.14537032999214716,0,0,1.1468225952148436,0,0,0.7644
0.1481708659848664,0,0,1.2665326782226562,0,0,0.6115200000000001
0.15096790200914256,0,0,1.2521674682617188,0,0,0.84084
0.15376393898623064,0,0,1.2832920898437499,0,0,0.99372
0.15656312298960984,0,0,1.0989385620117187,0,0,0.45864
0.15936084400163963,0,0,1.3192051147460937,0,0,1.1465999999999998
0.16215708400704898,0,0,1.4963760375976562,0,0,0.84084
0.16495508400839753,0,0,1.388636962890625,0,0,0.45864
0.16775676800170913,0,0,1.3766659545898436,0,0,0.6115200000000001
0.17064226599177346,0,0,1.3527239379882812,0,0,-0.15288000000000002
0.17362072598189116,0,0,1.3623007446289062,0,0,0.6115200000000001
0.1764807239815127,0,0,1.0845733520507812,0,0,0.84084
0.1793294629896991,0,0,1.0941501586914062,0,0,0.68796
0.18213179599842988,0,0,1.4053963745117186,0,0,0.7644
0.18495973901008256,0,0,1.1707646118164061,0,0,0.7644
0.18792403198312968,0,0,1.1540052001953125,0,0,0.7644
0.19080332698649727,0,0,1.2401964599609374,0,0,-9.01992
0.1939238769991789,0,0,1.438915197753906,0,0,0.68796
0.19704070501029491,0,0,1.3024457031249999,0,0,0.68796
0.20015838500694372,0,0,1.2880804931640624,0,0,0.68796
0.2032744360039942,0,0,1.4700398193359374,0,0,0.99372
0.20638883800711483,0,0,1.4987702392578124,0,0,0.99372
0.20950561098288745,0,0,1.199495031738281,0,0,0.91728
0.2126225130050443,0,0,1.3742717529296875,0,0,0.7644
0.21573861900833435,0,0,1.3670891479492187,0,0,0.99372
0.2188520949857775,0,0,1.2138602416992186,0,0,0.53508
0.22196846100268885,0,0,1.149216796875,0,0,0.6115200000000001
0.22508236300200224,0,0,1.2665326782226562,0,0,0.68796
0.22819974698359147,0,0,1.1611878051757811,0,0,0.45864
0.231311741983518,0,0,1.22583125,0,0,0.53508
0.23442434798926115,0,0,1.5107412475585937,0,0,1.2230400000000001
0.2375480649934616,0,0,1.4508862060546874,0,0,1.2230400000000001
0.24066967100952752,0,0,1.1109095703125,0,0,0.84084
0.2437850360001903,0,0,1.3646949462890625,0,0,0.91728
0.24706965798395686,0,0,1.4508862060546874,0,0,0.3822
0.2501751350064296,0,0,1.2569558715820313,0,0,0.84084
0.25328670398448594,0,0,1.2737152832031249,0,0,0.45864
0.2563898469961714,0,0,1.1851298217773436,0,0,0.7644
0.2594738240004517,0,0,1.209071838378906,0,0,0.53508
0.2637822279939428,0,0,1.3024457031249999,0,0,0.3822
0.26691977900918573,0,0,1.2785036865234374,0,0,1.2230400000000001
0.27002695898409,0,0,1.2904746948242187,0,0,1.1465999999999998
0.27312784298555925,0,0,1.1635820068359375,0,0,1.45236
0.2762645040056668,0,0,1.448492004394531,0,0,0.45864
0.2793876279902179,0,0,1.2856862915039062,0,0,0.91728
0.2825056049914565,0,0,1.2832920898437499,0,0,0.45864
0.28562269199755974,0,0,1.2856862915039062,0,0,0.84084
0.2887754639959894,0,0,1.455674609375,0,0,0.6115200000000001
0.29189597800723277,0,0,1.3072341064453123,0,0,0.7644
0.29501200999948196,0,0,1.3239935180664062,0,0,0.7644
0.2981395600072574,0,0,1.2330138549804688,0,0,0.91728
0.30125040700659156,0,0,1.3479355346679687,0,0,0.84084
0.30441777099622414,0,0,1.1516109985351561,0,0,0.68796
0.30752752599073574,0,0,1.5155296508789062,0,0,0.45864
0.31065379799110815,0,0,1.2114660400390624,0,0,0.53508
0.31386295799165964,0,0,1.3096283081054687,0,0,0.68796
0.3170019160024822,0,0,1.3910311645507811,0,0,0.68796
0.32011380000039935,0,0,1.3311761230468748,0,0,0.99372
0.3232857569819316,0,0,1.177947216796875,0,0,0.53508
0.32675222799298353,0,0,1.465251416015625,0,0,0.91728
0.3298645199974999,0,0,1.3144167114257812,0,0,0.45864
0.3329731439880561,0,0,1.3479355346679687,0,0,0.45864
0.3360731389839202,0,0,1.2617442749023438,0,0,0.45864
0.3391589679813478,0,0,1.1659762084960936,0,0,0.84084
0.3422738699882757,0,0,1.3431471313476562,0,0,0.7644
0.3453860879817512,0,0,1.1037269653320312,0,0,1.2994800000000002
0.3484950829879381,0,0,1.4939818359375,0,0,0.91728
0.3516643729817588,0,0,1.47482822265625,0,0,0.84084
0.35475460899760947,0,0,1.0845733520507812,0,0,0.6115200000000001
0.35786686299252324,0,0,1.2904746948242187,0,0,0.7644
0.36096974700922146,0,0,1.458068811035156,0,0,0.68796
0.3641057049972005,0,0,1.3623007446289062,0,0,0.91728
0.36723742200410925,0,0,1.2832920898437499,0,0,0.68796
0.3703443059930578,0,0,1.2138602416992186,0,0,1.07016
0.3734494489908684,0,0,1.218648645019531,0,0,0.7644
0.37657968400162645,0,0,1.24498486328125,0,0,0.91728
0.37972090099356137,0,0,1.484405029296875,0,0,0.84084
0.3828300070017576,0,0,1.388636962890625,0,0,0.68796
0.38592092800536193,0,0,1.3263877197265623,0,0,0.53508
0.3890644409984816,0,0,1.4915876342773438,0,0,0.91728
0.3921770099841524,0,0,1.4700398193359374,0,0,0.91728
0.3952815239899792,0,0,1.0941501586914062,0,0,0.91728
0.39838957399479114,0,0,1.2713210815429687,0,0,0.99372
0.40148436598246917,0,0,1.1923124267578125,0,0,0.99372
0.4045892310095951,0,0,1.2138602416992186,0,0,0.91728
0.40771507800673135,0,0,1.3431471313476562,0,0,0.45864
0.4108194620057475,0,0,1.2210428466796874,0,0,0.68796
0.41392041998915374,0,0,1.1875240234375,0,0,0.6115200000000001
0.41707326599862427,0,0,1.2306196533203124,0,0,0.68796
0.4201881309854798,0,0,1.4437036010742186,0,0,0.91728
0.42329408900695853,0,0,1.6256629272460936,0,0,0.7644
0.42640182498143986,0,0,1.3263877197265623,0,0,0.68796
0.42950969000230543,0,0,1.3766659545898436,0,0,0.99372
0.4326666289998684,0,0,1.2904746948242187,0,0,0.53508
0.4357734950026497,0,0,1.2401964599609374,0,0,0.84084
0.43888150798738934,0,0,1.2737152832031249,0,0,0.22932
0.44198894800501876,0,0,1.1923124267578125,0,0,1.07016
0.44509768299758434,0,0,1.2880804931640624,0,0,0.68796
0.44823904798249714,0,0,1.2330138549804688,0,0,1.07016
0.45134478399995714,0,0,1.4724340209960938,0,0,1.1465999999999998
0.4544557420013007,0,0,1.39821376953125,0,0,0.7644
0.457563162985025,0,0,1.2832920898437499,0,0,0.7644
0.4606720469892025,0,0,1.3742717529296875,0,0,1.07016
0.46379342998261563,0,0,1.659181750488281,0,0,0.7644
0.46690470300382003,0,0,1.1252747802734375,0,0,0.68796
0.4700121799833141,0,0,1.3168109130859373,0,0,0.0
0.4731201189861167,0,0,1.1228805786132812,0,0,0.99372
0.47622939199209213,0,0,1.1372457885742187,0,0,0.6115200000000001
0.4793336459842976,0,0,1.2976572998046874,0,0,1.2230400000000001
0.48244140000315383,0,0,1.4772224243164063,0,0,0.91728
0.485549450997496,0,0,1.656787548828125,0,0,0.91728
0.48865876099443994,0,0,1.1348515869140625,0,0,0.45864
0.4918005699873902,0,0,1.3958195678710936,0,0,0.68796
0.4949077869823668,0,0,1.4341267944335936,0,0,0.84084
0.4980161339917686,0,0,1.0821791503906248,0,0,0.7644
0.5011241659813095,0,0,1.254561669921875,0,0,0.6115200000000001
0.5153968989907298,0,0,1.180341418457031,0,0,0.45864
0.518652298982488,0,0,1.2401964599609374,0,0,1.07016
0.5220888640033081,0,0,1.350329736328125,0,0,2.2167600000000003
0.5251830820052419,0,0,1.1156979736328125,0,0,1.2994800000000002
0.528273909993004,0,0,1.3168109130859373,0,0,0.84084
0.5327895529917441,0,0,1.4891934326171874,0,0,0.6115200000000001
0.5361423959839158,0,0,1.4796166259765624,0,0,0.6115200000000001
0.5393436309823301,0,0,1.158793603515625,0,0,0.68796
0.542530568985967,0,0,1.2928688964843749,0,0,0.84084
0.5456497489940375,0,0,1.3718775512695311,0,0,1.2230400000000001
0.5487735589849763,0,0,1.3742717529296875,0,0,0.6115200000000001
0.551891887007514,0,0,1.1851298217773436,0,0,1.37592
0.555008214985719,0,0,1.5227122558593749,0,0,0.91728
0.558124803006649,0,0,1.3646949462890625,0,0,0.91728
0.5612405749852769,0,0,1.2401964599609374,0,0,0.7644
0.5643560150056146,0,0,1.3862427612304686,0,0,0.84084
0.567468397988705,0,0,1.3766659545898436,0,0,0.99372
0.5705852450046223,0,0,1.2737152832031249,0,0,-9.01992
0.5737585730093997,0,0,1.3263877197265623,0,0,1.07016
0.5769843249872793,0,0,1.3311761230468748,0,0,0.91728
0.5803114279988222,0,0,1.3407529296874998,0,0,0.99372
0.5835108479950577,0,0,1.3096283081054687,0,0,0.0
0.586630323989084,0,0,1.1540052001953125,0,0,1.1465999999999998
0.5897514300013427,0,0,1.1755530151367186,0,0,1.07016
0.5929941640060861,0,0,1.3766659545898436,0,0,1.07016
0.595843569986755,0,0,1.4437036010742186,0,0,1.1465999999999998
0.5986374029889703,0,0,1.4700398193359374,0,0,0.53508
0.6014345689909533,0,0,1.3527239379882812,0,0,0.91728
0.604231956996955,0,0,1.3215993164062498,0,0,0.7644
0.6070246229937766,0,0,1.3215993164062498,0,0,1.07016
0.6098481029912364,0,0,1.3455413330078123,0,0,0.84084
0.6126540279947221,0,0,1.235408056640625,0,0,1.1465999999999998
0.6154562489828095,0,0,1.3407529296874998,0,0,0.99372
0.618278340989491,0,0,1.2042834350585936,0,0,1.45236
0.6210826179885771,0,0,1.3000515014648437,0,0,0.6115200000000001
0.6238965799857397,0,0,1.2401964599609374,0,0,0.68796
0.6266926899843384,0,0,1.4221557861328125,0,0,0.84084
0.6294961519888602,0,0,1.5179238525390624,0,0,0.91728
0.6322958369855769,0,0,1.3263877197265623,0,0,2.4460800000000003
0.635172798007261,0,0,1.254561669921875,0,0,0.15288000000000002
0.6379643710097298,0,0,1.35990654296875,0,0,0.99372
0.6407577779900748,0,0,1.0893617553710937,0,0,0.99372
0.643536388000939,0,0,1.3000515014648437,0,0,0.91728
0.6463188880006783,0,0,1.2521674682617188,0,0,0.99372
0.649114756990457,0,0,1.2497732666015624,0,0,0.91728
0.6519625149958301,0,0,1.1635820068359375,0,0,0.91728
0.6547562739870045,0,0,1.197100830078125,0,0,0.99372
0.6575535690062679,0,0,1.455674609375,0,0,0.91728
0.660351049999008,0,0,1.458068811035156,0,0,0.6115200000000001
0.6631434749870095,0,0,1.2401964599609374,0,0,0.45864
0.6659652329981327,0,0,1.2641384765625,0,0,0.68796
0.668762176996097,0,0,1.2952630981445312,0,0,0.68796
0.671557360998122,0,0,1.1635820068359375,0,0,1.2230400000000001
0.6743826559977606,0,0,1.1827356201171875,0,0,0.84084
0.6771778039983474,0,0,1.1659762084960936,0,0,0.99372
0.6799731729843188,0,0,1.0726023437499999,0,0,0.91728
0.6827667839825153,0,0,1.2856862915039062,0,0,1.2230400000000001
0.6855623940064106,0,0,1.1755530151367186,0,0,0.53508
0.6883598929853179,0,0,1.4604630126953124,0,0,0.68796
0.691241316992091,0,0,1.5059528442382812,0,0,0.7644
0.6941105559817515,0,0,1.3024457031249999,0,0,0.7644
0.6972243289928883,0,0,1.3192051147460937,0,0,0.53508
0.700336656998843,0,0,1.3551181396484375,0,0,1.07016
0.7034869479830377,0,0,1.3407529296874998,0,0,0.7644
0.7067634410050232,0,0,1.35990654296875,0,0,0.91728
0.7099376389815006,0,0,1.4963760375976562,0,0,0.6115200000000001
0.7130679670081008,0,0,1.216254443359375,0,0,0.3822
0.7161689799977466,0,0,1.3575123413085937,0,0,0.84084
0.7192640310095157,0,0,1.3311761230468748,0,0,0.68796
0.7223629519867245,0,0,1.465251416015625,0,0,0.99372
0.7254785769910086,0,0,1.2497732666015624,0,0,0.84084
0.7285959419969004,0,0,1.2928688964843749,0,0,0.68796
0.7317460470076185,0,0,1.2617442749023438,0,0,0.7644
0.7348599869874306,0,0,1.2497732666015624,0,0,0.7644
0.7379764259967487,0,0,1.3048399047851562,0,0,0.22932
0.741089199000271,0,0,1.3646949462890625,0,0,0.84084
0.7442046380019747,0,0,1.2018892333984375,0,0,0.53508
0.7473156329942867,0,0,1.2976572998046874,0,0,0.84084
0.750429684005212,0,0,1.4341267944335936,0,0,1.1465999999999998
0.7535451599978842,0,0,1.3766659545898436,0,0,1.2994800000000002
0.7566598400007933,0,0,1.209071838378906,0,0,0.07644000000000001
0.7597728539840318,0,0,1.3910311645507811,0,0,0.91728
0.7629127929976676,0,0,1.455674609375,0,0,0.30576000000000003
0.7660261580022052,0,0,1.3431471313476562,0,0,0.68796
0.7691411529958714,0,0,1.1037269653320312,0,0,0.45864
0.7722560369875282,0,0,1.5107412475585937,0,0,0.84084
0.7753684950002935,0,0,1.2042834350585936,0,0,0.68796
0.7784817859937903,0,0,1.2401964599609374,0,0,1.1465999999999998
0.7815946699993219,0,0,1.455674609375,0,0,1.2230400000000001
0.7847087389964145,0,0,1.2401964599609374,0,0,0.84084
0.7886031119851395,0,0,1.3431471313476562,0,0,0.68796
0.7918710309895687,0,0,1.4317325927734375,0,0,0.68796
0.7949865069822408,0,0,1.4700398193359374,0,0,1.07016
0.7981075019924901,0,0,1.2306196533203124,0,0,1.1465999999999998
0.8012232370092534,0,0,1.2282254516601563,0,0,0.7644
0.8043350469961297,0,0,1.5586252807617187,0,0,0.7644
0.807442635006737,0,0,1.2569558715820313,0,0,0.68796
0.8106517030100804,0,0,1.3670891479492187,0,0,0.3822
0.8139420469815377,0,0,1.1540052001953125,0,0,1.2994800000000002
0.8170729120029137,0,0,1.16837041015625,0,0,0.6115200000000001
0.8201865000010002,0,0,1.3144167114257812,0,0,1.5288
0.8232953829865437,0,0,1.2569558715820313,0,0,0.68796
0.82659457999398,0,0,1.1372457885742187,0,0,0.68796
0.8298706829955336,0,0,1.2497732666015624,0,0,0.6115200000000001
0.8329958079848439,0,0,1.4030021728515625,0,0,1.2994800000000002
0.8361162290093489,0,0,1.6543933471679686,0,0,0.99372
0.8392347049957607,0,0,1.24498486328125,0,0,0.68796
0.8423531070002355,0,0,1.5107412475585937,0,0,0.3822
0.8454754539998248,0,0,1.4796166259765624,0,0,0.45864
0.8485958380042575,0,0,1.2737152832031249,0,0,0.6115200000000001
0.8517486469936557,0,0,1.3120225097656248,0,0,0.22932
0.854865807981696,0,0,1.35990654296875,0,0,0.68796
0.8579835259879474,0,0,1.0989385620117187,0,0,0.84084
0.8610998349904548,0,0,1.3766659545898436,0,0,1.2994800000000002
0.8642204969946761,0,0,1.5298948608398437,0,0,0.91728
0.8673381950065959,0,0,1.3239935180664062,0,0,0.91728
0.8704563569917809,0,0,1.2497732666015624,0,0,0.30576000000000003
0.8735942959901877,0,0,1.350329736328125,0,0,1.2230400000000001
0.8767224199837074,0,0,1.419761584472656,0,0,2.4460800000000003
0.87985659998958,0,0,1.7357962036132812,0,0,1.75812
0.8829733910097275,0,0,1.8507178833007811,0,0,1.68168
0.8860891819931567,0,0,2.8993782104492185,0,0,1.60524
0.8892075289913919,0,0,1.5107412475585937,0,0,-9.40212
0.8923651530058123,0,0,1.5251064575195312,0,0,0.84084
0.89548122198903,0,0,1.3958195678710936,0,0,1.2994800000000002
0.8985999760043342,0,0,1.7429788085937499,0,0,1.37592
0.9017193230101839,0,0,2.3032219970703123,0,0,1.45236
0.904857761983294,0,0,2.0757728393554684,0,0,1.2994800000000002
0.9079856830067001,0,0,1.944091748046875,0,0,1.1465999999999998
0.9111023260047659,0,0,1.656787548828125,0,0,1.07016
0.9142212099977769,0,0,1.8076222534179687,0,0,1.2994800000000002
0.9173412779928185,0,0,2.032677209472656,0,0,1.37592
0.9204590510053094,0,0,1.618480322265625,0,0,0.99372
0.9236075829830952,0,0,1.5873557006835937,0,0,0.99372
0.926728058984736,0,0,2.346317626953125,0,0,1.60524
0.9298479610006325,0,0,1.2521674682617188,0,0,0.30576000000000003
0.9329635860049166,0,0,1.9512743530273435,0,0,0.99372
0.9360815809923224,0,0,1.7956512451171873,0,0,1.5288
0.939195668004686,0,0,1.936909143066406,0,0,2.06388
0.9423115699901246,0,0,1.7860744384765623,0,0,1.911
0.9454277500044554,0,0,2.5163059448242184,0,0,1.37592
0.948545393999666,0,0,1.7477672119140624,0,0,0.91728
0.9516727959853597,0,0,1.5562310791015623,0,0,0.68796
0.9547907719970681,0,0,1.5251064575195312,0,0,0.68796
0.9579087299935054,0,0,1.3000515014648437,0,0,2.36964
0.9610278359905351,0,0,2.118868469238281,0,0,1.75812
0.9641473859956022,0,0,1.8195932617187498,0,0,1.75812
0.9672617889882531,0,0,2.4875755249023435,0,0,2.06388
0.9703818199923262,0,0,1.8243816650390623,0,0,0.84084
0.9734985379909631,0,0,0.6967126831054687,0,0,0.45864
0.9766171250084881,0,0,2.616862414550781,0,0,2.2167600000000003
0.9797353419999126,0,0,2.272097375488281,0,0,0.53508
0.9828517629939597,0,0,1.5490484741210937,0,0,0.45864
0.9859674990002532,0,0,2.4109610717773435,0,0,1.1465999999999998
0.9891041230002884,0,0,0.8403647827148437,0,0,1.37592
0.9922600059944671,0,0,2.157175695800781,0,0,1.98744
0.9954161859932356,0,0,1.659181750488281,0,0,1.2994800000000002
0.9985314770019613,0,0,2.530671154785156,0,0,0.84084
1.0016696940001566,0,0,1.4437036010742186,0,0,0.3822
1.0049308899906464,0,0,1.5729904907226562,0,0,0.7644
1.0081722169998102,0,0,2.1116858642578125,0,0,0.84084
1.011420894996263,0,0,2.6408044311523438,0,0,1.68168
1.0147017400013283,0,0,1.714248388671875,0,0,2.06388
1.017961103003472,0,0,2.0278888061523435,0,0,2.14032
1.0211951519886497,0,0,1.4317325927734375,0,0,0.22932
1.0244438299851026,0,0,1.7477672119140624,0,0,1.83456
1.0276566020038445,0,0,3.1603461914062496,0,0,3.21048
1.0308357439935207,0,0,1.4700398193359374,0,0,-0.3822
1.0340551630069967,0,0,1.5346832641601562,0,0,-0.15288000000000002
1.0372283800097648,0,0,3.1483751831054687,0,0,2.2167600000000003
1.040402337006526,0,0,1.5131354492187499,0,0,0.99372
1.0435439049906563,0,0,0.6153098266601562,0,0,-0.22932
1.046693715004949,0,0,3.2058360229492187,0,0,4.12776
1.0498328570101876,0,0,2.221819140625,0,0,-0.30576000000000003
1.0529771669826005,0,0,0.8116343627929687,0,0,1.1465999999999998
1.056180031009717,0,0,3.2609026611328122,0,0,2.36964
1.0593925979919732,0,0,1.2282254516601563,0,0,0.30576000000000003
1.06263042500359,0,0,0.8882488159179687,0,0,2.2167600000000003
1.0659473990090191,0,0,3.6727053466796873,0,0,2.6754
1.0691851879819296,0,0,-0.20829554443359374,0,0,-1.2230400000000001
1.072417885006871,0,0,2.370259643554687,0,0,1.5288
1.0763718870002776,0,0,0.9050082275390624,0,0,-0.84084
1.0797160640067887,0,0,-0.47165772705078124,0,0,1.5288
1.08298942699912,0,0,2.7724855224609373,0,0,1.75812
1.086284049990354,0,0,-0.3950432739257812,0,0,0.6115200000000001
1.089575190009782,0,0,2.4516625,0,0,1.911
1.0927726840018295,0,0,1.5059528442382812,0,0,-0.91728
1.096077083988348,0,0,1.2234370483398436,0,0,1.1465999999999998
1.09818699999596,0,0,2.8754361938476563,0,0,1.75812
1.099675108998781,0,0,2.5737667846679684,0,0,1.911
1.101120275008725,0,0,0.5770026000976562,0,0,1.5288
1.1025559039844666,0,0,-0.49320554199218747,0,0,-0.3822
1.104011087998515,0,0,1.6208745239257811,0,0,0.7644
1.105448215996148,0,0,2.123656872558594,0,0,1.37592
1.1068776969914325,0,0,3.0047230834960934,0,0,1.5288
1.108360251004342,0,0,1.9704279663085937,0,0,0.91728
1.109840527002234,0,0,0.5339069702148437,0,0,0.0
1.1113208959868643,0,0,-0.26336218261718747,0,0,0.0
1.1127692470035981,0,0,1.0917559570312498,0,0,0.45864
1.1141491910093464,0,0,2.4349030883789062,0,0,0.91728
1.1155235059850384,0,0,2.104503259277344,0,0,1.07016
1.1169037279905751,0,0,0.5003881469726562,0,0,0.84084
1.1182790430029854,0,0,-0.08858546142578125,0,0,9.172799999999999
1.1196685429895297,0,0,0.09576806640624999,0,0,0.45864
1.1210442830051761,0,0,2.442085693359375,0,0,1.83456
1.1224187279876787,0,0,2.8945898071289062,0,0,1.911
1.1239425399980973,0,0,1.8339584716796873,0,0,0.45864
1.1253175029996783,0,0,0.8307879760742187,0,0,0.6115200000000001
1.1266916879976634,0,0,-0.0383072265625,0,0,-0.45864
1.1280699470080435,0,0,1.8004396484374998,0,0,0.22932
1.1294445960083976,0,0,2.068590234375,0,0,1.2994800000000002
1.1308191329881083,0,0,2.013523596191406,0,0,1.911
1.1321948730037548,0,0,1.0510545288085937,0,0,0.45864
1.13357831700705,0,0,-0.09337386474609374,0,0,-0.30576000000000003
1.134954076987924,0,0,0.1388636962890625,0,0,0.0
1.1363296319905203,0,0,1.5155296508789062,0,0,0.0
1.1377030950097833,0,0,1.8435352783203125,0,0,1.83456
1.1390767800039612,0,0,2.2026655273437497,0,0,2.2931999999999997
1.1404525949910749,0,0,1.6065093139648436,0,0,1.2230400000000001
1.1418259649944957,0,0,0.689530078125,0,0,-0.91728
1.1432010020071175,0,0,0.21068974609375,0,0,0.15288000000000002
1.1445767609984614,0,0,1.9752163696289062,0,0,0.30576000000000003
1.145950261008693,0,0,2.8658593872070313,0,0,0.6115200000000001
1.1473236689926125,0,0,2.712630480957031,0,0,1.60524
1.148698206001427,0,0,1.85790048828125,0,0,1.2994800000000002
1.1500714829890057,0,0,-0.39264907226562495,0,0,0.6115200000000001
1.151447501993971,0,0,-0.6631938598632812,0,0,0.84084
1.152824168006191,0,0,0.6943184814453125,0,0,0.91728
1.1541981310001574,0,0,1.9895815795898437,0,0,0.7644
1.1555837240011897,0,0,2.389413256835937,0,0,1.5288
1.1569577979971655,0,0,1.1061211669921875,0,0,1.911
1.1583314460003749,0,0,0.37828386230468747,0,0,0.0
1.1597213159839157,0,0,0.24181436767578124,0,0,0.84084
1.1611041119904257,0,0,1.5466542724609373,0,0,1.2994800000000002
1.1624872039828915,0,0,2.133233679199219,0,0,0.3822
1.1638707779929973,0,0,1.7477672119140624,0,0,0.0
1.1652536669862457,0,0,1.659181750488281,0,0,1.2994800000000002
1.166636721987743,0,0,0.6871358764648438,0,0,-0.30576000000000003
1.1680211669881828,0,0,1.6543933471679686,0,0,0.91728
1.1694082769972738,0,0,1.4173673828125,0,0,1.5288
1.1709342199901585,0,0,1.3479355346679687,0,0,1.60524
1.1724084409943316,0,0,0.9864110839843749,0,0,0.22932
1.1740712879982311,0,0,0.00718260498046875,0,0,-0.3822
1.175467547000153,0,0,0.28490999755859375,0,0,1.1465999999999998
1.1768580469943117,0,0,1.9201497314453124,0,0,1.83456
1.1782475280051585,0,0,2.4564509033203126,0,0,2.2931999999999997
1.1796365460031666,0,0,2.0350714111328125,0,0,1.2230400000000001
1.181067305005854,0,0,0.8978256225585937,0,0,1.5288
1.1824610269977711,0,0,0.1005564697265625,0,0,0.22932
1.1838503229955677,0,0,2.109291662597656,0,0,0.7644
1.185237044992391,0,0,1.9728221679687499,0,0,1.60524
1.18665845200303,0,0,2.6767174560546874,0,0,1.2994800000000002
1.1885547589918133,0,0,1.3072341064453123,0,0,1.2230400000000001
1.1899665359815117,0,0,0.00239420166015625,0,0,-9.707880000000001
1.1913563690031879,0,0,0.009576806640625,0,0,0.68796
1.192773312999634,0,0,1.5825672973632812,0,0,1.2230400000000001
1.1941603689920157,0,0,1.9632453613281249,0,0,0.91728
1.1955473129928578,0,0,1.3335703247070312,0,0,0.91728
1.1969341459916905,0,0,0.8259995727539062,0,0,1.45236
1.1983212379855104,0,0,0.1867477294921875,0,0,0.30576000000000003
1.1997088489879388,0,0,0.9002198242187499,0,0,1.75812
1.2010950710100587,0,0,2.5617957763671875,0,0,2.2167600000000003
1.2024815710028633,0,0,2.3965958618164063,0,0,1.07016
1.2038679780089296,0,0,0.9600748657226562,0,0,-0.6115200000000001
1.2053304399887566,0,0,0.6057330200195312,0,0,0.3822
1.2067204769991804,0,0,0.46686932373046874,0,0,0.0
1.2081108279817272,0,0,2.5139117431640625,0,0,0.6115200000000001
1.2094977349916007,0,0,2.118868469238281,0,0,1.911
1.2108843459864147,0,0,1.0366893188476562,0,0,1.2994800000000002
1.2122711419942789,0,0,0.2825157958984375,0,0,0.22932
1.2136578829959035,0,0,-0.24181436767578124,0,0,-9.784320000000001
1.2150470489868894,0,0,0.5195417602539062,0,0,0.30576000000000003
1.2164342530013528,0,0,2.1452046874999997,0,0,0.91728
1.2178203449875582,0,0,2.868253588867187,0,0,2.6754
1.2192066599964164,0,0,1.8626888916015625,0,0,1.75812
1.220597011008067,0,0,1.139639990234375,0,0,1.60524
1.2219834919960704,0,0,-0.3591302490234375,0,0,-0.6115200000000001
1.2233712879824452,0,0,-0.040701428222656245,0,0,0.45864
1.2247595469816588,0,0,1.5945383056640625,0,0,0.84084
1.2261454919935204,0,0,2.8012159423828122,0,0,1.2230400000000001
1.2275320650078356,0,0,2.35589443359375,0,0,0.84084
1.22891862099641,0,0,0.4429273071289062,0,0,1.2230400000000001
1.2303051209892146,0,0,-0.55545478515625,0,0,-0.7644
1.2316935090057086,0,0,-0.3950432739257812,0,0,0.53508
1.233080083009554,0,0,1.879448303222656,0,0,1.37592
1.2344702119880822,0,0,2.750937707519531,0,0,0.22932
1.235858804982854,0,0,1.2617442749023438,0,0,0.3822
1.2372453050047625,0,0,0.7900865478515624,0,0,0.53508
1.2386318600038067,0,0,0.36391865234375,0,0,-0.22932
1.2400196559901815,0,0,2.5474305664062498,0,0,1.37592
1.2414055819972418,0,0,2.013523596191406,0,0,2.4460800000000003
1.2427923220093362,0,0,1.2521674682617188,0,0,1.45236
1.2441786919953302,0,0,0.373495458984375,0,0,0.30576000000000003
1.2455649139883462,0,0,-0.1484405029296875,0,0,-0.7644
1.246952783985762,0,0,0.6392518432617187,0,0,0.07644000000000001
1.2483397659962066,0,0,2.834734765625,0,0,0.84084
1.2497296360088512,0,0,3.2728736694335936,0,0,2.6754
1.2511220059823245,0,0,1.66636435546875,0,0,1.60524
1.2525120799837168,0,0,0.411802685546875,0,0,0.7644
1.253898246010067,0,0,-1.3551181396484375,0,0,-1.1465999999999998
1.2552873750100844,0,0,-0.17238251953125,0,0,-0.6115200000000001
1.2566751340054907,0,0,2.1739351074218747,0,0,1.1465999999999998
1.2580614119942766,0,0,4.149151477050781,0,0,2.36964
1.2594480970001314,0,0,3.0621839233398433,0,0,2.14032
1.2608403190097306,0,0,0.22744915771484372,0,0,1.911
1.2622263559896965,0,0,-1.3766659545898436,0,0,-1.2994800000000002
1.2636529839946888,0,0,-0.9816226806640624,0,0,-0.3822
1.2650437059928663,0,0,2.6575638427734374,0,0,1.911
1.2664305020007305,0,0,3.928884924316406,0,0,1.5288
1.267818186985096,0,0,1.8650830932617186,0,0,1.83456
1.2692034280044027,0,0,0.43574470214843747,0,0,0.91728
1.2706024829822127,0,0,-1.24498486328125,0,0,-0.45864
1.2719906499842182,0,0,0.9504980590820312,0,0,-0.22932
1.2733769269834738,0,0,1.9201497314453124,0,0,1.37592
1.2747636119893286,0,0,2.2744915771484373,0,0,1.2994800000000002
1.276150574994972,0,0,1.7693150268554687,0,0,0.53508
1.2775376859935932,0,0,0.9361328491210937,0,0,1.07016
1.2789241849968676,0,0,0.33039982910156246,0,0,1.37592
1.280310759000713,0,0,1.4820108276367188,0,0,1.2994800000000002
1.2816969630075619,0,0,2.786850732421875,0,0,1.75812
1.2830832400068175,0,0,2.1715409057617188,0,0,1.60524
1.2844701469875872,0,0,1.6448165405273436,0,0,1.07016
1.2858562769833952,0,0,-0.4333505004882812,0,0,-1.07016
1.2872434059972875,0,0,0.028730419921875,0,0,0.07644000000000001
1.2886298869852908,0,0,1.678335363769531,0,0,0.45864
1.2900159060081933,0,0,3.2513258544921873,0,0,1.5288
1.2914021459873766,0,0,2.427720483398437,0,0,1.5288
1.2927888309932314,0,0,0.12689268798828124,0,0,1.45236
1.29417484998703,0,0,-1.5418658691406248,0,0,-1.37592
1.2955768310057465,0,0,-1.2689268798828124,0,0,-0.22932
1.2969657380017452,0,0,2.3343466186523436,0,0,0.7644
1.2983526260068174,0,0,3.6846763549804686,0,0,1.75812
1.2997393109835684,0,0,2.6312276245117188,0,0,2.4460800000000003
1.3011252739815973,0,0,1.1252747802734375,0,0,2.52252
1.3025118290097453,0,0,-0.82360537109375,0,0,-0.45864
1.3039084959891625,0,0,0.26815058593749996,0,0,-1.37592
1.305307365983026,0,0,1.7764976318359373,0,0,1.37592
1.3066947729967069,0,0,3.296815686035156,0,0,0.68796
1.3080821429903153,0,0,2.779668127441406,0,0,1.75812
1.3094680499925744,0,0,1.4341267944335936,0,0,0.53508
1.3108542719855905,0,0,-0.7972691528320313,0,0,0.0
1.312242215994047,0,0,0.5458779785156249,0,0,-0.22932
1.313631475000875,0,0,1.1156979736328125,0,0,1.37592
1.3150186599814333,0,0,2.114080065917969,0,0,1.75812
1.3164049559854902,0,0,1.9895815795898437,0,0,1.911
1.31779123400338,0,0,0.05027823486328125,0,0,0.68796
1.3191776410094462,0,0,-0.18435352783203124,0,0,0.68796
1.3205659929953981,0,0,1.4437036010742186,0,0,1.07016
1.3219524739834014,0,0,2.6527754394531247,0,0,1.37592
1.3233394919952843,0,0,2.214636535644531,0,0,0.6115200000000001
1.326795075001428,0,0,-0.03591302490234375,0,0,0.3822
1.3282047229877207,0,0,1.5634136840820312,0,0,0.15288000000000002
1.3296052780060563,0,0,2.2266075439453124,0,0,1.83456
1.3310755729908124,0,0,2.2960393920898436,0,0,1.83456
1.33247236898751,0,0,1.5658078857421873,0,0,1.5288
1.333860665006796,0,0,-0.7493851196289062,0,0,0.0
1.3352498129825108,0,0,-0.6536170532226562,0,0,-0.22932
1.3366392010066193,0,0,1.838746875,0,0,0.07644000000000001
1.3380274600058328,0,0,2.703053674316406,0,0,0.22932
1.339415274997009,0,0,2.597708801269531,0,0,1.911
1.3408054230094422,0,0,1.8100164550781248,0,0,2.52252
1.342193218995817,0,0,0.05027823486328125,0,0,0.07644000000000001
1.3436046440037899,0,0,-0.6153098266601562,0,0,0.0
1.3449950699869078,0,0,1.2521674682617188,0,0,0.22932
1.3463823659985792,0,0,2.511517541503906,0,0,0.68796
1.3477711250016,0,0,2.961627453613281,0,0,1.1465999999999998
1.3491577539825812,0,0,2.1595698974609374,0,0,2.36964
1.3505450320080854,0,0,0.34237083740234375,0,0,-0.22932
1.3519336429890245,0,0,0.2537853759765625,0,0,-0.91728
1.3533269760082476,0,0,0.5099649536132812,0,0,1.1465999999999998
1.35472288299934,0,0,1.7645266235351562,0,0,0.53508
1.3561099939979613,0,0,1.9919757812499999,0,0,0.6115200000000001
1.3574971969937906,0,0,1.3383587280273437,0,0,1.5288
1.3588843999896199,0,0,0.603338818359375,0,0,0.6115200000000001
1.3602731410064735,0,0,1.7980454467773437,0,0,1.2994800000000002
1.3616600850073155,0,0,2.5426421630859375,0,0,2.14032
1.3630471029900946,0,0,1.3239935180664062,0,0,1.5288
1.364434307004558,0,0,0.8858546142578124,0,0,0.53508
1.365820843988331,0,0,-0.13646949462890623,0,0,-0.22932
1.367209454998374,0,0,0.02633621826171875,0,0,0.07644000000000001
1.3685971389932092,0,0,2.741360900878906,0,0,0.07644000000000001
1.369988194986945,0,0,3.0621839233398433,0,0,1.1465999999999998
1.3713786939915735,0,0,2.1906945190429687,0,0,2.14032
1.3727662870078348,0,0,0.258573779296875,0,0,1.2994800000000002
1.3741535459994338,0,0,-0.5674257934570313,0,0,-0.30576000000000003
1.375540896988241,0,0,-0.63206923828125,0,0,0.30576000000000003
1.3769292490032967,0,0,1.917755529785156,0,0,1.45236
1.3783161379978992,0,0,2.817975354003906,0,0,1.911
1.379704322986072,0,0,2.2864625854492187,0,0,2.4460800000000003
1.3810910820029676,0,0,1.6136919189453125,0,0,2.4460800000000003
1.3824777670088224,0,0,0.967257470703125,0,0,0.0
1.3838650999823585,0,0,0.6584054565429687,0,0,0.15288000000000002
1.3852525810070802,0,0,1.407790576171875,0,0,1.07016
1.3866393209900707,0,0,1.8602946899414061,0,0,0.84084
1.3880320059834048,0,0,1.608903515625,0,0,0.3822
1.389419024984818,0,0,1.1659762084960936,0,0,0.22932
1.3908062840055209,0,0,0.3711012573242187,0,0,9.40212
1.392194357002154,0,0,1.5035586425781249,0,0,0.91728
1.3935814680007752,0,0,1.668758557128906,0,0,1.37592
1.3949681159865577,0,0,1.5658078857421873,0,0,0.99372
1.396355097007472,0,0,1.3215993164062498,0,0,0.91728
1.3977418569847941,0,0,0.7805097412109374,0,0,1.1465999999999998
1.399129022989655,0,0,0.9457096557617187,0,0,2.06388
1.4005162449902855,0,0,1.9297265380859374,0,0,1.2994800000000002
1.4019030219933484,0,0,1.8698714965820311,0,0,0.68796
1.4032900409947615,0,0,1.5179238525390624,0,0,0.53508
1.4046772439905908,0,0,0.6248866333007812,0,0,0.6115200000000001
1.4060643739940133,0,0,0.47644613037109373,0,0,-0.84084
1.4074521329894196,0,0,0.5770026000976562,0,0,1.2230400000000001
1.4088342809991445,0,0,2.205059729003906,0,0,1.37592
1.4102127619844396,0,0,2.4971523315429685,0,0,0.91728
1.4116013910097536,0,0,0.7350199096679687,0,0,1.45236
1.412995297985617,0,0,0.2442085693359375,0,0,0.7644
1.414382465009112,0,0,-0.30885201416015623,0,0,-1.1465999999999998
1.4157777979853563,0,0,1.8076222534179687,0,0,1.07016
1.4171612790087238,0,0,3.0430303100585934,0,0,2.06388
1.418548130983254,0,0,2.817975354003906,0,0,1.68168
1.4199364820087794,0,0,1.66636435546875,0,0,2.14032
1.4213222230027895,0,0,0.45489831542968745,0,0,1.1465999999999998
1.4227090739877895,0,0,-0.7924807495117187,0,0,-1.2230400000000001
1.4241144630068447,0,0,1.2689268798828124,0,0,0.07644000000000001
1.425502222002251,0,0,2.398990063476562,0,0,2.36964
1.426889313996071,0,0,2.4588451049804685,0,0,1.98744
1.4282766289834399,0,0,1.4604630126953124,0,0,0.99372
1.4296635919890832,0,0,-0.49320554199218747,0,0,1.1465999999999998
1.4310506839829031,0,0,-0.28730419921875,0,0,-9.47856
1.4324388690001797,0,0,1.0797849487304687,0,0,0.91728
1.4338254430040251,0,0,2.8371289672851563,0,0,1.45236
1.435212368000066,0,0,2.252943762207031,0,0,1.2230400000000001
1.4366000529844314,0,0,0.93852705078125,0,0,1.1465999999999998
1.4379868679970969,0,0,0.00239420166015625,0,0,-0.22932
1.4393739420047496,0,0,0.181959326171875,0,0,1.2994800000000002
1.4407630900095683,0,0,2.887407202148437,0,0,2.14032
1.44214960798854,0,0,2.8514941772460936,0,0,0.91728
1.443536384991603,0,0,1.158793603515625,0,0,1.37592
1.4449239409877919,0,0,-0.20829554443359374,0,0,0.07644000000000001
1.446311459003482,0,0,-0.9026140258789062,0,0,-0.91728
1.4476994590077084,0,0,1.8052280517578123,0,0,0.53508
1.4490855330077466,0,0,2.9185318237304685,0,0,1.911
1.450471624993952,0,0,3.162740393066406,0,0,1.83456
1.4518591800006106,0,0,1.2832920898437499,0,0,1.911
1.4532450499827974,0,0,-0.43574470214843747,0,0,0.53508
1.4546324209950399,0,0,-0.5602431884765625,0,0,-0.53508
1.456020976009313,0,0,1.5083470458984374,0,0,0.3822
1.4574072899995372,0,0,3.31357509765625,0,0,2.52252
1.458794197998941,0,0,2.9448680419921875,0,0,1.83456
1.4601806419959757,0,0,1.9656395629882812,0,0,1.45236
1.4615667339821812,0,0,-1.005564697265625,0,0,-8.867040000000001
1.4629547149816062,0,0,-1.3646949462890625,0,0,-0.3822
1.4643421600048896,0,0,0.928950244140625,0,0,0.0
1.4657291409967002,0,0,3.4620156005859375,0,0,1.2994800000000002
1.4671158629935235,0,0,2.8730419921875,0,0,1.75812
1.4685034370049834,0,0,0.5770026000976562,0,0,0.84084
1.469889787986176,0,0,-0.8547299926757812,0,0,0.0
1.4712785099982284,0,0,-0.9840168823242187,0,0,0.68796
1.4726666579954326,0,0,1.8650830932617186,0,0,1.2230400000000001
1.4740534359880257,0,0,2.77727392578125,0,0,1.2994800000000002
1.475440638983855,0,0,2.85388837890625,0,0,1.75812
1.4768278429983184,0,0,1.4891934326171874,0,0,1.75812
1.478214361006394,0,0,0.2154781494140625,0,0,0.0
1.4796021939837374,0,0,0.6775590698242188,0,0,0.6115200000000001
1.4809894530044403,0,0,1.7357962036132812,0,0,1.68168
1.4823762119922321,0,0,2.710236279296875,0,0,0.22932
1.483763859985629,0,0,1.9823989746093749,0,0,1.07016
1.4851503600075375,0,0,1.388636962890625,0,0,1.5288
1.4865371369814966,0,0,-0.46686932373046874,0,0,-0.6115200000000001
1.4879257669963408,0,0,0.689530078125,0,0,0.30576000000000003
1.489312080986565,0,0,1.7118541870117185,0,0,1.75812
1.4906987109861802,0,0,2.607285607910156,0,0,1.45236
1.4920862469880376,0,0,1.9321207397460936,0,0,1.5288
1.4934724690101575,0,0,-0.7781155395507812,0,0,0.15288000000000002
1.4948598769842647,0,0,-1.37906015625,0,0,-1.07016
1.496247339004185,0,0,0.5386953735351562,0,0,0.15288000000000002
1.4976340979919769,0,0,2.9759926635742184,0,0,1.5288
1.49902087598457,0,0,3.19865341796875,0,0,2.06388
1.5004075239994563,0,0,2.6408044311523438,0,0,2.4460800000000003
1.5017942459962796,0,0,-0.16280571289062498,0,0,2.2167600000000003
1.5031820599979255,0,0,-1.5442600708007812,0,0,0.0
1.504579003987601,0,0,1.867477294921875,0,0,-0.30576000000000003
1.5059680779813789,0,0,4.201823913574218,0,0,1.2230400000000001
1.5073556340066716,0,0,4.197035510253906,0,0,2.4460800000000003
1.5087436519970652,0,0,1.4987702392578124,0,0,2.4460800000000003
1.5101309659949038,0,0,-0.5410895751953124,0,0,-1.1465999999999998
1.511519502993906,0,0,-0.8283937744140625,0,0,-0.45864
1.5129081330087502,0,0,0.5865794067382812,0,0,-0.45864
1.514295687986305,0,0,2.24097275390625,0,0,0.3822
1.5156847990001552,0,0,3.1028853515624997,0,0,1.5288
1.5170716689899564,0,0,2.5378537597656248,0,0,2.6754
1.5184584459930193,0,0,-0.6679822631835937,0,0,0.15288000000000002
1.519846149982186,0,0,-0.05985504150390625,0,0,0.91728
1.5212334459938575,0,0,1.39821376953125,0,0,2.14032
1.5226203899946995,0,0,2.6910826660156246,0,0,1.68168
1.5240088709979318,0,0,2.3032219970703123,0,0,1.07016
1.5253950379847083,0,0,1.7238251953125,0,0,1.68168
1.5267822970054112,0,0,-0.11731588134765625,0,0,-0.3822
1.5281664819922298,0,0,0.47884033203125,0,0,-0.15288000000000002
1.5295622219855431,0,0,2.408566870117187,0,0,0.7644
1.5309425739978906,0,0,2.176329309082031,0,0,1.2230400000000001
1.5323313330009114,0,0,1.62805712890625,0,0,0.91728
1.5337179619818926,0,0,-0.05985504150390625,0,0,-0.45864
1.5351051100005861,0,0,-0.9864110839843749,0,0,0.45864
1.5365141840011347,0,0,2.104503259277344,0,0,0.53508
1.537901386996964,0,0,2.6982652709960937,0,0,1.1465999999999998
1.53929079399677,0,0,2.9735984619140625,0,0,2.2931999999999997
1.5406770530098584,0,0,1.7214309936523438,0,0,1.98744
1.5420631830056664,0,0,0.181959326171875,0,0,-9.784320000000001
1.5434506640012842,0,0,-0.00239420166015625,0,0,-0.53508
1.5448380339948926,0,0,1.8171990600585937,0,0,0.68796
1.5462241820059717,0,0,2.8730419921875,0,0,1.68168
1.5476116820063908,0,0,2.2170307373046874,0,0,2.14032
1.548998866986949,0,0,1.199495031738281,0,0,2.4460800000000003
1.550384921982186,0,0,-1.3168109130859373,0,0,-0.7644
1.5517836250073742,0,0,-0.19153613281249998,0,0,0.0
1.5531698100094218,0,0,1.0606313354492187,0,0,0.99372
1.5545561799954157,0,0,2.93050283203125,0,0,0.68796
1.555943290994037,0,0,2.710236279296875,0,0,2.06388
1.5573290690081194,0,0,2.389413256835937,0,0,1.98744
1.5587158279959112,0,0,-0.3806780639648437,0,0,0.3822
1.5601185130071826,0,0,-0.06464344482421874,0,0,-0.45864
1.561528696998721,0,0,1.5370774658203123,0,0,0.3822
1.5629178079834674,0,0,1.946485949707031,0,0,0.45864
1.564330233988585,0,0,2.023100402832031,0,0,0.0
1.5657190849888138,0,0,1.2665326782226562,0,0,0.91728
1.5671221219818108,0,0,0.1292868896484375,0,0,1.83456
1.5685053619963583,0,0,1.1444283935546875,0,0,1.2230400000000001
1.569884528988041,0,0,1.1923124267578125,0,0,1.45236
1.571263268997427,0,0,1.1228805786132812,0,0,1.60524
1.5726493429974653,0,0,1.0965443603515623,0,0,0.91728
1.574034083983861,0,0,1.0390835205078124,0,0,-0.68796
1.5757949859835207,0,0,2.0183119995117185,0,0,1.98744
1.5780787699914072,0,0,2.8945898071289062,0,0,2.14032
1.5794693249918055,0,0,1.4221557861328125,0,0,1.68168
1.5808631209947634,0,0,0.45968671875,0,0,1.37592
1.5822501209913753,0,0,-0.4955997436523437,0,0,-2.2167600000000003
1.5836407500028145,0,0,0.9911994873046874,0,0,-9.784320000000001
1.5850282309984323,0,0,2.4875755249023435,0,0,0.99372
1.5864159159827977,0,0,2.50912333984375,0,0,1.07016
1.58780328600551,0,0,1.3742717529296875,0,0,1.68168
1.5892060640035197,0,0,0.7637503295898437,0,0,1.45236
1.5905931009911,0,0,-0.5123591552734374,0,0,-0.3822
1.5919828040059656,0,0,1.0749965454101562,0,0,0.22932
1.5933687849901617,0,0,2.4971523315429685,0,0,1.45236
1.594755433005048,0,0,2.3343466186523436,0,0,1.75812
1.5961415260098875,0,0,1.697488977050781,0,0,1.2994800000000002
1.59752793298685,0,0,0.10773907470703124,0,0,1.60524
1.5989137470023707,0,0,0.14604630126953125,0,0,0.68796
1.600300061982125,0,0,0.9935936889648437,0,0,0.53508
1.6016860799863935,0,0,2.4109610717773435,0,0,1.75812
1.6030724869924597,0,0,2.185906115722656,0,0,1.1465999999999998
1.6044579870067537,0,0,0.6296750366210937,0,0,0.91728
1.6058425059891306,0,0,-0.04548983154296875,0,0,-1.1465999999999998
1.6072285049885977,0,0,-0.055066638183593745,0,0,0.91728
1.6086346159863751,0,0,2.6216508178710938,0,0,0.3822
1.6100218009960372,0,0,2.73896669921875,0,0,1.1465999999999998
1.6114088379836176,0,0,1.3311761230468748,0,0,1.75812
1.6128050230036024,0,0,0.7445967163085937,0,0,1.1465999999999998
1.614191614993615,0,0,-0.1580173095703125,0,0,-1.37592
1.6155808370094746,0,0,1.5107412475585937,0,0,0.53508
1.6169671700045,0,0,2.729389892578125,0,0,1.83456
1.6183538729965221,0,0,2.389413256835937,0,0,1.2230400000000001
1.619740725000156,0,0,1.5227122558593749,0,0,0.91728
1.621126298996387,0,0,0.5291185668945312,0,0,1.68168
1.6225161319889594,0,0,-1.2425906616210938,0,0,-1.2994800000000002
1.6239037060004193,0,0,1.0558429321289062,0,0,-0.15288000000000002
1.6252893909986597,0,0,3.3303345092773435,0,0,1.75812
1.6266756129916757,0,0,3.105279553222656,0,0,0.3822
1.6280616679869127,0,0,1.8818425048828125,0,0,1.5288
1.6294470010034274,0,0,-0.3854664672851562,0,0,0.7644
1.6308446679904591,0,0,-1.0821791503906248,0,0,0.07644000000000001
1.6322560560074635,0,0,0.7900865478515624,0,0,0.0
1.6336430000083055,0,0,3.0885201416015624,0,0,0.7644
1.6350764439848717,0,0,2.786850732421875,0,0,1.2994800000000002
1.6364617579965852,0,0,1.2856862915039062,0,0,0.91728
1.6378417210071348,0,0,-0.3280056274414062,0,0,-9.32568
1.6392236280080397,0,0,-0.9888052856445312,0,0,0.84084
1.6406051279918756,0,0,2.35589443359375,0,0,0.84084
1.6419842949835584,0,0,2.920926025390625,0,0,1.68168
1.6433631280087866,0,0,1.1156979736328125,0,0,1.911
1.6447443130018655,0,0,0.239420166015625,0,0,1.37592
1.6461234799935482,0,0,-0.8978256225585937,0,0,-0.30576000000000003
1.647516072000144,0,0,1.47482822265625,0,0,0.84084
1.6488960349815898,0,0,2.664746447753906,0,0,2.06388
1.6502753859967925,0,0,3.1028853515624997,0,0,1.68168
1.651655663998099,0,0,1.924938134765625,0,0,2.14032
1.6530352190020494,0,0,0.8906430175781249,0,0,2.14032
1.6544146639935207,0,0,-1.5921441040039062,0,0,-1.1465999999999998
1.6558081260009203,0,0,0.6631938598632812,0,0,-0.7644
1.6572007189970464,0,0,2.5522189697265625,0,0,0.99372
1.6585878109908663,0,0,3.239354846191406,0,0,0.84084
1.6599749400047585,0,0,2.205059729003906,0,0,1.2230400000000001
1.661360550991958,0,0,-0.2753331909179687,0,0,1.75812
1.662747069989564,0,0,-1.5155296508789062,0,0,0.0
1.664134180988185,0,0,-0.2346317626953125,0,0,-0.6115200000000001
1.665521365008317,0,0,2.8610709838867185,0,0,1.2994800000000002
1.6669069759955164,0,0,2.8562825805664063,0,0,2.06388
1.668293383991113,0,0,1.6136919189453125,0,0,1.5288
1.6696790689893533,0,0,-0.30406361083984373,0,0,-0.45864
1.6710658829833847,0,0,-0.9457096557617187,0,0,1.1465999999999998
1.6724532899970654,0,0,1.1827356201171875,0,0,0.15288000000000002
1.6738389749953058,0,0,2.6048914062499997,0,0,-8.867040000000001
1.67522736400133,0,0,2.252943762207031,0,0,1.83456
1.6766138820094056,0,0,1.917755529785156,0,0,1.5288
1.6779996230034158,0,0,0.49320554199218747,0,0,0.30576000000000003
1.6793854190036654,0,0,0.21308394775390624,0,0,1.37592
1.6807715299946722,0,0,1.9608511596679685,0,0,0.68796
1.682157178001944,0,0,2.901772412109375,0,0,0.91728
1.6835423999873456,0,0,1.9512743530273435,0,0,1.2994800000000002
1.6849288069934119,0,0,1.6927005737304686,0,0,1.911
1.6863145100069232,0,0,-0.9121908325195311,0,0,-0.99372
1.6877019550011028,0,0,0.277727392578125,0,0,0.15288000000000002
1.689087231992744,0,0,1.4820108276367188,0,0,0.91728
1.6904778059979435,0,0,2.6695348510742187,0,0,0.68796
1.6918645089899655,0,0,2.327164013671875,0,0,1.68168
1.6932492310006637,0,0,0.07900865478515624,0,0,2.4460800000000003
1.6946349529898725,0,0,-1.3718775512695311,0,0,9.24924
1.6960226749943104,0,0,-0.44053310546874996,0,0,-1.07016
1.6974088420101907,0,0,2.9089550170898435,0,0,2.14032
1.6987947300076485,0,0,3.265691064453125,0,0,1.07016
1.7001904149947222,0,0,2.1068974609374997,0,0,2.2931999999999997
1.701576210994972,0,0,0.35673604736328124,0,0,1.75812
1.702961970004253,0,0,-1.2401964599609374,0,0,0.0
1.7045631340006366,0,0,0.8595183959960937,0,0,0.0
1.705984800006263,0,0,2.4253262817382812,0,0,-8.71416
1.7073668550001457,0,0,2.808398547363281,0,0,2.14032
1.7087593179894611,0,0,2.3223756103515623,0,0,1.1465999999999998
1.7101391879841685,0,0,0.7038952880859375,0,0,-0.45864
1.7115187989838887,0,0,-0.1867477294921875,0,0,0.45864
1.7129012249934021,0,0,1.177947216796875,0,0,0.91728
1.714280724991113,0,0,2.817975354003906,0,0,0.53508
1.715663373004645,0,0,2.50912333984375,0,0,2.06388
1.7170423729985487,0,0,2.0183119995117185,0,0,2.82828
1.7184212610009126,0,0,-0.45489831542968745,0,0,0.0
1.7198073350009508,0,0,-0.16041151123046873,0,0,0.15288000000000002
1.7211995569814462,0,0,2.3056161987304686,0,0,1.2230400000000001
1.7225868529931176,0,0,3.284844677734375,0,0,0.07644000000000001
1.7239746679842938,0,0,2.858676782226562,0,0,1.5288
1.7253606489975937,0,0,0.5291185668945312,0,0,2.4460800000000003
1.7267472969833761,0,0,-0.6248866333007812,0,0,-1.07016
1.728135593002662,0,0,-0.8403647827148437,0,0,-1.1465999999999998
1.7295238339866046,0,0,1.927332336425781,0,0,0.68796
1.7309104070009198,0,0,2.612074011230469,0,0,1.07016
1.7322974810085725,0,0,2.4516625,0,0,1.5288
1.7336848700069822,0,0,0.689530078125,0,0,0.7644
1.7350720549875405,0,0,-0.46208092041015625,0,0,0.68796
1.7364603510068264,0,0,1.2617442749023438,0,0,-0.6115200000000001
1.7378473689896055,0,0,2.061407629394531,0,0,0.7644
1.7392341280065011,0,0,2.43250888671875,0,0,1.98744
1.7406213319918606,0,0,2.4516625,0,0,1.45236
1.7420081089949235,0,0,0.8762778076171874,0,0,-0.30576000000000003
1.7434024609974585,0,0,-0.3687070556640625,0,0,0.0
1.7447956829855684,0,0,0.8690952026367187,0,0,0.3822
1.7461828679952305,0,0,2.6527754394531247,0,0,0.91728
1.7475817560043652,0,0,2.3127988037109373,0,0,2.06388
1.7489696260017809,0,0,2.0877438476562498,0,0,2.82828
1.7503561449993867,0,0,-0.4525041137695312,0,0,-0.99372
1.7517444039986003,0,0,-0.6464344482421874,0,0,-0.15288000000000002
1.7531318289984483,0,0,2.5139117431640625,0,0,2.14032
1.7545185140043031,0,0,3.0885201416015624,0,0,0.30576000000000003
1.755906070000492,0,0,2.961627453613281,0,0,1.911
1.7572926989814732,0,0,0.8643067993164062,0,0,1.911
1.7586796429823153,0,0,-0.35673604736328124,0,0,-0.91728
1.760068086994579,0,0,-1.0654197387695312,0,0,-1.5288
1.761455419997219,0,0,1.7501614135742187,0,0,1.1465999999999998
1.7628423279966228,0,0,2.3511060302734372,0,0,1.2994800000000002
1.7642357900040224,0,0,2.231395947265625,0,0,0.45864
1.7656231419823598,0,0,0.9313444458007812,0,0,2.4460800000000003
1.7670098079834133,0,0,-0.29448680419921874,0,0,0.45864
1.768397196981823,0,0,1.0702081420898437,0,0,0.22932
1.7697840119944885,0,0,1.8004396484374998,0,0,1.5288
1.7711711220035795,0,0,2.212242333984375,0,0,1.75812
1.7725581220001914,0,0,2.0087351928710935,0,0,0.91728
1.7739447699859738,0,0,1.2378022583007813,0,0,0.07644000000000001
1.7753317139868159,0,0,0.00718260498046875,0,0,1.1465999999999998
1.7767183069954626,0,0,1.6448165405273436,0,0,0.0
1.7781049920013174,0,0,2.379836450195312,0,0,0.22932
1.7794912320096046,0,0,1.6927005737304686,0,0,0.99372
1.7808713429840282,0,0,1.458068811035156,0,0,0.68796
1.7822495650034398,0,0,-0.7900865478515624,0,0,-1.75812
1.7836435089993756,0,0,0.239420166015625,0,0,0.30576000000000003
1.7850298609992024,0,0,2.090138049316406,0,0,1.5288
1.786415898008272,0,0,2.588131994628906,0,0,0.91728
1.7878096939821262,0,0,1.4437036010742186,0,0,1.37592
1.7891945079900324,0,0,0.08858546142578125,0,0,1.98744
1.7905800449952949,0,0,-0.5243301635742187,0,0,-0.91728
1.7919678039907012,0,0,0.2825157958984375,0,0,0.7644
1.7933535079937428,0,0,2.959233251953125,0,0,2.4460800000000003
1.794739340984961,0,0,3.0789433349609374,0,0,0.91728
1.7961255809932481,0,0,1.9033903198242186,0,0,1.75812
1.7975109519902617,0,0,0.29927520751953124,0,0,1.60524
1.7988968959834892,0,0,-0.7517793212890624,0,0,-0.7644
1.8002840990084223,0,0,1.5251064575195312,0,0,-0.7644
1.8016704879992176,0,0,2.722207287597656,0,0,0.99372
1.8030562659841962,0,0,1.8626888916015625,0,0,1.68168
1.8044413019961212,0,0,1.7621324218749999,0,0,0.7644
1.805824876006227,0,0,0.33518823242187495,0,0,0.45864
1.8072090430068783,0,0,-0.09576806640624999,0,0,0.7644
1.8086050609999802,0,0,1.4341267944335936,0,0,0.07644000000000001
1.8099919309897814,0,0,1.7956512451171873,0,0,0.45864
1.811378115991829,0,0,1.9656395629882812,0,0,1.98744
1.8127649119996931,0,0,1.93451494140625,0,0,1.911
1.8141527269908693,0,0,0.27293898925781246,0,0,-0.91728
1.8155393000051845,0,0,0.7829039428710937,0,0,1.2994800000000002
1.816934484988451,0,0,2.375048046875,0,0,0.99372
1.8183208550035488,0,0,2.6958710693359373,0,0,0.84084
1.8197086330037564,0,0,1.4030021728515625,0,0,1.68168
1.8210937069961801,0,0,-0.59376201171875,0,0,1.83456
1.822493651008699,0,0,-1.1731588134765625,0,0,-1.75812
1.8238831140042748,0,0,-0.0383072265625,0,0,-0.53508
1.8252696319832467,0,0,3.5625720703124997,0,0,0.45864
1.8277198020077776,0,0,1.8411410766601561,0,0,1.5288
1.8291189500014298,0,0,-0.40222587890625,0,0,2.06388
1.8305086540058255,0,0,-1.4939818359375,0,0,-1.2994800000000002
1.8319179310055915,0,0,-0.7038952880859375,0,0,-1.1465999999999998
1.83330554200802,0,0,3.6655227416992187,0,0,2.36964
1.8346925969817676,0,0,4.2688615600585935,0,0,1.07016
1.8360805780102964,0,0,2.001552587890625,0,0,2.2167600000000003
1.8374662630085368,0,0,-0.201112939453125,0,0,2.4460800000000003
1.8388532999961171,0,0,-1.8148048583984373,0,0,-0.6115200000000001
1.8402415039890911,0,0,0.9983820922851562,0,0,-0.99372
1.8416287440049928,0,0,3.019088293457031,0,0,1.75812
1.8430146879982203,0,0,2.7748797241210936,0,0,1.83456
1.8444008920050692,0,0,1.6927005737304686,0,0,0.53508
1.845786780002527,0,0,0.44532150878906246,0,0,1.68168
1.847173001995543,0,0,-1.139639990234375,0,0,0.07644000000000001
1.848559464997379,0,0,1.0821791503906248,0,0,-0.15288000000000002
1.8499454839911778,0,0,2.7437551025390623,0,0,0.91728
1.851340667984914,0,0,2.4301146850585935,0,0,2.14032
1.852729278994957,0,0,1.7190367919921874,0,0,0.99372
1.85411494600703,0,0,-1.0199299072265624,0,0,-0.6115200000000001
1.8555028529954143,0,0,-0.5195417602539062,0,0,0.53508
1.8568908709858079,0,0,2.094926452636719,0,0,0.68796
1.8582767229818273,0,0,4.141968872070312,0,0,0.7644
1.8596641669864766,0,0,2.6048914062499997,0,0,2.36964
1.8610506299883127,0,0,-0.70868369140625,0,0,2.36964
1.8624375549843535,0,0,-2.0302830078125,0,0,-1.45236
1.8638257959973998,0,0,-1.467645617675781,0,0,-1.07016
1.865212109987624,0,0,3.5386300537109374,0,0,1.1465999999999998
1.8665983139944728,0,0,4.709394665527343,0,0,1.2230400000000001
1.8679852949862834,0,0,1.9919757812499999,0,0,1.68168
1.8693708689825144,0,0,-0.28012159423828126,0,0,2.6754
1.87075762799941,0,0,-2.068590234375,0,0,8.56128
1.8721445350092836,0,0,-0.40222587890625,0,0,-2.2931999999999997
1.8735316279926337,0,0,2.4301146850585935,0,0,0.45864
1.8749181460007094,0,0,4.390965844726562,0,0,0.68796
1.8763155159831513,0,0,2.8227637573242186,0,0,1.1465999999999998
1.8777011449856218,0,0,0.4213794921875,0,0,2.4460800000000003
1.8790875340055209,0,0,-2.5234885498046875,0,0,-1.1465999999999998
1.8804745519883,0,0,-0.8283937744140625,0,0,-2.2167600000000003
1.8818693110079039,0,0,0.82360537109375,0,0,0.68796
1.8832567369972821,0,0,2.6384102294921874,0,0,0.22932
1.8846485140093137,0,0,2.3319524169921872,0,0,0.68796
1.8860344589920714,0,0,-0.7038952880859375,0,0,2.2167600000000003
1.8874221250007395,0,0,-1.9608511596679685,0,0,7.18536
1.888808939984301,0,0,-1.43652099609375,0,0,20
1.890195383981336,0,0,1.8052280517578123,0,0,0.6115200000000001
1.8915820319962222,0,0,2.9831752685546875,0,0,-0.3822
1.8929691239900421,0,0,1.9776105712890624,0,0,3.13404
1.8943555869918782,0,0,0.023942016601562498,0,0,0.45864
1.895742438005982,0,0,-0.7876923461914062,0,0,-9.32568
1.8971293460053857,0,0,0.2753331909179687,0,0,1.2994800000000002
1.8985152899986133,0,0,2.5354595581054684,0,0,-1.83456
1.8999029379920103,0,0,3.0980969482421874,0,0,2.82828
1.9012879189976957,0,0,1.9608511596679685,0,0,0.53508
1.902678084996296,0,0,1.2018892333984375,0,0,0.0
1.9040643819898833,0,0,-2.3726538452148436,0,0,8.48484
1.9055031769967172,0,0,-2.2601263671875,0,0,-3.822
1.9068856769881677,0,0,-1.0223241088867188,0,0,1.07016
1.9082806759979576,0,0,2.3918074584960936,0,0,-1.1465999999999998
1.9096612319990527,0,0,2.461239306640625,0,0,4.28064
1.9110405280080158,0,0,0.1149216796875,0,0,1.37592
1.912422286986839,0,0,0.10773907470703124,0,0,1.83456
1.9138010460010264,0,0,-2.0183119995117185,0,0,0.15288000000000002
1.9151806570007466,0,0,-0.11252747802734374,0,0,20
1.9165641569998115,0,0,1.3048399047851562,0,0,2.2931999999999997
1.9179423050081823,0,0,3.909731311035156,0,0,20
1.9193439529917669,0,0,3.0502129150390624,0,0,4.8921600000000005
1.9207248789898586,0,0,1.7669208251953124,0,0,-9.47856
1.9221050449996255,0,0,-0.9241618408203125,0,0,2.2167600000000003
1.923484840983292,0,0,-2.319981408691406,0,0,-4.12776
1.9248654889815953,0,0,-1.6065093139648436,0,0,-1.68168
1.9262458409939427,0,0,1.4891934326171874,0,0,-2.2167600000000003
1.9276445810100995,0,0,3.404554760742187,0,0,2.06388
1.9290314509999007,0,0,1.3335703247070312,0,0,0.6115200000000001
1.9304178029997274,0,0,0.41898529052734373,0,0,2.4460800000000003
1.9318093399924692,0,0,-1.0678139404296874,0,0,0.0
1.9331948400067631,0,0,-0.7589619262695312,0,0,0.30576000000000003
1.9345814129919745,0,0,0.30406361083984373,0,0,-0.91728
1.9359688019903842,0,0,2.4061726684570313,0,0,9.172799999999999
1.9373543020046782,0,0,2.5713725830078125,0,0,0.3822
1.9387406349997036,0,0,2.6695348510742187,0,0,0.84084
1.9402521890006028,0,0,0.9097966308593749,0,0,1.60524
1.9416562620026525,0,0,-0.3112462158203125,0,0,0.22932
1.943045224994421,0,0,-0.8762778076171874,0,0,-0.6115200000000001
1.9444335029984359,0,0,-0.12210428466796874,0,0,-20
1.9458220759988762,0,0,1.177947216796875,0,0,20
1.9472085949964821,0,0,1.2713210815429687,0,0,0.45864
1.9485947059874889,0,0,1.0534487304687499,0,0,0.0
1.949980389996199,0,0,0.12210428466796874,0,0,0.53508
1.9513666499988176,0,0,0.28730419921875,0,0,20
1.9527530199848115,0,0,0.9313444458007812,0,0,0.91728
1.954138575005345,0,0,1.5298948608398437,0,0,0.91728
1.9555243529903237,0,0,1.3766659545898436,0,0,0.3822
1.9569102969835512,0,0,0.833182177734375,0,0,0.53508
1.95829625998158,0,0,0.8355763793945312,0,0,0.0
1.9596844819898251,0,0,0.4860229370117187,0,0,-0.99372
1.9610710740089417,0,0,0.8882488159179687,0,0,0.30576000000000003
1.9624572029861156,0,0,0.8403647827148437,0,0,8.4084
1.9638934989925474,0,0,0.8810662109374999,0,0,0.84084
1.9652794059948064,0,0,0.4644751220703125,0,0,1.2230400000000001
1.9666652389860246,0,0,0.44532150878906246,0,0,0.0
1.9680518500099424,0,0,0.19632453613281248,0,0,-8.943480000000001
1.9694378869899083,0,0,0.5626373901367188,0,0,0.6115200000000001
1.9708261830091942,0,0,1.1037269653320312,0,0,0.0
1.9722124789841473,0,0,1.6903063720703124,0,0,0.6115200000000001
1.9735982379934285,0,0,1.9608511596679685,0,0,0.91728
1.9749840709846467,0,0,1.1540052001953125,0,0,0.99372
1.9763710149854887,0,0,0.7422025146484375,0,0,-0.53508
1.977757571003167,0,0,0.38307226562499996,0,0,0.07644000000000001
1.9791432739875745,0,0,0.09337386474609374,0,0,20
1.9805310329829808,0,0,1.1444283935546875,0,0,0.0
1.9819171999988612,0,0,1.6519991455078125,0,0,1.1465999999999998
1.9833036809868645,0,0,0.6631938598632812,0,0,-9.784320000000001
1.9846905689919367,0,0,-0.10295067138671875,0,0,0.91728
1.9860773469845299,0,0,0.05027823486328125,0,0,-0.53508
1.987463494995609,0,0,0.35194764404296874,0,0,0.30576000000000003
1.9888623459846713,0,0,1.608903515625,0,0,0.91728
1.9902804009907413,0,0,2.4013842651367185,0,0,0.7644
1.9916954560030717,0,0,1.70467158203125,0,0,1.75812
1.9930834370024968,0,0,0.3687070556640625,0,0,0.45864
1.9944693080033176,0,0,0.11252747802734374,0,0,0.30576000000000003
1.995855066983495,0,0,0.15083470458984374,0,0,-0.3822
1.9974043050024193,0,0,0.7517793212890624,0,0,-20
1.9987872680067085,0,0,1.2952630981445312,0,0,-20
2.0001695640094113,0,0,1.7908628417968748,0,0,0.7644
2.0015496560081374,0,0,1.3479355346679687,0,0,0.7644
2.0029471929883584,0,0,-0.031124621582031248,0,0,0.7644
2.004335932986578,0,0,-0.47644613037109373,0,0,20
2.0057235999847762,0,0,-0.22266075439453123,0,0,20
2.007118100009393,0,0,1.7573440185546874,0,0,-0.45864
2.0085049140034243,0,0,1.8770541015625,0,0,0.53508
2.0098913210094906,0,0,1.22583125,0,0,0.6115200000000001
2.0112778949842323,0,0,0.5195417602539062,0,0,0.45864
2.0126641539973207,0,0,0.4572925170898437,0,0,0.07644000000000001
2.0140503759903368,0,0,0.928950244140625,0,0,0.30576000000000003
2.0154368020012043,0,0,1.0175357055664063,0,0,0.0
2.0169694109936245,0,0,0.6607996582031249,0,0,0.0
2.0183640769973863,0,0,0.699106884765625,0,0,20
2.0197526319825556,0,0,1.1276689819335937,0,0,0.15288000000000002
2.021139040007256,0,0,1.0438719238281249,0,0,0.0
2.0225256879930384,0,0,1.01514150390625,0,0,0.84084
2.023913316981634,0,0,0.1771709228515625,0,0,0.30576000000000003
2.025299205997726,0,0,-0.16280571289062498,0,0,0.0
2.0266865199955646,0,0,-0.00239420166015625,0,0,0.3822
2.0280742610048037,0,0,1.2665326782226562,0,0,0.07644000000000001
2.0294603719958104,0,0,1.5490484741210937,0,0,1.07016
2.0308469269948546,0,0,1.4628572143554686,0,0,0.91728
2.0322370379872154,0,0,0.8834604125976562,0,0,0.68796
2.033623630006332,0,0,0.36152445068359373,0,0,-20
2.0350101109943353,0,0,0.16759411621093748,0,0,20
2.036396869982127,0,0,0.5482721801757812,0,0,-20
2.0377831110090483,0,0,1.675941162109375,0,0,-0.45864
2.03916968498379,0,0,1.5346832641601562,0,0,0.53508
2.040556480991654,0,0,1.1348515869140625,0,0,0.15288000000000002
2.041945425007725,0,0,0.16998831787109375,0,0,20
2.043335536000086,0,0,-0.14125789794921875,0,0,-9.784320000000001
2.04472349898424,0,0,0.5147533569335937,0,0,0.07644000000000001
2.0461095909995493,0,0,0.9648632690429687,0,0,0.3822
2.047495942999376,0,0,1.350329736328125,0,0,1.37592
2.0488822940096725,0,0,1.2785036865234374,0,0,0.6115200000000001
2.050267979007913,0,0,0.7422025146484375,0,0,0.3822
2.0516826270031743,0,0,0.6177040283203125,0,0,0.53508
2.0530688489961904,0,0,0.6248866333007812,0,0,1.1465999999999998
2.0544551629864145,0,0,0.86191259765625,0,0,0.30576000000000003
2.0558416259882506,0,0,1.0989385620117187,0,0,0.45864
2.0572268109826837,0,0,1.0773907470703123,0,0,0.53508
2.0586123850080185,0,0,0.9935936889648437,0,0,0.0
2.059998699987773,0,0,0.7948749511718749,0,0,0.07644000000000001
2.061383847001707,0,0,0.7158662963867187,0,0,0.0
2.0627695879957173,0,0,0.6416460449218749,0,0,0.45864
2.064162939990638,0,0,0.5363011718749999,0,0,0.0
2.0655488279880956,0,0,0.4261678955078125,0,0,0.0
2.066934420989128,0,0,1.0414777221679687,0,0,0.3822
2.0683206800022162,0,0,1.3000515014648437,0,0,0.22932
2.069706012989627,0,0,0.7038952880859375,0,0,0.84084
2.071091975987656,0,0,0.603338818359375,0,0,0.15288000000000002
2.0724778459989466,0,0,0.9361328491210937,0,0,0.45864
2.0738634940062184,0,0,1.2210428466796874,0,0,0.6115200000000001
2.075249455985613,0,0,1.4317325927734375,0,0,0.84084
2.0776803309854586,0,0,1.0773907470703123,0,0,0.99372
2.079119014990283,0,0,1.024718310546875,0,0,0.15288000000000002
2.0805095520045143,0,0,1.2018892333984375,0,0,0.45864
2.0818889219954144,0,0,1.8531120849609375,0,0,0.6115200000000001
2.0832676999852993,0,0,1.7214309936523438,0,0,0.84084
2.084659180982271,0,0,1.5346832641601562,0,0,1.1465999999999998
2.0860462920099963,0,0,1.22583125,0,0,0.99372
2.087433198990766,0,0,0.9552864624023437,0,0,1.1465999999999998
2.088820309989387,0,0,1.13006318359375,0,0,0.30576000000000003
2.0902067729912233,0,0,1.3479355346679687,0,0,0.53508
2.0915988280030433,0,0,1.2569558715820313,0,0,0.45864
2.092986753996229,0,0,1.5370774658203123,0,0,0.68796
2.0943731050065253,0,0,1.2497732666015624,0,0,1.1465999999999998
2.0957785309874453,0,0,1.0941501586914062,0,0,0.7644
2.0971664380049333,0,0,1.0893617553710937,0,0,0.84084
2.09855236398289,0,0,1.1133037719726562,0,0,1.37592
2.099938936997205,0,0,1.4532804077148436,0,0,0.30576000000000003
2.1013252709817607,0,0,1.2761094848632812,0,0,0.68796
2.102711696003098,0,0,1.5275006591796874,0,0,0.91728
2.1041139180015307,0,0,1.1611878051757811,0,0,0.6115200000000001
2.1055072140006814,0,0,1.3287819213867187,0,0,0.3822
2.1068993429944385,0,0,1.2856862915039062,0,0,0.6115200000000001
2.1082904360082466,0,0,1.1851298217773436,0,0,0.53508
2.1096772869932465,0,0,1.2473790649414063,0,0,0.22932
2.1110630279872566,0,0,1.2713210815429687,0,0,0.6115200000000001
2.1124494909890927,0,0,1.2976572998046874,0,0,0.84084
2.1142242809874006,0,0,1.3527239379882812,0,0,0.53508
2.1156913169834297,0,0,1.4006079711914061,0,0,0.7644
2.1172127409954555,0,0,1.5275006591796874,0,0,-8.7906
2.11929775000317,0,0,1.1731588134765625,0,0,0.0
2.121398961986415,0,0,1.5131354492187499,0,0,0.6115200000000001
2.1237329859868623,0,0,1.4724340209960938,0,0,1.2230400000000001
2.125179392984137,0,0,1.1659762084960936,0,0,1.2230400000000001
2.1266388729854953,0,0,0.9433154541015625,0,0,0.6115200000000001
2.128738473984413,0,0,1.180341418457031,0,0,0.6115200000000001
2.1301840840023942,0,0,1.2665326782226562,0,0,0.3822
2.1317890439822804,0,0,1.2617442749023438,0,0,0.68796
2.133716424985323,0,0,1.5059528442382812,0,0,0.99372
2.1350982949952595,0,0,1.2737152832031249,0,0,0.91728
2.1364835359854624,0,0,1.2473790649414063,0,0,0.91728
2.1378628319944255,0,0,1.158793603515625,0,0,0.53508
2.1392417019815184,0,0,1.1085153686523437,0,0,0.45864
2.140621850005118,0,0,1.4125789794921875,0,0,0.53508
2.1420005350082647,0,0,1.407790576171875,0,0,1.2230400000000001
2.1433792389871087,0,0,1.467645617675781,0,0,0.6115200000000001
2.1447717389964964,0,0,1.2401964599609374,0,0,0.22932
2.1461506460036617,0,0,1.1923124267578125,0,0,0.6115200000000001
2.1475296090065967,0,0,1.1707646118164061,0,0,0.68796
2.148910424002679,0,0,1.0965443603515623,0,0,0.68796
2.1502887009992264,0,0,1.2521674682617188,0,0,1.2230400000000001
2.1517134780006018,0,0,1.484405029296875,0,0,0.91728
2.153094273991883,0,0,1.216254443359375,0,0,0.84084
2.154475571005605,0,0,1.455674609375,0,0,0.91728
2.155873754993081,0,0,1.2880804931640624,0,0,0.91728
2.1572520890040323,0,0,1.5131354492187499,0,0,0.6115200000000001
2.1586309589911252,0,0,1.3096283081054687,0,0,0.45864
2.1600203289999627,0,0,1.2138602416992186,0,0,0.53508
2.161407439998584,0,0,1.2976572998046874,0,0,0.15288000000000002
2.1627938660094514,0,0,1.177947216796875,0,0,0.53508
2.1641810500004794,0,0,1.4724340209960938,0,0,0.68796
2.1655666059814394,0,0,1.16837041015625,0,0,0.53508
2.16695271700155,0,0,1.2497732666015624,0,0,0.6115200000000001
2.168339013005607,0,0,1.0773907470703123,0,0,0.84084
2.1697231419966556,0,0,1.0103531005859374,0,0,0.3822
2.171724040992558,0,0,1.3814543579101561,0,0,0.22932
2.1732562239922117,0,0,1.3239935180664062,0,0,0.53508
2.1747377599822357,0,0,1.6232687255859375,0,0,1.2994800000000002
2.1763904969848227,0,0,1.2330138549804688,0,0,0.7644
2.1777683479886036,0,0,1.2569558715820313,0,0,0.45864
2.179143977991771,0,0,1.1180921752929687,0,0,0.6115200000000001
2.180533328995807,0,0,1.1372457885742187,0,0,0.6115200000000001
2.1819072180078365,0,0,1.3144167114257812,0,0,0.15288000000000002
2.1832812179927714,0,0,1.4939818359375,0,0,0.53508
2.184656865982106,0,0,1.7645266235351562,0,0,0.99372
2.186030885000946,0,0,1.407790576171875,0,0,0.53508
2.1874236989824567,0,0,1.3431471313476562,0,0,0.84084
2.188807161990553,0,0,1.1827356201171875,0,0,0.84084
2.1901811989955604,0,0,1.1635820068359375,0,0,0.91728
2.1915547919925302,0,0,1.1923124267578125,0,0,0.99372
2.19293103198288,0,0,1.4245499877929686,0,0,0.7644
2.1943042909842916,0,0,1.2569558715820313,0,0,0.45864
2.1956866619875655,0,0,1.4796166259765624,0,0,0.84084
2.1970603469817434,0,0,1.3455413330078123,0,0,0.7644
2.1984335870074574,0,0,1.3742717529296875,0,0,0.7644
2.1998156429908704,0,0,1.189918225097656,0,0,0.53508
2.201199050003197,0,0,0.9193734375,0,0,0.22932
2.2025827349862084,0,0,1.24498486328125,0,0,0.07644000000000001
2.203963178995764,0,0,1.3215993164062498,0,0,0.68796
2.2053360499849077,0,0,1.37906015625,0,0,0.6115200000000001
2.206709697988117,0,0,1.2306196533203124,0,0,0.45864
2.2080929380026646,0,0,1.3168109130859373,0,0,0.91728
2.2094772899872623,0,0,1.0821791503906248,0,0,0.68796
2.2108609009883367,0,0,1.1731588134765625,0,0,0.99372
2.2122446229914203,0,0,1.1563994018554686,0,0,1.37592
2.2136283639993053,0,0,1.4508862060546874,0,0,1.07016
2.215017270995304,0,0,1.3479355346679687,0,0,0.91728
2.21640084500541,0,0,1.66636435546875,0,0,1.07016
2.217784381005913,0,0,1.426944189453125,0,0,0.91728
2.2191680849937256,0,0,1.3335703247070312,0,0,1.1465999999999998
2.22055163999903,0,0,1.177947216796875,0,0,1.1465999999999998
2.2222253209911287,0,0,1.1372457885742187,0,0,1.83456
2.2236277839983813,0,0,1.4532804077148436,0,0,0.68796
2.225012690993026,0,0,1.2234370483398436,0,0,0.91728
2.2263972829969134,0,0,1.5322890624999999,0,0,0.99372
2.227782839006977,0,0,1.1875240234375,0,0,0.84084
2.229170226986753,0,0,1.235408056640625,0,0,0.0
2.230553356988821,0,0,1.0797849487304687,0,0,0.6115200000000001
2.2319450420036446,0,0,1.1228805786132812,0,0,0.30576000000000003
2.233332411997253,0,0,1.2425906616210938,0,0,-20
2.2347073559940327,0,0,1.1731588134765625,0,0,0.6115200000000001
2.236088948993711,0,0,1.4867992309570313,0,0,0.68796
2.237471836997429,0,0,1.2330138549804688,0,0,0.53508
2.2388548929884564,0,0,1.3000515014648437,0,0,-8.867040000000001
2.240239967009984,0,0,1.1659762084960936,0,0,0.7644
2.241623243986396,0,0,1.1635820068359375,0,0,0.99372
2.2430067810055334,0,0,1.2808978881835937,0,0,0.99372
2.2443945400009397,0,0,1.388636962890625,0,0,0.6115200000000001
2.2457777069939766,0,0,1.3742717529296875,0,0,0.53508
2.2471688549849205,0,0,1.6136919189453125,0,0,1.1465999999999998
2.2485452799883205,0,0,1.3383587280273437,0,0,1.1465999999999998
2.249918521003565,0,0,1.2330138549804688,0,0,1.07016
2.2512913169921376,0,0,1.254561669921875,0,0,0.99372
2.252677576005226,0,0,1.1252747802734375,0,0,0.68796
2.254060520994244,0,0,1.2880804931640624,0,0,0.30576000000000003
2.2554434089979623,0,0,1.3359645263671873,0,0,0.7644
2.25682659400627,0,0,1.6831237670898436,0,0,0.7644
2.2582098720013164,0,0,1.235408056640625,0,0,0.84084
2.2595936869911384,0,0,1.254561669921875,0,0,0.84084
2.2609759460028727,0,0,1.1923124267578125,0,0,0.68796
2.262359020009171,0,0,1.20667763671875,0,0,0.6115200000000001
2.2637430379982106,0,0,1.2210428466796874,0,0,0.45864
2.265125056001125,0,0,1.465251416015625,0,0,0.45864
2.266508166998392,0,0,1.5610194824218748,0,0,0.7644
2.267891833995236,0,0,1.5729904907226562,0,0,0.7644
2.2692738339828793,0,0,1.3048399047851562,0,0,0.84084
2.2706568150024395,0,0,1.1875240234375,0,0,0.91728
2.272036610986106,0,0,1.0821791503906248,0,0,0.68796
2.27340831499896,0,0,1.22583125,0,0,0.99372
2.274781740998151,0,0,1.3934253662109375,0,0,0.45864
2.2762223689933307,0,0,1.3527239379882812,0,0,0.91728
2.277604850998614,0,0,1.5777788940429687,0,0,0.68796
2.278986702003749,0,0,1.3527239379882812,0,0,1.1465999999999998
2.2803712019813247,0,0,1.3096283081054687,0,0,-9.172799999999999
2.281753460993059,0,0,1.1707646118164061,0,0,0.6115200000000001
2.2831357569957618,0,0,1.1228805786132812,0,0,0.3822
2.284518145985203,0,0,1.3934253662109375,0,0,0.0
2.2858998120063916,0,0,1.3742717529296875,0,0,0.91728
2.2872817940078676,0,0,1.2976572998046874,0,0,0.7644
2.2886643490055576,0,0,1.2665326782226562,0,0,0.30576000000000003
2.290046145004453,0,0,1.2282254516601563,0,0,1.2994800000000002
2.2914276079973206,0,0,1.1731588134765625,0,0,1.2230400000000001
2.292809774982743,0,0,1.0917559570312498,0,0,0.99372
2.2941911079979036,0,0,1.2114660400390624,0,0,1.2230400000000001
2.295582125982037,0,0,1.37906015625,0,0,0.6115200000000001
2.2969644959957805,0,0,1.2330138549804688,0,0,0.45864
2.2983465520082973,0,0,1.7621324218749999,0,0,1.07016
2.2997299029957503,0,0,1.218648645019531,0,0,1.07016
2.301111551001668,0,0,1.2880804931640624,0,0,0.53508
2.3024934209825005,0,0,1.1755530151367186,0,0,0.68796
2.3038765320088714,0,0,1.2018892333984375,0,0,0.3822
2.3052889950049575,0,0,1.2593500732421874,0,0,0.0
2.3066735320026055,0,0,1.3072341064453123,0,0,0.53508
2.308063939010026,0,0,1.5729904907226562,0,0,0.6115200000000001
2.3094478269922547,0,0,1.199495031738281,0,0,0.53508
2.3108301789907273,0,0,1.2808978881835937,0,0,0.91728
2.312211493990617,0,0,1.16837041015625,0,0,0.7644
2.3136176409898326,0,0,1.1085153686523437,0,0,0.7644
2.315001882001525,0,0,1.16837041015625,0,0,0.99372
2.316385010984959,0,0,1.3000515014648437,0,0,0.84084
2.317771456000628,0,0,1.3742717529296875,0,0,0.84084
2.3191535669902805,0,0,1.7788918334960937,0,0,0.7644
2.320549102994846,0,0,1.2928688964843749,0,0,1.1465999999999998
2.321931787999347,0,0,1.0773907470703123,0,0,1.07016
2.323313639994012,0,0,1.149216796875,0,0,0.3822
2.3246953249908984,0,0,1.0654197387695312,0,0,0.7644
2.3260762880090624,0,0,1.189918225097656,0,0,0.07644000000000001
2.3275066200003494,0,0,1.369483349609375,0,0,0.53508
2.328946007997729,0,0,1.6448165405273436,0,0,1.07016
2.330376119003631,0,0,1.1707646118164061,0,0,1.07016
2.3317529699997976,0,0,1.189918225097656,0,0,0.68796
2.33312611898873,0,0,0.967257470703125,0,0,0.6115200000000001
2.334499247983331,0,0,1.2234370483398436,0,0,0.53508
2.335875580989523,0,0,1.3455413330078123,0,0,0.45864
2.3372484520077705,0,0,1.446097802734375,0,0,0.45864
2.338621840986889,0,0,1.5514426757812498,0,0,0.99372
2.3399989329918753,0,0,1.4532804077148436,0,0,0.68796
2.3413720630051102,0,0,1.2497732666015624,0,0,1.2230400000000001
2.3427453769836575,0,0,1.158793603515625,0,0,0.91728
2.344134413986467,0,0,1.35990654296875,0,0,0.91728
2.345518007001374,0,0,1.350329736328125,0,0,1.37592
2.34690128400689,0,0,1.5083470458984374,0,0,0.84084
2.3482853210007306,0,0,1.3120225097656248,0,0,0.45864
2.3496682650002185,0,0,1.5466542724609373,0,0,1.07016
2.351051006000489,0,0,1.3383587280273437,0,0,0.84084
2.3524351170053706,0,0,1.2665326782226562,0,0,0.84084
2.3538190049875993,0,0,1.1827356201171875,0,0,0.84084
2.3552035609900486,0,0,0.9959878906249999,0,0,0.30576000000000003
2.356580079009291,0,0,1.3024457031249999,0,0,20
2.3579554309835657,0,0,1.4867992309570313,0,0,0.45864
2.3593288569827564,0,0,1.6927005737304686,0,0,0.84084
2.360712838009931,0,0,1.3311761230468748,0,0,0.3822
2.362094968004385,0,0,1.1707646118164061,0,0,0.99372
2.3635032629827037,0,0,1.2330138549804688,0,0,0.6115200000000001
2.364886392984772,0,0,1.149216796875,0,0,0.7644
2.3662685960007366,0,0,1.120486376953125,0,0,1.2230400000000001
2.3676514480030164,0,0,1.39821376953125,0,0,0.7644
2.3690332630067132,0,0,1.3000515014648437,0,0,0.6115200000000001
2.3704152069985867,0,0,1.4604630126953124,0,0,0.99372
2.3717985399998724,0,0,1.254561669921875,0,0,1.2994800000000002
2.37318024400156,0,0,1.2138602416992186,0,0,1.07016
2.3745626689924393,0,0,1.1947066284179686,0,0,0.7644
2.3759491509990767,0,0,1.1635820068359375,0,0,1.45236
2.3775380739825778,0,0,1.3263877197265623,0,0,0.45864
2.378923035983462,0,0,1.3359645263671873,0,0,0.68796
2.3803064069943503,0,0,1.484405029296875,0,0,0.3822
2.381689369009109,0,0,1.2665326782226562,0,0,0.84084
2.3830723139981274,0,0,1.2928688964843749,0,0,0.7644
2.38445572098135,0,0,1.1109095703125,0,0,0.53508
2.3858434979920276,0,0,1.1659762084960936,0,0,0.6115200000000001
2.387226721009938,0,0,1.1180921752929687,0,0,0.0
2.3886027020053007,0,0,1.39821376953125,0,0,0.91728
2.38997616499546,0,0,1.4006079711914061,0,0,0.53508
2.3913497760077007,0,0,1.0989385620117187,0,0,0.7644
2.392733293992933,0,0,1.1707646118164061,0,0,0.6115200000000001
2.3941158310044557,0,0,1.1563994018554686,0,0,0.84084
2.395499182981439,0,0,1.1037269653320312,0,0,1.07016
2.396882164000999,0,0,1.2497732666015624,0,0,0.6115200000000001
2.398265016003279,0,0,1.3742717529296875,0,0,0.6115200000000001
2.3996488669945393,0,0,1.3551181396484375,0,0,0.6115200000000001
2.401031922985567,0,0,1.8100164550781248,0,0,1.2230400000000001
2.402415144984843,0,0,1.2832920898437499,0,0,1.2230400000000001
2.4037960520072374,0,0,1.2928688964843749,0,0,0.7644
2.4051680889970157,0,0,1.0773907470703123,0,0,0.45864
2.4065413479984272,0,0,1.180341418457031,0,0,0.6115200000000001
2.407934088987531,0,0,1.235408056640625,0,0,0.0
2.409316403005505,0,0,1.2210428466796874,0,0,0.45864
2.4106984960089903,0,0,1.5777788940429687,0,0,0.84084
2.4120812729815952,0,0,1.47482822265625,0,0,0.68796
2.413462680997327,0,0,1.2761094848632812,0,0,0.68796
2.4148444949823897,0,0,1.2282254516601563,0,0,0.53508
2.4162263280013576,0,0,1.1372457885742187,0,0,0.99372
2.4176427719939966,0,0,1.197100830078125,0,0,0.45864
2.4190278459864203,0,0,1.3311761230468748,0,0,0.84084
2.420411808998324,0,0,1.448492004394531,0,0,0.7644
2.421809900988592,0,0,1.4987702392578124,0,0,1.07016
2.423193344991887,0,0,1.199495031738281,0,0,1.1465999999999998
2.4245771229907405,0,0,1.16837041015625,0,0,0.84084
2.42596027100808,0,0,1.2114660400390624,0,0,0.7644
2.4273434930073563,0,0,1.177947216796875,0,0,0.91728
2.4287197710073087,0,0,1.3575123413085937,0,0,0.3822
2.4300934369966853,0,0,1.369483349609375,0,0,0.53508
2.4321311689855065,0,0,1.6065093139648436,0,0,-8.867040000000001
2.433540223981254,0,0,1.3120225097656248,0,0,1.07016
2.43492527899798,0,0,1.2952630981445312,0,0,0.91728
2.436321946006501,0,0,1.2042834350585936,0,0,0.84084
2.437707815988688,0,0,1.2569558715820313,0,0,0.7644
2.439090926985955,0,0,1.4173673828125,0,0,0.91728
2.4404748709930573,0,0,1.2808978881835937,0,0,0.84084
2.4418582229991443,0,0,1.6424223388671875,0,0,0.68796
2.4432412780006416,0,0,1.2138602416992186,0,0,1.2994800000000002
2.444624889001716,0,0,1.2665326782226562,0,0,0.68796
2.446007852006005,0,0,1.1444283935546875,0,0,0.53508
2.4473910550004803,0,0,1.1420341918945311,0,0,-9.09636
2.4487692959955893,0,0,1.2617442749023438,0,0,20
2.4501436289865524,0,0,1.426944189453125,0,0,0.68796
2.451548554992769,0,0,1.4700398193359374,0,0,0.68796
2.4529352769895922,0,0,1.4006079711914061,0,0,0.99372
2.4543913129891735,0,0,1.2952630981445312,0,0,0.7644
2.455777572002262,0,0,1.1635820068359375,0,0,0.99372
2.457160293997731,0,0,1.0821791503906248,0,0,0.7644
2.458543718996225,0,0,1.2042834350585936,0,0,0.99372
2.459928014985053,0,0,1.4867992309570313,0,0,0.91728
2.4613102930015884,0,0,1.448492004394531,0,0,0.68796
2.462693125999067,0,0,1.5753846923828123,0,0,0.7644
2.4640743850031868,0,0,1.2832920898437499,0,0,1.2230400000000001
2.46544760800316,0,0,1.1372457885742187,0,0,0.6115200000000001
2.4668211819953285,0,0,1.218648645019531,0,0,0.53508
2.468204162985785,0,0,1.1923124267578125,0,0,1.07016
2.469587106985273,0,0,1.3359645263671873,0,0,0.07644000000000001
2.4709704959823284,0,0,1.2856862915039062,0,0,0.53508
2.472353977005696,0,0,1.6328455322265625,0,0,0.53508
2.47373610700015,0,0,1.2665326782226562,0,0,0.91728
2.4751191810064483,0,0,1.2832920898437499,0,0,0.6115200000000001
2.4765027170069516,0,0,1.1085153686523437,0,0,0.91728
2.477885587984929,0,0,1.0486603271484374,0,0,0.68796
2.479274938988965,0,0,1.429338391113281,0,0,0.22932
2.480660364992218,0,0,1.5442600708007812,0,0,0.6115200000000001
2.4820352910028305,0,0,1.455674609375,0,0,0.53508
2.483409012987977,0,0,1.4125789794921875,0,0,0.7644
2.4847924019850325,0,0,1.2401964599609374,0,0,1.1465999999999998
2.4861746609967668,0,0,1.1923124267578125,0,0,0.99372
2.4875569379946683,0,0,1.1276689819335937,0,0,0.68796
2.4889397530059796,0,0,1.1516109985351561,0,0,0.6115200000000001
2.4903220309934113,0,0,1.4030021728515625,0,0,0.53508
2.4917053270037286,0,0,1.3287819213867187,0,0,0.7644
2.4930869009986054,0,0,1.458068811035156,0,0,0.84084
2.494469085999299,0,0,1.1851298217773436,0,0,0.99372
2.4958598999946844,0,0,1.1516109985351561,0,0,0.30576000000000003
2.4972412519855425,0,0,1.1731588134765625,0,0,0.30576000000000003
2.498623121995479,0,0,1.235408056640625,0,0,0.68796
2.500006232992746,0,0,1.3311761230468748,0,0,0.07644000000000001
2.501387417985825,0,0,1.3479355346679687,0,0,0.53508
2.5027696029865183,0,0,1.4413093994140624,0,0,0.3822
2.5041517700010445,0,0,1.2378022583007813,0,0,-9.24924
2.5055387879838236,0,0,1.2593500732421874,0,0,0.99372
2.5069264360063244,0,0,1.158793603515625,0,0,0.84084
2.5083103429933544,0,0,1.1420341918945311,0,0,0.91728
2.509692453983007,0,0,1.1276689819335937,0,0,1.37592
2.511074360983912,0,0,1.3814543579101561,0,0,0.84084
2.5124757309968118,0,0,1.218648645019531,0,0,0.7644
2.5138593610026874,0,0,1.5897499023437498,0,0,0.7644
2.515241638000589,0,0,1.209071838378906,0,0,1.2230400000000001
2.5166246379958466,0,0,1.2401964599609374,0,0,0.6115200000000001
2.51800706400536,0,0,1.0917559570312498,0,0,0.22932
2.519389211985981,0,0,1.1851298217773436,0,0,0.22932
2.5207718779856805,0,0,1.2952630981445312,0,0,0.3822
2.5221543590014335,0,0,1.2952630981445312,0,0,0.6115200000000001
2.523536303982837,0,0,1.5059528442382812,0,0,0.45864
2.5249192109913565,0,0,1.2617442749023438,0,0,0.6115200000000001
2.5263014149968512,0,0,1.2521674682617188,0,0,0.53508
2.5276907479856163,0,0,1.197100830078125,0,0,0.91728
2.529073209996568,0,0,1.0893617553710937,0,0,0.84084
2.5304553769819904,0,0,1.2665326782226562,0,0,1.2230400000000001
2.5318484510062262,0,0,1.4820108276367188,0,0,0.68796
2.5332303019822575,0,0,1.4820108276367188,0,0,0.6115200000000001
2.534612579998793,0,0,1.5729904907226562,0,0,0.7644
2.535994634992676,0,0,1.2904746948242187,0,0,1.2994800000000002
2.5374601899820846,0,0,1.1635820068359375,0,0,0.91728
2.5388642819889355,0,0,1.2330138549804688,0,0,0.84084
2.5402488370018546,0,0,1.149216796875,0,0,1.2994800000000002
2.5416313739842735,0,0,1.5275006591796874,0,0,0.84084
2.5430135219939984,0,0,1.2808978881835937,0,0,0.91728
2.544395873992471,0,0,1.6041151123046875,0,0,0.84084
2.5457829849910922,0,0,1.1635820068359375,0,0,0.7644
2.5471842990082223,0,0,1.0941501586914062,0,0,0.45864
2.548664964007912,0,0,1.1348515869140625,0,0,0.53508
2.5500561489898246,0,0,1.2306196533203124,0,0,0.53508
2.551440334005747,0,0,1.3239935180664062,0,0,0.45864
2.5528246669855434,0,0,1.3455413330078123,0,0,0.6115200000000001
2.554207982000662,0,0,1.5490484741210937,0,0,0.53508
2.555591721989913,0,0,1.3479355346679687,0,0,0.7644
2.5569746299879625,0,0,1.3479355346679687,0,0,0.7644
2.558357481000712,0,0,1.1444283935546875,0,0,2.2931999999999997
2.5597379629907664,0,0,1.1540052001953125,0,0,0.53508
2.561110759008443,0,0,1.3000515014648437,0,0,0.91728
2.5624838509829715,0,0,1.369483349609375,0,0,1.07016
2.5638661659904756,0,0,1.2114660400390624,0,0,0.7644
2.56524953598273,0,0,1.5059528442382812,0,0,0.91728
2.5666327030048706,0,0,1.2785036865234374,0,0,0.84084
2.5680188139958773,0,0,1.2042834350585936,0,0,0.84084
2.5694008319987915,0,0,1.1133037719726562,0,0,0.6115200000000001
2.5707840909890365,0,0,1.1611878051757811,0,0,1.07016
2.572167239006376,0,0,1.3646949462890625,0,0,0.30576000000000003
2.5735499239817727,0,0,1.3311761230468748,0,0,0.53508
2.57493327598786,0,0,1.4939818359375,0,0,0.91728
2.5763110349944327,0,0,1.2761094848632812,0,0,0.7644
2.5776865530060604,0,0,1.3670891479492187,0,0,0.6115200000000001
2.5791036270093173,0,0,1.2138602416992186,0,0,0.6115200000000001
2.5805501260038,0,0,1.180341418457031,0,0,0.6115200000000001
2.5819351070094854,0,0,1.2473790649414063,0,0,0.22932
2.58333805098664,0,0,1.4341267944335936,0,0,0.53508
2.584722679981496,0,0,1.2976572998046874,0,0,0.53508
2.5861060509923846,0,0,1.2306196533203124,0,0,0.7644
2.5874899759946857,0,0,1.2138602416992186,0,0,1.07016
2.588873753993539,0,0,1.1324573852539062,0,0,1.07016
2.5902575310028624,0,0,1.2114660400390624,0,0,0.91728
2.5916397719993256,0,0,1.3383587280273437,0,0,1.45236
2.5930142529832665,0,0,1.3623007446289062,0,0,0.6115200000000001
2.594411030993797,0,0,1.350329736328125,0,0,0.91728
2.5957964200060815,0,0,1.8124106567382812,0,0,1.2994800000000002
2.597190733999014,0,0,1.3215993164062498,0,0,1.07016
2.5985749009996653,0,0,1.3024457031249999,0,0,1.07016
2.599961511004949,0,0,1.1540052001953125,0,0,0.45864
2.6013436960056424,0,0,1.1875240234375,0,0,0.22932
2.6027270299964584,0,0,1.2378022583007813,0,0,0.0
2.604105159000028,0,0,1.2832920898437499,0,0,0.7644
2.6054787150060292,0,0,1.5729904907226562,0,0,0.68796
2.6068522699933965,0,0,1.5562310791015623,0,0,0.68796
2.608238196000457,0,0,1.2928688964843749,0,0,1.07016
2.609621621988481,0,0,1.1276689819335937,0,0,0.84084
2.6111015279893763,0,0,1.16837041015625,0,0,0.7644
2.612535970984027,0,0,1.2856862915039062,0,0,0.30576000000000003
2.61392158200033,0,0,1.3958195678710936,0,0,0.99372
2.61530554498313,0,0,1.4700398193359374,0,0,0.6115200000000001
2.6166993959923275,0,0,1.656787548828125,0,0,0.99372
2.6180829519871622,0,0,1.2114660400390624,0,0,1.1465999999999998
2.6194665810035076,0,0,1.0845733520507812,0,0,1.07016
2.620843395998236,0,0,1.2808978881835937,0,0,0.68796
2.622217117983382,0,0,1.1276689819335937,0,0,0.45864
2.6236115249921568,0,0,1.3575123413085937,0,0,0.7644
2.625052005983889,0,0,1.3359645263671873,0,0,0.7644
2.6264528759929817,0,0,1.5753846923828123,0,0,1.2230400000000001
2.6278389309882186,0,0,1.35990654296875,0,0,0.99372
2.6292216159927193,0,0,1.16837041015625,0,0,0.45864
2.630604781996226,0,0,1.158793603515625,0,0,0.3822
2.631988912005909,0,0,1.1563994018554686,0,0,0.45864
2.63337124499958,0,0,1.3958195678710936,0,0,0.0
2.6347588369972073,0,0,1.35990654296875,0,0,0.53508
2.6361675779917277,0,0,1.5945383056640625,0,0,0.6115200000000001
2.6375424480065703,0,0,1.3479355346679687,0,0,0.45864
2.6389157630037516,0,0,1.180341418457031,0,0,0.99372
2.6403215219906997,0,0,1.2473790649414063,0,0,1.2230400000000001
2.6417035769845825,0,0,1.3287819213867187,0,0,0.84084
2.6430853919882793,0,0,1.2928688964843749,0,0,1.1465999999999998
2.644466817000648,0,0,1.37906015625,0,0,0.91728
2.6458699840004556,0,0,1.254561669921875,0,0,0.7644
2.6472538170055486,0,0,1.5251064575195312,0,0,0.7644
2.6486370569909923,0,0,1.3551181396484375,0,0,0.99372
2.650019446009537,0,0,1.1516109985351561,0,0,1.1465999999999998
2.6514023350027855,0,0,1.1348515869140625,0,0,0.53508
2.652780537988292,0,0,1.1516109985351561,0,0,0.84084
2.654154149000533,0,0,1.465251416015625,0,0,0.22932
2.6555412230081856,0,0,1.43652099609375,0,0,0.84084
2.656937111984007,0,0,1.5275006591796874,0,0,0.6115200000000001
2.6583210749959107,0,0,1.2018892333984375,0,0,0.6115200000000001
2.659706278005615,0,0,1.2808978881835937,0,0,0.68796
2.6610882219974883,0,0,1.20667763671875,0,0,0.68796
2.662471147981705,0,0,1.1659762084960936,0,0,0.45864
2.6638551479845773,0,0,1.3766659545898436,0,0,0.30576000000000003
2.6652372399985325,0,0,1.4053963745117186,0,0,0.68796
2.6666199440078344,0,0,1.3000515014648437,0,0,0.53508
2.668000128993299,0,0,1.235408056640625,0,0,0.68796
2.669372721982654,0,0,1.2234370483398436,0,0,1.2230400000000001
2.6707554809981957,0,0,1.0749965454101562,0,0,0.68796
2.6721375549968798,0,0,1.1252747802734375,0,0,0.84084
2.673520999000175,0,0,1.197100830078125,0,0,1.5288
2.67490425799042,0,0,1.4149731811523436,0,0,0.7644
2.676288183982251,0,0,1.3383587280273437,0,0,1.1465999999999998
2.677670887002023,0,0,1.68551796875,0,0,0.91728
2.6790533869934734,0,0,1.197100830078125,0,0,0.7644
2.6804361649847124,0,0,1.1827356201171875,0,0,0.45864
2.681818776007276,0,0,1.216254443359375,0,0,0.3822
2.6832012939848937,0,0,1.1635820068359375,0,0,0.68796
2.6845771459920797,0,0,1.2306196533203124,0,0,0.0
2.6859503309824504,0,0,1.2928688964843749,0,0,0.6115200000000001
2.6873233490041457,0,0,1.4724340209960938,0,0,0.45864
2.688707681983942,0,0,1.2713210815429687,0,0,0.3822
2.690090589981992,0,0,1.2042834350585936,0,0,0.84084
2.6914728120027576,0,0,1.0773907470703123,0,0,0.91728
2.6928557000064757,0,0,1.216254443359375,0,0,0.99372
2.6942386080045253,0,0,1.2306196533203124,0,0,1.1465999999999998
2.6956360889889766,0,0,1.4628572143554686,0,0,0.91728
2.6970186999824364,0,0,1.4030021728515625,0,0,0.84084
2.6984012000029907,0,0,1.608903515625,0,0,0.91728
2.6997844770085067,0,0,1.2378022583007813,0,0,1.2230400000000001
2.7011660510033835,0,0,1.1540052001953125,0,0,0.7644
2.702548309986014,0,0,1.1252747802734375,0,0,0.45864
2.7040669929992873,0,0,1.2521674682617188,0,0,1.07016
2.7054657340049744,0,0,1.4030021728515625,0,0,0.3822
2.7068565110093914,0,0,1.3048399047851562,0,0,0.68796
2.708245732996147,0,0,1.6232687255859375,0,0,1.07016
2.709632880985737,0,0,1.2689268798828124,0,0,0.6115200000000001
2.7110204359923955,0,0,1.1707646118164061,0,0,0.6115200000000001
2.7124072879960295,0,0,1.1061211669921875,0,0,0.6115200000000001
2.713812120986404,0,0,1.1851298217773436,0,0,0.45864
2.7151999729976524,0,0,1.3646949462890625,0,0,0.3822
2.716587601986248,0,0,1.446097802734375,0,0,0.84084
2.717974380007945,0,0,1.6232687255859375,0,0,0.84084
2.7193605639913585,0,0,1.3263877197265623,0,0,0.53508
2.7207466939871665,0,0,1.3072341064453123,0,0,1.1465999999999998
2.7221327679872047,0,0,1.1923124267578125,0,0,0.91728
2.723519174993271,0,0,1.209071838378906,0,0,0.7644
2.724905712006148,0,0,1.2785036865234374,0,0,1.37592
2.7262918229971547,0,0,1.4101847778320311,0,0,0.68796
2.7276950439845677,0,0,1.3407529296874998,0,0,0.45864
2.7290815809974447,0,0,1.5203180541992187,0,0,1.2230400000000001
2.73046821099706,0,0,1.2880804931640624,0,0,1.2230400000000001
2.7318549329938833,0,0,0.9911994873046874,0,0,0.7644
2.733240895002382,0,0,1.1324573852539062,0,0,0.53508
2.7346273949951865,0,0,1.0558429321289062,0,0,0.30576000000000003
2.736014283989789,0,0,1.448492004394531,0,0,20
2.737400579993846,0,0,1.3934253662109375,0,0,0.6115200000000001
2.738787117006723,0,0,1.5107412475585937,0,0,0.91728
2.7401733759907074,0,0,1.180341418457031,0,0,0.68796
2.7415596719947644,0,0,1.3192051147460937,0,0,1.07016
2.7429481349827256,0,0,1.1731588134765625,0,0,0.6115200000000001
2.744334800983779,0,0,1.1851298217773436,0,0,0.6115200000000001
2.7457201899960637,0,0,1.254561669921875,0,0,0.6115200000000001
2.7471063190023415,0,0,1.3575123413085937,0,0,0.84084
2.7484926150063984,0,0,1.3215993164062498,0,0,0.53508
2.749878707982134,0,0,1.3551181396484375,0,0,0.6115200000000001
2.7512886519834865,0,0,1.2401964599609374,0,0,1.1465999999999998
2.7526777620078065,0,0,1.2689268798828124,0,0,0.84084
2.7540642989915796,0,0,1.197100830078125,0,0,0.91728
2.755450631986605,0,0,1.1061211669921875,0,0,0.99372
2.756836927990662,0,0,1.4508862060546874,0,0,0.7644
2.758234798006015,0,0,1.388636962890625,0,0,0.7644
2.7596436869935133,0,0,1.5705962890624998,0,0,1.07016
2.7610289090080187,0,0,1.218648645019531,0,0,0.6115200000000001
2.762413241987815,0,0,1.2114660400390624,0,0,0.68796
2.763813815981848,0,0,1.1372457885742187,0,0,0.68796
2.765202666982077,0,0,1.1372457885742187,0,0,0.6115200000000001
2.7665898709965404,0,0,1.3120225097656248,0,0,0.15288000000000002
2.76797836998594,0,0,1.3718775512695311,0,0,0.84084
2.7693653329915833,0,0,1.5514426757812498,0,0,0.68796
2.7707522219861858,0,0,1.6232687255859375,0,0,0.6115200000000001
2.7721393700048793,0,0,1.2880804931640624,0,0,0.45864
2.773536424996564,0,0,0.9840168823242187,0,0,0.91728
2.7749235359951854,0,0,1.1348515869140625,0,0,0.91728
2.7763107389910147,0,0,1.2330138549804688,0,0,0.7644
2.7776979240006767,0,0,1.3192051147460937,0,0,0.99372
2.779084812995279,0,0,1.3096283081054687,0,0,0.7644
2.7804717569961213,0,0,1.659181750488281,0,0,1.07016
2.7818595719872974,0,0,1.2378022583007813,0,0,0.91728
2.783246423001401,0,0,1.218648645019531,0,0,0.7644
2.784633108007256,0,0,1.1875240234375,0,0,0.45864
2.7860199970018584,0,0,1.2952630981445312,0,0,0.53508
2.7874064409988932,0,0,1.4915876342773438,0,0,0.22932
2.788793293002527,0,0,1.2737152832031249,0,0,0.7644
2.7901799219835084,0,0,1.68551796875,0,0,0.99372
2.791580939985579,0,0,1.35990654296875,0,0,0.84084
2.7929688099829946,0,0,1.189918225097656,0,0,0.7644
2.794355920981616,0,0,1.218648645019531,0,0,0.68796
2.7957437360018957,0,0,1.1109095703125,0,0,0.3822
2.7971301619836595,0,0,1.3527239379882812,0,0,0.15288000000000002
2.798516179987928,0,0,1.4149731811523436,0,0,0.68796
2.7999034200038295,0,0,1.649604943847656,0,0,0.68796
2.80129677199875,0,0,1.5227122558593749,0,0,0.6115200000000001
2.8026844009873457,0,0,1.1563994018554686,0,0,1.07016
2.8040720490098465,0,0,1.0773907470703123,0,0,0.91728
2.805457585986005,0,0,1.1061211669921875,0,0,0.7644
2.8068442899966612,0,0,1.4101847778320311,0,0,1.2230400000000001
2.8082315670035314,0,0,1.4939818359375,0,0,0.68796
2.8096185300091747,0,0,1.2593500732421874,0,0,0.68796
2.8110051219991874,0,0,1.4820108276367188,0,0,1.07016
2.81239225200261,0,0,1.1228805786132812,0,0,0.99372
2.813778807001654,0,0,1.197100830078125,0,0,0.53508
2.8151651399966795,0,0,1.2473790649414063,0,0,0.45864
2.8165457879949827,0,0,1.0797849487304687,0,0,0.53508
2.817924158007372,0,0,1.3311761230468748,0,0,0.0
2.8193023990024813,0,0,1.3168109130859373,0,0,0.45864
2.820690750988433,0,0,1.3192051147460937,0,0,-9.172799999999999
2.822078324999893,0,0,1.2401964599609374,0,0,0.91728
2.8234647320059594,0,0,1.158793603515625,0,0,0.91728
2.8248514349979814,0,0,1.1731588134765625,0,0,0.7644
2.826238565001404,0,0,1.1037269653320312,0,0,0.68796
2.827637785987463,0,0,1.2401964599609374,0,0,0.99372
2.829024248989299,0,0,1.5705962890624998,0,0,0.91728
2.8304628589830827,0,0,1.3670891479492187,0,0,0.45864
2.831934135989286,0,0,1.2761094848632812,0,0,0.68796
2.833324506005738,0,0,1.0845733520507812,0,0,0.99372
2.834712395007955,0,0,1.2234370483398436,0,0,0.91728
2.836124875000678,0,0,1.1947066284179686,0,0,0.99372
2.837512931000674,0,0,1.2928688964843749,0,0,1.2230400000000001
2.8389001339965034,0,0,1.3359645263671873,0,0,1.1465999999999998
2.8402825969969854,0,0,1.189918225097656,0,0,1.07016
2.8416619669878855,0,0,1.4245499877929686,0,0,0.84084
2.8430404489918146,0,0,1.2641384765625,0,0,0.91728
2.84442837399547,0,0,1.2737152832031249,0,0,0.6115200000000001
2.845848892000504,0,0,1.199495031738281,0,0,0.6115200000000001
2.8472363550099544,0,0,1.139639990234375,0,0,0.22932
2.848623244004557,0,0,1.3431471313476562,0,0,-9.784320000000001
2.850011483998969,0,0,1.465251416015625,0,0,0.6115200000000001
2.8513989099883474,0,0,1.5346832641601562,0,0,0.6115200000000001
2.852785761002451,0,0,1.2473790649414063,0,0,0.68796
2.8541729459830094,0,0,1.3192051147460937,0,0,0.7644
2.855559224000899,0,0,1.1444283935546875,0,0,0.68796
2.856950704997871,0,0,1.1827356201171875,0,0,0.68796
2.8583300199825317,0,0,1.3742717529296875,0,0,1.2230400000000001
2.8597167049883865,0,0,1.4700398193359374,0,0,0.7644
2.861103926989017,0,0,1.4245499877929686,0,0,0.68796
2.862490611994872,0,0,1.6424223388671875,0,0,0.84084
2.8638774630089756,0,0,1.3359645263671873,0,0,1.1465999999999998
2.865282777987886,0,0,1.0726023437499999,0,0,1.07016
2.866677184996661,0,0,1.0534487304687499,0,0,0.84084
2.868065165996086,0,0,1.180341418457031,0,0,0.45864
2.869451481004944,0,0,1.3742717529296875,0,0,0.53508
2.870838387985714,0,0,1.1276689819335937,0,0,0.68796
2.872225016995799,0,0,1.446097802734375,0,0,0.91728
2.8736112210026477,0,0,1.2282254516601563,0,0,0.99372
2.8749976829858497,0,0,1.1755530151367186,0,0,0.45864
2.8763844239874743,0,0,1.1180921752929687,0,0,0.30576000000000003
2.877770478982711,0,0,1.1516109985351561,0,0,0.68796
2.879157219984336,0,0,1.2952630981445312,0,0,0.07644000000000001
2.8805443120072596,0,0,1.4221557861328125,0,0,0.7644
2.881930885982001,0,0,1.5418658691406248,0,0,0.7644
2.883316922991071,0,0,1.235408056640625,0,0,0.6115200000000001
2.884703718998935,0,0,1.350329736328125,0,0,0.91728
2.88608992198715,0,0,1.1851298217773436,0,0,0.68796
2.887476959003834,0,0,1.1635820068359375,0,0,0.7644
2.888888385001337,0,0,1.3144167114257812,0,0,1.45236
2.890315513010137,0,0,1.4532804077148436,0,0,0.84084
2.8917042349930853,0,0,1.426944189453125,0,0,0.84084
2.8930912720097695,0,0,1.5873557006835937,0,0,1.1465999999999998
2.894478086993331,0,0,1.2665326782226562,0,0,1.07016
2.8958656419999897,0,0,1.1013327636718748,0,0,0.84084
2.8972525679855607,0,0,1.1013327636718748,0,0,0.3822
2.8986392339866143,0,0,1.2832920898437499,0,0,0.7644
2.9000237709842622,0,0,1.37906015625,0,0,0.07644000000000001
2.9014022150076926,0,0,1.3766659545898436,0,0,0.68796
2.902781123004388,0,0,1.6328455322265625,0,0,0.91728
2.9041689559817314,0,0,1.235408056640625,0,0,0.99372
2.9055579740088433,0,0,1.0773907470703123,0,0,0.99372
2.906950862990925,0,0,1.180341418457031,0,0,0.45864
2.9083405289857183,0,0,1.0845733520507812,0,0,0.30576000000000003
2.9097274919913616,0,0,1.388636962890625,0,0,0.30576000000000003
2.911114713991992,0,0,1.4437036010742186,0,0,0.99372
2.9125021579966415,0,0,1.1109095703125,0,0,0.7644
2.913889194984222,0,0,1.3431471313476562,0,0,0.6115200000000001
2.915276305982843,0,0,1.0965443603515623,0,0,0.91728
2.9166572869871743,0,0,1.1755530151367186,0,0,0.99372
2.918038083007559,0,0,1.0582371337890624,0,0,0.30576000000000003
2.919524230004754,0,0,1.2401964599609374,0,0,1.60524
2.9209214150032494,0,0,1.3455413330078123,0,0,0.99372
2.9223081739910413,0,0,1.3383587280273437,0,0,0.68796
2.923695154982852,0,0,1.5682020874023437,0,0,0.99372
2.9250799139845185,0,0,1.1276689819335937,0,0,0.68796
2.9264658030006103,0,0,1.0797849487304687,0,0,0.84084
2.9278522649838123,0,0,1.0989385620117187,0,0,0.6115200000000001
2.9292373950011097,0,0,1.0319009155273438,0,0,0.22932
2.9306233759853058,0,0,1.3359645263671873,0,0,20
2.932010560994968,0,0,1.2713210815429687,0,0,0.6115200000000001
2.9334112090000417,0,0,1.5011644409179687,0,0,0.7644
2.9347972460091114,0,0,1.22583125,0,0,0.68796
2.9361830049892887,0,0,1.3168109130859373,0,0,0.7644
2.9375686339917593,0,0,1.2641384765625,0,0,0.84084
2.938953948993003,0,0,1.1635820068359375,0,0,0.91728
2.940339708002284,0,0,1.2737152832031249,0,0,1.07016
2.9417247450037394,0,0,1.37906015625,0,0,0.68796
2.943110355990939,0,0,1.2521674682617188,0,0,0.45864
2.9444960959954187,0,0,1.6519991455078125,0,0,0.91728
2.9458816509868484,0,0,1.2521674682617188,0,0,-8.7906
2.9472690029942896,0,0,1.1707646118164061,0,0,1.07016
2.9486639100068714,0,0,1.1156979736328125,0,0,0.91728
2.950050224986626,0,0,1.1468225952148436,0,0,0.7644
2.9514358729938976,0,0,1.407790576171875,0,0,0.07644000000000001
2.9528215210011695,0,0,1.2641384765625,0,0,0.68796
2.954207297996618,0,0,1.637633935546875,0,0,1.2230400000000001
2.9555934649833944,0,0,1.13006318359375,0,0,0.3822
2.956979260983644,0,0,1.2497732666015624,0,0,0.45864
2.9583688529965,0,0,1.1372457885742187,0,0,0.30576000000000003
2.959755279007368,0,0,1.20667763671875,0,0,0.45864
2.9611406489857472,0,0,1.2832920898437499,0,0,0.30576000000000003
2.9625261669862084,0,0,1.2952630981445312,0,0,0.6115200000000001
2.963911962986458,0,0,1.5394716674804687,0,0,0.7644
2.9652969999879133,0,0,1.458068811035156,0,0,0.7644
2.9666826669999864,0,0,1.16837041015625,0,0,0.68796
2.9680688329972327,0,0,1.20667763671875,0,0,0.68796
2.9694542959914543,0,0,1.2665326782226562,0,0,1.1465999999999998
2.9708397219947074,0,0,1.2378022583007813,0,0,1.60524
2.9722256289969664,0,0,1.5275006591796874,0,0,0.91728
2.9736114429833833,0,0,1.5466542724609373,0,0,0.22932
2.9749968879914377,0,0,1.5753846923828123,0,0,0.91728
2.9763986830075737,0,0,1.3048399047851562,0,0,0.99372
2.977786016999744,0,0,1.0630255371093749,0,0,0.7644
2.9791723680100404,0,0,1.2138602416992186,0,0,0.6115200000000001
2.9805583679990377,0,0,1.24498486328125,0,0,0.22932
2.9819562940101605,0,0,1.467645617675781,0,0,0.30576000000000003
2.983343181986129,0,0,1.4796166259765624,0,0,0.84084
2.984729329997208,0,0,1.5634136840820312,0,0,0.6115200000000001
2.986115884996252,0,0,1.2425906616210938,0,0,0.6115200000000001
2.987501181982225,0,0,1.1755530151367186,0,0,0.53508
2.9888868289999664,0,0,1.3024457031249999,0,0,0.45864
2.9904347530100495,0,0,1.1635820068359375,0,0,0.53508
2.9918247160094324,0,0,1.3096283081054687,0,0,0.0
2.993205734004732,0,0,1.3479355346679687,0,0,0.84084
2.9945859010040294,0,0,1.5538368774414062,0,0,0.68796
2.9959674190031365,0,0,1.3431471313476562,0,0,0.53508
2.997347122989595,0,0,1.1133037719726562,0,0,1.07016
2.99872627100558,0,0,1.1540052001953125,0,0,0.99372
3.0001170480099972,0,0,1.149216796875,0,0,0.68796
3.001496121985838,0,0,1.3359645263671873,0,0,0.99372
3.0028745110030286,0,0,1.3575123413085937,0,0,1.1465999999999998
3.0042626769864,0,0,1.2330138549804688,0,0,0.91728
3.005649917991832,0,0,1.5849614990234373,0,0,0.84084
3.0070562879845966,0,0,1.2832920898437499,0,0,0.91728
3.0084447870031,0,0,1.2832920898437499,0,0,0.7644
3.0098314349888824,0,0,1.22583125,0,0,0.6115200000000001
3.0112179910065606,0,0,1.1516109985351561,0,0,0.53508
3.0126085270021576,0,0,1.419761584472656,0,0,0.0
3.01399523098371,0,0,1.369483349609375,0,0,0.6115200000000001
3.015382415993372,0,0,1.3575123413085937,0,0,0.84084
3.0167697299912106,0,0,1.2761094848632812,0,0,0.7644
3.018155914993258,0,0,1.3455413330078123,0,0,0.84084
3.019542822992662,0,0,1.120486376953125,0,0,0.30576000000000003
3.0209376369894017,0,0,1.1061211669921875,0,0,0.6115200000000001
3.02232389600249,0,0,1.3575123413085937,0,0,0.7644
3.0237109889858402,0,0,1.5586252807617187,0,0,1.07016
3.0250975620001554,0,0,1.3311761230468748,0,0,0.6115200000000001
3.026483561989153,0,0,1.149216796875,0,0,0.7644
3.027870524994796,0,0,1.218648645019531,0,0,1.07016
3.0292565429990645,0,0,1.209071838378906,0,0,0.6115200000000001
3.030642728001112,0,0,1.1037269653320312,0,0,0.91728
3.0320293580007274,0,0,1.209071838378906,0,0,0.7644
3.033415079989936,0,0,1.3239935180664062,0,0,0.45864
3.0348009869921952,0,0,1.2832920898437499,0,0,0.7644
3.036187263991451,0,0,1.5753846923828123,0,0,1.07016
3.0375734489934985,0,0,1.2210428466796874,0,0,0.7644
3.0389600789931137,0,0,1.2306196533203124,0,0,0.3822
3.0403462270041928,0,0,1.1923124267578125,0,0,0.22932
3.041732245008461,0,0,1.1923124267578125,0,0,0.3822
3.0431185039924458,0,0,1.2880804931640624,0,0,0.07644000000000001
3.044505077996291,0,0,1.3287819213867187,0,0,0.6115200000000001
3.0458915409981273,0,0,1.5083470458984374,0,0,0.68796
3.047277817997383,0,0,1.4867992309570313,0,0,0.7644
3.0486638550064526,0,0,1.2497732666015624,0,0,1.07016
3.0500496699824,0,0,1.0319009155273438,0,0,0.53508
3.051743849995546,0,0,1.1731588134765625,0,0,0.68796
3.053133423993131,0,0,1.2593500732421874,0,0,0.45864
3.0545210909913294,0,0,1.3287819213867187,0,0,0.6115200000000001
3.055908793990966,0,0,1.446097802734375,0,0,0.53508
3.0572945720050484,0,0,1.6208745239257811,0,0,0.3822
3.058681146008894,0,0,1.2521674682617188,0,0,1.1465999999999998
3.060068182006944,0,0,1.158793603515625,0,0,0.84084
3.0614538489899132,0,0,1.1156979736328125,0,0,0.99372
3.062840533995768,0,0,1.2617442749023438,0,0,1.07016
3.0642374960007146,0,0,1.465251416015625,0,0,0.91728
3.0656323849980254,0,0,1.3646949462890625,0,0,0.91728
3.0670191250101198,0,0,1.5921441040039062,0,0,1.1465999999999998
3.0684054029989056,0,0,1.197100830078125,0,0,0.53508
3.0697917729848996,0,0,1.1851298217773436,0,0,0.53508
3.071178031997988,0,0,1.120486376953125,0,0,0.45864
3.072564161993796,0,0,1.2234370483398436,0,0,0.53508
3.0739505689998623,0,0,1.2928688964843749,0,0,0.07644000000000001
3.0753370499878656,0,0,1.4628572143554686,0,0,0.84084
3.0767224020091817,0,0,1.5586252807617187,0,0,0.7644
3.0781064390030224,0,0,1.369483349609375,0,0,0.68796
3.079750675999094,0,0,1.1923124267578125,0,0,1.2230400000000001
3.0821906609926373,0,0,1.2042834350585936,0,0,0.91728
3.083583234983962,0,0,1.4125789794921875,0,0,0.84084
3.084967142000096,0,0,1.5083470458984374,0,0,0.6115200000000001
3.0863510679919273,0,0,1.3335703247070312,0,0,0.91728
3.0877356969867833,0,0,1.426944189453125,0,0,0.91728
3.0891181970073376,0,0,0.9576806640625,0,0,0.99372
3.090505381987896,0,0,1.1420341918945311,0,0,0.53508
3.091890103998594,0,0,1.197100830078125,0,0,0.91728
3.093272584985243,0,0,1.180341418457031,0,0,0.6115200000000001
3.0946553819812834,0,0,1.3718775512695311,0,0,0.22932
3.096044678008184,0,0,1.3575123413085937,0,0,0.84084
3.0974288810102735,0,0,1.6136919189453125,0,0,0.91728
3.0988124370051082,0,0,1.177947216796875,0,0,0.7644
3.1001969180069864,0,0,1.3718775512695311,0,0,0.84084
3.1015795840066858,0,0,1.1563994018554686,0,0,0.45864
3.1029623619979247,0,0,1.218648645019531,0,0,0.3822
3.1043460840010084,0,0,1.4245499877929686,0,0,0.22932
3.105735713004833,0,0,1.5107412475585937,0,0,0.7644
3.107120879983995,0,0,1.2593500732421874,0,0,0.7644
3.1085155830078293,0,0,1.2521674682617188,0,0,0.84084
3.1099251940031536,0,0,1.3311761230468748,0,0,1.07016
3.1113081939984113,0,0,1.1707646118164061,0,0,0.99372
3.1126957119849976,0,0,1.2138602416992186,0,0,0.7644
3.114079174993094,0,0,1.22583125,0,0,1.45236
3.1154623969923705,0,0,1.3623007446289062,0,0,0.6115200000000001
3.1168458969914354,0,0,1.1827356201171875,0,0,0.91728
3.118228432984324,0,0,1.5011644409179687,0,0,0.68796
3.119612415001029,0,0,1.180341418457031,0,0,0.84084
3.120996691985056,0,0,1.3527239379882812,0,0,0.84084
3.1223794510005973,0,0,1.1228805786132812,0,0,0.6115200000000001
3.123763876996236,0,0,1.1061211669921875,0,0,0.3822
3.125191247003386,0,0,1.2569558715820313,0,0,0.0
3.1265740979870316,0,0,1.2808978881835937,0,0,0.45864
3.1279572650091723,0,0,1.5825672973632812,0,0,0.68796
3.129340504994616,0,0,1.209071838378906,0,0,0.7644
3.1307704859937076,0,0,1.199495031738281,0,0,0.68796
3.132159615983255,0,0,1.2018892333984375,0,0,0.53508
3.133543040981749,0,0,1.13006318359375,0,0,0.91728
3.134927114995662,0,0,1.2904746948242187,0,0,1.07016
3.1363103190087713,0,0,1.39821376953125,0,0,0.91728
3.1377067810099106,0,0,1.3527239379882812,0,0,0.6115200000000001
3.139096225000685,0,0,1.4772224243164063,0,0,0.6115200000000001
3.140544816997135,0,0,1.2378022583007813,0,0,0.91728
3.141930076002609,0,0,1.1133037719726562,0,0,0.84084
3.1433136129926424,0,0,1.158793603515625,0,0,0.84084
3.1446975939907134,0,0,1.22583125,0,0,-9.09636
3.1460826309921686,0,0,1.4867992309570313,0,0,0.7644
3.1474662979890127,0,0,1.3072341064453123,0,0,0.84084
3.1488495570083614,0,0,1.6208745239257811,0,0,0.91728
3.1502322599990293,0,0,1.2497732666015624,0,0,0.7644
3.1516092419915367,0,0,1.1468225952148436,0,0,0.68796
3.153004277992295,0,0,1.1659762084960936,0,0,0.7644
3.15438801900018,0,0,1.177947216796875,0,0,0.30576000000000003
3.1557715559902135,0,0,1.3215993164062498,0,0,0.22932
3.1571544439939316,0,0,1.4915876342773438,0,0,0.53508
3.158537426003022,0,0,1.6927005737304686,0,0,0.84084
3.159921740007121,0,0,1.4939818359375,0,0,0.45864
3.1613035920017865,0,0,1.2593500732421874,0,0,0.68796
3.162686239986215,0,0,1.1516109985351561,0,0,0.84084
3.164070258004358,0,0,1.1037269653320312,0,0,0.84084
3.1654523689940106,0,0,1.3718775512695311,0,0,1.2230400000000001
3.166835109994281,0,0,1.5179238525390624,0,0,0.7644
3.168218776001595,0,0,1.177947216796875,0,0,0.7644
3.169601331988815,0,0,1.4700398193359374,0,0,1.07016
3.1709839979885146,0,0,1.1468225952148436,0,0,0.99372
3.1724382379907183,0,0,1.2234370483398436,0,0,0.91728
3.1739911430049688,0,0,1.3742717529296875,0,0,0.6115200000000001
3.175829302985221,0,0,1.189918225097656,0,0,0.45864
3.177272801985964,0,0,1.3263877197265623,0,0,0.84084
3.17865502400673,0,0,1.3192051147460937,0,0,0.7644
3.180037708982127,0,0,1.6831237670898436,0,0,-8.867040000000001
3.1814352269866504,0,0,1.1947066284179686,0,0,1.2230400000000001
3.1828175240079872,0,0,1.197100830078125,0,0,0.7644
3.1842195049976,0,0,1.1516109985351561,0,0,0.6115200000000001
3.1856067449843977,0,0,1.2114660400390624,0,0,0.22932
3.1869859489961527,0,0,1.5035586425781249,0,0,0.3822
3.188374021992786,0,0,1.3000515014648437,0,0,0.53508
3.189760726003442,0,0,1.5322890624999999,0,0,0.91728
3.191146391996881,0,0,1.407790576171875,0,0,0.7644
3.192533744004322,0,0,1.254561669921875,0,0,0.53508
3.193919707002351,0,0,1.2617442749023438,0,0,0.22932
3.195306170004187,0,0,1.177947216796875,0,0,0.45864
3.196692224999424,0,0,1.4030021728515625,0,0,0.30576000000000003
3.1980920580099337,0,0,1.388636962890625,0,0,0.91728
3.199477501999354,0,0,1.4772224243164063,0,0,0.68796
3.2008631869975943,0,0,1.2593500732421874,0,0,0.84084
3.2022489460068755,0,0,1.2976572998046874,0,0,0.84084
3.2036353349976707,0,0,1.1324573852539062,0,0,0.91728
3.205019335000543,0,0,1.2425906616210938,0,0,0.99372
3.2064090379863046,0,0,1.3359645263671873,0,0,1.1465999999999998
3.2078378339938354,0,0,1.4939818359375,0,0,0.68796
3.2092252779984847,0,0,1.5011644409179687,0,0,0.6115200000000001
3.210611591988709,0,0,1.4963760375976562,0,0,0.7644
3.2119993880041875,0,0,1.2042834350585936,0,0,1.1465999999999998
3.213384703005431,0,0,1.1707646118164061,0,0,0.91728
3.214770091988612,0,0,1.1324573852539062,0,0,0.53508
3.2161574799974915,0,0,1.1013327636718748,0,0,0.84084
3.2175430539937224,0,0,1.458068811035156,0,0,0.0
3.2189291279937606,0,0,1.458068811035156,0,0,0.68796
3.220315071986988,0,0,1.5514426757812498,0,0,0.99372
3.221699980000267,0,0,1.2378022583007813,0,0,0.7644
3.2230858499824535,0,0,1.2114660400390624,0,0,0.68796
3.2244719239824917,0,0,1.2832920898437499,0,0,0.91728
3.225857534009265,0,0,1.20667763671875,0,0,0.68796
3.227243294008076,0,0,1.3623007446289062,0,0,1.07016
3.228629811987048,0,0,1.438915197753906,0,0,1.1465999999999998
3.2300156629935373,0,0,1.2785036865234374,0,0,0.91728
3.2314032739959657,0,0,1.4508862060546874,0,0,0.7644
3.2327892369939946,0,0,1.2401964599609374,0,0,0.91728
3.2341743290016893,0,0,1.1420341918945311,0,0,0.68796
3.2355598849826492,0,0,1.1061211669921875,0,0,1.1465999999999998
3.236964198993519,0,0,1.2210428466796874,0,0,0.91728
3.2383494210080244,0,0,1.5035586425781249,0,0,0.45864
3.2397355689899996,0,0,1.3455413330078123,0,0,0.68796
3.2411494389816653,0,0,1.5203180541992187,0,0,0.99372
3.242542346008122,0,0,1.1324573852539062,0,0,0.7644
3.243928809009958,0,0,1.3072341064453123,0,0,0.45864
3.245314530999167,0,0,1.1156979736328125,0,0,0.30576000000000003
3.246700030984357,0,0,1.197100830078125,0,0,0.45864
3.248086826992221,0,0,1.2880804931640624,0,0,0.22932
3.249471511982847,0,0,1.4030021728515625,0,0,0.53508
3.2508568819903303,0,0,1.4173673828125,0,0,0.7644
3.252242215006845,0,0,1.2114660400390624,0,0,0.53508
3.253627141006291,0,0,1.2976572998046874,0,0,1.1465999999999998
3.255012028996134,0,0,1.1324573852539062,0,0,0.53508
3.256397658988135,0,0,1.0678139404296874,0,0,0.91728
3.257783398992615,0,0,1.0845733520507812,0,0,0.99372
3.259168343996862,0,0,1.3910311645507811,0,0,0.99372
3.2605542140081525,0,0,1.2138602416992186,0,0,0.84084
3.261939824995352,0,0,1.5969325073242187,0,0,0.91728
3.263325101986993,0,0,1.2521674682617188,0,0,1.2230400000000001
3.264710675983224,0,0,1.20667763671875,0,0,0.53508
3.2660961939836852,0,0,1.1659762084960936,0,0,0.91728
3.2674818049999885,0,0,1.2713210815429687,0,0,0.53508
3.268867342005251,0,0,1.3072341064453123,0,0,0.0
3.270252841990441,0,0,1.209071838378906,0,0,0.91728
3.271639452985255,0,0,1.5682020874023437,0,0,0.84084
3.2730249160085805,0,0,1.3192051147460937,0,0,0.7644
3.2744100260024425,0,0,1.2713210815429687,0,0,0.7644
3.275795007997658,0,0,1.1276689819335937,0,0,0.0
3.2771884519897867,0,0,1.199495031738281,0,0,0.68796
3.2785747479938436,0,0,1.3766659545898436,0,0,0.22932
3.279961655003717,0,0,1.5155296508789062,0,0,0.91728
3.2813461360055953,0,0,1.4245499877929686,0,0,0.68796
3.282731357990997,0,0,1.5203180541992187,0,0,0.53508
3.284116709983209,0,0,1.177947216796875,0,0,1.2230400000000001
3.285510043002432,0,0,1.1013327636718748,0,0,0.91728
3.286895060999086,0,0,1.1037269653320312,0,0,0.99372
3.2882810609880835,0,0,1.2401964599609374,0,0,0.68796
3.289666523982305,0,0,1.388636962890625,0,0,0.68796
3.291051949985558,0,0,1.419761584472656,0,0,0.91728
3.2924380239855964,0,0,1.4891934326171874,0,0,1.1465999999999998
3.29382333799731,0,0,1.1109095703125,0,0,0.91728
3.295208764000563,0,0,1.1372457885742187,0,0,0.45864
3.296594355982961,0,0,1.2928688964843749,0,0,0.6115200000000001
3.2979793190024793,0,0,1.16837041015625,0,0,0.30576000000000003
3.2993645230017137,0,0,1.3766659545898436,0,0,0.22932
3.3007593189831823,0,0,1.2952630981445312,0,0,0.53508
3.302144485001918,0,0,1.6112977172851561,0,0,0.91728
3.3035300220071804,0,0,1.2808978881835937,0,0,0.6115200000000001
3.3049138549831696,0,0,1.1875240234375,0,0,0.91728
3.306597183982376,0,0,1.1276689819335937,0,0,0.53508
3.3080054979946,0,0,1.0007762939453124,0,0,0.3822
3.309387090994278,0,0,1.3646949462890625,0,0,0.45864
3.3107666279829573,0,0,1.4006079711914061,0,0,0.99372
3.312148052995326,0,0,1.5849614990234373,0,0,0.53508
3.3135267939942423,0,0,1.39821376953125,0,0,0.6115200000000001
3.314908108994132,0,0,1.1659762084960936,0,0,1.1465999999999998
3.3162887200014666,0,0,1.1947066284179686,0,0,1.1465999999999998
3.3176675160066225,0,0,1.235408056640625,0,0,0.91728
3.3190457379969303,0,0,1.2904746948242187,0,0,1.2230400000000001
3.3204370900057256,0,0,1.4820108276367188,0,0,0.7644
3.3218234039959498,0,0,1.3192051147460937,0,0,0.91728
3.3232091820100322,0,0,1.429338391113281,0,0,1.1465999999999998
3.324595440994017,0,0,1.1923124267578125,0,0,0.7644
3.3259814780030865,0,0,1.3239935180664062,0,0,0.53508
3.3273665889864787,0,0,1.2832920898437499,0,0,0.3822
3.3287618290050887,0,0,1.216254443359375,0,0,0.30576000000000003
3.3301481069938745,0,0,1.5083470458984374,0,0,0.0
3.3315976980084088,0,0,1.3958195678710936,0,0,0.6115200000000001
3.3331016959855333,0,0,1.6927005737304686,0,0,1.07016
3.334490362991346,0,0,1.3215993164062498,0,0,0.68796
3.335881195991533,0,0,1.180341418457031,0,0,0.7644
3.3372699549945537,0,0,1.139639990234375,0,0,0.6115200000000001
3.3386569730064366,0,0,1.0869675537109373,0,0,0.53508
3.3400463619909715,0,0,1.3287819213867187,0,0,0.45864
3.3414321210002527,0,0,1.4221557861328125,0,0,0.7644
3.3428185829834547,0,0,1.3192051147460937,0,0,1.07016
3.3442127500020433,0,0,1.3527239379882812,0,0,0.53508
3.345599489985034,0,0,1.2425906616210938,0,0,1.2994800000000002
3.3469858600001317,0,0,1.2018892333984375,0,0,0.99372
3.348372731008567,0,0,1.216254443359375,0,0,0.7644
3.349758563999785,0,0,1.158793603515625,0,0,1.37592
3.3511498410080094,0,0,1.4628572143554686,0,0,0.68796
3.3525358969927765,0,0,1.2856862915039062,0,0,1.07016
3.353922156005865,0,0,1.37906015625,0,0,0.84084
3.3553081919963006,0,0,1.2737152832031249,0,0,1.07016
3.356694358983077,0,0,1.3407529296874998,0,0,0.68796
3.358080192003399,0,0,1.180341418457031,0,0,0.45864
3.359487709996756,0,0,1.1755530151367186,0,0,0.30576000000000003
3.360874857986346,0,0,1.2761094848632812,0,0,0.0
3.362260283989599,0,0,1.3335703247070312,0,0,0.30576000000000003
3.363647060992662,0,0,1.4891934326171874,0,0,0.68796
3.365033467998728,0,0,1.1348515869140625,0,0,0.6115200000000001
3.3664197089965455,0,0,1.2306196533203124,0,0,0.91728
3.3678067270084284,0,0,1.1755530151367186,0,0,1.2230400000000001
3.369191782985581,0,0,1.0606313354492187,0,0,0.84084
3.370577116002096,0,0,1.1085153686523437,0,0,1.45236
3.371964004007168,0,0,1.465251416015625,0,0,1.1465999999999998
3.373357151984237,0,0,1.35990654296875,0,0,1.07016
3.3747444479959086,0,0,1.6017209106445311,0,0,0.91728
3.3761305589869153,0,0,1.2306196533203124,0,0,0.91728
3.377516448003007,0,0,1.1851298217773436,0,0,0.68796
3.378901947988197,0,0,1.0893617553710937,0,0,0.45864
3.3802874659886584,0,0,1.2617442749023438,0,0,0.53508
3.381673188006971,0,0,1.2928688964843749,0,0,0.0
3.3830587249831297,0,0,1.216254443359375,0,0,0.6115200000000001
3.3844447619921993,0,0,1.5825672973632812,0,0,0.84084
3.385830095008714,0,0,1.3407529296874998,0,0,0.7644
3.3872188910027035,0,0,1.2641384765625,0,0,0.68796
3.3886040569923352,0,0,1.0749965454101562,0,0,0.84084
3.3899899639945943,0,0,1.22583125,0,0,0.53508
3.391375834995415,0,0,1.37906015625,0,0,0.3822
3.392761741997674,0,0,1.5179238525390624,0,0,1.1465999999999998
3.3941477600019425,0,0,1.5155296508789062,0,0,0.91728
3.3955331119941548,0,0,1.4532804077148436,0,0,0.6115200000000001
3.396919129998423,0,0,1.1085153686523437,0,0,0.91728
3.398305092996452,0,0,1.2234370483398436,0,0,0.53508
3.399691295984667,0,0,1.158793603515625,0,0,0.91728
3.4010765370039735,0,0,1.3192051147460937,0,0,1.1465999999999998
3.4024622770084534,0,0,1.419761584472656,0,0,0.7644
3.403847887995653,0,0,1.3862427612304686,0,0,0.7644
3.4052308700047433,0,0,1.5825672973632812,0,0,0.99372
3.4066149620048236,0,0,1.1252747802734375,0,0,0.6115200000000001
3.408015888009686,0,0,1.1133037719726562,0,0,0.6115200000000001
3.4094093129970133,0,0,1.218648645019531,0,0,0.6115200000000001
3.410796443000436,0,0,1.20667763671875,0,0,0.68796
3.4121837760030758,0,0,1.4149731811523436,0,0,0.0
3.41357027500635,0,0,1.3934253662109375,0,0,0.68796
3.4149568309949245,0,0,1.5251064575195312,0,0,0.84084
3.416354090004461,0,0,1.2138602416992186,0,0,0.3822
3.417750997003168,0,0,1.22583125,0,0,0.99372
3.419138736993773,0,0,1.2785036865234374,0,0,0.68796
3.420542125997599,0,0,1.0941501586914062,0,0,1.1465999999999998
3.4219285330036655,0,0,1.4173673828125,0,0,1.37592
3.423314772982849,0,0,1.5682020874023437,0,0,0.99372
3.4247011249826755,0,0,1.177947216796875,0,0,0.45864
3.4260876059997827,0,0,1.446097802734375,0,0,0.84084
3.4274738839885686,0,0,1.149216796875,0,0,0.84084
3.428860457992414,0,0,1.1420341918945311,0,0,0.99372
3.430248753982596,0,0,1.1563994018554686,0,0,0.68796
3.4316392350010574,0,0,1.1611878051757811,0,0,0.7644
3.433034604997374,0,0,1.4245499877929686,0,0,0.22932
3.4344206789974123,0,0,1.3551181396484375,0,0,0.99372
3.4358084379928187,0,0,1.4628572143554686,0,0,0.68796
3.437194437981816,0,0,1.2114660400390624,0,0,0.84084
3.4385801409953274,0,0,1.2952630981445312,0,0,0.68796
3.439967696001986,0,0,1.24498486328125,0,0,0.45864
3.4413539560046047,0,0,1.1731588134765625,0,0,0.53508
3.442746029002592,0,0,1.3742717529296875,0,0,0.68796
3.444132714008447,0,0,1.35990654296875,0,0,0.3822
3.4455188249994535,0,0,1.4221557861328125,0,0,0.7644
3.4469043989956845,0,0,1.1923124267578125,0,0,0.6115200000000001
3.4482911579834763,0,0,1.2018892333984375,0,0,1.2994800000000002
3.449677750002593,0,0,1.1348515869140625,0,0,0.84084
3.4510640279913787,0,0,1.1228805786132812,0,0,0.99372
3.452450805983972,0,0,1.24498486328125,0,0,1.37592
3.4538371569942683,0,0,1.35990654296875,0,0,1.07016
3.455223361001117,0,0,1.2832920898437499,0,0,0.91728
3.456604231003439,0,0,1.7884686401367187,0,0,0.99372
3.4579827490088064,0,0,1.2114660400390624,0,0,0.7644
3.4593609900039155,0,0,1.1947066284179686,0,0,0.3822
3.4618700860009994,0,0,1.139639990234375,0,0,0.53508
3.463256660004845,0,0,1.3766659545898436,0,0,0.0
3.4646426780091133,0,0,1.3814543579101561,0,0,0.6115200000000001
3.4660279550007544,0,0,1.5322890624999999,0,0,0.6115200000000001
3.467413806996774,0,0,1.3623007446289062,0,0,0.7644
3.4687996589927934,0,0,1.1947066284179686,0,0,1.07016
3.470185195998056,0,0,1.0773907470703123,0,0,1.07016
3.4715843059821054,0,0,1.1324573852539062,0,0,0.84084
3.472970825008815,0,0,1.3144167114257812,0,0,1.45236
3.474356065009488,0,0,1.4700398193359374,0,0,0.91728
3.4757429719902575,0,0,1.3024457031249999,0,0,0.99372
3.477135767985601,0,0,1.4987702392578124,0,0,-8.71416
3.4785218790057115,0,0,1.218648645019531,0,0,0.84084
3.4799083230027463,0,0,1.1755530151367186,0,0,0.6115200000000001
3.481292915996164,0,0,1.0558429321289062,0,0,0.6115200000000001
3.482677989988588,0,0,1.1061211669921875,0,0,0.30576000000000003
3.484063988988055,0,0,1.3431471313476562,0,0,0.0
3.485449100000551,0,0,1.2521674682617188,0,0,0.53508
3.486838488985086,0,0,1.3431471313476562,0,0,0.6115200000000001
3.4882235630066134,0,0,1.254561669921875,0,0,0.45864
3.489609415002633,0,0,1.1851298217773436,0,0,0.68796
3.490994302992476,0,0,1.2042834350585936,0,0,0.99372
3.4923800620017573,0,0,1.1875240234375,0,0,0.68796
3.4937656550027896,0,0,1.2785036865234374,0,0,0.68796
3.49515109899221,0,0,1.5155296508789062,0,0,0.91728
3.4965368759876583,0,0,1.235408056640625,0,0,0.6115200000000001
3.4979232469922863,0,0,1.2713210815429687,0,0,1.07016
3.4993088390037883,0,0,1.2425906616210938,0,0,1.07016
3.5006947460060474,0,0,1.218648645019531,0,0,0.84084
3.5020806530083064,0,0,1.0869675537109373,0,0,0.7644
3.50346602400532,0,0,1.2425906616210938,0,0,1.07016
3.5048563010059297,0,0,1.5035586425781249,0,0,0.3822
3.506240041984711,0,0,1.3479355346679687,0,0,0.53508
3.5078636489924975,0,0,1.5059528442382812,0,0,0.84084
3.5092490189999808,0,0,1.22583125,0,0,0.99372
3.5106282049964648,0,0,1.2761094848632812,0,0,0.84084
3.512009575002594,0,0,1.2521674682617188,0,0,0.45864
3.513388555991696,0,0,1.2378022583007813,0,0,0.22932
3.514767407992622,0,0,1.235408056640625,0,0,0.07644000000000001
3.5161479449889157,0,0,1.3215993164062498,0,0,0.7644
3.517526851996081,0,0,1.2952630981445312,0,0,0.6115200000000001
3.518905629985966,0,0,1.2234370483398436,0,0,0.68796
3.5202863329905085,0,0,1.2234370483398436,0,0,0.91728
3.521664517989848,0,0,1.3144167114257812,0,0,0.45864
3.523043166002026,0,0,1.189918225097656,0,0,0.7644
3.524422777001746,0,0,1.2617442749023438,0,0,1.37592
3.525801573996432,0,0,1.4317325927734375,0,0,0.91728
3.527180072996998,0,0,1.3048399047851562,0,0,0.6115200000000001
3.528568980982527,0,0,1.6519991455078125,0,0,1.07016
3.529957683989778,0,0,1.2832920898437499,0,0,0.84084
3.5313467209925875,0,0,1.2880804931640624,0,0,0.68796
3.5327336649934296,0,0,1.2497732666015624,0,0,0.53508
3.5341234609950334,0,0,1.3359645263671873,0,0,0.53508
3.535528164007701,0,0,1.3838485595703125,0,0,0.07644000000000001
3.5369150530023035,0,0,1.2665326782226562,0,0,0.6115200000000001
3.5383014229882974,0,0,1.5538368774414062,0,0,1.07016
3.5396939780039247,0,0,1.388636962890625,0,0,0.68796
3.541081256000325,0,0,1.3168109130859373,0,0,0.53508
3.5424676630063914,0,0,1.1468225952148436,0,0,0.45864
3.5438553849817254,0,0,1.2665326782226562,0,0,0.45864
3.545241588988574,0,0,1.369483349609375,0,0,-9.09636
3.546629310993012,0,0,1.4724340209960938,0,0,0.84084
3.5480163839820307,0,0,1.4149731811523436,0,0,0.84084
3.5494096800102852,0,0,1.2904746948242187,0,0,0.68796
3.5507959949900396,0,0,1.2330138549804688,0,0,1.07016
3.552181938983267,0,0,1.218648645019531,0,0,1.07016
3.553568623989122,0,0,1.158793603515625,0,0,0.7644
3.5549551059957594,0,0,1.3192051147460937,0,0,1.07016
3.5563419940008316,0,0,1.458068811035156,0,0,0.6115200000000001
3.557728697982384,0,0,1.4221557861328125,0,0,1.2230400000000001
