Time,AccelX1,AccelY1,AccelZ1,AccelX2,AccelY2,AccelZ2
3.630004357546568e-06,0,0,1.3072341064453123,0,0,0.53508
0.0036380340170580894,0,0,1.3455413330078123,0,0,0.6115200000000001
0.007687322999117896,0,0,1.2832920898437499,0,0,0.99372
0.011247007001657039,0,0,1.3072341064453123,0,0,0.68796
0.014759727026103064,0,0,1.3096283081054687,0,0,0.7644
0.01826983701903373,0,0,1.3431471313476562,0,0,0.7644
0.021760447009000927,0,0,1.4891934326171874,0,0,0.7644
0.0252680940029677,0,0,1.350329736328125,0,0,0.53508
0.028772759018465877,0,0,1.3215993164062498,0,0,0.45864
0.03309186000842601,0,0,1.5059528442382812,0,0,0.7644
0.036739413015311584,0,0,1.1468225952148436,0,0,0.7644
0.04026289301691577,0,0,1.3455413330078123,0,0,0.68796
0.04427660902729258,0,0,1.2473790649414063,0,0,0.84084
0.04782321801758371,0,0,1.0845733520507812,0,0,0.68796
0.05132156901527196,0,0,1.3048399047851562,0,0,0.68796
0.05484408600023016,0,0,1.5035586425781249,0,0,0.99372
0.05836006600293331,0,0,1.3072341064453123,0,0,0.45864
0.06194056401727721,0,0,1.3455413330078123,0,0,2.36964
0.06546219202573411,0,0,1.3814543579101561,0,0,0.68796
0.06897906100493856,0,0,1.1037269653320312,0,0,0.68796
0.07255268801236525,0,0,1.2473790649414063,0,0,0.84084
0.07615564900333993,0,0,1.39821376953125,0,0,0.91728
0.0797257580270525,0,0,1.0726023437499999,0,0,0.53508
0.08324494201224297,0,0,1.3407529296874998,0,0,0.3822
0.08676010702038184,0,0,1.4341267944335936,0,0,0.84084
0.09027664302266203,0,0,1.2378022583007813,0,0,0.45864
0.09379654901567847,0,0,1.2689268798828124,0,0,0.53508
0.09731038101017475,0,0,1.4724340209960938,0,0,0.84084
0.10082330502336845,0,0,1.0773907470703123,0,0,1.07016
0.10435969301033765,0,0,1.3431471313476562,0,0,0.91728
0.10775876601110213,0,0,1.4724340209960938,0,0,0.53508
0.11088214002666064,0,0,1.3144167114257812,0,0,0.7644
0.11404679002589546,0,0,1.3718775512695311,0,0,0.7644
0.1171768490166869,0,0,1.39821376953125,0,0,0.68796
0.12030192601378076,0,0,1.1851298217773436,0,0,0.84084
0.12342078000074252,0,0,1.3192051147460937,0,0,0.84084
0.12653563500498421,0,0,1.5203180541992187,0,0,0.7644
0.129651064024074,0,0,1.4221557861328125,0,0,0.45864
0.13276610401226208,0,0,1.3383587280273437,0,0,0.91728
0.13588255201466382,0,0,1.2330138549804688,0,0,0.7644
0.13899296201998368,0,0,1.4532804077148436,0,0,0.53508
0.14215161302126944,0,0,1.2880804931640624,0,0,0.7644
0.1453028190007899,0,0,1.3239935180664062,0,0,0.3822
0.1484223960142117,0,0,1.407790576171875,0,0,0.53508
0.15154508402338251,0,0,1.4915876342773438,0,0,0.7644
0.15466108702821657,0,0,1.22583125,0,0,0.6115200000000001
0.15777657201397233,0,0,1.2306196533203124,0,0,0.30576000000000003
0.160891186009394,0,0,1.3168109130859373,0,0,0.6115200000000001
0.1640037070028484,0,0,1.3359645263671873,0,0,0.6115200000000001
0.16760881600202993,0,0,1.2306196533203124,0,0,0.99372
0.17098707502009347,0,0,1.448492004394531,0,0,0.68796
0.17409289302304387,0,0,1.235408056640625,0,0,1.07016
0.17719402600778267,0,0,1.1611878051757811,0,0,0.84084
0.1802971960278228,0,0,1.4604630126953124,0,0,0.7644
0.18345360600505956,0,0,1.4149731811523436,0,0,0.7644
0.18655760900583118,0,0,1.3718775512695311,0,0,0.45864
0.1896778900118079,0,0,1.1707646118164061,0,0,1.1465999999999998
0.19279300401103683,0,0,1.4245499877929686,0,0,0.7644
0.19590984002570622,0,0,1.3096283081054687,0,0,0.84084
0.1990428430144675,0,0,1.0989385620117187,0,0,0.45864
0.20215829001972452,0,0,1.3048399047851562,0,0,0.30576000000000003
0.20527516302536242,0,0,1.3934253662109375,0,0,0.53508
0.20839109201915562,0,0,1.3359645263671873,0,0,0.7644
0.21153291000518948,0,0,1.1420341918945311,0,0,0.15288000000000002
0.21464795002248138,0,0,1.3048399047851562,0,0,0.7644
0.21776621200842783,0,0,1.2665326782226562,0,0,0.84084
0.22088034500484355,0,0,1.1252747802734375,0,0,0.45864
0.22399655100889504,0,0,1.448492004394531,0,0,0.91728
0.2271081290091388,0,0,1.5897499023437498,0,0,0.84084
0.2302221320278477,0,0,1.1444283935546875,0,0,0.7644
0.23595360602485016,0,0,1.5275006591796874,0,0,0.68796
0.2391956080100499,0,0,1.2378022583007813,0,0,0.53508
0.24241170202731155,0,0,1.2785036865234374,0,0,0.6115200000000001
0.24587594202603213,0,0,1.4125789794921875,0,0,2.36964
0.2490197780134622,0,0,1.47482822265625,0,0,1.07016
0.2521443550067488,0,0,1.2928688964843749,0,0,0.53508
0.25527569101541303,0,0,1.37906015625,0,0,0.84084
0.258402379025938,0,0,1.2378022583007813,0,0,0.53508
0.2615272890252527,0,0,1.3623007446289062,0,0,0.84084
0.2646477550151758,0,0,1.2569558715820313,0,0,1.07016
0.2677705730020534,0,0,1.4125789794921875,0,0,0.99372
0.2709186680149287,0,0,1.2856862915039062,0,0,0.84084
0.27403922702069394,0,0,1.0869675537109373,0,0,0.3822
0.27715678501408547,0,0,1.4125789794921875,0,0,0.84084
0.28026749202399515,0,0,1.3862427612304686,0,0,0.6115200000000001
0.28339868001057766,0,0,1.2880804931640624,0,0,0.68796
0.28652112701092847,0,0,1.1133037719726562,0,0,0.68796
0.2896396300056949,0,0,1.2713210815429687,0,0,0.91728
0.29275774402776733,0,0,1.24498486328125,0,0,0.91728
0.29587565502151847,0,0,1.1180921752929687,0,0,0.68796
0.2989930840267334,0,0,1.3263877197265623,0,0,0.68796
0.3021123640064616,0,0,1.4508862060546874,0,0,0.91728
0.305231034028111,0,0,1.1420341918945311,0,0,0.45864
0.3083527220005635,0,0,1.1276689819335937,0,0,0.22932
0.3114688550122082,0,0,1.2761094848632812,0,0,0.7644
0.3145868200226687,0,0,1.1013327636718748,0,0,0.6115200000000001
0.31768806400941685,0,0,1.1659762084960936,0,0,0.91728
0.32080595602747053,0,0,1.3575123413085937,0,0,1.2994800000000002
0.3239253480278421,0,0,1.3718775512695311,0,0,0.7644
0.3270396660082042,0,0,1.2832920898437499,0,0,0.53508
0.3301565580186434,0,0,1.2785036865234374,0,0,0.45864
0.3332839680078905,0,0,1.2856862915039062,0,0,0.84084
0.3364054150006268,0,0,1.1228805786132812,0,0,0.91728
0.33952715902705677,0,0,1.1875240234375,0,0,0.91728
0.34267834702041,0,0,1.4820108276367188,0,0,0.7644
0.3457979610248003,0,0,1.37906015625,0,0,0.68796
0.3489177790179383,0,0,1.3646949462890625,0,0,0.6115200000000001
0.35203637400991283,0,0,1.3144167114257812,0,0,0.7644
0.35515235899947584,0,0,1.3718775512695311,0,0,0.53508
0.35827225001412444,0,0,1.235408056640625,0,0,0.68796
0.36140284599969164,0,0,1.5011644409179687,0,0,1.07016
0.3647172170167323,0,0,1.4939818359375,0,0,0.68796
0.36786244201357476,0,0,1.3215993164062498,0,0,0.45864
0.37101616701693274,0,0,1.1707646118164061,0,0,0.68796
0.3741374660166912,0,0,1.4030021728515625,0,0,0.84084
0.3772549500281457,0,0,1.448492004394531,0,0,0.07644000000000001
0.3803707500046585,0,0,1.3359645263671873,0,0,0.68796
0.3835191410034895,0,0,1.2737152832031249,0,0,0.68796
0.3866363480046857,0,0,1.22583125,0,0,0.84084
0.38975344301434234,0,0,1.3551181396484375,0,0,0.6115200000000001
0.39286928001092747,0,0,1.0917559570312498,0,0,0.30576000000000003
0.3959849680250045,0,0,1.4245499877929686,0,0,0.53508
0.39909971100860275,0,0,1.388636962890625,0,0,0.84084
0.4022142700268887,0,0,1.139639990234375,0,0,0.91728
0.40533255101763643,0,0,1.2689268798828124,0,0,0.45864
0.4084747020096984,0,0,1.2617442749023438,0,0,0.6115200000000001
0.41159479701309465,0,0,1.0893617553710937,0,0,0.6115200000000001
0.4147122070135083,0,0,1.1133037719726562,0,0,0.68796
0.41782822902314365,0,0,1.4820108276367188,0,0,1.1465999999999998
0.4209464540181216,0,0,1.3311761230468748,0,0,0.7644
0.4240630500135012,0,0,1.2521674682617188,0,0,0.84084
0.42717521902523004,0,0,1.2425906616210938,0,0,0.68796
0.4302934260049369,0,0,1.2832920898437499,0,0,0.68796
0.4334099480183795,0,0,1.1420341918945311,0,0,0.68796
0.4365276730095502,0,0,1.0749965454101562,0,0,0.84084
0.4397036010050215,0,0,1.6472107421875,0,0,0.84084
0.4428285480244085,0,0,1.4030021728515625,0,0,0.91728
0.4459446810069494,0,0,1.2234370483398436,0,0,0.84084
0.4490583510196302,0,0,1.2641384765625,0,0,0.84084
0.452173854020657,0,0,1.2785036865234374,0,0,0.7644
0.45528687501791865,0,0,1.2689268798828124,0,0,0.68796
0.4584012670093216,0,0,1.2497732666015624,0,0,0.91728
0.46151893702335656,0,0,1.458068811035156,0,0,0.91728
0.4646606800088193,0,0,1.5227122558593749,0,0,0.68796
0.46779181199963205,0,0,1.0749965454101562,0,0,0.6115200000000001
0.47090629700687714,0,0,1.4030021728515625,0,0,0.68796
0.474020781024592,0,0,1.3814543579101561,0,0,0.91728
0.4771349700167775,0,0,1.235408056640625,0,0,0.6115200000000001
0.48025189799955115,0,0,1.2569558715820313,0,0,0.6115200000000001
0.48339749401202425,0,0,1.4413093994140624,0,0,0.91728
0.4865118490124587,0,0,1.2785036865234374,0,0,0.45864
0.4896275000064634,0,0,1.216254443359375,0,0,0.6115200000000001
0.4927426140056923,0,0,1.2521674682617188,0,0,0.68796
0.4959303200012073,0,0,1.2306196533203124,0,0,0.7644
0.4991562840004917,0,0,1.1037269653320312,0,0,0.99372
0.5022755840036552,0,0,1.3383587280273437,0,0,0.53508
0.515908212022623,0,0,1.1013327636718748,0,0,0.84084
0.5191565660061315,0,0,1.2904746948242187,0,0,0.68796
0.522262013022555,0,0,1.3551181396484375,0,0,0.7644
0.5253634610271547,0,0,1.455674609375,0,0,0.68796
0.5284641310281586,0,0,1.4939818359375,0,0,0.84084
0.5315678560000379,0,0,1.254561669921875,0,0,-9.09636
0.5346693220199086,0,0,1.3192051147460937,0,0,0.45864
0.5392427720071282,0,0,1.4006079711914061,0,0,0.84084
0.5423524230136536,0,0,1.216254443359375,0,0,0.7644
0.5454532970034052,0,0,1.3383587280273437,0,0,0.68796
0.5485571890021674,0,0,1.1707646118164061,0,0,0.84084
0.5516706550261006,0,0,1.22583125,0,0,0.68796
0.5547675650159363,0,0,1.0821791503906248,0,0,0.91728
0.5578656610159669,0,0,1.5227122558593749,0,0,0.68796
0.5609629420214333,0,0,1.2306196533203124,0,0,0.6115200000000001
0.5640776490035933,0,0,1.2234370483398436,0,0,0.7644
0.5671901150199119,0,0,1.2976572998046874,0,0,0.84084
0.5703068030124996,0,0,1.2330138549804688,0,0,0.91728
0.5741077610000502,0,0,1.0773907470703123,0,0,0.6115200000000001
0.5774410210142378,0,0,1.3287819213867187,0,0,0.15288000000000002
0.5805939130077604,0,0,1.4987702392578124,0,0,0.6115200000000001
0.5837115450121928,0,0,1.1755530151367186,0,0,0.84084
0.586826437007403,0,0,1.2761094848632812,0,0,0.84084
0.5899414590094239,0,0,1.3431471313476562,0,0,0.7644
0.593055314006051,0,0,1.4245499877929686,0,0,0.91728
0.5961684650101233,0,0,1.1923124267578125,0,0,0.6115200000000001
0.5993020420137327,0,0,1.3646949462890625,0,0,0.84084
0.6024460440094117,0,0,1.254561669921875,0,0,0.6115200000000001
0.6056775270262733,0,0,1.3766659545898436,0,0,0.68796
0.6087357530195732,0,0,1.3958195678710936,0,0,0.68796
0.6115278890065383,0,0,1.429338391113281,0,0,0.53508
0.6143093590217177,0,0,1.5203180541992187,0,0,0.68796
0.6171077360049821,0,0,1.3311761230468748,0,0,0.84084
0.6199275940016378,0,0,1.1420341918945311,0,0,0.99372
0.622729230002733,0,0,1.3168109130859373,0,0,0.7644
0.6255356809997465,0,0,1.455674609375,0,0,0.6115200000000001
0.6283341500093229,0,0,1.20667763671875,0,0,0.7644
0.6313083950080909,0,0,1.3192051147460937,0,0,0.6115200000000001
0.6341119940043427,0,0,1.3575123413085937,0,0,0.7644
0.636910927016288,0,0,1.120486376953125,0,0,0.6115200000000001
0.6397128410171717,0,0,1.2856862915039062,0,0,0.99372
0.6425119769992307,0,0,1.1659762084960936,0,0,0.45864
0.6453422980266623,0,0,1.35990654296875,0,0,0.53508
0.6481427480175626,0,0,1.1516109985351561,0,0,0.53508
0.6509377730253618,0,0,1.2378022583007813,0,0,0.68796
0.6537389830045868,0,0,1.350329736328125,0,0,0.68796
0.6565377680235542,0,0,1.139639990234375,0,0,0.6115200000000001
0.6593365150038153,0,0,1.1085153686523437,0,0,0.3822
0.6621463180053979,0,0,1.3479355346679687,0,0,0.68796
0.6649457870225888,0,0,1.3934253662109375,0,0,0.84084
0.6677449039998464,0,0,1.4101847778320311,0,0,0.84084
0.6705676880083047,0,0,1.1755530151367186,0,0,0.6115200000000001
0.6733682870108169,0,0,1.2378022583007813,0,0,0.7644
0.6761687750113197,0,0,1.5227122558593749,0,0,0.7644
0.678965152008459,0,0,1.678335363769531,0,0,0.68796
0.6817631960147992,0,0,1.2569558715820313,0,0,0.68796
0.684560573019553,0,0,1.2713210815429687,0,0,1.07016
0.6873581530235242,0,0,1.5275006591796874,0,0,1.1465999999999998
0.6901856410258915,0,0,1.254561669921875,0,0,0.84084
0.692984517023433,0,0,1.1563994018554686,0,0,0.68796
0.6957834310014732,0,0,1.3072341064453123,0,0,0.45864
0.6985797530214768,0,0,1.2425906616210938,0,0,0.91728
0.7013783889997285,0,0,1.3623007446289062,0,0,0.6115200000000001
0.7041855060087983,0,0,1.3455413330078123,0,0,0.7644
0.707076456019422,0,0,1.2952630981445312,0,0,0.91728
0.7100552200281527,0,0,1.2138602416992186,0,0,0.6115200000000001
0.7131723890197463,0,0,1.3766659545898436,0,0,0.6115200000000001
0.7162910400074907,0,0,1.2593500732421874,0,0,1.07016
0.7194068030221388,0,0,1.5227122558593749,0,0,0.91728
0.7225223430141341,0,0,1.3718775512695311,0,0,0.91728
0.7256394010037184,0,0,1.120486376953125,0,0,0.68796
0.7287879960204009,0,0,1.2689268798828124,0,0,0.99372
0.7319065550109372,0,0,1.2713210815429687,0,0,0.6115200000000001
0.7350206320115831,0,0,1.2832920898437499,0,0,0.68796
0.7381382460007444,0,0,1.3168109130859373,0,0,0.68796
0.7412620820105076,0,0,1.4149731811523436,0,0,0.6115200000000001
0.7443902520171832,0,0,1.4125789794921875,0,0,0.68796
0.747600920003606,0,0,1.3120225097656248,0,0,0.68796
0.7508006450079847,0,0,1.4221557861328125,0,0,0.53508
0.7539199250168167,0,0,1.3359645263671873,0,0,0.7644
0.7570360579993576,0,0,1.3766659545898436,0,0,0.91728
0.7601518200244755,0,0,1.2928688964843749,0,0,0.3822
0.763263712025946,0,0,1.4125789794921875,0,0,0.68796
0.7664237150165718,0,0,1.0869675537109373,0,0,0.6115200000000001
0.7695876430079807,0,0,1.1324573852539062,0,0,0.91728
0.7727092760032974,0,0,1.4101847778320311,0,0,0.6115200000000001
0.7758267600147519,0,0,1.4915876342773438,0,0,0.99372
0.7789390220132191,0,0,1.3527239379882812,0,0,0.84084
0.782056451018434,0,0,1.3623007446289062,0,0,0.53508
0.7851713060226757,0,0,1.3383587280273437,0,0,0.6115200000000001
0.7882863090198953,0,0,1.1180921752929687,0,0,0.7644
0.7914011450193357,0,0,1.3144167114257812,0,0,0.68796
0.7945162780233659,0,0,1.4245499877929686,0,0,0.91728
0.7976308740035165,0,0,1.3263877197265623,0,0,0.84084
0.8007478950021323,0,0,1.2832920898437499,0,0,0.53508
0.8046290380007122,0,0,1.5107412475585937,0,0,0.6115200000000001
0.8078375770128332,0,0,1.3958195678710936,0,0,0.45864
0.8109511540096719,0,0,1.24498486328125,0,0,0.7644
0.8140678050112911,0,0,1.2713210815429687,0,0,0.3822
0.8171841040020809,0,0,1.2401964599609374,0,0,0.91728
0.8202983110095374,0,0,1.2114660400390624,0,0,0.68796
0.8234148690244183,0,0,1.3742717529296875,0,0,0.91728
0.8265289280097932,0,0,1.4532804077148436,0,0,0.84084
0.8296439870027825,0,0,1.4006079711914061,0,0,0.7644
0.8327574340219144,0,0,1.3359645263671873,0,0,0.6115200000000001
0.8359049740247428,0,0,1.3718775512695311,0,0,0.6115200000000001
0.8390196800173726,0,0,1.2713210815429687,0,0,0.7644
0.8421358690247871,0,0,1.1420341918945311,0,0,0.84084
0.8452515570097603,0,0,1.149216796875,0,0,0.91728
0.848368263017619,0,0,1.3910311645507811,0,0,1.07016
0.8518133180041332,0,0,1.3192051147460937,0,0,0.7644
0.8549443770025391,0,0,1.35990654296875,0,0,0.6115200000000001
0.8580612690129783,0,0,1.3239935180664062,0,0,0.68796
0.8611801600200124,0,0,1.1252747802734375,0,0,0.7644
0.8642986630147789,0,0,1.3239935180664062,0,0,0.7644
0.8674137400230393,0,0,1.3144167114257812,0,0,0.7644
0.8705438169999979,0,0,1.2856862915039062,0,0,0.7644
0.8736602650023997,0,0,1.2761094848632812,0,0,0.68796
0.8767747310048435,0,0,1.13006318359375,0,0,1.68168
0.8798921970010269,0,0,2.059013427734375,0,0,2.2931999999999997
0.8830057370068971,0,0,2.2649147705078123,0,0,1.45236
0.8861215910001192,0,0,2.887407202148437,0,0,0.91728
0.889236298011383,0,0,1.7357962036132812,0,0,0.91728
0.8923513010086026,0,0,1.6160861206054686,0,0,1.1465999999999998
0.8954672670224681,0,0,1.2593500732421874,0,0,1.1465999999999998
0.8985841960238758,0,0,1.7764976318359373,0,0,1.45236
0.9016985880152788,0,0,2.1930887207031247,0,0,1.2230400000000001
0.904814443027135,0,0,2.1212626708984375,0,0,1.2994800000000002
0.9079672420048155,0,0,1.70467158203125,0,0,0.99372
0.9111170220130589,0,0,1.7453730102539062,0,0,0.7644
0.914234395022504,0,0,1.697488977050781,0,0,1.1465999999999998
0.9173497130104806,0,0,1.93451494140625,0,0,1.60524
0.9204672720225062,0,0,1.7764976318359373,0,0,0.99372
0.9235870710108429,0,0,1.7549498168945312,0,0,1.5288
0.9267436470254324,0,0,2.327164013671875,0,0,1.45236
0.9298684100212995,0,0,1.4915876342773438,0,0,0.68796
0.932984931016108,0,0,1.9536685546875,0,0,1.37592
0.93610243400326,0,0,1.7310078002929687,0,0,0.84084
0.9392161040159408,0,0,1.8507178833007811,0,0,1.60524
0.9441114390210714,0,0,1.7693150268554687,0,0,1.2230400000000001
0.9472322010260541,0,0,2.104503259277344,0,0,0.91728
0.9506283120135777,0,0,2.1356278808593747,0,0,0.84084
0.9538222030096222,0,0,1.4891934326171874,0,0,0.3822
0.956943373021204,0,0,1.3096283081054687,0,0,1.07016
0.9600638020201586,0,0,2.123656872558594,0,0,2.2931999999999997
0.963191008020658,0,0,1.9608511596679685,0,0,0.84084
0.9663099190220237,0,0,1.7597382202148437,0,0,2.4460800000000003
0.9694376250263304,0,0,2.6527754394531247,0,0,1.60524
0.9725567390269134,0,0,1.5083470458984374,0,0,0.30576000000000003
0.9756770200037863,0,0,1.1324573852539062,0,0,1.2994800000000002
0.9787936710054055,0,0,2.4756045166015626,0,0,1.83456
0.9819110440148506,0,0,0.7805097412109374,0,0,1.07016
0.9850179550121538,0,0,2.185906115722656,0,0,1.2230400000000001
0.9881398280267604,0,0,1.01514150390625,0,0,0.91728
0.9912586640275549,0,0,1.2425906616210938,0,0,1.37592
0.9943752780091017,0,0,2.0566192260742184,0,0,2.2167600000000003
0.9975785950082354,0,0,1.9632453613281249,0,0,1.98744
1.0009089480154216,0,0,2.3535002319335936,0,0,1.1465999999999998
1.0041174130165018,0,0,1.3120225097656248,0,0,1.98744
1.0075987080053892,0,0,1.0821791503906248,0,0,1.2994800000000002
1.0108826540235896,0,0,1.917755529785156,0,0,-9.40212
1.0141036920249462,0,0,1.8339584716796873,0,0,0.15288000000000002
1.0173828790138941,0,0,2.693476867675781,0,0,1.5288
1.020618621027097,0,0,1.6927005737304686,0,0,1.2230400000000001
1.0238839930098038,0,0,1.9895815795898437,0,0,0.99372
1.0270675140200183,0,0,2.5522189697265625,0,0,1.5288
1.0302641640009824,0,0,2.1260510742187497,0,0,1.37592
1.0334688140137587,0,0,1.7860744384765623,0,0,1.60524
1.036651205009548,0,0,1.7908628417968748,0,0,2.4460800000000003
1.0397938190144487,0,0,1.3263877197265623,0,0,9.47856
1.042992636008421,0,0,0.9265560424804687,0,0,1.5288
1.046135120006511,0,0,2.612074011230469,0,0,2.4460800000000003
1.0492885670100804,0,0,2.2481553588867187,0,0,1.07016
1.0524344590085093,0,0,0.28730419921875,0,0,-0.7644
1.0556071830214933,0,0,2.3535002319335936,0,0,3.4398000000000004
1.058766149013536,0,0,2.4947581298828125,0,0,0.0
1.061909188021673,0,0,-0.1149216796875,0,0,0.0
1.0650591170124244,0,0,4.295197778320312,0,0,3.0576
1.0682320270279888,0,0,1.6831237670898436,0,0,0.30576000000000003
1.0714231580204796,0,0,-0.0383072265625,0,0,1.2994800000000002
1.074650290014688,0,0,3.1842882080078123,0,0,1.1465999999999998
1.0778957170259673,0,0,0.2753331909179687,0,0,0.15288000000000002
1.0814095490204636,0,0,1.687912170410156,0,0,1.75812
1.0849590290163178,0,0,2.4660277099609376,0,0,-0.3822
1.0884731940168422,0,0,1.0271125122070313,0,0,1.45236
1.0919312860060018,0,0,2.7964275390625,0,0,0.53508
1.095475581008941,0,0,-1.0630255371093749,0,0,2.06388
1.0994469450088218,0,0,3.0597897216796874,0,0,1.83456
1.102977462025592,0,0,-1.0007762939453124,0,0,0.3822
1.1065099789993837,0,0,3.0406361083984375,0,0,1.37592
1.1102152160019614,0,0,0.1005564697265625,0,0,-0.6115200000000001
1.112334378005471,0,0,-0.031124621582031248,0,0,-0.45864
1.1139546560007147,0,0,2.01112939453125,0,0,1.1465999999999998
1.1155998980102595,0,0,2.3056161987304686,0,0,1.68168
1.1172442320093978,0,0,1.2306196533203124,0,0,1.83456
1.119077619019663,0,0,-0.11252747802734374,0,0,1.2230400000000001
1.1210603380168322,0,0,2.1595698974609374,0,0,1.911
1.1225853400246706,0,0,2.5163059448242184,0,0,1.98744
1.1240456940140575,0,0,2.023100402832031,0,0,1.68168
1.1254790860111825,0,0,1.3048399047851562,0,0,0.84084
1.1269329780188855,0,0,0.44053310546874996,0,0,-1.2230400000000001
1.1284063320199493,0,0,1.2521674682617188,0,0,-9.555
1.1298990190261975,0,0,2.39420166015625,0,0,1.83456
1.131407429027604,0,0,2.1116858642578125,0,0,1.5288
1.132899857009761,0,0,1.2808978881835937,0,0,0.68796
1.13438924800721,0,0,-0.40940848388671874,0,0,-0.91728
1.1358781020098832,0,0,-0.7996633544921875,0,0,0.0
1.137284531025216,0,0,1.8818425048828125,0,0,0.22932
1.1386676830006763,0,0,2.5713725830078125,0,0,1.75812
1.1400702970277052,0,0,2.1164742675781247,0,0,2.2931999999999997
1.1414505600114353,0,0,1.484405029296875,0,0,2.2167600000000003
1.1428304700239096,0,0,0.2537853759765625,0,0,-0.53508
1.144213400024455,0,0,0.7781155395507812,0,0,0.15288000000000002
1.1455932000244502,0,0,1.89620771484375,0,0,1.2230400000000001
1.146972814021865,0,0,2.9831752685546875,0,0,1.45236
1.1483533730206545,0,0,2.47081611328125,0,0,1.37592
1.149733043013839,0,0,1.6112977172851561,0,0,1.2230400000000001
1.1511118430062197,0,0,-0.8188169677734375,0,0,-0.3822
1.1524962910043541,0,0,0.0430956298828125,0,0,-0.30576000000000003
1.1538761830015574,0,0,1.0031704956054688,0,0,1.1465999999999998
1.155255390011007,0,0,1.9895815795898437,0,0,1.2994800000000002
1.1566367640043609,0,0,1.5346832641601562,0,0,0.99372
1.1580156750278547,0,0,0.5985504150390625,0,0,1.45236
1.15939517802326,0,0,0.3232172241210937,0,0,0.7644
1.1607745150104165,0,0,1.2521674682617188,0,0,0.7644
1.1621536110178567,0,0,2.224213342285156,0,0,1.75812
1.1635343180096243,0,0,2.379836450195312,0,0,1.45236
1.1649135250190739,0,0,1.4245499877929686,0,0,0.7644
1.1662924180272967,0,0,0.7062894897460937,0,0,0.22932
1.1676800140121486,0,0,-0.2920926025390625,0,0,-0.3822
1.169061276013963,0,0,1.6065093139648436,0,0,0.0
1.170441872003721,0,0,1.8339584716796873,0,0,0.6115200000000001
1.1718246910022572,0,0,2.142810485839844,0,0,1.1465999999999998
1.1732039900089148,0,0,0.9935936889648437,0,0,0.84084
1.1745829200081062,0,0,0.22505495605468748,0,0,9.47856
1.1759723120194394,0,0,0.842758984375,0,0,0.7644
1.177360056026373,0,0,1.9967641845703124,0,0,1.68168
1.178750115010189,0,0,2.1499930908203124,0,0,1.45236
1.180138211027952,0,0,2.0159177978515626,0,0,1.37592
1.1815258070128039,0,0,1.6639701538085936,0,0,1.37592
1.1829131430131383,0,0,-0.05746083984375,0,0,-0.30576000000000003
1.1843030540039763,0,0,1.2952630981445312,0,0,0.84084
1.185690317011904,0,0,2.231395947265625,0,0,1.75812
1.1870780420140363,0,0,2.166752502441406,0,0,1.2230400000000001
1.1884707120188978,0,0,1.3742717529296875,0,0,0.53508
1.1898599560081493,0,0,0.8643067993164062,0,0,0.68796
1.191247552022105,0,0,-0.21308394775390624,0,0,0.30576000000000003
1.192636019026395,0,0,1.1180921752929687,0,0,0.07644000000000001
1.194023465999635,0,0,1.8698714965820311,0,0,1.5288
1.1954116180131678,0,0,1.905784521484375,0,0,1.1465999999999998
1.196800195000833,0,0,0.9337386474609375,0,0,0.84084
1.1981870510207955,0,0,0.41898529052734373,0,0,0.53508
1.1995746280008461,0,0,0.1484405029296875,0,0,0.53508
1.2009616870200261,0,0,2.6599580444335937,0,0,1.2994800000000002
1.2023495610046666,0,0,2.729389892578125,0,0,2.36964
1.2037394530198071,0,0,2.50912333984375,0,0,1.45236
1.2051262520253658,0,0,0.8212111694335937,0,0,0.3822
1.2065133300202433,0,0,0.507570751953125,0,0,-1.1465999999999998
1.207918148022145,0,0,1.7262193969726563,0,0,1.2230400000000001
1.2093062070198357,0,0,2.4157494750976563,0,0,1.37592
1.21069384002476,0,0,2.262520568847656,0,0,1.68168
1.212081436009612,0,0,0.8044517578125,0,0,0.68796
1.2134733460261486,0,0,0.0718260498046875,0,0,0.3822
1.2148606280097738,0,0,-0.40222587890625,0,0,-1.5288
1.2162491490016691,0,0,1.62805712890625,0,0,0.7644
1.2176361530146096,0,0,2.4851813232421875,0,0,2.14032
1.2190227860119194,0,0,2.849099975585937,0,0,1.68168
1.220409808011027,0,0,1.6065093139648436,0,0,0.7644
1.221796626021387,0,0,0.9744400756835937,0,0,0.6115200000000001
1.2231839440064505,0,0,-0.7637503295898437,0,0,-0.6115200000000001
1.224572873004945,0,0,0.6679822631835937,0,0,-0.3822
1.2259600990219042,0,0,2.528276953125,0,0,1.68168
1.2273482320015319,0,0,2.96881005859375,0,0,1.45236
1.2287353460269514,0,0,1.5514426757812498,0,0,0.84084
1.230122035020031,0,0,0.1580173095703125,0,0,1.2230400000000001
1.2315098340041004,0,0,-0.5099649536132812,0,0,0.91728
1.232957856002031,0,0,2.231395947265625,0,0,1.37592
1.234516913013067,0,0,2.5139117431640625,0,0,1.2994800000000002
1.2371424950251821,0,0,1.0007762939453124,0,0,0.53508
1.2385919980006292,0,0,0.7445967163085937,0,0,-0.7644
1.240092944004573,0,0,1.5825672973632812,0,0,0.99372
1.24159829801647,0,0,2.4396914916992185,0,0,2.14032
1.2430962630023714,0,0,2.1452046874999997,0,0,0.91728
1.244610450026812,0,0,1.0678139404296874,0,0,0.07644000000000001
1.2468133520160336,0,0,-0.24660277099609373,0,0,-1.60524
1.248320965009043,0,0,1.6017209106445311,0,0,0.30576000000000003
1.2497905420023017,0,0,3.0406361083984375,0,0,2.36964
1.2512583589996211,0,0,2.583343591308594,0,0,2.14032
1.2526830840215553,0,0,1.1923124267578125,0,0,0.84084
1.2540799580165185,0,0,-0.74699091796875,0,0,0.15288000000000002
1.255490424024174,0,0,-1.216254443359375,0,0,0.0
1.2568728720070794,0,0,2.528276953125,0,0,0.15288000000000002
1.25825350501691,0,0,3.2704794677734372,0,0,2.4460800000000003
1.259646471007727,0,0,3.6439749267578123,0,0,2.14032
1.2611074370215647,0,0,1.2497732666015624,0,0,1.83456
1.262509829015471,0,0,-0.229843359375,0,0,-0.6115200000000001
1.263911795016611,0,0,0.0047884033203125,0,0,-0.15288000000000002
1.2652915760118049,0,0,1.675941162109375,0,0,0.68796
1.2666712460049894,0,0,3.1316157714843746,0,0,2.06388
1.268062250019284,0,0,2.2170307373046874,0,0,1.83456
1.2694512900197878,0,0,1.1085153686523437,0,0,1.68168
1.2708415160013828,0,0,-1.1252747802734375,0,0,-0.7644
1.2722442590165883,0,0,0.09816226806640624,0,0,0.15288000000000002
1.273633504024474,0,0,1.419761584472656,0,0,1.83456
1.2750222110189497,0,0,2.7461493041992187,0,0,1.37592
1.27641032502288,0,0,1.9728221679687499,0,0,1.07016
1.2777979580278043,0,0,0.229843359375,0,0,1.07016
1.2791853500239085,0,0,-0.5027823486328125,0,0,0.0
1.2805747980019078,0,0,0.7685387329101562,0,0,0.45864
1.2819624130206648,0,0,2.9185318237304685,0,0,2.2167600000000003
1.2833500080159865,0,0,2.806004345703125,0,0,1.45236
1.2847313080274034,0,0,1.8291700683593748,0,0,0.84084
1.2861098120047245,0,0,-0.1149216796875,0,0,0.0
1.2875074630137533,0,0,-1.1276689819335937,0,0,-0.91728
1.2888963370060083,0,0,2.157175695800781,0,0,0.30576000000000003
1.2902834330161568,0,0,3.0526071166992184,0,0,1.98744
1.2916709180281032,0,0,3.066972326660156,0,0,1.83456
1.293056680005975,0,0,1.0749965454101562,0,0,-8.25552
1.29444396100007,0,0,-0.5147533569335937,0,0,-0.84084
1.2958322240156122,0,0,-0.41419688720703124,0,0,-0.68796
1.2972195980255492,0,0,1.419761584472656,0,0,0.30576000000000003
1.298606323020067,0,0,2.952050646972656,0,0,1.60524
1.2999890300270636,0,0,3.1459809814453124,0,0,1.83456
1.3013679040013812,0,0,2.250549560546875,0,0,2.82828
1.3027471670066006,0,0,-1.465251416015625,0,0,0.22932
1.3041476700163912,0,0,-0.8547299926757812,0,0,-0.30576000000000003
1.3055380250152666,0,0,0.6631938598632812,0,0,0.99372
1.306925991026219,0,0,3.1364041748046874,0,0,0.99372
1.3083138100046199,0,0,2.7365724975585937,0,0,0.84084
1.3097013130027335,0,0,0.9600748657226562,0,0,1.45236
1.3110890390235,0,0,-0.6751648681640625,0,0,0.0
1.3124772270093672,0,0,-0.2920926025390625,0,0,0.0
1.3138646380102728,0,0,1.8626888916015625,0,0,2.06388
1.3152518260176294,0,0,2.3032219970703123,0,0,1.37592
1.3166400890040677,0,0,1.838746875,0,0,1.2230400000000001
1.3180279810039792,0,0,0.5530605834960938,0,0,0.7644
1.3194287620135583,0,0,-0.3112462158203125,0,0,0.0
1.3208172100130469,0,0,1.8363526733398436,0,0,0.22932
1.3222044910071418,0,0,2.6886884643554687,0,0,2.4460800000000003
1.3235926060006022,0,0,2.89219560546875,0,0,1.5288
1.3249796650197823,0,0,1.5394716674804687,0,0,1.5288
1.3263670380110852,0,0,0.21308394775390624,0,0,0.0
1.3277552270155866,0,0,-0.086191259765625,0,0,0.15288000000000002
1.3291431380202994,0,0,1.4604630126953124,0,0,0.22932
1.3305301960208453,0,0,2.212242333984375,0,0,1.45236
1.3319171070179436,0,0,2.384624853515625,0,0,1.68168
1.3333047590276692,0,0,1.7453730102539062,0,0,1.45236
1.3346917060262058,0,0,-0.5913678100585937,0,0,-0.53508
1.3360803020186722,0,0,-0.031124621582031248,0,0,0.0
1.337468195008114,0,0,1.2785036865234374,0,0,1.2994800000000002
1.3388556420104578,0,0,2.6336218261718747,0,0,0.99372
1.3402424420055468,0,0,2.346317626953125,0,0,1.83456
1.3416462050226983,0,0,2.1619640991210938,0,0,2.2931999999999997
1.343034689023625,0,0,-0.15322890625,0,0,-0.3822
1.3444236560026184,0,0,-0.21068974609375,0,0,-0.15288000000000002
1.3458127520279959,0,0,2.0446482177734375,0,0,0.99372
1.3472012730198912,0,0,2.5641899780273434,0,0,0.7644
1.3485890730225947,0,0,2.492363928222656,0,0,1.2994800000000002
1.3499763540166896,0,0,0.8451531860351562,0,0,1.2994800000000002
1.3513788940035738,0,0,-0.40462008056640625,0,0,0.0
1.352767231001053,0,0,0.6416460449218749,0,0,0.45864
1.3541547720087692,0,0,1.4867992309570313,0,0,1.45236
1.3555396820011083,0,0,2.0973206542968748,0,0,1.2230400000000001
1.356917778000934,0,0,2.0638018310546875,0,0,0.7644
1.3582970230199862,0,0,1.0654197387695312,0,0,0.68796
1.3608188280195463,0,0,2.01112939453125,0,0,1.911
1.3628773980017286,0,0,2.1356278808593747,0,0,1.60524
1.3643019940063823,0,0,1.2856862915039062,0,0,0.6115200000000001
1.3656922750233207,0,0,0.48123453369140623,0,0,0.91728
1.367086760001257,0,0,0.4213794921875,0,0,-0.99372
1.368477485026233,0,0,0.7661445312499999,0,0,0.22932
1.369864933018107,0,0,2.592920397949219,0,0,1.98744
1.3712553250079509,0,0,2.602497204589844,0,0,1.83456
1.3726448100060225,0,0,0.833182177734375,0,0,1.2994800000000002
1.3740319990029093,0,0,-0.2920926025390625,0,0,0.6115200000000001
1.375438594026491,0,0,-0.5410895751953124,0,0,-1.07016
1.3768276530026924,0,0,1.93451494140625,0,0,0.15288000000000002
1.3782150270126294,0,0,2.767697119140625,0,0,1.75812
1.3796028080105316,0,0,2.001552587890625,0,0,1.911
1.380988923017867,0,0,1.3623007446289062,0,0,1.45236
1.3823752960015554,0,0,0.6296750366210937,0,0,1.45236
1.383762559009483,0,0,-0.08140285644531249,0,0,0.3822
1.3851493220136035,0,0,1.2593500732421874,0,0,0.45864
1.3865364360099193,0,0,2.43250888671875,0,0,0.99372
1.387924421025673,0,0,2.1835119140624997,0,0,1.2994800000000002
1.3893107210169546,0,0,1.7669208251953124,0,0,0.7644
1.3906969830277376,0,0,0.13646949462890623,0,0,0.07644000000000001
1.3920835420140065,0,0,0.33039982910156246,0,0,0.68796
1.3934697860095184,0,0,1.3479355346679687,0,0,1.2994800000000002
1.3948558820120525,0,0,1.7525556152343749,0,0,0.45864
1.396242645016173,0,0,1.3024457031249999,0,0,1.2230400000000001
1.397628593025729,0,0,1.0917559570312498,0,0,1.2994800000000002
1.3990147630102001,0,0,1.2401964599609374,0,0,0.22932
1.4004011360229924,0,0,1.2952630981445312,0,0,1.2994800000000002
1.4017872320255265,0,0,1.8770541015625,0,0,1.98744
1.403173347003758,0,0,1.6041151123046875,0,0,0.6115200000000001
1.404560961003881,0,0,0.8379705810546875,0,0,-0.6115200000000001
1.4059476500260644,0,0,0.5219359619140624,0,0,0.99372
1.407334672025172,0,0,0.6081272216796875,0,0,-0.45864
1.408720286010066,0,0,2.0925322509765625,0,0,0.6115200000000001
1.410119863023283,0,0,2.5450363647460934,0,0,2.36964
1.4115085700177588,0,0,2.346317626953125,0,0,1.98744
1.4128955000196584,0,0,0.3687070556640625,0,0,0.7644
1.4142827810137533,0,0,-0.5339069702148437,0,0,0.0
1.4156715990102384,0,0,0.5770026000976562,0,0,0.15288000000000002
1.417057991027832,0,0,2.6791116577148437,0,0,0.3822
1.4184474390058313,0,0,3.4165257690429685,0,0,1.75812
1.4198361280141398,0,0,2.6096798095703124,0,0,2.2931999999999997
1.4212223530048504,0,0,1.5251064575195312,0,0,1.45236
1.4226088200230151,0,0,-1.4006079711914061,0,0,-0.45864
1.4239967670000624,0,0,-0.8283937744140625,0,0,-0.15288000000000002
1.4253843080077786,0,0,1.3766659545898436,0,0,0.53508
1.4267707930121105,0,0,3.189076611328125,0,0,0.68796
1.428157740010647,0,0,2.4109610717773435,0,0,1.37592
1.4295438360131811,0,0,0.39743747558593745,0,0,1.5288
1.4309302470064722,0,0,-0.42377369384765623,0,0,-0.3822
1.432317602011608,0,0,0.2537853759765625,0,0,0.6115200000000001
1.4337049020105042,0,0,2.042254016113281,0,0,2.06388
1.4350917570118327,0,0,2.559401574707031,0,0,0.68796
1.4364782980119344,0,0,1.5873557006835937,0,0,0.91728
1.4378647450066637,0,0,0.7134720947265625,0,0,0.7644
1.4392516380175948,0,0,0.1867477294921875,0,0,-0.15288000000000002
1.4406384000030812,0,0,2.6815058593749996,0,0,1.1465999999999998
1.4420248290116433,0,0,3.0023288818359375,0,0,2.90472
1.4434123329992872,0,0,2.722207287597656,0,0,1.37592
1.4447998920222744,0,0,0.30885201416015623,0,0,0.22932
1.4461864879995119,0,0,-0.8212111694335937,0,0,-0.15288000000000002
1.4475754540180787,0,0,0.4333505004882812,0,0,-0.6115200000000001
1.448961717018392,0,0,2.5378537597656248,0,0,0.99372
1.4503488680056762,0,0,3.5194764404296874,0,0,1.75812
1.4517363530176226,0,0,1.8746598999023436,0,0,2.2931999999999997
1.45312207902316,0,0,0.6727706665039062,0,0,-8.867040000000001
1.4545086560247,0,0,-1.4796166259765624,0,0,-1.2230400000000001
1.4558995300030801,0,0,-0.07900865478515624,0,0,0.68796
1.4572870330011938,0,0,2.4396914916992185,0,0,0.84084
1.4586744810221717,0,0,3.9600095458984375,0,0,1.45236
1.4600621320132632,0,0,2.8323405639648436,0,0,2.75184
1.4614506360085215,0,0,1.8076222534179687,0,0,2.14032
1.4628378610068467,0,0,-1.5083470458984374,0,0,-1.2230400000000001
1.4642258830135688,0,0,-0.7565677246093749,0,0,-0.22932
1.4656137570273131,0,0,2.9975404785156248,0,0,1.37592
1.4670004080107901,0,0,3.450044592285156,0,0,1.2230400000000001
1.4683872260211501,0,0,2.418143676757812,0,0,1.2230400000000001
1.4697736560192425,0,0,0.06464344482421874,0,0,0.99372
1.4711606590135489,0,0,-1.1156979736328125,0,0,20
1.4725487000250723,0,0,1.3000515014648437,0,0,0.0
1.4739357950165868,0,0,2.2194249389648437,0,0,1.1465999999999998
1.4753221140126698,0,0,3.1387983764648437,0,0,1.07016
1.4767083210172132,0,0,1.8124106567382812,0,0,1.75812
1.4780953980225604,0,0,0.8188169677734375,0,0,1.68168
1.479491901001893,0,0,-0.28490999755859375,0,0,0.30576000000000003
1.4808796450088266,0,0,1.419761584472656,0,0,0.15288000000000002
1.482267130020773,0,0,2.398990063476562,0,0,1.98744
1.483654486015439,0,0,2.454056701660156,0,0,1.68168
1.4850403040181845,0,0,2.0446482177734375,0,0,0.6115200000000001
1.4864273440034594,0,0,1.0582371337890624,0,0,0.0
1.487814681022428,0,0,-0.3950432739257812,0,0,0.68796
1.4892016660014633,0,0,1.4006079711914061,0,0,1.2994800000000002
1.4905888170178514,0,0,3.066972326660156,0,0,1.68168
1.491975746001117,0,0,2.379836450195312,0,0,1.5288
1.4933629350271076,0,0,1.5418658691406248,0,0,-8.63772
1.4947504380252212,0,0,-1.3215993164062498,0,0,-1.45236
1.4961455709999427,0,0,-1.0534487304687499,0,0,0.07644000000000001
1.497585852019256,0,0,2.233790148925781,0,0,1.2230400000000001
1.4990456140076276,0,0,3.3686417358398435,0,0,1.5288
1.5004367460205685,0,0,2.3822306518554686,0,0,2.14032
1.5018254349997733,0,0,0.9888052856445312,0,0,2.4460800000000003
1.5032142720010597,0,0,-0.9792284790039062,0,0,-0.7644
1.5046066450013313,0,0,0.7781155395507812,0,0,-0.99372
1.5059950010036118,0,0,2.887407202148437,0,0,1.45236
1.5073834850045387,0,0,4.484339709472656,0,0,1.75812
1.508770729007665,0,0,2.2361843505859373,0,0,1.45236
1.5101579370093532,0,0,0.6943184814453125,0,0,0.7644
1.5115615880058613,0,0,-2.109291662597656,0,0,9.32568
1.5129510360129643,0,0,-0.239420166015625,0,0,-0.7644
1.5143401130044367,0,0,1.0797849487304687,0,0,0.84084
1.5157284870219883,0,0,2.8898014038085935,0,0,1.2994800000000002
1.5171152490074746,0,0,2.89219560546875,0,0,1.911
1.5185026050021406,0,0,0.1580173095703125,0,0,1.68168
1.519890571013093,0,0,-0.9433154541015625,0,0,0.53508
1.5212777590204496,0,0,0.5746083984375,0,0,0.53508
1.5226656890008599,0,0,2.971204260253906,0,0,0.99372
1.5240537660138216,0,0,2.748543505859375,0,0,1.68168
1.5254406580061186,0,0,1.4987702392578124,0,0,1.60524
1.526828384026885,0,0,0.14604630126953125,0,0,-0.45864
1.5282167210243642,0,0,-0.5267243652343749,0,0,-0.53508
1.5296049460012,0,0,1.8650830932617186,0,0,0.84084
1.5309925050241873,0,0,2.35589443359375,0,0,0.68796
1.5323806750238873,0,0,1.5705962890624998,0,0,1.07016
1.533768178022001,0,0,0.603338818359375,0,0,1.75812
1.5351550520281307,0,0,-0.5339069702148437,0,0,-0.99372
1.5365435000276193,0,0,1.2928688964843749,0,0,0.07644000000000001
1.53793107700767,0,0,2.1739351074218747,0,0,2.06388
1.5393185440043453,0,0,3.105279553222656,0,0,1.60524
1.5407059360004496,0,0,2.2290017456054687,0,0,1.75812
1.542093439027667,0,0,1.3742717529296875,0,0,1.45236
1.5434965910098981,0,0,-1.235408056640625,0,0,-0.7644
1.544885298004374,0,0,0.6105214233398437,0,0,-0.6115200000000001
1.5462731900042854,0,0,1.9536685546875,0,0,1.2230400000000001
1.547663082019426,0,0,2.8562825805664063,0,0,1.911
1.5490637520269956,0,0,2.133233679199219,0,0,1.37592
1.5504530890029855,0,0,-0.373495458984375,0,0,-9.32568
1.5518653510080185,0,0,-1.2210428466796874,0,0,0.45864
1.5532510400225874,0,0,0.21787235107421873,0,0,0.07644000000000001
1.554639247013256,0,0,2.597708801269531,0,0,0.84084
1.5560265830135904,0,0,2.7198130859375,0,0,2.06388
1.5574131790199317,0,0,2.1116858642578125,0,0,2.2167600000000003
1.5588010160136037,0,0,0.9002198242187499,0,0,0.6115200000000001
1.5601886860094965,0,0,-0.15322890625,0,0,0.7644
1.5615827820147388,0,0,1.01514150390625,0,0,0.99372
1.5629700810241047,0,0,1.6448165405273436,0,0,0.30576000000000003
1.5643577510199975,0,0,1.8195932617187498,0,0,0.07644000000000001
1.5657457360066473,0,0,1.8219874633789062,0,0,1.83456
1.5671408320195042,0,0,0.8978256225585937,0,0,0.0
1.5685289840039331,0,0,1.4221557861328125,0,0,0.84084
1.5699166170088574,0,0,1.3263877197265623,0,0,2.2167600000000003
1.5713059350091498,0,0,1.5418658691406248,0,0,1.5288
1.5726972160045989,0,0,1.0630255371093749,0,0,0.15288000000000002
1.5740848860004917,0,0,0.9241618408203125,0,0,1.1465999999999998
1.5754945930093527,0,0,0.6919242797851562,0,0,0.0
1.5768827440042514,0,0,2.35589443359375,0,0,1.07016
1.5782700250274502,0,0,2.612074011230469,0,0,2.4460800000000003
1.5796582880138885,0,0,1.956062756347656,0,0,1.911
1.5810455510218162,0,0,0.9600748657226562,0,0,1.2230400000000001
1.582444887026213,0,0,-0.6248866333007812,0,0,-1.07016
1.583835520024877,0,0,-0.229843359375,0,0,0.07644000000000001
1.5852233010227792,0,0,2.0446482177734375,0,0,0.45864
1.5866107120236848,0,0,2.7916391357421872,0,0,1.2994800000000002
1.5879976040159818,0,0,1.68551796875,0,0,1.911
1.5893849780259188,0,0,0.040701428222656245,0,0,1.68168
1.5907717400114052,0,0,-0.5291185668945312,0,0,9.09636
1.5921607810014393,0,0,-0.12210428466796874,0,0,0.6115200000000001
1.5935487290262245,0,0,3.028665100097656,0,0,1.1465999999999998
1.5949358800135087,0,0,3.1364041748046874,0,0,1.2230400000000001
1.5963361610192806,0,0,1.1324573852539062,0,0,1.68168
1.5977234980091453,0,0,0.2442085693359375,0,0,1.83456
1.599111094023101,0,0,-0.6009446166992187,0,0,-0.53508
1.600500060012564,0,0,2.0350714111328125,0,0,0.53508
1.6018877300084569,0,0,2.5139117431640625,0,0,1.5288
1.6032976410060655,0,0,2.1212626708984375,0,0,1.37592
1.6046874590101652,0,0,1.2378022583007813,0,0,0.7644
1.606075851013884,0,0,0.24899697265624998,0,0,0.84084
1.6074665769992862,0,0,-0.21787235107421873,0,0,0.22932
1.6088566910184454,0,0,1.5322890624999999,0,0,0.53508
1.6102576760167722,0,0,2.327164013671875,0,0,1.5288
1.6116462900245097,0,0,2.2098481323242187,0,0,1.5288
1.6130326270067599,0,0,1.3934253662109375,0,0,0.84084
1.6144201490096748,0,0,-0.17956512451171874,0,0,-9.784320000000001
1.615810022020014,0,0,0.27293898925781246,0,0,1.1465999999999998
1.6171970070281532,0,0,2.0278888061523435,0,0,0.99372
1.6185843250132166,0,0,2.712630480957031,0,0,1.68168
1.6199714400281664,0,0,1.7956512451171873,0,0,2.2167600000000003
1.6213584250072017,0,0,0.30406361083984373,0,0,1.83456
1.6227455390035175,0,0,-0.8116343627929687,0,0,-1.5288
1.6241337280080188,0,0,-0.40222587890625,0,0,0.53508
1.625521601003129,0,0,3.239354846191406,0,0,1.75812
1.6269159750081599,0,0,3.6391865234374996,0,0,1.45236
1.628303423000034,0,0,1.4700398193359374,0,0,2.2931999999999997
1.6296903520124033,0,0,0.19153613281249998,0,0,2.2167600000000003
1.631078078004066,0,0,-1.1923124267578125,0,0,-0.91728
1.6324664330168162,0,0,1.695094775390625,0,0,0.15288000000000002
1.633853381004883,0,0,2.6336218261718747,0,0,1.60524
1.6352400690084323,0,0,3.3877953491210935,0,0,0.91728
1.6366277580091264,0,0,1.8219874633789062,0,0,0.91728
1.6380146870214958,0,0,0.5865794067382812,0,0,1.2994800000000002
1.639402542001335,0,0,-0.6368576416015624,0,0,-0.30576000000000003
1.6407911010028329,0,0,1.5251064575195312,0,0,0.22932
1.642183901014505,0,0,2.6982652709960937,0,0,1.45236
1.6435722740134224,0,0,1.908178723144531,0,0,1.98744
1.644958556018537,0,0,0.9457096557617187,0,0,0.68796
1.6463458740036003,0,0,-0.7015010864257812,0,0,-0.45864
1.6477429880178533,0,0,0.05027823486328125,0,0,0.84084
1.6491297880129423,0,0,2.039859814453125,0,0,0.07644000000000001
1.6505175870261155,0,0,3.5290532470703124,0,0,1.68168
1.6519257940235548,0,0,2.3319524169921872,0,0,2.2167600000000003
1.6533130570023786,0,0,0.08858546142578125,0,0,1.83456
1.654702060011914,0,0,-1.197100830078125,0,0,-1.45236
1.6560908230021596,0,0,-0.6655880615234374,0,0,0.15288000000000002
1.6574789560108911,0,0,3.0502129150390624,0,0,0.91728
1.6588665890158154,0,0,3.5721488769531247,0,0,0.84084
1.660253777023172,0,0,2.3343466186523436,0,0,2.06388
1.6616410770220682,0,0,1.0582371337890624,0,0,2.2931999999999997
1.6630276910145767,0,0,-1.0510545288085937,0,0,-1.37592
1.6644154910172801,0,0,0.6488286499023437,0,0,-0.3822
1.66580347600393,0,0,2.147598889160156,0,0,1.83456
1.6671905720140785,0,0,3.679887951660156,0,0,1.1465999999999998
1.6685890560038388,0,0,2.1883003173828124,0,0,1.68168
1.6699831150181126,0,0,0.8044517578125,0,0,2.06388
1.6713812300004065,0,0,-1.2785036865234374,0,0,0.30576000000000003
1.6727694740111474,0,0,0.45489831542968745,0,0,-1.1465999999999998
1.6741571990132798,0,0,1.5442600708007812,0,0,1.5288
1.675633442006074,0,0,2.6575638427734374,0,0,1.45236
1.677108334028162,0,0,2.7341782958984373,0,0,1.83456
1.678567984024994,0,0,-0.0430956298828125,0,0,0.07644000000000001
1.6800276720023248,0,0,-0.6464344482421874,0,0,0.0
1.6814940640178975,0,0,1.927332336425781,0,0,1.2994800000000002
1.6829572700080462,0,0,3.134009973144531,0,0,0.84084
1.6844210870040115,0,0,2.2936451904296873,0,0,1.2994800000000002
1.6858871450240258,0,0,1.2808978881835937,0,0,1.2230400000000001
1.6873534440237563,0,0,-0.928950244140625,0,0,0.0
1.688847113022348,0,0,0.47165772705078124,0,0,-0.3822
1.6903383370081428,0,0,2.849099975585937,0,0,1.37592
1.6917816730274353,0,0,2.7078420776367187,0,0,1.83456
1.6931724540190771,0,0,1.2018892333984375,0,0,1.83456
1.6945609760005027,0,0,-0.6751648681640625,0,0,0.0
1.6959530349995475,0,0,-1.8028338500976562,0,0,0.0
1.6973408720223233,0,0,1.8076222534179687,0,0,0.99372
1.6987287830270361,0,0,3.593696691894531,0,0,0.91728
1.7001189900038298,0,0,3.6272155151367187,0,0,2.2931999999999997
1.7015068820037413,0,0,1.6472107421875,0,0,2.2931999999999997
1.702894644025946,0,0,-0.4955997436523437,0,0,-0.45864
1.7042864070099313,0,0,-0.4261678955078125,0,0,-0.22932
1.7056745960144326,0,0,1.5370774658203123,0,0,0.45864
1.707061357999919,0,0,3.0933085449218747,0,0,0.22932
1.7084488990076352,0,0,2.664746447753906,0,0,1.2994800000000002
1.709836569003528,0,0,1.7860744384765623,0,0,2.14032
1.7112242570146918,0,0,-0.9241618408203125,0,0,-0.3822
1.712612909002928,0,0,0.0909796630859375,0,0,-0.7644
1.7140010420116596,0,0,1.2808978881835937,0,0,1.83456
1.7154103590000886,0,0,2.7365724975585937,0,0,0.91728
1.7167990849993657,0,0,2.365471240234375,0,0,0.7644
1.718187348014908,0,0,0.3447650390625,0,0,1.5288
1.719575444003567,0,0,-0.7134720947265625,0,0,0.0
1.7209630020079203,0,0,0.19632453613281248,0,0,-0.15288000000000002
1.722350506024668,0,0,3.0238766967773434,0,0,1.68168
1.7237383610045072,0,0,2.6384102294921874,0,0,1.911
1.7251251240086276,0,0,2.521094348144531,0,0,1.60524
1.7265128120197915,0,0,-0.0718260498046875,0,0,-0.30576000000000003
1.7279203150246758,0,0,-1.2210428466796874,0,0,0.22932
1.7293083000113256,0,0,1.4532804077148436,0,0,0.0
1.7306957660184707,0,0,2.6144682128906247,0,0,0.22932
1.7320828990195878,0,0,2.583343591308594,0,0,1.911
1.7334702920052223,0,0,1.7788918334960937,0,0,2.06388
1.734857962001115,0,0,0.296881005859375,0,0,20
1.7362406500033103,0,0,0.35194764404296874,0,0,0.07644000000000001
1.7376194500247948,0,0,1.407790576171875,0,0,1.2230400000000001
1.7389985830232035,0,0,2.5522189697265625,0,0,0.45864
1.740387586003635,0,0,2.6479870361328124,0,0,1.98744
1.7417744970007334,0,0,1.89620771484375,0,0,1.911
1.743161204009084,0,0,-0.5793968017578125,0,0,-0.84084
1.7445489300007466,0,0,0.086191259765625,0,0,-0.91728
1.7459356740000658,0,0,1.3192051147460937,0,0,2.14032
1.7473881950136274,0,0,2.4133552734375,0,0,1.75812
1.748973030014895,0,0,2.3343466186523436,0,0,1.2994800000000002
1.7503635510220192,0,0,0.28490999755859375,0,0,1.5288
1.751759758015396,0,0,-0.7852981445312499,0,0,9.707880000000001
1.7531468170054723,0,0,1.39821376953125,0,0,-0.30576000000000003
1.7545345430262387,0,0,3.0933085449218747,0,0,1.07016
1.7559219720133115,0,0,3.2417490478515623,0,0,2.4460800000000003
1.7573086420015898,0,0,2.051830822753906,0,0,2.4460800000000003
1.7587121270189527,0,0,0.47644613037109373,0,0,0.3822
1.760099278006237,0,0,-0.6105214233398437,0,0,0.0
1.761486652016174,0,0,0.7781155395507812,0,0,9.32568
1.7628730070136953,0,0,2.138022082519531,0,0,-0.68796
1.7642612330091652,0,0,2.710236279296875,0,0,1.98744
1.7656509400112554,0,0,2.1619640991210938,0,0,2.4460800000000003
1.7670440540241543,0,0,0.6727706665039062,0,0,-0.22932
1.7684320390108041,0,0,-0.11013327636718749,0,0,0.3822
1.7698199310107157,0,0,0.9720458740234375,0,0,1.45236
1.7712083790102042,0,0,2.2553379638671873,0,0,0.0
1.7725966970028821,0,0,2.3774422485351563,0,0,1.2230400000000001
1.7739834780222736,0,0,1.9416975463867185,0,0,2.14032
1.7753878890071064,0,0,-0.06943184814453125,0,0,-0.30576000000000003
1.7767776330001652,0,0,0.8690952026367187,0,0,0.22932
1.7781643769994844,0,0,2.480392919921875,0,0,1.911
1.7795513060118537,0,0,2.0183119995117185,0,0,0.91728
1.7809375130163971,0,0,1.4604630126953124,0,0,0.6115200000000001
1.7823241090227384,0,0,-0.3758896606445312,0,0,-0.45864
1.7837124830111861,0,0,-0.7422025146484375,0,0,0.0
1.7850999490183312,0,0,2.43250888671875,0,0,-0.30576000000000003
1.7864982680184767,0,0,3.1794998046874996,0,0,1.1465999999999998
1.787885345023824,0,0,2.31758720703125,0,0,2.2931999999999997
1.7892718300281558,0,0,0.8092401611328125,0,0,1.07016
1.7906579810078256,0,0,-0.3687070556640625,0,0,0.30576000000000003
1.792045540001709,0,0,0.488417138671875,0,0,0.0
1.7934318580082618,0,0,2.398990063476562,0,0,0.6115200000000001
1.7948188060254324,0,0,3.414131567382812,0,0,0.6115200000000001
1.79620582802454,0,0,2.480392919921875,0,0,2.52252
1.7975959980103653,0,0,1.9416975463867185,0,0,2.52252
1.7989837980130687,0,0,0.30885201416015623,0,0,-20
1.800370875018416,0,0,0.0430956298828125,0,0,0.07644000000000001
1.8017564710171428,0,0,1.5705962890624998,0,0,0.53508
1.8031523259996902,0,0,2.1930887207031247,0,0,20
1.8045407370082103,0,0,1.9512743530273435,0,0,1.2230400000000001
1.8059275740233716,0,0,1.3192051147460937,0,0,1.98744
1.8073143180226907,0,0,-0.5770026000976562,0,0,-0.22932
1.80870235801558,0,0,0.584185205078125,0,0,0.45864
1.8100886390020605,0,0,1.9800047729492187,0,0,1.83456
1.811494939000113,0,0,1.927332336425781,0,0,1.45236
1.8128822940052487,0,0,1.8626888916015625,0,0,0.7644
1.814268908026861,0,0,0.29927520751953124,0,0,1.2230400000000001
1.8156570040155202,0,0,-0.06464344482421874,0,0,0.22932
1.8170509520277847,0,0,2.8850130004882812,0,0,0.3822
1.8184373440162744,0,0,2.9951462768554684,0,0,1.98744
1.81985075501143,0,0,2.5665841796874997,0,0,1.60524
1.8212366840161849,0,0,0.6200982299804687,0,0,1.83456
1.8226243540120777,0,0,-0.7829039428710937,0,0,-1.45236
1.8240135060041212,0,0,0.584185205078125,0,0,0.22932
1.8253999350126833,0,0,2.779668127441406,0,0,9.24924
1.826786568009993,0,0,3.7301661865234372,0,0,0.68796
1.8281738120131195,0,0,1.7597382202148437,0,0,2.14032
1.8295604450104292,0,0,0.9816226806640624,0,0,2.4460800000000003
1.8309471330139786,0,0,-0.6368576416015624,0,0,-1.1465999999999998
1.8323368220007978,0,0,0.15562310791015624,0,0,-0.22932
1.8337240290129557,0,0,2.6336218261718747,0,0,1.07016
1.8351126250054222,0,0,3.6056677001953124,0,0,0.7644
1.8364998510223813,0,0,2.5258827514648434,0,0,1.98744
1.8378866690036375,0,0,1.2641384765625,0,0,2.90472
1.839273450023029,0,0,-2.0374656127929685,0,0,-1.68168
1.8406613980187103,0,0,-0.584185205078125,0,0,-1.2994800000000002
1.842048827005783,0,0,3.8690298828125,0,0,1.45236
1.8434362190018874,0,0,3.775656018066406,0,0,0.91728
1.8448230190260801,0,0,2.518700146484375,0,0,1.45236
1.8462294290075079,0,0,-0.6679822631835937,0,0,1.2230400000000001
1.8476182290178258,0,0,-1.714248388671875,0,0,-0.30576000000000003
1.8490051580010913,0,0,1.848323681640625,0,0,-1.1465999999999998
1.8503919580252841,0,0,3.4165257690429685,0,0,1.1465999999999998
1.851779239019379,0,0,3.402160559082031,0,0,1.98744
1.8531652610108722,0,0,1.2593500732421874,0,0,1.07016
1.8545519680192228,0,0,-0.30885201416015623,0,0,-8.71416
1.8559393790201284,0,0,-1.4628572143554686,0,0,0.99372
1.8573262150166556,0,0,1.9823989746093749,0,0,-0.30576000000000003
1.858712978020776,0,0,3.69664736328125,0,0,1.5288
1.860100093006622,0,0,2.7820623291015623,0,0,1.911
1.8614927810267545,0,0,1.2210428466796874,0,0,2.2167600000000003
1.8628798030258622,0,0,-0.7876923461914062,0,0,-1.2994800000000002
1.8642996760027017,0,0,-0.7230489013671875,0,0,-0.6115200000000001
1.8656871060084086,0,0,1.707065783691406,0,0,1.1465999999999998
1.867074683017563,0,0,3.737348791503906,0,0,0.45864
1.8684608160110656,0,0,2.6791116577148437,0,0,1.75812
1.8698474680131767,0,0,1.2306196533203124,0,0,2.2167600000000003
1.8712339890189469,0,0,-2.3151930053710936,0,0,-1.37592
1.8726216590148397,0,0,-1.5466542724609373,0,0,-2.06388
1.8740091810177546,0,0,3.287238879394531,0,0,0.91728
1.8753962030168623,0,0,3.612850305175781,0,0,1.07016
1.8767824470123742,0,0,3.0310593017578125,0,0,1.2230400000000001
1.878169173025526,0,0,-0.3591302490234375,0,0,2.4460800000000003
1.8795569910143968,0,0,-1.9321207397460936,0,0,-2.06388
1.8809436430165078,0,0,0.21787235107421873,0,0,-2.4460800000000003
1.8823302010132466,0,0,2.1787235107421874,0,0,1.07016
1.8837177970272023,0,0,3.4332851806640625,0,0,0.0
1.885103375010658,0,0,1.4628572143554686,0,0,0.3822
1.8864898970059585,0,0,-0.5458779785156249,0,0,2.36964
1.88787778900587,0,0,-1.7501614135742187,0,0,6.72672
1.8892652740178164,0,0,-0.1484405029296875,0,0,0.15288000000000002
1.8906710550072603,0,0,1.4772224243164063,0,0,1.07016
1.892058799014194,0,0,2.9281086303710935,0,0,0.15288000000000002
1.8934453580004629,0,0,2.1356278808593747,0,0,3.21048
1.894832120015053,0,0,1.618480322265625,0,0,1.2230400000000001
1.8962184570264071,0,0,-1.1659762084960936,0,0,-0.30576000000000003
1.8976059230044484,0,0,-1.6136919189453125,0,0,0.22932
1.8989934820274357,0,0,2.6671406494140624,0,0,8.48484
1.9003798930207267,0,0,4.036623999023437,0,0,3.0576
1.9017662110272795,0,0,3.4093431640625,0,0,20
1.903152974002296,0,0,0.5003881469726562,0,0,1.83456
1.9045493660087232,0,0,-1.9943699829101562,0,0,0.07644000000000001
1.9059368690068368,0,0,-2.1499930908203124,0,0,-4.35708
1.9073243170278147,0,0,0.41898529052734373,0,0,0.7644
1.9087091350229457,0,0,2.499546533203125,0,0,-0.30576000000000003
1.9101087680028286,0,0,2.616862414550781,0,0,3.7455600000000002
1.9114981970051304,0,0,0.9002198242187499,0,0,0.0
1.9128853670263197,0,0,0.23223756103515625,0,0,2.5989600000000004
1.9142723340191878,0,0,-2.0254946044921875,0,0,8.102640000000001
1.9156604670279194,0,0,-0.5123591552734374,0,0,7.10892
1.9170474520069547,0,0,3.076549133300781,0,0,1.2230400000000001
1.9184347140253522,0,0,4.434061474609375,0,0,0.30576000000000003
1.9198217920202296,0,0,3.1962592163085937,0,0,4.8921600000000005
1.9212076650001109,0,0,0.49320554199218747,0,0,-0.53508
1.9225950020190794,0,0,-0.6607996582031249,0,0,2.06388
1.9239822090021335,0,0,-2.0733786376953125,0,0,6.34452
1.9253692120255437,0,0,-0.2657563842773437,0,0,-0.53508
1.9267569750081748,0,0,0.9097966308593749,0,0,-2.2167600000000003
1.9281442560022697,0,0,3.3782185424804685,0,0,1.98744
1.929530852008611,0,0,2.1619640991210938,0,0,0.7644
1.930917578021763,0,0,-0.1149216796875,0,0,2.90472
1.9323051740066148,0,0,-1.419761584472656,0,0,0.0
1.9336993620090652,0,0,-1.369483349609375,0,0,-9.784320000000001
1.9350881990103517,0,0,0.8044517578125,0,0,-1.2230400000000001
1.9364751650136895,0,0,1.9129671264648436,0,0,-0.22932
1.9378621500218287,0,0,2.6408044311523438,0,0,0.15288000000000002
1.9392491160251666,0,0,1.8842367065429686,0,0,0.68796
1.9406338050030172,0,0,1.467645617675781,0,0,1.5288
1.9422165100113489,0,0,-0.6464344482421874,0,0,0.07644000000000001
1.9436039950232953,0,0,-0.8690952026367187,0,0,20
1.944985109003028,0,0,0.6871358764648438,0,0,-1.2230400000000001
1.9463656870066188,0,0,1.656787548828125,0,0,-20
1.947747246013023,0,0,1.5658078857421873,0,0,0.84084
1.9491266010154504,0,0,0.6344634399414062,0,0,-0.3822
1.950506271008635,0,0,0.26336218261718747,0,0,0.99372
1.9518887190206442,0,0,0.4333505004882812,0,0,-0.15288000000000002
1.9532682960270904,0,0,1.2234370483398436,0,0,0.99372
1.9546471330104396,0,0,1.4939818359375,0,0,0.7644
1.9560353400011081,0,0,1.1707646118164061,0,0,0.91728
1.9574233060120605,0,0,0.9959878906249999,0,0,0.3822
1.9588100880209822,0,0,0.8355763793945312,0,0,0.0
1.960378830000991,0,0,0.6751648681640625,0,0,-0.6115200000000001
1.9617832220101263,0,0,0.833182177734375,0,0,0.15288000000000002
1.9631721330224536,0,0,0.4165910888671875,0,0,20
1.9646978570090141,0,0,0.47165772705078124,0,0,0.15288000000000002
1.9660942300106399,0,0,0.488417138671875,0,0,1.07016
1.9674950480111875,0,0,0.373495458984375,0,0,0.0
1.968882940011099,0,0,0.4261678955078125,0,0,0.3822
1.9702729250129778,0,0,0.5722141967773438,0,0,0.68796
1.971660873008659,0,0,0.6296750366210937,0,0,0.0
1.9730495430121664,0,0,2.1212626708984375,0,0,1.2230400000000001
1.9744372320128605,0,0,2.0302830078125,0,0,0.84084
1.975824494002154,0,0,1.1827356201171875,0,0,1.07016
1.9772122380090877,0,0,0.6272808349609375,0,0,0.68796
1.9786497780005448,0,0,0.11013327636718749,0,0,-1.07016
1.9800403000263032,0,0,-0.06943184814453125,0,0,-0.7644
1.981430451007327,0,0,1.2689268798828124,0,0,-0.53508
1.9828182510100305,0,0,1.7812860351562498,0,0,1.1465999999999998
1.9842062360257842,0,0,0.5195417602539062,0,0,0.0
1.9855943500006106,0,0,0.33758243408203126,0,0,0.99372
1.9869815760175698,0,0,-0.2154781494140625,0,0,0.68796
1.9883635240257718,0,0,0.10773907470703124,0,0,-0.7644
1.9897425640083384,0,0,0.6009446166992187,0,0,0.6115200000000001
1.9911234750179574,0,0,2.2026655273437497,0,0,0.45864
1.992512812023051,0,0,1.8650830932617186,0,0,1.1465999999999998
1.9939002410101239,0,0,0.42377369384765623,0,0,0.68796
1.9952864670194685,0,0,0.2753331909179687,0,0,0.68796
1.9966736000205856,0,0,-0.13168109130859373,0,0,20
1.9981041770079173,0,0,0.3064578125,0,0,20
1.9995716790144797,0,0,0.7924807495117187,0,0,9.172799999999999
2.0009618680051062,0,0,1.5801730957031248,0,0,0.45864
2.002350501017645,0,0,1.2713210815429687,0,0,0.99372
2.003740245010704,0,0,0.5770026000976562,0,0,0.6115200000000001
2.0051275069999974,0,0,-0.44053310546874996,0,0,0.22932
2.0065172880131286,0,0,0.04548983154296875,0,0,0.07644000000000001
2.0079229770053644,0,0,1.5035586425781249,0,0,0.15288000000000002
2.009310350025771,0,0,1.5753846923828123,0,0,0.68796
2.0106982980214525,0,0,1.3263877197265623,0,0,0.7644
2.0120858200243674,0,0,0.7709329345703124,0,0,0.53508
2.013472842023475,0,0,1.0582371337890624,0,0,0.7644
2.0148604010173585,0,0,0.7852981445312499,0,0,0.6115200000000001
2.0162477000267245,0,0,0.6943184814453125,0,0,-0.30576000000000003
2.017638759018155,0,0,0.507570751953125,0,0,0.30576000000000003
2.019026540016057,0,0,0.5003881469726562,0,0,-0.6115200000000001
2.020414303027792,0,0,0.8212111694335937,0,0,0.22932
2.021818825014634,0,0,1.2928688964843749,0,0,0.22932
2.02320729100029,0,0,0.9600748657226562,0,0,0.45864
2.0246025350061245,0,0,0.565031591796875,0,0,0.07644000000000001
2.025990353024099,0,0,-0.32082302246093747,0,0,0.07644000000000001
2.027378986007534,0,0,0.1867477294921875,0,0,0.15288000000000002
2.0287674520222936,0,0,1.5298948608398437,0,0,0.6115200000000001
2.030159382004058,0,0,1.4891934326171874,0,0,0.7644
2.031547422026051,0,0,1.2473790649414063,0,0,0.84084
2.0329339070012793,0,0,0.6200982299804687,0,0,0.7644
2.034320762002608,0,0,0.4261678955078125,0,0,0.0
2.0357090060133487,0,0,0.40462008056640625,0,0,20
2.0370961950102355,0,0,1.0414777221679687,0,0,0.0
2.0384840310143773,0,0,1.4341267944335936,0,0,0.22932
2.039875275018858,0,0,1.0965443603515623,0,0,0.30576000000000003
2.0412659080175217,0,0,0.6368576416015624,0,0,0.68796
2.042653134005377,0,0,0.15322890625,0,0,0.0
2.0440406370034907,0,0,-0.06703764648437499,0,0,-0.53508
2.0454326960025355,0,0,0.6919242797851562,0,0,0.0
2.0468207000230905,0,0,1.2569558715820313,0,0,0.3822
2.048208833002718,0,0,1.2928688964843749,0,0,0.6115200000000001
2.0495966510206927,0,0,0.9864110839843749,0,0,0.91728
2.0509840240119956,0,0,0.3854664672851562,0,0,0.6115200000000001
2.0523713800066616,0,0,0.430956298828125,0,0,0.53508
2.053758790018037,0,0,1.0821791503906248,0,0,0.15288000000000002
2.0551456460088957,0,0,1.1923124267578125,0,0,0.3822
2.056532964023063,0,0,1.5251064575195312,0,0,0.0
2.057920949009713,0,0,1.1013327636718748,0,0,0.6115200000000001
2.059308341005817,0,0,1.0103531005859374,0,0,0.22932
2.0606961400189903,0,0,0.37828386230468747,0,0,0.53508
2.0620871249993797,0,0,0.2825157958984375,0,0,-0.3822
2.063493017019937,0,0,0.6871358764648438,0,0,0.22932
2.064884521008935,0,0,0.7613561279296874,0,0,0.22932
2.0662841350131202,0,0,0.7900865478515624,0,0,0.22932
2.0676716200250667,0,0,1.2138602416992186,0,0,0.7644
2.0690581790113356,0,0,1.199495031738281,0,0,0.6115200000000001
2.0704453120124526,0,0,0.6177040283203125,0,0,0.91728
2.071832704008557,0,0,0.38786066894531246,0,0,0.53508
2.0732195780146867,0,0,0.7493851196289062,0,0,0.53508
2.0746075070055667,0,0,1.199495031738281,0,0,0.30576000000000003
2.0759945470199455,0,0,1.7741034301757812,0,0,1.07016
2.0773819770256523,0,0,1.5825672973632812,0,0,0.99372
2.0787748690054286,0,0,1.0702081420898437,0,0,0.68796
2.0801611870119814,0,0,0.8379705810546875,0,0,1.07016
2.0815533380082343,0,0,0.7781155395507812,0,0,0.68796
2.082954712008359,0,0,1.446097802734375,0,0,0.68796
2.084341863024747,0,0,1.5610194824218748,0,0,0.84084
2.085728903999552,0,0,1.7238251953125,0,0,0.53508
2.0871160740207415,0,0,1.3862427612304686,0,0,1.07016
2.0885026330070104,0,0,1.3239935180664062,0,0,0.7644
2.089889877010137,0,0,1.1348515869140625,0,0,0.53508
2.0912769730202854,0,0,1.1109095703125,0,0,0.6115200000000001
2.092663754010573,0,0,1.2928688964843749,0,0,0.6115200000000001
2.0940507760096807,0,0,1.2665326782226562,0,0,0.53508
2.0954387790116016,0,0,1.2138602416992186,0,0,1.1465999999999998
2.0968263750255574,0,0,1.35990654296875,0,0,0.53508
2.098213786026463,0,0,1.4173673828125,0,0,0.99372
2.0996010120143183,0,0,1.4245499877929686,0,0,0.84084
2.100987237005029,0,0,1.3479355346679687,0,0,0.68796
2.1023741850221995,0,0,1.3575123413085937,0,0,0.6115200000000001
2.103761670005042,0,0,0.9816226806640624,0,0,0.6115200000000001
2.1051485990174115,0,0,1.0726023437499999,0,0,0.3822
2.106535713013727,0,0,1.1947066284179686,0,0,1.1465999999999998
2.107923291012412,0,0,1.4724340209960938,0,0,0.68796
2.10931816502125,0,0,1.4532804077148436,0,0,0.91728
2.1107057420013007,0,0,1.3000515014648437,0,0,0.91728
2.112092986004427,0,0,1.1635820068359375,0,0,0.99372
2.113480101019377,0,0,1.0965443603515623,0,0,1.07016
2.1148672710114624,0,0,1.1563994018554686,0,0,0.91728
2.116254755004775,0,0,1.2114660400390624,0,0,0.6115200000000001
2.1176422030257527,0,0,1.429338391113281,0,0,0.84084
2.119029355002567,0,0,1.5155296508789062,0,0,1.07016
2.1204163400107063,0,0,1.5658078857421873,0,0,0.99372
2.1218035650090314,0,0,1.3120225097656248,0,0,0.7644
2.123190828016959,0,0,1.2234370483398436,0,0,0.84084
2.1245781460020225,0,0,1.20667763671875,0,0,0.84084
2.1259649080166128,0,0,1.1875240234375,0,0,0.84084
2.127351893024752,0,0,1.1707646118164061,0,0,0.30576000000000003
2.128744711022591,0,0,1.2880804931640624,0,0,0.22932
2.1301329740090296,0,0,1.3311761230468748,0,0,0.6115200000000001
2.131522126001073,0,0,1.5083470458984374,0,0,0.68796
2.132909277017461,0,0,1.2976572998046874,0,0,0.99372
2.1342968360113446,0,0,1.3646949462890625,0,0,0.91728
2.1356844500114676,0,0,0.9576806640625,0,0,0.7644
2.137636633007787,0,0,1.1348515869140625,0,0,0.53508
2.139098413026659,0,0,1.3407529296874998,0,0,0.6115200000000001
2.1405477490043268,0,0,1.429338391113281,0,0,0.68796
2.142080473015085,0,0,1.6543933471679686,0,0,1.07016
2.1436187340004835,0,0,1.1707646118164061,0,0,1.07016
2.1450680890120566,0,0,1.0893617553710937,0,0,0.84084
2.14657705402351,0,0,0.9983820922851562,0,0,0.6115200000000001
2.148052408010699,0,0,1.2832920898437499,0,0,0.30576000000000003
2.1495329290046357,0,0,1.3479355346679687,0,0,0.84084
2.1509821910003666,0,0,1.5155296508789062,0,0,0.68796
2.152481285011163,0,0,1.5203180541992187,0,0,0.84084
2.1539215100056026,0,0,1.2665326782226562,0,0,0.53508
2.155409753002459,0,0,1.199495031738281,0,0,0.99372
2.156832775013754,0,0,1.1707646118164061,0,0,0.53508
2.1582105190027505,0,0,1.1133037719726562,0,0,0.84084
2.1595886150025763,0,0,1.254561669921875,0,0,0.6115200000000001
2.161034118005773,0,0,1.465251416015625,0,0,0.30576000000000003
2.1624135290039703,0,0,1.465251416015625,0,0,0.68796
2.163795791013399,0,0,1.4628572143554686,0,0,0.99372
2.1651712950260844,0,0,1.419761584472656,0,0,0.84084
2.166544520005118,0,0,1.3144167114257812,0,0,0.91728
2.1679230610025115,0,0,1.1228805786132812,0,0,0.84084
2.1692967679991852,0,0,1.1851298217773436,0,0,0.53508
2.170673586020712,0,0,1.254561669921875,0,0,0.6115200000000001
2.172054738010047,0,0,1.369483349609375,0,0,0.3822
2.1734287230065092,0,0,1.455674609375,0,0,0.68796
2.174802041001385,0,0,1.6065093139648436,0,0,0.6115200000000001
2.176177526009269,0,0,1.235408056640625,0,0,0.6115200000000001
2.17755014100112,0,0,1.2306196533203124,0,0,0.91728
2.1789234960160684,0,0,1.197100830078125,0,0,0.7644
2.180298796010902,0,0,1.2497732666015624,0,0,0.68796
2.1816719850176014,0,0,1.3192051147460937,0,0,1.1465999999999998
2.1830450070265215,0,0,1.467645617675781,0,0,0.3822
2.1844186400121544,0,0,1.448492004394531,0,0,0.68796
2.1857912170235068,0,0,1.4724340209960938,0,0,0.68796
2.1871640360041056,0,0,1.1707646118164061,0,0,0.91728
2.188538354006596,0,0,1.2282254516601563,0,0,0.84084
2.1899110060185194,0,0,1.1156979736328125,0,0,0.68796
2.191283268999541,0,0,1.177947216796875,0,0,0.6115200000000001
2.192668087023776,0,0,1.235408056640625,0,0,0.99372
2.1940507570107,0,0,1.3263877197265623,0,0,0.53508
2.1954345560225192,0,0,1.2473790649414063,0,0,1.07016
2.196817282005213,0,0,1.5155296508789062,0,0,0.7644
2.1982138410094194,0,0,1.3096283081054687,0,0,0.84084
2.1995964180096053,0,0,1.2138602416992186,0,0,0.99372
2.2009866990265436,0,0,1.0965443603515623,0,0,0.84084
2.2023691100184806,0,0,1.1611878051757811,0,0,0.45864
2.203753632027656,0,0,1.3958195678710936,0,0,0.84084
2.205136617005337,0,0,1.3527239379882812,0,0,0.68796
2.2065191389992833,0,0,1.6041151123046875,0,0,0.7644
2.2079130680067465,0,0,1.5059528442382812,0,0,0.84084
2.2092957380227745,0,0,1.22583125,0,0,0.99372
2.2106781309994403,0,0,1.2306196533203124,0,0,0.7644
2.212060449004639,0,0,1.1228805786132812,0,0,0.7644
2.213443119020667,0,0,1.1516109985351561,0,0,0.53508
2.214825622009812,0,0,1.3862427612304686,0,0,0.3822
2.216208144003758,0,0,1.3958195678710936,0,0,0.68796
2.2175905920157675,0,0,1.5227122558593749,0,0,0.68796
2.2189728550147265,0,0,1.4149731811523436,0,0,0.68796
2.2203554139996413,0,0,1.3024457031249999,0,0,1.07016
2.221738306019688,0,0,1.0845733520507812,0,0,0.7644
2.223120791022666,0,0,1.1707646118164061,0,0,0.53508
2.224504165002145,0,0,1.180341418457031,0,0,0.53508
2.225886779022403,0,0,1.3144167114257812,0,0,0.30576000000000003
2.2272696530271787,0,0,1.3311761230468748,0,0,0.53508
2.2286528410040773,0,0,1.5849614990234373,0,0,0.7644
2.230035382002825,0,0,1.2856862915039062,0,0,1.07016
2.231431070016697,0,0,1.3670891479492187,0,0,0.91728
2.23281444402528,0,0,1.0917559570312498,0,0,0.68796
2.234368131001247,0,0,1.1037269653320312,0,0,0.3822
2.235907151014544,0,0,1.24498486328125,0,0,0.7644
2.237362728017615,0,0,1.47482822265625,0,0,0.6115200000000001
2.238805045024492,0,0,1.5682020874023437,0,0,1.2230400000000001
2.240197919018101,0,0,1.5945383056640625,0,0,0.84084
2.24179756801459,0,0,1.2832920898437499,0,0,0.99372
2.2432050900242757,0,0,1.3215993164062498,0,0,0.99372
2.244592389004538,0,0,1.1372457885742187,0,0,0.91728
2.245979134022491,0,0,1.1755530151367186,0,0,0.7644
2.247382526024012,0,0,1.3431471313476562,0,0,0.84084
2.2496549820061773,0,0,1.5418658691406248,0,0,0.6115200000000001
2.251052689010976,0,0,1.429338391113281,0,0,0.7644
2.252444378013024,0,0,1.2234370483398436,0,0,0.91728
2.2538324000197463,0,0,1.1228805786132812,0,0,0.84084
2.255219440005021,0,0,0.9337386474609375,0,0,0.6115200000000001
2.25660966601572,0,0,1.1324573852539062,0,0,0.7644
2.2579972430248745,0,0,1.3096283081054687,0,0,0.3822
2.2593847090029158,0,0,1.5059528442382812,0,0,0.7644
2.260791009000968,0,0,1.5059528442382812,0,0,0.6115200000000001
2.262178382021375,0,0,1.455674609375,0,0,0.91728
2.2635661080130376,0,0,1.3048399047851562,0,0,-8.943480000000001
2.2649538340047,0,0,1.2401964599609374,0,0,0.6115200000000001
2.2663410960230976,0,0,1.1420341918945311,0,0,0.7644
2.2677284330129623,0,0,1.3048399047851562,0,0,0.84084
2.2691149180172943,0,0,1.4796166259765624,0,0,0.53508
2.2705017730186228,0,0,1.426944189453125,0,0,0.68796
2.271889887022553,0,0,1.6208745239257811,0,0,0.53508
2.273275798012037,0,0,1.388636962890625,0,0,0.68796
2.274662542011356,0,0,1.1947066284179686,0,0,0.84084
2.2760499340074603,0,0,0.9888052856445312,0,0,0.68796
2.2774364380165935,0,0,1.180341418457031,0,0,0.6115200000000001
2.2788234410109,0,0,1.3287819213867187,0,0,1.07016
2.280216815008316,0,0,1.4508862060546874,0,0,0.6115200000000001
2.2816035590076353,0,0,1.4341267944335936,0,0,1.07016
2.282990914012771,0,0,1.3838485595703125,0,0,0.84084
2.2843711210007314,0,0,1.235408056640625,0,0,0.7644
2.2857497170043644,0,0,1.1444283935546875,0,0,0.6115200000000001
2.28713601702475,0,0,1.1875240234375,0,0,0.91728
2.288525928015588,0,0,1.2234370483398436,0,0,0.45864
2.289912098000059,0,0,1.3215993164062498,0,0,0.6115200000000001
2.291298212017864,0,0,1.3263877197265623,0,0,0.3822
2.2926844930043444,0,0,1.467645617675781,0,0,0.6115200000000001
2.294070330011891,0,0,1.426944189453125,0,0,0.6115200000000001
2.2954557960038073,0,0,1.197100830078125,0,0,1.07016
2.296841948002111,0,0,1.2234370483398436,0,0,0.7644
2.2982273400120903,0,0,1.0726023437499999,0,0,0.91728
2.299612232018262,0,0,1.3263877197265623,0,0,0.91728
2.3009961250063498,0,0,1.2880804931640624,0,0,0.53508
2.302394054015167,0,0,1.4772224243164063,0,0,0.45864
2.3037946310068946,0,0,1.5562310791015623,0,0,0.91728
2.3051830970216542,0,0,1.4724340209960938,0,0,1.07016
2.3065692670061253,0,0,1.2737152832031249,0,0,0.84084
2.307956141012255,0,0,1.0845733520507812,0,0,0.68796
2.309342459018808,0,0,1.1851298217773436,0,0,0.68796
2.3107285920123104,0,0,1.2785036865234374,0,0,0.7644
2.3121137250273023,0,0,1.4604630126953124,0,0,0.22932
2.3135099510254804,0,0,1.3623007446289062,0,0,0.91728
2.314896084018983,0,0,1.4125789794921875,0,0,0.7644
2.3162822170124855,0,0,1.3192051147460937,0,0,0.84084
2.317668091011001,0,0,1.1516109985351561,0,0,0.68796
2.319064742012415,0,0,1.1228805786132812,0,0,0.7644
2.320450819010148,0,0,1.1707646118164061,0,0,0.6115200000000001
2.3218366560176946,0,0,1.3335703247070312,0,0,0.7644
2.3232224190142006,0,0,1.4628572143554686,0,0,0.53508
2.3246081070101354,0,0,1.438915197753906,0,0,0.91728
2.3259936480026226,0,0,1.62805712890625,0,0,0.53508
2.327380021015415,0,0,1.1923124267578125,0,0,0.68796
2.3287658400076907,0,0,1.2401964599609374,0,0,0.84084
2.3301510470046196,0,0,1.1755530151367186,0,0,0.7644
2.3315445320040453,0,0,1.1707646118164061,0,0,0.45864
2.3329300900222734,0,0,1.2306196533203124,0,0,0.84084
2.3343154640169814,0,0,1.407790576171875,0,0,0.7644
2.3357023750140797,0,0,1.4963760375976562,0,0,0.84084
2.337087619001977,0,0,1.675941162109375,0,0,0.91728
2.3384730480029248,0,0,1.180341418457031,0,0,0.6115200000000001
2.339859811007045,0,0,1.197100830078125,0,0,0.53508
2.341244851006195,0,0,1.199495031738281,0,0,0.99372
2.3426303550077137,0,0,1.2234370483398436,0,0,0.53508
2.3440165250212885,0,0,1.369483349609375,0,0,0.68796
2.345401713013416,0,0,1.4820108276367188,0,0,0.68796
2.3467871060129255,0,0,1.5418658691406248,0,0,0.3822
2.3481740720162634,0,0,1.5011644409179687,0,0,0.68796
2.3495592980179936,0,0,1.2497732666015624,0,0,0.99372
2.350944468023954,0,0,1.1516109985351561,0,0,0.7644
2.35233152701403,0,0,1.235408056640625,0,0,0.84084
2.353717271005735,0,0,1.2497732666015624,0,0,0.84084
2.35510338502354,0,0,1.3168109130859373,0,0,0.30576000000000003
2.356489333003992,0,0,1.2785036865234374,0,0,0.6115200000000001
2.3578749660227913,0,0,1.3934253662109375,0,0,0.68796
2.359260525001446,0,0,1.458068811035156,0,0,0.91728
2.360645139007829,0,0,1.2856862915039062,0,0,1.07016
2.36202914302703,0,0,1.158793603515625,0,0,0.68796
2.3640328620094806,0,0,1.1540052001953125,0,0,0.84084
2.365427680022549,0,0,1.3215993164062498,0,0,0.91728
2.366816182999173,0,0,1.5251064575195312,0,0,0.6115200000000001
2.368213594018016,0,0,1.35990654296875,0,0,1.07016
2.3696016340109054,0,0,1.3718775512695311,0,0,0.53508
2.3709901930124033,0,0,1.3263877197265623,0,0,0.99372
2.3723811780218966,0,0,1.01514150390625,0,0,0.84084
2.373768422025023,0,0,1.1348515869140625,0,0,0.7644
2.375169981009094,0,0,1.3263877197265623,0,0,0.53508
2.376557428011438,0,0,1.4101847778320311,0,0,0.68796
2.377951098023914,0,0,1.3838485595703125,0,0,0.6115200000000001
2.379337842023233,0,0,1.5346832641601562,0,0,0.68796
2.380725142022129,0,0,1.3575123413085937,0,0,0.6115200000000001
2.382111757004168,0,0,1.2306196533203124,0,0,0.91728
2.383500352007104,0,0,1.0199299072265624,0,0,0.84084
2.38488905900158,0,0,0.9600748657226562,0,0,0.91728
2.386275322001893,0,0,1.2641384765625,0,0,0.7644
2.3876624920230825,0,0,1.419761584472656,0,0,0.3822
2.3890486440213863,0,0,1.3215993164062498,0,0,0.53508
2.390435369015904,0,0,1.3862427612304686,0,0,0.68796
2.3918218910112046,0,0,1.0749965454101562,0,0,0.84084
2.3932081540115178,0,0,1.3192051147460937,0,0,0.53508
2.3945942130230833,0,0,1.0917559570312498,0,0,0.53508
2.3959809750085697,0,0,1.1731588134765625,0,0,0.68796
2.3973666640231386,0,0,1.3359645263671873,0,0,0.91728
2.3987523520190734,0,0,1.4915876342773438,0,0,0.53508
2.4001384480216075,0,0,1.5011644409179687,0,0,0.99372
2.4015254150144756,0,0,1.4796166259765624,0,0,0.91728
2.4029117510071956,0,0,1.3359645263671873,0,0,0.84084
2.4042993470211513,0,0,1.189918225097656,0,0,0.6115200000000001
2.405686221027281,0,0,1.0390835205078124,0,0,0.53508
2.407072854024591,0,0,1.0893617553710937,0,0,0.7644
2.4084573200088926,0,0,1.4006079711914061,0,0,0.53508
2.4098416570050176,0,0,1.5107412475585937,0,0,0.68796
2.4112421970057767,0,0,1.446097802734375,0,0,0.68796
2.4126293120207265,0,0,1.465251416015625,0,0,0.91728
2.4140162780240644,0,0,1.20667763671875,0,0,0.53508
2.4154035040119197,0,0,1.1324573852539062,0,0,0.84084
2.4167929510003887,0,0,1.1635820068359375,0,0,0.91728
2.4181794180185534,0,0,1.0821791503906248,0,0,0.6115200000000001
2.419578791013919,0,0,1.4101847778320311,0,0,0.6115200000000001
2.420964406017447,0,0,1.5059528442382812,0,0,0.6115200000000001
2.422350817010738,0,0,1.5059528442382812,0,0,0.6115200000000001
2.4237378200050443,0,0,1.3910311645507811,0,0,0.6115200000000001
2.4251232680107933,0,0,1.180341418457031,0,0,0.7644
2.4265094750153366,0,0,1.0031704956054688,0,0,0.53508
2.4278987560246605,0,0,0.9504980590820312,0,0,0.53508
2.429285778023768,0,0,1.2665326782226562,0,0,0.53508
2.43067207801505,0,0,1.4820108276367188,0,0,0.3822
2.4320592480071355,0,0,1.5083470458984374,0,0,0.6115200000000001
2.4334450290189125,0,0,1.4987702392578124,0,0,0.84084
2.4348307170148473,0,0,1.4987702392578124,0,0,0.84084
2.4362247210228816,0,0,1.2569558715820313,0,0,0.99372
2.437610613007564,0,0,1.0510545288085937,0,0,0.7644
2.4389959680265747,0,0,1.2330138549804688,0,0,0.6115200000000001
2.44038184202509,0,0,1.35990654296875,0,0,0.84084
2.4417681970226113,0,0,1.3958195678710936,0,0,0.6115200000000001
2.4431539040233474,0,0,1.5370774658203123,0,0,0.84084
2.444539648015052,0,0,1.5107412475585937,0,0,0.99372
2.4459259110153653,0,0,1.2497732666015624,0,0,0.84084
2.4473112850100733,0,0,1.1875240234375,0,0,0.99372
2.44869712102809,0,0,1.120486376953125,0,0,0.84084
2.450082995026605,0,0,1.1133037719726562,0,0,0.45864
2.451479757000925,0,0,1.254561669921875,0,0,0.53508
2.452866242005257,0,0,1.3623007446289062,0,0,0.45864
2.4542523940035608,0,0,1.4987702392578124,0,0,0.84084
2.45563797102659,0,0,1.467645617675781,0,0,0.84084
2.457023734023096,0,0,1.0726023437499999,0,0,0.68796
2.458409922022838,0,0,1.158793603515625,0,0,0.91728
2.459796481009107,0,0,1.1133037719726562,0,0,0.99372
2.4611890770029277,0,0,1.2306196533203124,0,0,0.68796
2.4625860800151713,0,0,1.5107412475585937,0,0,0.45864
2.4639728059992194,0,0,1.5921441040039062,0,0,0.68796
2.465358384011779,0,0,1.5658078857421873,0,0,0.91728
2.4667443680227734,0,0,1.3000515014648437,0,0,0.99372
2.4681304640253074,0,0,1.1228805786132812,0,0,0.99372
2.4695162450079806,0,0,1.149216796875,0,0,0.7644
2.470901730004698,0,0,1.1013327636718748,0,0,0.45864
2.4722876040032133,0,0,1.216254443359375,0,0,0.6115200000000001
2.4736732560268138,0,0,1.3766659545898436,0,0,0.53508
2.4750596660014708,0,0,1.426944189453125,0,0,0.6115200000000001
2.476445281004999,0,0,1.446097802734375,0,0,0.84084
2.477831006021006,0,0,1.5035586425781249,0,0,0.7644
2.4792165649996605,0,0,1.22583125,0,0,0.91728
2.480604754004162,0,0,1.1228805786132812,0,0,0.84084
2.4819912570237648,0,0,1.1540052001953125,0,0,0.53508
2.483378687000368,0,0,1.209071838378906,0,0,0.53508
2.48476535701775,0,0,1.3024457031249999,0,0,0.45864
2.4861511930066627,0,0,1.4173673828125,0,0,0.84084
2.487538048007991,0,0,1.5155296508789062,0,0,0.84084
2.48892355200951,0,0,1.3192051147460937,0,0,0.99372
2.4903096850030124,0,0,1.1252747802734375,0,0,0.84084
2.491696485027205,0,0,1.0175357055664063,0,0,0.7644
2.493082155007869,0,0,0.9648632690429687,0,0,0.45864
2.4944768240093254,0,0,1.3575123413085937,0,0,1.07016
2.495864235010231,0,0,1.4030021728515625,0,0,0.91728
2.4972499610157683,0,0,1.3646949462890625,0,0,1.1465999999999998
2.498657982010627,0,0,1.5658078857421873,0,0,0.7644
2.5003759450046346,0,0,1.20667763671875,0,0,1.2994800000000002
2.5017806150135584,0,0,1.199495031738281,0,0,1.07016
2.503169248026097,0,0,1.1635820068359375,0,0,0.68796
2.5045585480111185,0,0,1.1875240234375,0,0,0.3822
2.5059462180070113,0,0,1.3359645263671873,0,0,0.53508
2.5073507390043233,0,0,1.2785036865234374,0,0,0.91728
2.5087397060124204,0,0,1.43652099609375,0,0,0.6115200000000001
2.510126561013749,0,0,1.2378022583007813,0,0,0.91728
2.5115114159998484,0,0,1.22583125,0,0,1.1465999999999998
2.512889419012936,0,0,1.1276689819335937,0,0,0.6115200000000001
2.5142679970012978,0,0,1.180341418457031,0,0,0.68796
2.515653630020097,0,0,1.2497732666015624,0,0,0.6115200000000001
2.517041726008756,0,0,1.39821376953125,0,0,0.30576000000000003
2.518428933020914,0,0,1.4221557861328125,0,0,0.84084
2.519817103020614,0,0,1.5011644409179687,0,0,0.99372
2.5212039400066715,0,0,1.2018892333984375,0,0,0.99372
2.522591128014028,0,0,1.1851298217773436,0,0,0.91728
2.5239783540018834,0,0,1.177947216796875,0,0,0.99372
2.5253656530112494,0,0,1.197100830078125,0,0,0.84084
2.526752509002108,0,0,1.3096283081054687,0,0,0.7644
2.528134994005086,0,0,1.4173673828125,0,0,0.84084
2.529513516026782,0,0,1.4006079711914061,0,0,1.1465999999999998
2.530892186012352,0,0,1.656787548828125,0,0,0.91728
2.532294393022312,0,0,1.189918225097656,0,0,0.6115200000000001
2.5336832290049642,0,0,1.2138602416992186,0,0,0.7644
2.5350758810236584,0,0,1.218648645019531,0,0,0.7644
2.536462162010139,0,0,1.1851298217773436,0,0,0.6115200000000001
2.537848258012673,0,0,1.369483349609375,0,0,0.6115200000000001
2.5392347060260363,0,0,1.429338391113281,0,0,0.68796
2.5406212270027027,0,0,1.3910311645507811,0,0,0.84084
2.542012046003947,0,0,1.6160861206054686,0,0,0.7644
2.5434000860259403,0,0,1.235408056640625,0,0,1.2994800000000002
2.5447866630274802,0,0,1.16837041015625,0,0,0.91728
2.546172963018762,0,0,1.0893617553710937,0,0,0.7644
2.547574448020896,0,0,1.2282254516601563,0,0,0.45864
2.5489617840212304,0,0,1.3072341064453123,0,0,0.30576000000000003
2.5503643250267487,0,0,1.429338391113281,0,0,0.53508
2.551753698004177,0,0,1.458068811035156,0,0,0.7644
2.553147294005612,0,0,1.2138602416992186,0,0,0.99372
2.554534686001716,0,0,1.1635820068359375,0,0,0.84084
2.5559176160022616,0,0,1.158793603515625,0,0,0.68796
2.5572959530109074,0,0,1.209071838378906,0,0,0.7644
2.5586747150227893,0,0,1.3479355346679687,0,0,0.68796
2.5600627930252813,0,0,1.4939818359375,0,0,0.22932
2.5614499440125655,0,0,1.4053963745117186,0,0,0.84084
2.562837503006449,0,0,1.4149731811523436,0,0,0.84084
2.5642248580115847,0,0,1.180341418457031,0,0,0.7644
2.5656117880134843,0,0,1.2234370483398436,0,0,0.53508
2.5669991060276516,0,0,1.0797849487304687,0,0,0.53508
2.5684061640058644,0,0,1.1516109985351561,0,0,0.53508
2.5697945750143845,0,0,1.2306196533203124,0,0,0.7644
2.5711825600010343,0,0,1.4125789794921875,0,0,0.7644
2.5725658780138474,0,0,1.4437036010742186,0,0,0.99372
2.5739445850194898,0,0,1.5921441040039062,0,0,0.91728
2.5753231440030504,0,0,1.2808978881835937,0,0,0.84084
2.576712074020179,0,0,1.1324573852539062,0,0,0.7644
2.5780987070174888,0,0,1.1252747802734375,0,0,0.6115200000000001
2.579484358022455,0,0,1.1444283935546875,0,0,0.45864
2.5808835650095716,0,0,1.3455413330078123,0,0,0.3822
2.5822713090165053,0,0,1.4341267944335936,0,0,0.53508
2.5836581460025627,0,0,1.2665326782226562,0,0,0.7644
2.5850451120059006,0,0,1.3670891479492187,0,0,0.99372
2.586432356009027,0,0,1.1875240234375,0,0,0.99372
2.5878191190131474,0,0,1.1228805786132812,0,0,0.7644
2.5892055300064385,0,0,1.1563994018554686,0,0,0.68796
2.590591533022234,0,0,1.1563994018554686,0,0,0.53508
2.591978018026566,0,0,1.426944189453125,0,0,0.53508
2.5933724470087327,0,0,1.4508862060546874,0,0,0.7644
2.5947739320108667,0,0,1.2473790649414063,0,0,0.7644
2.5961611200182233,0,0,1.2737152832031249,0,0,0.7644
2.597547568002483,0,0,1.1827356201171875,0,0,0.91728
2.5989337940118276,0,0,1.1420341918945311,0,0,0.84084
2.600320075027412,0,0,1.0869675537109373,0,0,0.6115200000000001
2.6017467630153988,0,0,1.0749965454101562,0,0,0.7644
2.6031293400155846,0,0,1.5203180541992187,0,0,0.45864
2.604511399025796,0,0,1.4867992309570313,0,0,0.7644
2.6058901060023345,0,0,1.429338391113281,0,0,0.91728
2.6072693320165854,0,0,1.2210428466796874,0,0,0.6115200000000001
2.6086492060276214,0,0,1.2234370483398436,0,0,0.99372
2.6100277460063808,0,0,1.0390835205078124,0,0,0.84084
2.611434046004433,0,0,1.1372457885742187,0,0,0.68796
2.61281356800464,0,0,1.2521674682617188,0,0,1.07016
2.6141917380155064,0,0,1.4772224243164063,0,0,0.7644
2.6155779820110183,0,0,1.3718775512695311,0,0,0.99372
2.6169653560209554,0,0,1.3958195678710936,0,0,0.53508
2.6183526000240818,0,0,1.2234370483398436,0,0,0.99372
2.6197402140242048,0,0,1.3239935180664062,0,0,0.84084
2.621126644022297,0,0,1.0965443603515623,0,0,0.68796
2.622513666021405,0,0,1.1013327636718748,0,0,0.68796
2.6239107610017527,0,0,1.407790576171875,0,0,0.68796
2.6252982830046676,0,0,1.465251416015625,0,0,0.6115200000000001
2.626684972026851,0,0,1.5083470458984374,0,0,0.68796
2.628072345018154,0,0,1.3958195678710936,0,0,0.84084
2.629459219024284,0,0,1.2042834350585936,0,0,0.84084
2.630846111016581,0,0,1.0941501586914062,0,0,0.68796
2.632233263022499,0,0,1.0726023437499999,0,0,0.91728
2.633620766020613,0,0,1.1420341918945311,0,0,0.45864
2.635007492004661,0,0,1.438915197753906,0,0,0.6115200000000001
2.6363951430248562,0,0,1.438915197753906,0,0,0.53508
2.637789424014045,0,0,1.4341267944335936,0,0,0.53508
2.639177354023559,0,0,1.3575123413085937,0,0,0.68796
2.6405646900238935,0,0,1.1635820068359375,0,0,0.91728
2.641952083009528,0,0,1.0295067138671874,0,0,0.7644
2.643338716006838,0,0,1.177947216796875,0,0,0.6115200000000001
2.6447260890272446,0,0,1.139639990234375,0,0,1.07016
2.6461133700213395,0,0,1.4820108276367188,0,0,0.6115200000000001
2.647500522027258,0,0,1.4604630126953124,0,0,0.53508
2.648887396004284,0,0,1.4891934326171874,0,0,0.68796
2.6502746580226813,0,0,1.2713210815429687,0,0,0.99372
2.651662162010325,0,0,1.2880804931640624,0,0,1.1465999999999998
2.65304814701085,0,0,1.218648645019531,0,0,0.68796
2.6544344650174025,0,0,1.2473790649414063,0,0,0.6115200000000001
2.6558222270105034,0,0,1.369483349609375,0,0,0.91728
2.65720830502687,0,0,1.429338391113281,0,0,0.6115200000000001
2.658595882006921,0,0,1.4245499877929686,0,0,0.68796
2.659982719022082,0,0,1.4221557861328125,0,0,0.84084
2.6613698890141677,0,0,1.24498486328125,0,0,1.07016
2.6627571700082626,0,0,1.1037269653320312,0,0,0.99372
2.6641445990244392,0,0,1.0510545288085937,0,0,0.53508
2.665531361999456,0,0,1.1252747802734375,0,0,0.3822
2.666918291011825,0,0,1.4173673828125,0,0,0.68796
2.6683054430177435,0,0,1.47482822265625,0,0,0.91728
2.669699409016175,0,0,1.388636962890625,0,0,0.6115200000000001
2.6710863379994407,0,0,1.438915197753906,0,0,0.53508
2.672473249025643,0,0,1.3287819213867187,0,0,0.91728
2.673860456008697,0,0,1.0582371337890624,0,0,0.7644
2.6752469780039974,0,0,1.1324573852539062,0,0,0.91728
2.676634166011354,0,0,1.1133037719726562,0,0,0.53508
2.67802146601025,0,0,1.39821376953125,0,0,0.68796
2.679408414027421,0,0,1.5538368774414062,0,0,0.84084
2.6807949730136897,0,0,1.455674609375,0,0,0.84084
2.682188995007891,0,0,1.2737152832031249,0,0,0.91728
2.6835774420178495,0,0,1.0821791503906248,0,0,0.7644
2.684963557025185,0,0,1.2330138549804688,0,0,0.91728
2.6863502449996304,0,0,1.2114660400390624,0,0,0.84084
2.687738082022406,0,0,1.0893617553710937,0,0,0.53508
2.689124399999855,0,0,1.429338391113281,0,0,0.15288000000000002
2.6905109220242593,0,0,1.4532804077148436,0,0,0.6115200000000001
2.6919089250150137,0,0,1.5251064575195312,0,0,0.84084
2.6932965950109065,0,0,1.3215993164062498,0,0,0.91728
2.6946833210240584,0,0,1.35990654296875,0,0,0.91728
2.696070639009122,0,0,1.0366893188476562,0,0,0.68796
2.697457865026081,0,0,1.2042834350585936,0,0,0.53508
2.6988444790185895,0,0,1.3024457031249999,0,0,-9.172799999999999
2.7002338530146517,0,0,1.3527239379882812,0,0,0.3822
2.7016205600230023,0,0,1.2425906616210938,0,0,0.84084
2.7030071560002398,0,0,1.47482822265625,0,0,0.6115200000000001
2.70439421501942,0,0,1.199495031738281,0,0,0.91728
2.705781348020537,0,0,1.2042834350585936,0,0,0.7644
2.707168332999572,0,0,1.1420341918945311,0,0,1.07016
2.7085557430109475,0,0,1.1109095703125,0,0,0.6115200000000001
2.7099427840148564,0,0,1.3120225097656248,0,0,0.84084
2.7113298610202037,0,0,1.4700398193359374,0,0,0.45864
2.712716698006261,0,0,1.4700398193359374,0,0,0.91728
2.7141034610103816,0,0,1.4604630126953124,0,0,0.84084
2.715490797010716,0,0,1.3646949462890625,0,0,0.84084
2.716877208004007,0,0,1.2138602416992186,0,0,0.6115200000000001
2.718263841001317,0,0,1.1420341918945311,0,0,0.68796
2.7196513260132633,0,0,1.1635820068359375,0,0,0.68796
2.721037403010996,0,0,1.3479355346679687,0,0,0.45864
2.7224240180221386,0,0,1.4628572143554686,0,0,0.53508
2.72381166901323,0,0,1.4796166259765624,0,0,0.6115200000000001
2.72520437600906,0,0,1.4221557861328125,0,0,0.7644
2.7265915280149784,0,0,1.3718775512695311,0,0,0.68796
2.7279854750086088,0,0,1.0893617553710937,0,0,0.7644
2.729372923000483,0,0,1.0893617553710937,0,0,0.68796
2.7307601120264735,0,0,1.2737152832031249,0,0,0.45864
2.732147615024587,0,0,1.438915197753906,0,0,0.45864
2.733534322003834,0,0,1.6639701538085936,0,0,0.68796
2.7349211220280267,0,0,1.5322890624999999,0,0,0.68796
2.736308347026352,0,0,1.3742717529296875,0,0,1.07016
2.7376950550242327,0,0,1.1923124267578125,0,0,1.2230400000000001
2.7390817620034795,0,0,1.0271125122070313,0,0,0.6115200000000001
2.7404622840113007,0,0,1.1013327636718748,0,0,0.7644
2.7418404910131358,0,0,1.2497732666015624,0,0,0.7644
2.7432190500258002,0,0,1.4245499877929686,0,0,0.53508
2.7446091460005846,0,0,1.22583125,0,0,0.91728
2.7459949450276326,0,0,1.5538368774414062,0,0,1.07016
2.74738183800946,0,0,1.2808978881835937,0,0,0.91728
2.7487751560111064,0,0,1.2234370483398436,0,0,0.84084
2.750214510015212,0,0,1.1707646118164061,0,0,0.91728
2.7516497170145158,0,0,1.1372457885742187,0,0,0.68796
2.753038479015231,0,0,1.2737152832031249,0,0,0.91728
2.754436612012796,0,0,1.407790576171875,0,0,0.7644
2.7558253930183128,0,0,1.3958195678710936,0,0,0.6115200000000001
2.757212137017632,0,0,1.3910311645507811,0,0,0.91728
2.75859904801473,0,0,1.2521674682617188,0,0,0.7644
2.759981848008465,0,0,1.1731588134765625,0,0,0.68796
2.7613690180005506,0,0,1.0678139404296874,0,0,0.7644
2.7627471320156474,0,0,1.2018892333984375,0,0,0.45864
2.764136210025754,0,0,1.429338391113281,0,0,0.53508
2.7655237690196373,0,0,1.6424223388671875,0,0,0.84084
2.7669125870161224,0,0,1.4891934326171874,0,0,0.84084
2.7683016090013552,0,0,1.467645617675781,0,0,0.84084
2.7697106300038286,0,0,1.2138602416992186,0,0,0.7644
2.7710986890015192,0,0,1.1324573852539062,0,0,0.68796
2.7724886370124295,0,0,1.139639990234375,0,0,0.7644
2.7738753630255815,0,0,1.1372457885742187,0,0,0.91728
2.775262125011068,0,0,1.2641384765625,0,0,0.6115200000000001
2.7766433140204754,0,0,1.4604630126953124,0,0,0.7644
2.7780222990259062,0,0,1.5179238525390624,0,0,0.84084
2.7794048950017896,0,0,1.22583125,0,0,0.7644
2.7807921200001147,0,0,1.209071838378906,0,0,0.99372
2.782178068009671,0,0,1.0773907470703123,0,0,0.7644
2.7835643860162236,0,0,1.1468225952148436,0,0,0.6115200000000001
2.7849507970095146,0,0,1.3120225097656248,0,0,0.7644
2.7863460600201506,0,0,1.3838485595703125,0,0,0.45864
2.7877329330076464,0,0,1.2880804931640624,0,0,0.7644
2.7891209550143685,0,0,1.4532804077148436,0,0,1.07016
2.7905069770058617,0,0,1.3168109130859373,0,0,0.91728
2.791894758003764,0,0,1.2210428466796874,0,0,0.68796
2.7932808910263702,0,0,1.1875240234375,0,0,0.84084
2.794667043024674,0,0,1.13006318359375,0,0,0.45864
2.7960584350221325,0,0,1.3263877197265623,0,0,1.2230400000000001
2.7974570490187034,0,0,1.4125789794921875,0,0,0.30576000000000003
2.7988456080202013,0,0,1.4772224243164063,0,0,0.91728
2.8002344080014154,0,0,1.6328455322265625,0,0,0.91728
2.801621652004542,0,0,1.2521674682617188,0,0,0.84084
2.8030091740074567,0,0,1.1755530151367186,0,0,1.2230400000000001
2.8043981960217934,0,0,0.9528922607421875,0,0,0.84084
2.805785625008866,0,0,1.2018892333984375,0,0,0.6115200000000001
2.8071728510258254,0,0,1.3096283081054687,0,0,0.68796
2.808566909021465,0,0,1.446097802734375,0,0,0.68796
2.8099542830022983,0,0,1.5394716674804687,0,0,1.07016
2.811341638007434,0,0,1.3814543579101561,0,0,0.99372
2.812739530025283,0,0,1.1707646118164061,0,0,1.1465999999999998
2.814127219025977,0,0,1.20667763671875,0,0,0.84084
2.8155153330008034,0,0,1.1085153686523437,0,0,0.91728
2.8169022440270055,0,0,1.3096283081054687,0,0,0.3822
2.8182893590128515,0,0,1.2713210815429687,0,0,0.45864
2.819674232014222,0,0,1.37906015625,0,0,0.68796
2.8210522910230793,0,0,1.4915876342773438,0,0,0.6115200000000001
2.8224312210222706,0,0,1.429338391113281,0,0,-9.32568
2.8238198540057056,0,0,1.1755530151367186,0,0,0.91728
2.825207412999589,0,0,1.1635820068359375,0,0,0.7644
2.8265950640197843,0,0,0.9888052856445312,0,0,0.68796
2.8279830860265065,0,0,1.254561669921875,0,0,0.7644
2.829370071005542,0,0,1.4221557861328125,0,0,0.6115200000000001
2.8307574080245104,0,0,1.4053963745117186,0,0,0.7644
2.8321444850007538,0,0,1.465251416015625,0,0,0.84084
2.8335317480086815,0,0,1.3551181396484375,0,0,0.84084
2.834918862004997,0,0,1.2617442749023438,0,0,0.7644
2.8363011250039563,0,0,1.1444283935546875,0,0,0.68796
2.8376797390228603,0,0,1.1851298217773436,0,0,0.53508
2.839058372017462,0,0,1.22583125,0,0,0.91728
2.840445672016358,0,0,1.3646949462890625,0,0,0.45864
2.8418374530156143,0,0,1.369483349609375,0,0,0.84084
2.8432241230038926,0,0,1.6208745239257811,0,0,0.68796
2.8446240890189074,0,0,1.235408056640625,0,0,0.99372
2.8460105000121985,0,0,1.1731588134765625,0,0,0.7644
2.84740311402129,0,0,0.97683427734375,0,0,0.6115200000000001
2.848790877003921,0,0,1.1372457885742187,0,0,0.7644
2.8501774170144927,0,0,1.3287819213867187,0,0,0.84084
2.8515645320003387,0,0,1.4987702392578124,0,0,0.7644
2.852950480009895,0,0,1.4724340209960938,0,0,1.2230400000000001
2.854336835007416,0,0,1.5801730957031248,0,0,0.7644
2.8557242270035204,0,0,1.1276689819335937,0,0,0.68796
2.8571212490205653,0,0,1.139639990234375,0,0,0.91728
2.858507734024897,0,0,1.1540052001953125,0,0,0.84084
2.8598951260210015,0,0,1.2401964599609374,0,0,0.30576000000000003
2.8612815550004598,0,0,1.3527239379882812,0,0,0.6115200000000001
2.8626678550208453,0,0,1.3311761230468748,0,0,0.7644
2.864054321020376,0,0,1.4173673828125,0,0,0.6115200000000001
2.8654404360277113,0,0,1.3814543579101561,0,0,0.7644
2.866826198005583,0,0,1.2641384765625,0,0,0.68796
2.868212609027978,0,0,1.189918225097656,0,0,0.91728
2.869599427009234,0,0,1.1085153686523437,0,0,0.68796
2.870985579007538,0,0,1.1755530151367186,0,0,0.68796
2.872371675010072,0,0,1.438915197753906,0,0,0.30576000000000003
2.873758104018634,0,0,1.5514426757812498,0,0,0.84084
2.8751439040061086,0,0,1.5658078857421873,0,0,0.91728
2.876530129025923,0,0,1.5227122558593749,0,0,0.7644
2.877916596014984,0,0,1.189918225097656,0,0,0.91728
2.87930365500506,0,0,1.189918225097656,0,0,0.45864
2.8806898430048022,0,0,1.2808978881835937,0,0,0.84084
2.8820759760274086,0,0,1.2928688964843749,0,0,0.84084
2.8834633130172733,0,0,1.3192051147460937,0,0,0.53508
2.8848498350125737,0,0,1.4053963745117186,0,0,0.7644
2.8862362450163346,0,0,1.37906015625,0,0,0.84084
2.887623341026483,0,0,1.2713210815429687,0,0,0.7644
2.88900893702521,0,0,1.2880804931640624,0,0,0.7644
2.8903958670271095,0,0,1.1061211669921875,0,0,0.99372
2.8917825740063563,0,0,1.1755530151367186,0,0,0.68796
2.8931682070251554,0,0,1.3024457031249999,0,0,0.84084
2.894554173020879,0,0,1.4796166259765624,0,0,0.6115200000000001
2.895939399022609,0,0,1.455674609375,0,0,1.2230400000000001
2.897338180016959,0,0,1.608903515625,0,0,0.7644
2.8987256640102714,0,0,1.1468225952148436,0,0,0.7644
2.9001200010243338,0,0,1.2234370483398436,0,0,0.91728
2.9015071530011483,0,0,1.0510545288085937,0,0,0.6115200000000001
2.9029008409997914,0,0,1.2521674682617188,0,0,0.6115200000000001
2.9042898070183583,0,0,1.4724340209960938,0,0,0.84084
2.905676902999403,0,0,1.419761584472656,0,0,0.7644
2.9070636660035234,0,0,1.4317325927734375,0,0,0.84084
2.9084485770144965,0,0,1.4149731811523436,0,0,0.99372
2.9098323580110446,0,0,1.2904746948242187,0,0,0.7644
2.9112311390053947,0,0,1.3527239379882812,0,0,1.1465999999999998
2.9126193830161355,0,0,1.1372457885742187,0,0,0.6115200000000001
2.914006553008221,0,0,1.0821791503906248,0,0,0.7644
2.915394001000095,0,0,1.2593500732421874,0,0,0.3822
2.9167812630184926,0,0,1.4508862060546874,0,0,0.84084
2.9181683960196096,0,0,1.4772224243164063,0,0,1.07016
2.9195559180225246,0,0,1.209071838378906,0,0,0.91728
2.9209431250055786,0,0,1.209071838378906,0,0,0.84084
2.9223298510187306,0,0,1.2114660400390624,0,0,0.7644
2.923717039026087,0,0,1.1851298217773436,0,0,0.7644
2.9251036910281982,0,0,1.3766659545898436,0,0,0.84084
2.9264906200114638,0,0,1.3383587280273437,0,0,0.3822
2.9278828460082877,0,0,1.3479355346679687,0,0,0.84084
2.9292691820010077,0,0,1.446097802734375,0,0,0.84084
2.9306561120029073,0,0,1.2521674682617188,0,0,1.1465999999999998
2.932043319015065,0,0,1.2521674682617188,0,0,0.84084
2.9334308040270116,0,0,1.3551181396484375,0,0,0.68796
2.9348183070251253,0,0,1.2378022583007813,0,0,0.45864
2.9363180130021647,0,0,1.3215993164062498,0,0,0.7644
2.937709479010664,0,0,1.3431471313476562,0,0,0.68796
2.939097018999746,0,0,1.3718775512695311,0,0,0.84084
2.9404845040116925,0,0,1.5131354492187499,0,0,0.91728
2.9418718220258597,0,0,1.2425906616210938,0,0,0.7644
2.9433260290243197,0,0,1.2952630981445312,0,0,0.84084
2.944733032025397,0,0,1.1252747802734375,0,0,0.53508
2.9461345540184993,0,0,1.3311761230468748,0,0,0.6115200000000001
2.9475221680186223,0,0,1.448492004394531,0,0,0.6115200000000001
2.948909338010708,0,0,1.4915876342773438,0,0,0.68796
2.9502965450228658,0,0,1.2401964599609374,0,0,0.84084
2.951684308005497,0,0,1.3718775512695311,0,0,0.6115200000000001
2.953071070020087,0,0,1.22583125,0,0,0.7644
2.9544587030250113,0,0,1.235408056640625,0,0,0.68796
2.95584555901587,0,0,1.0821791503906248,0,0,0.91728
2.9572329510119744,0,0,1.1707646118164061,0,0,0.7644
2.9586209910048638,0,0,1.5418658691406248,0,0,0.6115200000000001
2.9600079580268357,0,0,1.4820108276367188,0,0,0.84084
2.961412497999845,0,0,1.2473790649414063,0,0,0.7644
2.9628006120037753,0,0,1.3383587280273437,0,0,0.91728
2.9641877640096936,0,0,1.216254443359375,0,0,0.91728
2.9655752860126086,0,0,1.120486376953125,0,0,0.53508
2.9669629560085014,0,0,1.1540052001953125,0,0,0.53508
2.9683549030160066,0,0,1.3527239379882812,0,0,0.84084
2.9697534070000984,0,0,1.4987702392578124,0,0,0.30576000000000003
2.971141558024101,0,0,1.4101847778320311,0,0,0.53508
2.972530691011343,0,0,1.4125789794921875,0,0,0.91728
2.9739175460126717,0,0,1.2521674682617188,0,0,0.7644
2.975304864026839,0,0,1.1755530151367186,0,0,0.7644
2.9766918680106755,0,0,1.1563994018554686,0,0,0.91728
2.9780792230158113,0,0,1.1133037719726562,0,0,0.68796
2.9794979300058912,0,0,1.3814543579101561,0,0,1.07016
2.980885766010033,0,0,1.4053963745117186,0,0,0.6115200000000001
2.9822731590247713,0,0,1.3814543579101561,0,0,0.68796
2.9836604950251058,0,0,1.426944189453125,0,0,0.91728
2.9850470910023432,0,0,1.3766659545898436,0,0,0.99372
2.986433983023744,0,0,1.2378022583007813,0,0,0.6115200000000001
2.987827061006101,0,0,1.149216796875,0,0,0.99372
2.989208694023546,0,0,1.209071838378906,0,0,0.53508
2.9905901420279406,0,0,1.407790576171875,0,0,0.7644
2.9920354040223174,0,0,1.4796166259765624,0,0,0.53508
2.993426480999915,0,0,1.5849614990234373,0,0,0.68796
2.994814096018672,0,0,1.5131354492187499,0,0,0.7644
2.9962020620005205,0,0,1.3551181396484375,0,0,0.6115200000000001
2.9975896580144763,0,0,1.1228805786132812,0,0,0.84084
2.998976697999751,0,0,1.120486376953125,0,0,0.84084
3.000394442002289,0,0,1.1540052001953125,0,0,0.45864
3.001850889006164,0,0,1.438915197753906,0,0,0.53508
3.003245448024245,0,0,1.4915876342773438,0,0,0.3822
3.0046353960060515,0,0,1.5179238525390624,0,0,0.6115200000000001
3.0060227880021557,0,0,1.2425906616210938,0,0,0.84084
3.007411643018713,0,0,1.2401964599609374,0,0,0.99372
3.0087997760274448,0,0,1.1228805786132812,0,0,0.91728
3.0101867980265524,0,0,1.139639990234375,0,0,0.45864
3.011572598014027,0,0,1.20667763671875,0,0,0.7644
3.0129503600182943,0,0,1.3838485595703125,0,0,0.0
3.014328771008877,0,0,1.4413093994140624,0,0,0.99372
3.015713978005806,0,0,1.4963760375976562,0,0,0.99372
3.0171012960199732,0,0,1.3287819213867187,0,0,0.7644
3.018488966015866,0,0,1.1061211669921875,0,0,0.6115200000000001
3.0198904140270315,0,0,1.0773907470703123,0,0,0.6115200000000001
3.0212692510103807,0,0,1.0726023437499999,0,0,0.45864
3.0226480510027613,0,0,1.2665326782226562,0,0,0.7644
3.0240369430102874,0,0,1.4245499877929686,0,0,0.30576000000000003
3.02542485302547,0,0,1.3934253662109375,0,0,0.84084
3.0268122460111044,0,0,1.5107412475585937,0,0,0.99372
3.0281950640201103,0,0,1.24498486328125,0,0,0.84084
3.029573882027762,0,0,1.1540052001953125,0,0,0.99372
3.0309525890043005,0,0,1.0079588989257813,0,0,0.99372
3.0323587780003436,0,0,1.22583125,0,0,0.6115200000000001
3.03374602200347,0,0,1.3239935180664062,0,0,0.84084
3.035133710014634,0,0,1.426944189453125,0,0,0.3822
3.036521084024571,0,0,1.446097802734375,0,0,0.68796
3.037908699014224,0,0,1.465251416015625,0,0,0.7644
3.03929605401936,0,0,1.2593500732421874,0,0,0.91728
3.0406830200226977,0,0,1.2018892333984375,0,0,0.84084
3.042070394003531,0,0,1.0845733520507812,0,0,0.6115200000000001
3.0434585270122625,0,0,1.3000515014648437,0,0,0.6115200000000001
3.0448459930194076,0,0,1.407790576171875,0,0,0.45864
3.0462788850127254,0,0,1.3862427612304686,0,0,0.53508
3.0476828509999905,0,0,1.4891934326171874,0,0,0.91728
3.0490700760274194,0,0,1.37906015625,0,0,0.84084
3.050457413017284,0,0,1.2018892333984375,0,0,1.07016
3.051845787005732,0,0,1.1156979736328125,0,0,0.68796
3.053232624020893,0,0,1.0630255371093749,0,0,0.3822
3.054620553011773,0,0,1.3096283081054687,0,0,0.68796
3.056003834004514,0,0,1.43652099609375,0,0,0.45864
3.0573827260232065,0,0,1.2928688964843749,0,0,0.7644
3.0587613780226093,0,0,1.5634136840820312,0,0,1.07016
3.0601493260182906,0,0,1.5155296508789062,0,0,0.84084
3.0615432180056814,0,0,1.2425906616210938,0,0,0.91728
3.0629351470270194,0,0,1.16837041015625,0,0,0.53508
3.0643426500028,0,0,1.2425906616210938,0,0,0.91728
3.0657297280267812,0,0,1.3168109130859373,0,0,0.84084
3.0671196940238588,0,0,1.2952630981445312,0,0,0.7644
3.0685072710039094,0,0,1.3575123413085937,0,0,0.91728
3.0698952930106316,0,0,1.39821376953125,0,0,0.7644
3.0712820740009192,0,0,1.2952630981445312,0,0,0.99372
3.0726630780263804,0,0,1.2785036865234374,0,0,0.84084
3.07404204402701,0,0,1.1707646118164061,0,0,0.68796
3.0754578620253596,0,0,1.197100830078125,0,0,0.6115200000000001
3.0768470320035703,0,0,1.3168109130859373,0,0,0.68796
3.078241221024655,0,0,1.4341267944335936,0,0,0.45864
3.079629391024355,0,0,1.4413093994140624,0,0,0.68796
3.081016135023674,0,0,1.5729904907226562,0,0,0.84084
3.082403360021999,0,0,1.1851298217773436,0,0,0.7644
3.0837910670088604,0,0,1.158793603515625,0,0,0.68796
3.0851778850192204,0,0,1.0869675537109373,0,0,0.6115200000000001
3.0865650740161072,0,0,1.1444283935546875,0,0,0.53508
3.0879521330061834,0,0,1.3551181396484375,0,0,0.6115200000000001
3.0893390250275843,0,0,1.4437036010742186,0,0,0.7644
3.0907265840214677,0,0,1.5083470458984374,0,0,0.7644
3.092113402002724,0,0,1.429338391113281,0,0,0.84084
3.0935003500198945,0,0,1.2210428466796874,0,0,1.1465999999999998
3.0948878720228095,0,0,1.0821791503906248,0,0,0.6115200000000001
3.096275042014895,0,0,1.1611878051757811,0,0,0.6115200000000001
3.0976622120069806,0,0,1.254561669921875,0,0,0.6115200000000001
3.0990492710261606,0,0,1.3168109130859373,0,0,0.3822
3.10043707001023,0,0,1.426944189453125,0,0,0.53508
3.1018412960111164,0,0,1.4437036010742186,0,0,0.84084
3.1032277810154483,0,0,1.5203180541992187,0,0,0.91728
3.1046150800248142,0,0,1.1755530151367186,0,0,-8.867040000000001
3.1060037499992177,0,0,1.16837041015625,0,0,0.68796
3.107391883007949,0,0,1.2114660400390624,0,0,0.6115200000000001
3.108778924011858,0,0,1.3359645263671873,0,0,0.91728
3.110166112019215,0,0,1.4101847778320311,0,0,0.30576000000000003
3.1115540230239276,0,0,1.4006079711914061,0,0,0.91728
3.1129407670232467,0,0,1.5227122558593749,0,0,0.7644
3.1143278820090927,0,0,1.2569558715820313,0,0,0.91728
3.115752125013387,0,0,1.2569558715820313,0,0,1.1465999999999998
3.1171322770242114,0,0,0.9600748657226562,0,0,0.84084
3.1185108910140116,0,0,1.2928688964843749,0,0,0.3822
3.119902210019063,0,0,1.2617442749023438,0,0,0.84084
3.1212814540194813,0,0,1.4125789794921875,0,0,0.7644
3.1226601240050513,0,0,1.4030021728515625,0,0,0.91728
3.12404084901209,0,0,1.4604630126953124,0,0,0.91728
3.1254195010114927,0,0,1.24498486328125,0,0,0.7644
3.1267977450042963,0,0,1.254561669921875,0,0,0.7644
3.1281879340240266,0,0,1.0845733520507812,0,0,0.7644
3.1295752330042887,0,0,1.1755530151367186,0,0,0.6115200000000001
3.130962403025478,0,0,1.3192051147460937,0,0,0.91728
3.132349185005296,0,0,1.5298948608398437,0,0,0.53508
3.1337364290084224,0,0,1.429338391113281,0,0,0.7644
3.135123525018571,0,0,1.3814543579101561,0,0,0.68796
3.1365192500234116,0,0,1.2234370483398436,0,0,0.99372
3.137906420015497,0,0,1.2856862915039062,0,0,0.91728
3.139293053012807,0,0,1.1851298217773436,0,0,0.7644
3.14067342702765,0,0,1.197100830078125,0,0,0.68796
3.1420575230149552,0,0,1.2473790649414063,0,0,0.22932
3.143449100025464,0,0,1.3646949462890625,0,0,0.91728
3.14483640002436,0,0,1.3910311645507811,0,0,0.7644
3.146223625022685,0,0,1.2761094848632812,0,0,0.99372
3.147611833002884,0,0,1.3072341064453123,0,0,0.91728
3.148998003016459,0,0,1.2306196533203124,0,0,0.6115200000000001
3.150385080021806,0,0,1.177947216796875,0,0,0.84084
3.1517729540064465,0,0,1.2378022583007813,0,0,0.68796
3.1531594390107784,0,0,1.438915197753906,0,0,0.53508
3.1545464970113244,0,0,1.4030021728515625,0,0,0.45864
3.1559336300124414,0,0,1.3814543579101561,0,0,0.91728
3.1573205410095397,0,0,1.1923124267578125,0,0,1.07016
3.158708007016685,0,0,1.2617442749023438,0,0,0.68796
3.160095363011351,0,0,1.1133037719726562,0,0,0.45864
3.1614821440016385,0,0,1.16837041015625,0,0,0.3822
3.1628794990247115,0,0,1.3000515014648437,0,0,0.6115200000000001
3.1642678730131593,0,0,1.467645617675781,0,0,0.68796
3.1656548760074656,0,0,1.4173673828125,0,0,0.99372
3.1670416020206176,0,0,1.39821376953125,0,0,1.07016
3.1684290310076904,0,0,1.2042834350585936,0,0,0.7644
3.1698218300007284,0,0,1.3527239379882812,0,0,0.84084
3.1712190930265933,0,0,1.2234370483398436,0,0,0.68796
3.1726082260138355,0,0,1.2282254516601563,0,0,0.3822
3.1739956000237726,0,0,1.2569558715820313,0,0,0.91728
3.1753832700196654,0,0,1.4867992309570313,0,0,0.68796
3.176771088008536,0,0,1.5203180541992187,0,0,0.91728
3.178158443013672,0,0,1.4724340209960938,0,0,0.7644
3.179545909020817,0,0,1.1659762084960936,0,0,0.7644
3.180933265015483,0,0,1.1156979736328125,0,0,0.45864
3.1823201380029786,0,0,1.13006318359375,0,0,0.68796
3.1837075300281867,0,0,1.1540052001953125,0,0,0.68796
3.1850946630002,0,0,1.3335703247070312,0,0,0.53508
3.186481574026402,0,0,1.4317325927734375,0,0,0.68796
3.1878684850235004,0,0,1.4245499877929686,0,0,0.6115200000000001
3.1892558590043336,0,0,1.3192051147460937,0,0,0.99372
3.1906428070215043,0,0,1.235408056640625,0,0,0.68796
3.192029662022833,0,0,1.2473790649414063,0,0,0.91728
3.193416961003095,0,0,1.1372457885742187,0,0,0.7644
3.194829687010497,0,0,1.180341418457031,0,0,0.53508
3.196216820011614,0,0,1.4724340209960938,0,0,0.30576000000000003
3.1976032670063432,0,0,1.47482822265625,0,0,0.45864
3.1989903260255232,0,0,1.4101847778320311,0,0,0.84084
3.2003770520095713,0,0,1.218648645019531,0,0,0.91728
3.201764407014707,0,0,1.1372457885742187,0,0,0.91728
3.203151373018045,0,0,1.0726023437499999,0,0,0.68796
3.204539599013515,0,0,1.0702081420898437,0,0,0.53508
3.2059262320108246,0,0,1.180341418457031,0,0,0.6115200000000001
3.2073203090112656,0,0,1.467645617675781,0,0,0.3822
3.2087079980119597,0,0,1.3838485595703125,0,0,0.7644
3.2100952050241176,0,0,1.4628572143554686,0,0,0.91728
3.2114983750216197,0,0,1.2138602416992186,0,0,0.84084
3.212885137007106,0,0,1.1444283935546875,0,0,0.91728
3.214272270008223,0,0,0.9744400756835937,0,0,0.45864
3.215660181012936,0,0,1.149216796875,0,0,0.84084
3.217046666017268,0,0,1.254561669921875,0,0,0.7644
3.218433651025407,0,0,1.3527239379882812,0,0,0.53508
3.2198215430253185,0,0,1.2832920898437499,0,0,0.84084
3.2212077130097896,0,0,1.2904746948242187,0,0,0.68796
3.2225944570091087,0,0,1.2689268798828124,0,0,0.84084
3.2239822010160424,0,0,1.3527239379882812,0,0,0.84084
3.2253688530181535,0,0,1.1516109985351561,0,0,0.6115200000000001
3.2267558010062203,0,0,1.1659762084960936,0,0,0.45864
3.228143156011356,0,0,1.4149731811523436,0,0,0.68796
3.2295307330205105,0,0,1.455674609375,0,0,0.53508
3.230917403008789,0,0,1.3168109130859373,0,0,0.53508
3.2323045730008744,0,0,1.2617442749023438,0,0,0.84084
3.233691373025067,0,0,1.0726023437499999,0,0,0.84084
3.2351532830216456,0,0,1.16837041015625,0,0,0.7644
3.2366576550120953,0,0,1.1420341918945311,0,0,0.68796
3.2380986950010993,0,0,1.2665326782226562,0,0,0.7644
3.239556901011383,0,0,1.5035586425781249,0,0,0.45864
3.2409460710186977,0,0,1.4867992309570313,0,0,0.99372
3.242334167007357,0,0,1.5083470458984374,0,0,0.68796
3.243721930019092,0,0,1.2785036865234374,0,0,0.7644
3.245109322015196,0,0,1.2401964599609374,0,0,0.84084
3.24649677000707,0,0,1.16837041015625,0,0,0.6115200000000001
3.247881255025277,0,0,1.0821791503906248,0,0,0.45864
3.2492598880198784,0,0,1.2832920898437499,0,0,0.91728
3.25067378001404,0,0,1.4413093994140624,0,0,0.6115200000000001
3.2522462810156867,0,0,1.448492004394531,0,0,0.84084
3.253659747017082,0,0,1.5705962890624998,0,0,0.91728
3.255057176022092,0,0,1.35990654296875,0,0,0.84084
3.256445421022363,0,0,1.1875240234375,0,0,0.68796
3.2578332940174732,0,0,1.1947066284179686,0,0,0.6115200000000001
3.2592203530075494,0,0,1.197100830078125,0,0,0.6115200000000001
3.2606082270212937,0,0,1.3168109130859373,0,0,1.2230400000000001
3.261995304026641,0,0,1.3910311645507811,0,0,0.84084
3.263382808014285,0,0,1.4963760375976562,0,0,0.84084
3.2647617000038736,0,0,1.4820108276367188,0,0,0.91728
3.2661404810205568,0,0,1.2114660400390624,0,0,0.99372
3.2675270220206585,0,0,1.1611878051757811,0,0,0.7644
3.268914766027592,0,0,0.9576806640625,0,0,0.45864
3.270302121003624,0,0,1.1923124267578125,0,0,0.45864
3.2716904950211756,0,0,1.5131354492187499,0,0,0.6115200000000001
3.273077165009454,0,0,1.4820108276367188,0,0,0.7644
3.2744643530168105,0,0,1.5538368774414062,0,0,0.7644
3.2758523380034603,0,0,1.4867992309570313,0,0,0.91728
3.2772394890198484,0,0,1.1827356201171875,0,0,0.84084
3.2786263080197386,0,0,1.1372457885742187,0,0,0.68796
3.2800089410156943,0,0,1.1635820068359375,0,0,0.68796
3.2813881290203426,0,0,1.2952630981445312,0,0,0.7644
3.2827672440034803,0,0,1.3072341064453123,0,0,0.68796
3.2841550440061837,0,0,1.4149731811523436,0,0,0.7644
3.2855426210153382,0,0,1.4891934326171874,0,0,0.84084
3.2869301800092217,0,0,1.24498486328125,0,0,0.7644
3.288317961007124,0,0,1.20667763671875,0,0,0.91728
3.289705909002805,0,0,1.1372457885742187,0,0,0.53508
3.291094079002505,0,0,1.2497732666015624,0,0,0.53508
3.2924817120074295,0,0,1.2617442749023438,0,0,0.84084
3.293868400010979,0,0,1.438915197753906,0,0,0.45864
3.2952664220065344,0,0,1.350329736328125,0,0,1.07016
3.2966537030006293,0,0,1.4053963745117186,0,0,0.68796
3.2980416690115817,0,0,1.2138602416992186,0,0,0.84084
3.2994300800201017,0,0,1.216254443359375,0,0,0.6115200000000001
3.3008178240270354,0,0,1.209071838378906,0,0,0.7644
3.30220521701267,0,0,1.1851298217773436,0,0,0.53508
3.3035942570131738,0,0,1.2904746948242187,0,0,0.91728
3.3049811310193036,0,0,1.5059528442382812,0,0,0.45864
3.3063685600063764,0,0,1.39821376953125,0,0,0.91728
3.3077565820130985,0,0,1.4437036010742186,0,0,0.53508
3.309143030026462,0,0,1.1731588134765625,0,0,0.7644
3.310530476999702,0,0,1.0199299072265624,0,0,0.91728
3.3119270730239805,0,0,1.1516109985351561,0,0,0.84084
3.313314225000795,0,0,1.2378022583007813,0,0,0.3822
3.314701191004133,0,0,1.2880804931640624,0,0,0.84084
3.3160887680132873,0,0,1.429338391113281,0,0,0.91728
3.3174760500260163,0,0,1.3623007446289062,0,0,0.7644
3.3188629600044806,0,0,1.426944189453125,0,0,0.6115200000000001
3.3202508900139946,0,0,1.2306196533203124,0,0,0.91728
3.32163830002537,0,0,1.3287819213867187,0,0,0.68796
3.3230251560162287,0,0,1.0989385620117187,0,0,0.53508
3.324412400019355,0,0,1.24498486328125,0,0,0.6115200000000001
3.325799051002832,0,0,1.4006079711914061,0,0,0.6115200000000001
3.3271859619999304,0,0,1.3215993164062498,0,0,0.68796
3.3285731880168896,0,0,1.407790576171875,0,0,0.84084
3.329960987000959,0,0,1.5035586425781249,0,0,1.07016
3.331351231026929,0,0,1.2737152832031249,0,0,0.84084
3.3327380859991536,0,0,1.2018892333984375,0,0,0.68796
3.3341255160048604,0,0,1.1109095703125,0,0,0.53508
3.335512889025267,0,0,1.2521674682617188,0,0,0.84084
3.3368994110205676,0,0,1.438915197753906,0,0,0.45864
3.338303729018662,0,0,1.3646949462890625,0,0,0.84084
3.3396892700111493,0,0,1.4053963745117186,0,0,0.68796
3.3410677920037415,0,0,1.189918225097656,0,0,0.68796
3.342446684022434,0,0,1.2904746948242187,0,0,0.91728
3.3438320210261736,0,0,1.2378022583007813,0,0,0.68796
3.3452189690142404,0,0,1.1228805786132812,0,0,0.53508
3.346605824015569,0,0,1.2976572998046874,0,0,0.68796
3.347991846007062,0,0,1.465251416015625,0,0,0.53508
3.3493785900063813,0,0,1.3551181396484375,0,0,0.99372
3.3507648150261957,0,0,1.4341267944335936,0,0,0.68796
3.3521516890032217,0,0,1.2713210815429687,0,0,0.91728
3.3535380260145757,0,0,1.2713210815429687,0,0,0.6115200000000001
3.354925103019923,0,0,1.0319009155273438,0,0,0.84084
3.356317718018545,0,0,1.197100830078125,0,0,0.68796
3.357704221009044,0,0,1.2808978881835937,0,0,0.53508
3.359091187012382,0,0,1.4772224243164063,0,0,0.84084
3.3604777090076823,0,0,1.3862427612304686,0,0,0.99372
3.3618729350273497,0,0,1.599326708984375,0,0,0.84084
3.363261308026267,0,0,1.180341418457031,0,0,0.91728
3.3648221990151796,0,0,1.1013327636718748,0,0,0.68796
3.3662057210167404,0,0,1.2138602416992186,0,0,0.68796
3.367588131019147,0,0,1.2641384765625,0,0,0.6115200000000001
3.368967764021363,0,0,1.5251064575195312,0,0,0.3822
3.3704972290142905,0,0,1.3623007446289062,0,0,0.84084
3.3718925660068635,0,0,1.448492004394531,0,0,0.68796
3.3732747730100527,0,0,1.2425906616210938,0,0,0.99372
3.3746546840120573,0,0,1.0917559570312498,0,0,0.84084
3.37603622401366,0,0,1.0486603271484374,0,0,0.6115200000000001
3.37741519100382,0,0,1.1947066284179686,0,0,0.22932
3.3787940830225125,0,0,1.3263877197265623,0,0,1.1465999999999998
3.380174623016501,0,0,1.4508862060546874,0,0,0.53508
3.3815538120106794,0,0,1.3862427612304686,0,0,0.91728
3.3829430930200033,0,0,1.4006079711914061,0,0,0.7644
3.384339041018393,0,0,1.1707646118164061,0,0,0.68796
3.385717878001742,0,0,1.2330138549804688,0,0,0.84084
3.3870965110254474,0,0,1.197100830078125,0,0,0.91728
3.388476644002367,0,0,1.218648645019531,0,0,0.53508
3.3898556290077977,0,0,1.2473790649414063,0,0,0.7644
3.3912339840026107,0,0,1.5155296508789062,0,0,0.6115200000000001
3.3926127279992215,0,0,1.2952630981445312,0,0,0.91728
3.393991380027728,0,0,1.3718775512695311,0,0,0.84084
3.3953890500124544,0,0,1.2330138549804688,0,0,0.53508
3.3967780350067187,0,0,1.209071838378906,0,0,0.6115200000000001
3.3981643530132715,0,0,1.2282254516601563,0,0,0.7644
3.3995506890059914,0,0,1.3215993164062498,0,0,0.68796
3.4009344890073407,0,0,1.4221557861328125,0,0,0.84084
3.4023185110127088,0,0,1.5801730957031248,0,0,0.6115200000000001
3.403712348022964,0,0,1.5059528442382812,0,0,0.68796
3.4050921290181577,0,0,1.20667763671875,0,0,0.84084
3.4064708730147686,0,0,1.0917559570312498,0,0,0.91728
3.4088149960152805,0,0,1.1420341918945311,0,0,0.68796
3.4102021290163975,0,0,1.1659762084960936,0,0,20
3.4115906320221256,0,0,1.2761094848632812,0,0,0.84084
3.4129754500172567,0,0,1.4173673828125,0,0,0.6115200000000001
3.4143606390280183,0,0,1.429338391113281,0,0,0.84084
3.4157471600046847,0,0,1.388636962890625,0,0,0.6115200000000001
3.41713197901845,0,0,1.2401964599609374,0,0,0.68796
3.4185173340083566,0,0,1.0941501586914062,0,0,0.68796
3.419923022011062,0,0,1.1444283935546875,0,0,0.84084
3.4213064890063833,0,0,1.1707646118164061,0,0,0.45864
3.422809750016313,0,0,1.22583125,0,0,0.68796
3.424200309003936,0,0,1.438915197753906,0,0,0.6115200000000001
3.4255878680269234,0,0,1.4532804077148436,0,0,0.68796
3.4269887410046067,0,0,1.2593500732421874,0,0,0.7644
3.428376430005301,0,0,1.235408056640625,0,0,0.91728
3.4297717480221763,0,0,1.2976572998046874,0,0,0.53508
3.431158788007451,0,0,1.218648645019531,0,0,0.68796
3.432546199008357,0,0,1.2282254516601563,0,0,0.22932
3.433932851010468,0,0,1.43652099609375,0,0,0.45864
3.435319447016809,0,0,1.3646949462890625,0,0,0.91728
3.4367066170088947,0,0,1.39821376953125,0,0,1.07016
3.4380929350154474,0,0,1.2210428466796874,0,0,1.2230400000000001
3.4395568260224536,0,0,1.2234370483398436,0,0,0.84084
3.440955700003542,0,0,1.0582371337890624,0,0,0.7644
3.4423475180228706,0,0,1.2018892333984375,0,0,0.45864
3.443736355024157,0,0,1.3072341064453123,0,0,0.68796
3.4451219880138524,0,0,1.5059528442382812,0,0,0.68796
3.446510287001729,0,0,1.22583125,0,0,0.91728
3.4478985130263027,0,0,1.43652099609375,0,0,0.91728
3.449293090001447,0,0,1.235408056640625,0,0,0.84084
3.4506790380110033,0,0,1.2210428466796874,0,0,0.91728
3.4520660410053097,0,0,1.1013327636718748,0,0,0.84084
3.4534525260096416,0,0,1.0869675537109373,0,0,0.68796
3.454838918027235,0,0,1.438915197753906,0,0,0.53508
3.456225477013504,0,0,1.5466542724609373,0,0,0.6115200000000001
3.45761148101883,0,0,1.426944189453125,0,0,0.7644
3.458997077017557,0,0,1.3120225097656248,0,0,0.7644
3.4603836350142956,0,0,1.2306196533203124,0,0,0.6115200000000001
3.461769768007798,0,0,1.1635820068359375,0,0,0.6115200000000001
3.4631558270193636,0,0,1.1109095703125,0,0,0.68796
3.464542016008636,0,0,1.0917559570312498,0,0,0.45864
3.4659279820043594,0,0,1.4939818359375,0,0,0.7644
3.4673141150269657,0,0,1.4508862060546874,0,0,0.6115200000000001
3.468700211000396,0,0,1.3623007446289062,0,0,0.53508
3.470086640008958,0,0,1.2737152832031249,0,0,0.68796
3.4714952729991637,0,0,1.2138602416992186,0,0,0.99372
3.4728816100105178,0,0,1.20667763671875,0,0,0.68796
3.474267873010831,0,0,1.1947066284179686,0,0,0.6115200000000001
3.4756553020270076,0,0,1.2425906616210938,0,0,0.68796
3.477040731027955,0,0,1.3958195678710936,0,0,0.15288000000000002
3.4784268460061867,0,0,1.484405029296875,0,0,0.91728
3.47981440500007,0,0,1.5107412475585937,0,0,0.84084
3.4812002970138565,0,0,1.2210428466796874,0,0,0.99372
3.4825860960118007,0,0,1.2042834350585936,0,0,0.7644
3.483973007008899,0,0,1.1085153686523437,0,0,0.6115200000000001
3.4853592880244832,0,0,1.1468225952148436,0,0,0.3822
3.4867460509995,0,0,1.1947066284179686,0,0,0.99372
3.4881400910089724,0,0,1.5466542724609373,0,0,0.30576000000000003
3.4895260950142983,0,0,1.426944189453125,0,0,0.91728
3.4909124500118196,0,0,1.4125789794921875,0,0,0.68796
3.492298731027404,0,0,1.2306196533203124,0,0,0.91728
3.4936845310148783,0,0,1.3575123413085937,0,0,0.7644
3.4950706450035796,0,0,1.149216796875,0,0,0.7644
3.496457093016943,0,0,1.197100830078125,0,0,0.68796
3.4978432260104455,0,0,1.3359645263671873,0,0,0.84084
3.4992294700059574,0,0,1.4820108276367188,0,0,0.68796
3.5006199730269145,0,0,1.3814543579101561,0,0,0.84084
3.5020589950145222,0,0,1.3335703247070312,0,0,0.7644
3.5036062370054424,0,0,1.2401964599609374,0,0,0.84084
3.5049959250027314,0,0,1.1707646118164061,0,0,0.84084
3.5063837990164757,0,0,1.1659762084960936,0,0,0.53508
3.507773969002301,0,0,1.2569558715820313,0,0,0.68796
3.509159454028122,0,0,1.4820108276367188,0,0,0.30576000000000003
3.5105469200061634,0,0,1.6639701538085936,0,0,0.53508
3.511929535015952,0,0,1.446097802734375,0,0,0.68796
3.513317260018084,0,0,1.4508862060546874,0,0,0.68796
3.5147118930181023,0,0,1.1468225952148436,0,0,0.84084
3.5161003780085593,0,0,1.1348515869140625,0,0,0.6115200000000001
3.5175017150177155,0,0,1.2018892333984375,0,0,0.7644
3.518888403021265,0,0,1.3383587280273437,0,0,0.91728
3.5202761470281985,0,0,1.407790576171875,0,0,0.3822
3.521663391002221,0,0,1.3934253662109375,0,0,0.68796
3.523050061019603,0,0,1.4724340209960938,0,0,1.07016
3.5244372310116887,0,0,1.2976572998046874,0,0,0.99372
3.52582406802685,0,0,1.2401964599609374,0,0,0.3822
3.5272107199998572,0,0,1.0845733520507812,0,0,0.6115200000000001
3.528591556008905,0,0,1.1540052001953125,0,0,0.53508
3.529970356001286,0,0,1.3718775512695311,0,0,0.84084
3.531348952004919,0,0,1.3958195678710936,0,0,0.84084
3.5327400480164215,0,0,1.43652099609375,0,0,0.99372
3.534126976999687,0,0,1.5466542724609373,0,0,0.99372
3.535514684015652,0,0,1.3623007446289062,0,0,0.84084
3.5369013360177632,0,0,1.177947216796875,0,0,0.6115200000000001
3.53828852402512,0,0,1.1133037719726562,0,0,0.84084
3.539676472020801,0,0,1.2617442749023438,0,0,0.30576000000000003
3.541063179000048,0,0,1.47482822265625,0,0,0.7644
3.542449922999367,0,0,1.5059528442382812,0,0,0.68796
3.5438381679996382,0,0,1.5155296508789062,0,0,0.7644
3.5452244670013897,0,0,1.4317325927734375,0,0,0.68796
3.546625600021798,0,0,1.16837041015625,0,0,0.84084
3.5480307880206965,0,0,1.2138602416992186,0,0,0.68796
3.549418977025198,0,0,1.254561669921875,0,0,0.68796
3.5508064990281127,0,0,1.1827356201171875,0,0,0.3822
3.5521938720194157,0,0,1.37906015625,0,0,0.91728
3.5535808200074825,0,0,1.5035586425781249,0,0,0.6115200000000001
3.5549677870003507,0,0,1.5035586425781249,0,0,0.7644
3.5563485490274616,0,0,1.4532804077148436,0,0,0.7644
3.5577274600218516,0,0,1.2138602416992186,0,0,0.84084
3.559114538016729,0,0,1.0390835205078124,0,0,0.6115200000000001
3.5605037820059806,0,0,1.1563994018554686,0,0,0.84084
3.5618910810153466,0,0,1.3311761230468748,0,0,0.53508
3.5632778069993947,0,0,1.4820108276367188,0,0,0.45864
3.5646649400005117,0,0,1.4987702392578124,0,0,0.91728
3.566051777015673,0,0,1.4724340209960938,0,0,0.99372
3.5674389280029573,0,0,1.3072341064453123,0,0,0.84084
3.568826024013106,0,0,1.218648645019531,0,0,0.84084
3.5702216750069056,0,0,1.1540052001953125,0,0,0.7644
3.5716315860045142,0,0,1.199495031738281,0,0,0.68796
3.5730117190105375,0,0,1.2641384765625,0,0,0.68796
3.574390278023202,0,0,1.455674609375,0,0,0.3822
3.5757768740004394,0,0,1.35990654296875,0,0,0.84084
3.5771644140186254,0,0,1.5107412475585937,0,0,0.99372
3.578551270009484,0,0,1.22583125,0,0,0.84084
3.579938958020648,0,0,1.197100830078125,0,0,0.68796
3.581330776010873,0,0,1.1947066284179686,0,0,0.99372
3.582717613026034,0,0,1.2138602416992186,0,0,0.7644
3.5841046160203405,0,0,1.3479355346679687,0,0,0.7644
3.5854922120051924,0,0,1.3479355346679687,0,0,0.6115200000000001
3.5868791040265933,0,0,1.3742717529296875,0,0,1.1465999999999998
3.5882662560034078,0,0,1.4628572143554686,0,0,0.84084
3.589653167000506,0,0,1.2737152832031249,0,0,0.7644
