Time,AccelX1,AccelY1,AccelZ1,AccelX2,AccelY2,AccelZ2
3.295979695394635e-06,0,0,1.4341267944335936,0,0,0.7644
0.003240852995077148,0,0,1.3934253662109375,0,0,0.68796
0.006399929989129305,0,0,1.369483349609375,0,0,0.6115200000000001
0.009823169995797798,0,0,1.3359645263671873,0,0,0.7644
0.012960450985701755,0,0,1.1707646118164061,0,0,0.91728
0.016087583993794397,0,0,1.2856862915039062,0,0,0.7644
0.01930573399295099,0,0,1.3168109130859373,0,0,0.45864
0.022758954990422353,0,0,1.2832920898437499,0,0,0.7644
0.026488970004720613,0,0,1.1252747802734375,0,0,0.68796
0.0300645979878027,0,0,1.5155296508789062,0,0,1.1465999999999998
0.03359142900444567,0,0,1.4125789794921875,0,0,0.84084
0.03709581698058173,0,0,1.1540052001953125,0,0,0.84084
0.040606705006211996,0,0,1.3383587280273437,0,0,1.1465999999999998
0.04412422198220156,0,0,1.43652099609375,0,0,0.91728
0.047672664979472756,0,0,1.2952630981445312,0,0,0.91728
0.051346068998100236,0,0,1.2808978881835937,0,0,0.99372
0.055062175990315154,0,0,1.4963760375976562,0,0,0.53508
0.05859432299621403,0,0,1.3192051147460937,0,0,0.68796
0.06211341399466619,0,0,1.2880804931640624,0,0,1.2230400000000001
0.06561619098647498,0,0,1.4891934326171874,0,0,0.53508
0.06923915099469014,0,0,1.1276689819335937,0,0,0.84084
0.07290583298890851,0,0,1.2521674682617188,0,0,1.2230400000000001
0.07642010998097248,0,0,1.2665326782226562,0,0,0.68796
0.08007682900642976,0,0,1.177947216796875,0,0,0.6115200000000001
0.08357503198203631,0,0,1.3623007446289062,0,0,1.2230400000000001
0.0870991229894571,0,0,1.3575123413085937,0,0,0.7644
0.09081882299506105,0,0,1.1540052001953125,0,0,0.7644
0.0943383399862796,0,0,1.3120225097656248,0,0,0.91728
0.09787093100021593,0,0,1.2665326782226562,0,0,0.68796
0.10139085599803366,0,0,1.369483349609375,0,0,0.53508
0.10490757698426023,0,0,1.2689268798828124,0,0,1.2994800000000002
0.10841398299089633,0,0,1.5011644409179687,0,0,0.68796
0.11202679498819634,0,0,1.0965443603515623,0,0,0.30576000000000003
0.11554320098366588,0,0,1.1468225952148436,0,0,0.91728
0.119173327984754,0,0,1.4149731811523436,0,0,0.84084
0.12233288600691594,0,0,1.3527239379882812,0,0,0.68796
0.12512031898950227,0,0,1.2928688964843749,0,0,0.99372
0.12794914000551216,0,0,1.2401964599609374,0,0,0.3822
0.13077651598723605,0,0,1.4915876342773438,0,0,0.84084
0.13359431899152696,0,0,1.1947066284179686,0,0,0.91728
0.1363996589789167,0,0,1.3670891479492187,0,0,0.6115200000000001
0.13919623900437728,0,0,1.254561669921875,0,0,0.68796
0.14198067199322395,0,0,1.1252747802734375,0,0,0.91728
0.1447779559821356,0,0,1.2928688964843749,0,0,0.99372
0.14757411100436002,0,0,1.3742717529296875,0,0,0.53508
0.15036765398690477,0,0,1.2832920898437499,0,0,0.91728
0.15318982698954642,0,0,1.2521674682617188,0,0,0.84084
0.15598744500312023,0,0,1.2282254516601563,0,0,0.45864
0.15876074798870832,0,0,1.3311761230468748,0,0,0.53508
0.16155673598404974,0,0,1.455674609375,0,0,0.6115200000000001
0.16435637199901976,0,0,1.3407529296874998,0,0,0.84084
0.16717906299163587,0,0,1.2928688964843749,0,0,0.7644
0.16997427298338152,0,0,1.3431471313476562,0,0,0.84084
0.17277874299907126,0,0,1.419761584472656,0,0,0.7644
0.17557685999781825,0,0,1.2785036865234374,0,0,0.53508
0.17837295899516903,0,0,1.3335703247070312,0,0,0.6115200000000001
0.18116920700413175,0,0,1.2617442749023438,0,0,1.2230400000000001
0.1839648239838425,0,0,1.2569558715820313,0,0,0.68796
0.1867582940030843,0,0,1.2713210815429687,0,0,0.91728
0.18960433700704016,0,0,1.2856862915039062,0,0,0.91728
0.19240239899954759,0,0,1.2880804931640624,0,0,0.53508
0.19519449799554422,0,0,1.3335703247070312,0,0,1.1465999999999998
0.1979889859794639,0,0,1.0893617553710937,0,0,0.6115200000000001
0.20078317800653167,0,0,1.0773907470703123,0,0,0.91728
0.20357672098907642,0,0,1.2976572998046874,0,0,0.84084
0.20637254300527275,0,0,1.3479355346679687,0,0,0.7644
0.2091677160060499,0,0,1.254561669921875,0,0,0.84084
0.21196337000583299,0,0,1.1611878051757811,0,0,0.3822
0.21475659898715094,0,0,1.3287819213867187,0,0,0.84084
0.21755256899632514,0,0,1.350329736328125,0,0,0.68796
0.22044840699527413,0,0,1.3024457031249999,0,0,0.53508
0.2234426710056141,0,0,1.2713210815429687,0,0,0.91728
0.22660643298877403,0,0,1.4245499877929686,0,0,1.07016
0.22972395399119705,0,0,1.3096283081054687,0,0,1.07016
0.2328759380034171,0,0,1.2425906616210938,0,0,0.91728
0.2359888489881996,0,0,1.2928688964843749,0,0,0.7644
0.23909986999933608,0,0,1.3215993164062498,0,0,0.68796
0.2422176880063489,0,0,1.3239935180664062,0,0,0.7644
0.2453319499909412,0,0,1.3527239379882812,0,0,0.91728
0.24844337897957303,0,0,1.3335703247070312,0,0,1.07016
0.25154865998774767,0,0,1.1037269653320312,0,0,0.91728
0.25469229300506413,0,0,1.1180921752929687,0,0,0.91728
0.2578246659832075,0,0,1.3072341064453123,0,0,0.91728
0.2609404649992939,0,0,1.3144167114257812,0,0,0.68796
0.26406002399744466,0,0,1.2617442749023438,0,0,0.6115200000000001
0.26717273000394925,0,0,1.1252747802734375,0,0,0.91728
0.2702871410001535,0,0,1.4508862060546874,0,0,0.7644
0.27340312500018626,0,0,1.1851298217773436,0,0,0.99372
0.27651992498431355,0,0,1.2282254516601563,0,0,0.53508
0.27965694598970003,0,0,1.4772224243164063,0,0,0.68796
0.2827728929987643,0,0,1.5011644409179687,0,0,0.68796
0.2858727849961724,0,0,1.369483349609375,0,0,0.3822
0.2921802719938569,0,0,1.3670891479492187,0,0,0.84084
0.29529403400374576,0,0,1.3575123413085937,0,0,0.68796
0.2984065559867304,0,0,1.3383587280273437,0,0,0.07644000000000001
0.302905599004589,0,0,1.2378022583007813,0,0,0.68796
0.3060441389970947,0,0,1.3192051147460937,0,0,0.7644
0.30916545700165443,0,0,1.2617442749023438,0,0,0.68796
0.31229258998064324,0,0,1.4149731811523436,0,0,0.6115200000000001
0.31538507400546223,0,0,1.3215993164062498,0,0,0.6115200000000001
0.31850433599902317,0,0,1.3311761230468748,0,0,0.84084
0.3217577640025411,0,0,1.2952630981445312,0,0,0.22932
0.3246061219833791,0,0,1.3168109130859373,0,0,0.6115200000000001
0.32740122100221924,0,0,1.1755530151367186,0,0,0.7644
0.33019798700115643,0,0,1.1851298217773436,0,0,0.6115200000000001
0.3329991409846116,0,0,1.2521674682617188,0,0,0.91728
0.3357973139791284,0,0,1.0821791503906248,0,0,0.7644
0.3385932279925328,0,0,1.2713210815429687,0,0,0.7644
0.34139775298535824,0,0,1.388636962890625,0,0,0.53508
0.34419781499309465,0,0,1.3575123413085937,0,0,0.99372
0.3469915619934909,0,0,1.1947066284179686,0,0,0.84084
0.349788958003046,0,0,1.2713210815429687,0,0,0.68796
0.35258657499798574,0,0,1.3383587280273437,0,0,0.99372
0.3553804339899216,0,0,1.4341267944335936,0,0,0.7644
0.35819473600713536,0,0,1.2856862915039062,0,0,0.84084
0.36099133497918956,0,0,1.2689268798828124,0,0,0.84084
0.3637916749867145,0,0,1.3766659545898436,0,0,1.07016
0.3665905149828177,0,0,1.2785036865234374,0,0,0.7644
0.3693857069883961,0,0,1.3168109130859373,0,0,0.99372
0.3725765239796601,0,0,1.2497732666015624,0,0,0.7644
0.3755058810056653,0,0,1.22583125,0,0,0.45864
0.3783226459927391,0,0,1.2497732666015624,0,0,0.7644
0.3811086530040484,0,0,1.3192051147460937,0,0,-9.09636
0.3839209550060332,0,0,1.3359645263671873,0,0,0.6115200000000001
0.38669810999999754,0,0,1.3263877197265623,0,0,0.6115200000000001
0.38948133899248205,0,0,1.3000515014648437,0,0,0.84084
0.3922720309928991,0,0,1.197100830078125,0,0,0.68796
0.3950517409830354,0,0,1.0726023437499999,0,0,0.53508
0.3978348959935829,0,0,1.2665326782226562,0,0,0.7644
0.40063488399027847,0,0,1.22583125,0,0,0.7644
0.4034126689948607,0,0,1.0869675537109373,0,0,0.84084
0.4062130639795214,0,0,1.2473790649414063,0,0,0.6115200000000001
0.4090097929874901,0,0,1.2473790649414063,0,0,0.53508
0.4118078549799975,0,0,1.2641384765625,0,0,0.7644
0.4146037689934019,0,0,1.2473790649414063,0,0,0.7644
0.41740040498552844,0,0,1.369483349609375,0,0,0.91728
0.42032464998192154,0,0,1.426944189453125,0,0,0.68796
0.4232015259913169,0,0,1.3263877197265623,0,0,0.91728
0.42631514099775814,0,0,1.0773907470703123,0,0,0.91728
0.42942855099681765,0,0,1.2425906616210938,0,0,0.6115200000000001
0.4325425169954542,0,0,1.3527239379882812,0,0,0.7644
0.4356554279802367,0,0,1.1061211669921875,0,0,0.53508
0.43876930099213496,0,0,1.3263877197265623,0,0,1.1465999999999998
0.4419148039887659,0,0,1.4867992309570313,0,0,0.91728
0.4450285659986548,0,0,1.4245499877929686,0,0,0.91728
0.4481597720005084,0,0,1.2378022583007813,0,0,0.68796
0.4512720719794743,0,0,1.2904746948242187,0,0,0.84084
0.4543873340007849,0,0,1.3024457031249999,0,0,0.84084
0.45750129999942146,0,0,1.3718775512695311,0,0,0.99372
0.4606175069930032,0,0,1.3096283081054687,0,0,1.2230400000000001
0.4638920449942816,0,0,1.2401964599609374,0,0,0.91728
0.4670243999862578,0,0,1.3024457031249999,0,0,0.7644
0.4701412179856561,0,0,1.2593500732421874,0,0,0.53508
0.4732562209828757,0,0,1.4125789794921875,0,0,-9.09636
0.476374574995134,0,0,1.5921441040039062,0,0,0.7644
0.4794886529853102,0,0,1.35990654296875,0,0,0.91728
0.48260256298817694,0,0,1.2832920898437499,0,0,0.68796
0.485716806986602,0,0,1.2521674682617188,0,0,0.53508
0.4888746429933235,0,0,1.1348515869140625,0,0,0.53508
0.49199138599215075,0,0,1.3144167114257812,0,0,0.68796
0.49510977798490785,0,0,1.5011644409179687,0,0,0.6115200000000001
0.498436705005588,0,0,1.3934253662109375,0,0,0.99372
0.5015576519945171,0,0,1.3383587280273437,0,0,0.91728
0.515136984991841,0,0,1.2641384765625,0,0,0.68796
0.5184029679803643,0,0,1.3742717529296875,0,0,20
0.5215517669857945,0,0,1.1156979736328125,0,0,0.91728
0.5246522329980507,0,0,1.22583125,0,0,1.07016
0.5280541219981387,0,0,1.4915876342773438,0,0,0.7644
0.5312229759874754,0,0,1.189918225097656,0,0,0.99372
0.5343278129876126,0,0,1.1180921752929687,0,0,0.7644
0.537425408983836,0,0,1.2617442749023438,0,0,1.2230400000000001
0.5405240230029449,0,0,1.235408056640625,0,0,0.84084
0.5436482850054745,0,0,1.3551181396484375,0,0,0.7644
0.5467556029907428,0,0,1.2569558715820313,0,0,0.7644
0.5498641989834141,0,0,1.6448165405273436,0,0,0.84084
0.5532581619918346,0,0,1.1252747802734375,0,0,0.6115200000000001
0.5564020900055766,0,0,1.3383587280273437,0,0,0.45864
0.559530537982937,0,0,1.4724340209960938,0,0,0.84084
0.5626538549840916,0,0,1.4915876342773438,0,0,0.6115200000000001
0.5658818569791038,0,0,1.3192051147460937,0,0,0.7644
0.569005526980618,0,0,1.2569558715820313,0,0,0.22932
0.5721233079966623,0,0,1.0797849487304687,0,0,0.7644
0.5753404579882044,0,0,1.13006318359375,0,0,0.7644
0.5784464419994038,0,0,1.3670891479492187,0,0,0.30576000000000003
0.5815443339815829,0,0,1.3575123413085937,0,0,0.68796
0.5847525770077482,0,0,1.4173673828125,0,0,0.6115200000000001
0.5879819309921004,0,0,1.0941501586914062,0,0,0.68796
0.5910991370037664,0,0,1.2306196533203124,0,0,0.84084
0.5942141959967557,0,0,1.3120225097656248,0,0,0.68796
0.5973426800046582,0,0,1.2761094848632812,0,0,0.84084
0.6004580720036756,0,0,1.4173673828125,0,0,0.84084
0.6035698339983355,0,0,1.4987702392578124,0,0,0.68796
0.6066832449869253,0,0,1.3024457031249999,0,0,0.6115200000000001
0.6098413220024668,0,0,1.2713210815429687,0,0,0.45864
0.6130026019818615,0,0,1.4030021728515625,0,0,0.7644
0.6161258269858081,0,0,1.446097802734375,0,0,0.6115200000000001
0.6192506819788832,0,0,1.235408056640625,0,0,0.91728
0.6223676849913318,0,0,1.2497732666015624,0,0,0.68796
0.6254868359828833,0,0,1.3239935180664062,0,0,0.84084
0.6286050060007256,0,0,1.22583125,0,0,0.91728
0.6317212859867141,0,0,1.216254443359375,0,0,0.53508
0.6348402339790482,0,0,1.2401964599609374,0,0,0.68796
0.6379544399969745,0,0,1.4101847778320311,0,0,0.7644
0.6410674249927979,0,0,1.3359645263671873,0,0,0.7644
0.6441902429796755,0,0,1.254561669921875,0,0,0.6115200000000001
0.6473170229874086,0,0,1.2569558715820313,0,0,0.91728
0.6504329339950345,0,0,1.3551181396484375,0,0,0.6115200000000001
0.6535480289894622,0,0,1.3479355346679687,0,0,0.3822
0.656693679979071,0,0,1.5179238525390624,0,0,0.7644
0.6598108129983302,0,0,1.5227122558593749,0,0,0.68796
0.6629253709979821,0,0,1.24498486328125,0,0,0.68796
0.6660391149925999,0,0,1.3239935180664062,0,0,0.6115200000000001
0.6691522659966722,0,0,1.2665326782226562,0,0,0.6115200000000001
0.6722665099950973,0,0,1.1611878051757811,0,0,0.53508
0.6753842909820378,0,0,1.2713210815429687,0,0,1.07016
0.678558793006232,0,0,1.43652099609375,0,0,0.99372
0.681676537002204,0,0,1.4149731811523436,0,0,0.7644
0.6847920959990006,0,0,1.1540052001953125,0,0,0.53508
0.6879078759811819,0,0,1.3239935180664062,0,0,0.84084
0.6910280459851492,0,0,1.2808978881835937,0,0,0.7644
0.6941424009855837,0,0,1.2808978881835937,0,0,0.6115200000000001
0.6972572559898254,0,0,1.2521674682617188,0,0,1.2230400000000001
0.7003725179820322,0,0,1.37906015625,0,0,1.07016
0.7034847429895308,0,0,1.446097802734375,0,0,1.1465999999999998
0.7065988020040095,0,0,1.20667763671875,0,0,0.68796
0.7097136009833775,0,0,1.3168109130859373,0,0,0.84084
0.7128701960027684,0,0,1.4939818359375,0,0,0.53508
0.7160119949840009,0,0,1.22583125,0,0,0.68796
0.7191244610003196,0,0,1.0917559570312498,0,0,0.91728
0.7222738709824625,0,0,1.4437036010742186,0,0,0.6115200000000001
0.725389818981057,0,0,1.2282254516601563,0,0,0.68796
0.7285107109928504,0,0,1.2904746948242187,0,0,0.6115200000000001
0.731651009991765,0,0,1.2306196533203124,0,0,0.7644
0.7347689019807149,0,0,1.2282254516601563,0,0,1.1465999999999998
0.7378831449896097,0,0,1.369483349609375,0,0,0.7644
0.7409979449876118,0,0,1.3670891479492187,0,0,0.7644
0.744112207001308,0,0,1.2737152832031249,0,0,0.7644
0.74722382100299,0,0,1.2928688964843749,0,0,0.53508
0.750383767997846,0,0,1.1133037719726562,0,0,0.68796
0.7535002710064873,0,0,1.2928688964843749,0,0,0.68796
0.7566353300062474,0,0,1.369483349609375,0,0,0.6115200000000001
0.7597837770008482,0,0,1.3527239379882812,0,0,0.53508
0.762898001994472,0,0,1.3646949462890625,0,0,0.45864
0.7660115599865094,0,0,1.2306196533203124,0,0,0.99372
0.7691243779845536,0,0,1.1180921752929687,0,0,1.07016
0.772708264994435,0,0,1.2473790649414063,0,0,1.07016
0.775927323003998,0,0,1.369483349609375,0,0,0.91728
0.779027362994384,0,0,1.3335703247070312,0,0,1.07016
0.7821254589944147,0,0,1.2306196533203124,0,0,0.0
0.78522401698865,0,0,1.254561669921875,0,0,0.53508
0.7883361309941392,0,0,1.3144167114257812,0,0,0.91728
0.7922636999865063,0,0,1.2665326782226562,0,0,0.91728
0.7954170540033374,0,0,1.2569558715820313,0,0,0.45864
0.798518741998123,0,0,1.3144167114257812,0,0,0.7644
0.8016832449939102,0,0,1.3048399047851562,0,0,0.68796
0.8049120430077892,0,0,1.350329736328125,0,0,0.84084
0.8080411569972057,0,0,1.467645617675781,0,0,0.99372
0.8111501229868736,0,0,1.4173673828125,0,0,0.91728
0.8142639409925323,0,0,1.3718775512695311,0,0,0.99372
0.817377036990365,0,0,1.3144167114257812,0,0,1.07016
0.8204913729859982,0,0,1.3479355346679687,0,0,0.53508
0.8236814310075715,0,0,1.3048399047851562,0,0,0.7644
0.8267983969999477,0,0,1.3239935180664062,0,0,1.07016
0.8299132699903566,0,0,1.43652099609375,0,0,1.07016
0.8330274769978132,0,0,1.2880804931640624,0,0,1.07016
0.8361424799950328,0,0,1.1276689819335937,0,0,0.53508
0.8392551119904965,0,0,1.3383587280273437,0,0,0.68796
0.8423677450045943,0,0,1.3670891479492187,0,0,0.7644
0.8454816000012215,0,0,1.2976572998046874,0,0,0.6115200000000001
0.8485990100016352,0,0,1.1611878051757811,0,0,0.7644
0.8520477690035477,0,0,1.3192051147460937,0,0,0.84084
0.8553101219877135,0,0,1.0965443603515623,0,0,2.36964
0.8592049870057963,0,0,1.3623007446289062,0,0,1.1465999999999998
0.8624364149873145,0,0,1.3862427612304686,0,0,0.6115200000000001
0.865673786989646,0,0,1.13006318359375,0,0,0.68796
0.8689111029962078,0,0,1.3096283081054687,0,0,0.3822
0.8721439749933779,0,0,1.5083470458984374,0,0,0.99372
0.8755163089954294,0,0,1.2761094848632812,0,0,2.2931999999999997
0.8787140699860174,0,0,1.8004396484374998,0,0,2.06388
0.881965089996811,0,0,2.039859814453125,0,0,1.60524
0.8851756289950572,0,0,2.987963671875,0,0,1.2230400000000001
0.8883338169835042,0,0,1.697488977050781,0,0,0.91728
0.8914443389803637,0,0,1.484405029296875,0,0,1.07016
0.8945524709997699,0,0,1.5729904907226562,0,0,1.45236
0.8976475299859885,0,0,1.7549498168945312,0,0,0.30576000000000003
0.9007525329943746,0,0,1.8818425048828125,0,0,1.37592
0.9038617959886324,0,0,1.8698714965820311,0,0,1.2994800000000002
0.9075553669827059,0,0,1.9656395629882812,0,0,1.1465999999999998
0.9106890359835234,0,0,1.7453730102539062,0,0,1.2994800000000002
0.9137877979956102,0,0,1.70467158203125,0,0,1.37592
0.9169185789942276,0,0,1.8842367065429686,0,0,1.2994800000000002
0.9200080269947648,0,0,1.5945383056640625,0,0,0.91728
0.9230928639881313,0,0,1.7788918334960937,0,0,1.60524
0.9262055699946359,0,0,2.2481553588867187,0,0,1.1465999999999998
0.9287709679920226,0,0,1.4796166259765624,0,0,0.6115200000000001
0.9313064400048461,0,0,1.7262193969726563,0,0,0.91728
0.9338433759985492,0,0,1.7334020019531249,0,0,1.07016
0.9363745699811261,0,0,1.16837041015625,0,0,1.5288
0.9388921909849159,0,0,1.8746598999023436,0,0,2.2931999999999997
0.9414459039981011,0,0,1.8052280517578123,0,0,1.83456
0.9439838019898161,0,0,2.319981408691406,0,0,1.2994800000000002
0.9465165339934174,0,0,1.8435352783203125,0,0,0.30576000000000003
0.9490502099797595,0,0,2.152387292480469,0,0,1.37592
0.9515841449901927,0,0,1.3383587280273437,0,0,1.1465999999999998
0.954120783979306,0,0,1.22583125,0,0,1.2230400000000001
0.9566561449901201,0,0,1.2641384765625,0,0,2.5989600000000004
0.9591904319822788,0,0,2.5641899780273434,0,0,2.4460800000000003
0.9617264599946793,0,0,2.1116858642578125,0,0,1.1465999999999998
0.9642643400002271,0,0,1.6256629272460936,0,0,0.7644
0.9668005339917727,0,0,2.3032219970703123,0,0,1.75812
0.9693355069903191,0,0,2.2864625854492187,0,0,0.84084
0.9718714790069498,0,0,1.0582371337890624,0,0,0.53508
0.9744165439915378,0,0,2.020706201171875,0,0,2.2167600000000003
0.9769567199982703,0,0,2.408566870117187,0,0,2.14032
0.9794915439852048,0,0,1.139639990234375,0,0,0.99372
0.9820133679895662,0,0,1.7238251953125,0,0,0.99372
0.9845452849986032,0,0,2.4899697265625,0,0,1.2994800000000002
0.9870786829851568,0,0,0.9648632690429687,0,0,0.84084
0.9896289329917636,0,0,1.3646949462890625,0,0,0.45864
0.9922497009974904,0,0,2.446874096679687,0,0,1.5288
0.9947885249857791,0,0,1.6136919189453125,0,0,1.75812
0.9973148489953019,0,0,1.848323681640625,0,0,1.07016
0.9999112649820745,0,0,1.5346832641601562,0,0,1.2230400000000001
1.0025765330065042,0,0,1.484405029296875,0,0,1.98744
1.0052098000014666,0,0,2.3582886352539063,0,0,1.68168
1.007953047985211,0,0,1.9656395629882812,0,0,0.7644
1.0105634270003065,0,0,2.4061726684570313,0,0,0.0
1.0131849169847555,0,0,1.62805712890625,0,0,0.7644
1.0158397769846488,0,0,2.7461493041992187,0,0,1.2230400000000001
1.0185136919899378,0,0,1.5466542724609373,0,0,0.45864
1.0211144039931241,0,0,1.5849614990234373,0,0,0.6115200000000001
1.02371522798785,0,0,2.0063409912109376,0,0,1.60524
1.0264218089869246,0,0,2.7964275390625,0,0,3.0576
1.029480572004104,0,0,1.16837041015625,0,0,1.5288
1.0326210189959966,0,0,0.9911994873046874,0,0,0.0
1.0357761879859027,0,0,2.288856787109375,0,0,1.5288
1.0388958579860628,0,0,1.5825672973632812,0,0,1.2230400000000001
1.0420157680055127,0,0,1.254561669921875,0,0,0.84084
1.0451350119838025,0,0,2.626439221191406,0,0,2.6754
1.048290532984538,0,0,1.4221557861328125,0,0,0.45864
1.0514179070014507,0,0,0.1484405029296875,0,0,1.37592
1.0551710879954044,0,0,3.6535517333984373,0,0,2.6754
1.0584176630072761,0,0,1.0869675537109373,0,0,1.07016
1.06158996198792,0,0,0.82360537109375,0,0,1.83456
1.0647306129976641,0,0,4.125209460449218,0,0,2.52252
1.0679542440047953,0,0,0.8355763793945312,0,0,-1.2994800000000002
1.071149024006445,0,0,1.0366893188476562,0,0,0.45864
1.0743683409818914,0,0,1.5346832641601562,0,0,1.1465999999999998
1.0775827689794824,0,0,-0.9983820922851562,0,0,0.3822
1.0808775659825187,0,0,2.592920397949219,0,0,2.06388
1.0841866599803325,0,0,1.2425906616210938,0,0,0.15288000000000002
1.0874231990019325,0,0,2.252943762207031,0,0,1.60524
1.0907429769868031,0,0,2.4779987182617185,0,0,0.3822
1.0940081639855634,0,0,-1.1276689819335937,0,0,1.2994800000000002
1.0972849800018594,0,0,2.913743420410156,0,0,1.911
1.1005558879987802,0,0,0.06464344482421874,0,0,0.07644000000000001
1.103870649007149,0,0,1.7334020019531249,0,0,1.60524
1.107146908994764,0,0,2.9855694702148434,0,0,0.0
1.110435502982,0,0,-0.02154781494140625,0,0,0.84084
1.1137223739933688,0,0,2.5474305664062498,0,0,0.45864
1.1170243379892781,0,0,0.20350714111328125,0,0,1.1465999999999998
1.1202243029838428,0,0,2.6815058593749996,0,0,2.06388
1.123401805991307,0,0,1.3024457031249999,0,0,-0.91728
1.126648881006986,0,0,0.603338818359375,0,0,0.68796
1.1292492229840718,0,0,2.2481553588867187,0,0,1.60524
1.1306376339925919,0,0,1.7693150268554687,0,0,0.68796
1.1320253970043268,0,0,0.8595183959960937,0,0,0.3822
1.1334122520056553,0,0,-0.5482721801757812,0,0,-1.1465999999999998
1.1348023109894712,0,0,0.16280571289062498,0,0,0.15288000000000002
1.1361907770042308,0,0,2.2481553588867187,0,0,2.2931999999999997
1.1375775579945184,0,0,2.7820623291015623,0,0,1.98744
1.138963931996841,0,0,2.185906115722656,0,0,1.45236
1.1403508980001789,0,0,0.5243301635742187,0,0,1.75812
1.1417372529977001,0,0,-0.201112939453125,0,0,-0.84084
1.1431247940054163,0,0,0.373495458984375,0,0,0.53508
1.1445116119866725,0,0,2.73896669921875,0,0,1.45236
1.1458976519934367,0,0,2.9927520751953125,0,0,1.75812
1.1472834890009835,0,0,1.5466542724609373,0,0,1.37592
1.1486703809932806,0,0,0.26815058593749996,0,0,0.30576000000000003
1.1500566809845623,0,0,-0.9050082275390624,0,0,-0.53508
1.1514452589908615,0,0,1.0845733520507812,0,0,0.0
1.15283346598153,0,0,1.7812860351562498,0,0,0.91728
1.1542200989788398,0,0,2.1356278808593747,0,0,1.45236
1.1556065839831717,0,0,1.8339584716796873,0,0,1.37592
1.156993587006582,0,0,0.7733271362304687,0,0,0.91728
1.1583795720071066,0,0,0.37828386230468747,0,0,1.07016
1.1597674450022168,0,0,1.6065093139648436,0,0,1.2230400000000001
1.1611532449896913,0,0,2.2936451904296873,0,0,0.84084
1.1625389519904274,0,0,2.2601263671875,0,0,1.45236
1.1639248999999836,0,0,2.0973206542968748,0,0,1.2994800000000002
1.165311088989256,0,0,0.43574470214843747,0,0,-0.84084
1.1666982960014138,0,0,0.5434837768554687,0,0,0.45864
1.168085373006761,0,0,1.448492004394531,0,0,1.2230400000000001
1.1694708389986772,0,0,1.7405846069335937,0,0,0.84084
1.1708569169859402,0,0,1.1133037719726562,0,0,0.7644
1.1722415130061563,0,0,0.4285620971679687,0,0,0.91728
1.173676553007681,0,0,0.10295067138671875,0,0,-0.7644
1.1750751859799493,0,0,0.63206923828125,0,0,0.84084
1.1764606889919378,0,0,2.269703173828125,0,0,1.911
1.1778401930059772,0,0,2.3870190551757813,0,0,2.2167600000000003
1.1792200109921396,0,0,1.5490484741210937,0,0,1.2230400000000001
1.1806013849854935,0,0,0.7134720947265625,0,0,0.68796
1.1819800550001673,0,0,-0.25139117431640623,0,0,0.0
1.1833603359991685,0,0,1.9656395629882812,0,0,-9.555
1.1847419689875096,0,0,2.1068974609374997,0,0,1.2230400000000001
1.1861203979933634,0,0,1.2928688964843749,0,0,1.1465999999999998
1.1875007170019671,0,0,1.197100830078125,0,0,0.84084
1.188888478995068,0,0,0.7015010864257812,0,0,-0.6115200000000001
1.1902750750014093,0,0,0.852335791015625,0,0,1.2994800000000002
1.1916629119950812,0,0,2.0470424194335934,0,0,1.2230400000000001
1.1930489520018455,0,0,1.7166425903320313,0,0,1.2994800000000002
1.1944344560033642,0,0,1.1635820068359375,0,0,1.1465999999999998
1.1958217000064906,0,0,0.9433154541015625,0,0,0.68796
1.1972070180054288,0,0,0.3399766357421875,0,0,0.30576000000000003
1.1985929289949127,0,0,1.5107412475585937,0,0,1.2230400000000001
1.1999797470052727,0,0,2.703053674316406,0,0,2.4460800000000003
1.2013651209999807,0,0,2.3056161987304686,0,0,1.5288
1.202750512980856,0,0,1.139639990234375,0,0,0.53508
1.2041369049984496,0,0,0.10295067138671875,0,0,0.6115200000000001
1.2055225200019777,0,0,0.23223756103515625,0,0,-0.45864
1.2069153749907855,0,0,1.618480322265625,0,0,0.6115200000000001
1.208314433984924,0,0,2.549824768066406,0,0,1.98744
1.209700603998499,0,0,2.5953145996093747,0,0,1.68168
1.211097477003932,0,0,0.239420166015625,0,0,0.3822
1.212484999006847,0,0,-0.3950432739257812,0,0,0.45864
1.213873076980235,0,0,-0.86191259765625,0,0,0.0
1.215259969001636,0,0,2.463633508300781,0,0,0.53508
1.2166473609977402,0,0,2.9759926635742184,0,0,2.4460800000000003
1.2180335870070849,0,0,3.35188232421875,0,0,1.68168
1.2194198129873257,0,0,1.5083470458984374,0,0,1.07016
1.2208064830047078,0,0,0.3112462158203125,0,0,-0.68796
1.2221928929793648,0,0,0.29448680419921874,0,0,0.53508
1.2235787859826814,0,0,1.8100164550781248,0,0,0.53508
1.2249645479896571,0,0,2.1835119140624997,0,0,1.83456
1.2263503480062354,0,0,1.5825672973632812,0,0,1.2994800000000002
1.2277521659852937,0,0,1.189918225097656,0,0,0.3822
1.2291385949938558,0,0,-0.4908113403320312,0,0,-1.1465999999999998
1.2305261169967707,0,0,0.9002198242187499,0,0,1.07016
1.2319128059898503,0,0,2.262520568847656,0,0,1.83456
1.23329808699782,0,0,2.674323254394531,0,0,1.60524
1.2346844050043728,0,0,1.419761584472656,0,0,0.3822
1.236071222985629,0,0,0.14604630126953125,0,0,0.53508
1.237456429982558,0,0,-0.11252747802734374,0,0,-0.7644
1.238843729981454,0,0,1.4628572143554686,0,0,0.91728
1.2402300669928081,0,0,2.559401574707031,0,0,2.2167600000000003
1.241615514998557,0,0,2.748543505859375,0,0,1.60524
1.2430017769802362,0,0,0.8954314208984374,0,0,0.07644000000000001
1.2443879839847796,0,0,-0.45010991210937495,0,0,-0.45864
1.2457766360021196,0,0,-0.7398083129882812,0,0,-0.45864
1.247163546999218,0,0,2.8562825805664063,0,0,0.15288000000000002
1.248548364994349,0,0,3.27526787109375,0,0,2.52252
1.2501235700037796,0,0,1.7022773803710936,0,0,2.06388
1.251542313984828,0,0,0.679953271484375,0,0,1.1465999999999998
1.2529298349982128,0,0,-0.373495458984375,0,0,-1.2994800000000002
1.2543196720071137,0,0,0.05746083984375,0,0,0.45864
1.255708101001801,0,0,1.8626888916015625,0,0,1.60524
1.2570945489860605,0,0,3.6463691284179687,0,0,2.36964
1.2584827929968014,0,0,2.3127988037109373,0,0,1.45236
1.2598697780049406,0,0,1.4149731811523436,0,0,1.37592
1.2612549669865984,0,0,-1.2306196533203124,0,0,-1.1465999999999998
1.2626422479806934,0,0,0.0143652099609375,0,0,-0.30576000000000003
1.2640293989970814,0,0,2.674323254394531,0,0,1.60524
1.265415292000398,0,0,3.294421484375,0,0,1.911
1.2668014429800678,0,0,2.1739351074218747,0,0,1.37592
1.2681879099982325,0,0,0.0047884033203125,0,0,0.91728
1.2695737649919465,0,0,-1.16837041015625,0,0,-0.7644
1.2709606940043159,0,0,0.03591302490234375,0,0,0.0
1.2723465859889984,0,0,2.518700146484375,0,0,1.75812
1.2737322929897346,0,0,3.3327287109375,0,0,1.68168
1.2751183520013,0,0,1.5107412475585937,0,0,1.83456
1.276504818990361,0,0,0.3232172241210937,0,0,0.22932
1.2778907289903145,0,0,-1.0534487304687499,0,0,0.53508
1.2792840290057939,0,0,1.350329736328125,0,0,0.30576000000000003
1.280670680978801,0,0,2.3151930053710936,0,0,1.60524
1.2820571099873632,0,0,2.310404602050781,0,0,1.2994800000000002
1.2834432429808658,0,0,1.8531120849609375,0,0,1.07016
1.2848288759996649,0,0,0.9983820922851562,0,0,0.0
1.2862146940024104,0,0,0.00239420166015625,0,0,0.30576000000000003
1.2875999009993393,0,0,1.4173673828125,0,0,0.91728
1.2889860160066746,0,0,2.8107927490234372,0,0,1.68168
1.290380833990639,0,0,2.133233679199219,0,0,1.5288
1.291769392992137,0,0,1.5634136840820312,0,0,1.07016
1.29315271100495,0,0,-1.235408056640625,0,0,-1.75812
1.294541010982357,0,0,-0.17956512451171874,0,0,-0.15288000000000002
1.2959287730045617,0,0,1.5634136840820312,0,0,0.45864
1.2973134249914438,0,0,3.5122938354492184,0,0,2.2167600000000003
1.2986992799851578,0,0,2.6982652709960937,0,0,1.60524
1.3000857830047607,0,0,0.4908113403320312,0,0,2.36964
1.3014713419834152,0,0,-1.3814543579101561,0,0,-0.84084
1.3028763459878974,0,0,-1.0414777221679687,0,0,-0.99372
1.3044008660071995,0,0,2.4013842651367185,0,0,1.60524
1.305793924984755,0,0,3.840299462890625,0,0,1.5288
1.3071800580073614,0,0,2.6048914062499997,0,0,1.911
1.3085779869870748,0,0,1.2234370483398436,0,0,0.30576000000000003
1.310008600994479,0,0,-0.7685387329101562,0,0,0.07644000000000001
1.311399566999171,0,0,0.5578489868164063,0,0,0.0
1.3129050879797433,0,0,2.636016027832031,0,0,1.2994800000000002
1.3143778679950628,0,0,2.308010400390625,0,0,1.60524
1.3157706309866626,0,0,2.0278888061523435,0,0,1.75812
1.3171606519899797,0,0,-0.38786066894531246,0,0,0.0
1.318548599985661,0,0,-0.11731588134765625,0,0,0.99372
1.3199377520068083,0,0,1.9823989746093749,0,0,1.2994800000000002
1.321323106996715,0,0,2.5234885498046875,0,0,0.7644
1.3227091839944478,0,0,2.0733786376953125,0,0,1.60524
1.3240961139963474,0,0,0.967257470703125,0,0,1.45236
1.3254817279812414,0,0,-0.12449848632812499,0,0,-0.68796
1.326870027987752,0,0,0.055066638183593745,0,0,0.07644000000000001
1.3282574019976892,0,0,2.2768857788085937,0,0,2.14032
1.3296435899974313,0,0,2.5163059448242184,0,0,1.45236
1.3310300009907223,0,0,1.446097802734375,0,0,1.5288
1.3324149120016955,0,0,0.34715924072265625,0,0,0.3822
1.3337994150060695,0,0,-0.852335791015625,0,0,-0.91728
1.3351996039855294,0,0,1.484405029296875,0,0,-0.45864
1.3366035700018983,0,0,2.4301146850585935,0,0,0.99372
1.3379903879831545,0,0,2.578555187988281,0,0,1.98744
1.3393765210057609,0,0,2.2026655273437497,0,0,2.2931999999999997
1.3407625799882226,0,0,0.9624690673828125,0,0,0.7644
1.3421487309969962,0,0,-0.8667010009765624,0,0,-0.22932
1.3435358089918736,0,0,0.5195417602539062,0,0,-0.6115200000000001
1.3449332010059152,0,0,3.086125939941406,0,0,0.68796
1.346319518983364,0,0,3.3111808959960936,0,0,1.75812
1.3477085779886693,0,0,3.0166940917968748,0,0,2.06388
1.3490956189925782,0,0,-0.23223756103515625,0,0,0.22932
1.3504820480011404,0,0,-0.8044517578125,0,0,0.0
1.351870829006657,0,0,0.852335791015625,0,0,0.53508
1.3532577579899225,0,0,1.898601916503906,0,0,0.22932
1.3546435019816272,0,0,1.9297265380859374,0,0,0.91728
1.3560300240060315,0,0,1.4101847778320311,0,0,1.911
1.3574205650074873,0,0,0.6177040283203125,0,0,0.3822
1.358806863980135,0,0,0.4477157104492187,0,0,1.45236
1.360193922999315,0,0,2.1835119140624997,0,0,2.14032
1.3615800380066503,0,0,1.9680337646484374,0,0,0.99372
1.3629672819806729,0,0,1.3862427612304686,0,0,0.91728
1.3643539699842222,0,0,0.7900865478515624,0,0,1.1465999999999998
1.3657401590025984,0,0,0.36631285400390623,0,0,-0.30576000000000003
1.367126939992886,0,0,2.0302830078125,0,0,-0.22932
1.3685133139952086,0,0,2.5378537597656248,0,0,1.75812
1.3698999469925184,0,0,1.9033903198242186,0,0,1.68168
1.3712860609812196,0,0,1.0486603271484374,0,0,0.6115200000000001
1.3726925649971236,0,0,-0.10773907470703124,0,0,0.22932
1.374076215986861,0,0,-0.44053310546874996,0,0,-0.6115200000000001
1.3754567010037135,0,0,1.4101847778320311,0,0,0.53508
1.3768579259922262,0,0,2.882618798828125,0,0,1.2230400000000001
1.3782374300062656,0,0,2.4660277099609376,0,0,1.37592
1.3796163410006557,0,0,1.9225439331054686,0,0,1.45236
1.3810073630011175,0,0,0.5363011718749999,0,0,0.45864
1.3823857920069713,0,0,0.06703764648437499,0,0,0.6115200000000001
1.3837667400075588,0,0,1.0223241088867188,0,0,1.45236
1.3851457620039582,0,0,2.31758720703125,0,0,1.07016
1.3865241169987712,0,0,1.7573440185546874,0,0,1.2230400000000001
1.3879096760065295,0,0,0.833182177734375,0,0,0.68796
1.389296364999609,0,0,0.4908113403320312,0,0,-0.30576000000000003
1.3906839239934925,0,0,0.5674257934570313,0,0,0.53508
1.3920717419823632,0,0,1.9776105712890624,0,0,1.75812
1.3934584670059849,0,0,1.9823989746093749,0,0,0.91728
1.3948456189827994,0,0,1.2617442749023438,0,0,1.2994800000000002
1.3962326780019794,0,0,0.8307879760742187,0,0,1.98744
1.3976193109992892,0,0,1.0390835205078124,0,0,0.30576000000000003
1.399005796003621,0,0,1.6304513305664061,0,0,0.91728
1.4003961319976952,0,0,1.8435352783203125,0,0,1.37592
1.4017831909877714,0,0,1.4604630126953124,0,0,0.6115200000000001
1.4031699349870905,0,0,1.4437036010742186,0,0,0.0
1.404557030997239,0,0,0.6775590698242188,0,0,1.07016
1.4059436639945488,0,0,0.3687070556640625,0,0,0.91728
1.4073307789803948,0,0,1.6352397338867186,0,0,0.68796
1.4087186160031706,0,0,1.9943699829101562,0,0,1.83456
1.410104988986859,0,0,1.455674609375,0,0,1.75812
1.4114916039980017,0,0,0.9720458740234375,0,0,0.6115200000000001
1.4128784030035604,0,0,0.02154781494140625,0,0,-0.3822
1.4142656289914157,0,0,0.5339069702148437,0,0,0.68796
1.4156529099855106,0,0,2.2840683837890623,0,0,1.07016
1.4170398949936498,0,0,3.3973721557617185,0,0,2.06388
1.4184262869821396,0,0,2.492363928222656,0,0,2.4460800000000003
1.4198133650061209,0,0,-0.13407529296874998,0,0,1.1465999999999998
1.4212020160048269,0,0,-1.0007762939453124,0,0,-1.83456
1.4225895940035116,0,0,-0.7038952880859375,0,0,0.0
1.4239776709873695,0,0,2.748543505859375,0,0,0.7644
1.4253635630011559,0,0,3.4955344238281247,0,0,-8.4084
1.426750844984781,0,0,1.5370774658203123,0,0,1.45236
1.4281379400053993,0,0,0.33518823242187495,0,0,1.83456
1.429523850994883,0,0,-0.6368576416015624,0,0,-0.45864
1.4309122060076334,0,0,1.2737152832031249,0,0,0.3822
1.4322991359804291,0,0,2.2026655273437497,0,0,1.07016
1.4336855279980227,0,0,3.0334535034179684,0,0,0.7644
1.43507260500337,0,0,1.9991583862304687,0,0,0.68796
1.4364594419894274,0,0,0.9720458740234375,0,0,0.53508
1.43784557498293,0,0,0.4860229370117187,0,0,0.07644000000000001
1.4392328189860564,0,0,1.8602946899414061,0,0,1.07016
1.4406191369926091,0,0,2.703053674316406,0,0,2.06388
1.4420058999967296,0,0,1.4867992309570313,0,0,1.911
1.443392736982787,0,0,0.6512228515624999,0,0,0.0
1.4447789620026015,0,0,-0.5434837768554687,0,0,-0.30576000000000003
1.4461667069990654,0,0,0.47644613037109373,0,0,0.0
1.4475809870054945,0,0,2.370259643554687,0,0,1.60524
1.448967731994344,0,0,3.1364041748046874,0,0,1.60524
1.4503538089920767,0,0,1.9847931762695312,0,0,2.52252
1.4517431459971704,0,0,-0.6679822631835937,0,0,0.53508
1.453130259993486,0,0,-1.3551181396484375,0,0,-1.2230400000000001
1.454517448990373,0,0,-0.507570751953125,0,0,0.91728
1.4559055449790321,0,0,3.536235852050781,0,0,1.1465999999999998
1.4572914549789857,0,0,4.165910888671875,0,0,1.45236
1.4586776070063934,0,0,3.1842882080078123,0,0,2.36964
1.4600654619862325,0,0,0.05746083984375,0,0,2.2167600000000003
1.4614519279857632,0,0,-1.5849614990234373,0,0,-1.2230400000000001
1.4628396359912585,0,0,1.218648645019531,0,0,-0.45864
1.4642267499875743,0,0,3.0214824951171875,0,0,1.37592
1.4656129939830862,0,0,4.103661645507812,0,0,1.2230400000000001
1.4669993679854088,0,0,2.114080065917969,0,0,0.99372
1.46838620500057,0,0,0.469263525390625,0,0,1.37592
1.4697728379978798,0,0,-1.1923124267578125,0,0,0.0
1.4711600820010062,0,0,0.5339069702148437,0,0,-0.45864
1.4725472329882905,0,0,1.8052280517578123,0,0,1.5288
1.47393392198137,0,0,2.5522189697265625,0,0,1.45236
1.4753202589927241,0,0,2.2098481323242187,0,0,1.2230400000000001
1.4767069660010748,0,0,0.0,0,0,0.84084
1.4780938579933718,0,0,-0.19632453613281248,0,0,0.68796
1.479481324000517,0,0,1.197100830078125,0,0,0.68796
1.480868067999836,0,0,2.7365724975585937,0,0,1.98744
1.4822553120029625,0,0,2.233790148925781,0,0,1.75812
1.4836425749817863,0,0,1.7597382202148437,0,0,0.7644
1.485029596980894,0,0,-0.0143652099609375,0,0,-0.30576000000000003
1.4864172480010893,0,0,-0.22026655273437498,0,0,0.3822
1.4878051779814996,0,0,2.2457611572265623,0,0,1.37592
1.4891911259910557,0,0,3.2632968627929686,0,0,1.45236
1.4905779440014157,0,0,2.6982652709960937,0,0,1.75812
1.4919655029952992,0,0,0.5291185668945312,0,0,2.2167600000000003
1.493351338984212,0,0,-1.254561669921875,0,0,-1.75812
1.4947394540067762,0,0,0.6584054565429687,0,0,0.0
1.496126882993849,0,0,2.2768857788085937,0,0,1.45236
1.4975128310034052,0,0,3.5338416503906247,0,0,1.5288
1.4988993339939043,0,0,2.578555187988281,0,0,2.06388
1.5002859859960154,0,0,1.5035586425781249,0,0,2.82828
1.5016720260027796,0,0,-1.7788918334960937,0,0,-0.99372
1.5030593999836128,0,0,0.12449848632812499,0,0,-0.84084
1.5044462920050137,0,0,2.039859814453125,0,0,1.75812
1.5058329440071248,0,0,3.6822821533203123,0,0,1.37592
1.5072195399843622,0,0,2.7341782958984373,0,0,1.5288
1.5086060249886941,0,0,1.2234370483398436,0,0,0.7644
1.5100206939969212,0,0,-1.848323681640625,0,0,0.0
1.5114141609810758,0,0,-0.15562310791015624,0,0,9.01992
1.512802682002075,0,0,2.2673089721679687,0,0,0.6115200000000001
1.5141890379891265,0,0,2.5905261962890624,0,0,1.07016
1.5155756149906665,0,0,2.6431986328124997,0,0,1.5288
1.5169631190074142,0,0,0.5386953735351562,0,0,1.75812
1.51835023300373,0,0,-0.718260498046875,0,0,0.84084
1.5197581249813084,0,0,1.7118541870117185,0,0,1.2230400000000001
1.5211452579824254,0,0,2.77727392578125,0,0,1.37592
1.5225323360064067,0,0,2.5953145996093747,0,0,1.5288
1.5239197459886782,0,0,1.5634136840820312,0,0,1.60524
1.52530623099301,0,0,0.316034619140625,0,0,-0.91728
1.5266933639941271,0,0,0.7230489013671875,0,0,-0.30576000000000003
1.52808103399002,0,0,1.7980454467773437,0,0,1.2994800000000002
1.5294681859959383,0,0,2.645592834472656,0,0,0.68796
1.5308555589872412,0,0,1.908178723144531,0,0,1.45236
1.5322426549973898,0,0,1.158793603515625,0,0,1.68168
1.5336291029816493,0,0,-1.005564697265625,0,0,-0.6115200000000001
1.5350170139863621,0,0,0.70868369140625,0,0,0.30576000000000003
1.53640446200734,0,0,1.6998831787109374,0,0,1.45236
1.537810334993992,0,0,2.849099975585937,0,0,1.75812
1.539197709003929,0,0,2.272097375488281,0,0,1.75812
1.5405973049928434,0,0,0.14125789794921875,0,0,1.68168
1.5419842159899417,0,0,-1.1061211669921875,0,0,0.07644000000000001
1.5433716819970869,0,0,0.6081272216796875,0,0,0.0
1.5447581670014188,0,0,2.6288334228515624,0,0,1.07016
1.5461447999987286,0,0,2.4947581298828125,0,0,1.83456
1.5475311740010511,0,0,1.9009961181640624,0,0,1.45236
1.5489182329911273,0,0,-0.09576806640624999,0,0,0.0
1.5503058100002818,0,0,-0.967257470703125,0,0,0.3822
1.5516923499817494,0,0,1.5346832641601562,0,0,9.47856
1.5530709649901837,0,0,2.73896669921875,0,0,1.1465999999999998
1.5544849500001874,0,0,3.0238766967773434,0,0,1.98744
1.5559802849893458,0,0,2.0638018310546875,0,0,2.52252
1.5573699550004676,0,0,0.7685387329101562,0,0,0.0
1.5587577919941396,0,0,0.2442085693359375,0,0,0.53508
1.5601448139932472,0,0,1.0558429321289062,0,0,0.3822
1.5615307799889706,0,0,1.7932570434570312,0,0,0.0
1.5629166349826846,0,0,2.152387292480469,0,0,-0.15288000000000002
1.5643033419910353,0,0,2.2960393920898436,0,0,2.2167600000000003
1.5657247710041702,0,0,-0.24181436767578124,0,0,0.53508
1.567119533981895,0,0,0.6607996582031249,0,0,0.53508
1.568509295990225,0,0,1.0127473022460938,0,0,1.75812
1.569931521982653,0,0,1.3479355346679687,0,0,1.2230400000000001
1.5713189509988297,0,0,1.0773907470703123,0,0,0.6115200000000001
1.572729084000457,0,0,0.928950244140625,0,0,0.30576000000000003
1.5741090129886288,0,0,0.5865794067382812,0,0,1.07016
1.5755063499964308,0,0,2.291250988769531,0,0,1.5288
1.5768895199871622,0,0,2.4947581298828125,0,0,2.06388
1.5782682449789718,0,0,1.8004396484374998,0,0,2.14032
1.5796473780064844,0,0,0.32082302246093747,0,0,1.1465999999999998
1.5810262149898335,0,0,-0.38786066894531246,0,0,-1.68168
1.5824077559809666,0,0,-0.6081272216796875,0,0,-0.7644
1.5837902780040167,0,0,2.6671406494140624,0,0,0.68796
1.5851682439970318,0,0,2.920926025390625,0,0,1.1465999999999998
1.5865460069908295,0,0,1.0965443603515623,0,0,1.2230400000000001
1.5879251399892382,0,0,0.28012159423828126,0,0,1.83456
1.5893039210059214,0,0,-0.4070142822265625,0,0,-0.99372
1.5907041839964222,0,0,1.66636435546875,0,0,0.45864
1.592086742981337,0,0,2.3295582153320313,0,0,1.45236
1.5934649310074747,0,0,2.940079638671875,0,0,0.99372
1.5948436379840132,0,0,1.3958195678710936,0,0,1.2994800000000002
1.596245438006008,0,0,0.7805097412109374,0,0,2.14032
1.5976316260057501,0,0,-0.03591302490234375,0,0,-0.30576000000000003
1.5990196299972013,0,0,1.6352397338867186,0,0,0.45864
1.6004057629907038,0,0,2.3247698120117186,0,0,1.68168
1.6017915809934493,0,0,1.8746598999023436,0,0,1.1465999999999998
1.6031769730034284,0,0,1.20667763671875,0,0,0.68796
1.60456621699268,0,0,0.016759411621093748,0,0,0.7644
1.6059523870062549,0,0,-0.09816226806640624,0,0,1.07016
1.6075042589800432,0,0,2.3511060302734372,0,0,0.30576000000000003
1.608923355001025,0,0,2.501940734863281,0,0,1.75812
1.6103836169932038,0,0,1.9416975463867185,0,0,1.83456
1.6117799719795585,0,0,0.7110778930664062,0,0,1.75812
1.6133571579994168,0,0,-0.15322890625,0,0,-0.84084
1.6147865869861562,0,0,2.020706201171875,0,0,0.68796
1.6161754789936822,0,0,2.9975404785156248,0,0,2.14032
1.6175635200052056,0,0,2.463633508300781,0,0,0.68796
1.618951633980032,0,0,1.5251064575195312,0,0,1.07016
1.6203391379967798,0,0,0.5817910034179687,0,0,1.1465999999999998
1.621726215002127,0,0,-1.139639990234375,0,0,-1.07016
1.6231142369797453,0,0,1.158793603515625,0,0,0.15288000000000002
1.6245011290011462,0,0,3.6080619018554687,0,0,0.99372
1.6258875769854058,0,0,2.8610709838867185,0,0,1.5288
1.6272740059939679,0,0,1.62805712890625,0,0,0.99372
1.6286630279792007,0,0,-0.7038952880859375,0,0,-0.15288000000000002
1.6300508829881437,0,0,-0.8547299926757812,0,0,0.45864
1.63143818298704,0,0,1.199495031738281,0,0,0.0
1.6328255749831442,0,0,3.258508459472656,0,0,1.5288
1.6342123379872646,0,0,2.6982652709960937,0,0,1.75812
1.6355985270056408,0,0,1.0678139404296874,0,0,1.37592
1.6369849930051714,0,0,-0.3950432739257812,0,0,-0.30576000000000003
1.638372162997257,0,0,-0.7445967163085937,0,0,0.07644000000000001
1.6397591109853238,0,0,2.636016027832031,0,0,0.91728
1.6411455769848544,0,0,3.2920272827148436,0,0,1.1465999999999998
1.6425321360002272,0,0,1.0989385620117187,0,0,1.75812
1.6439192509860732,0,0,0.062249243164062495,0,0,1.37592
1.6453057540056761,0,0,-0.9816226806640624,0,0,-1.07016
1.646693182992749,0,0,1.5801730957031248,0,0,0.84084
1.6480809269996826,0,0,2.932897033691406,0,0,1.1465999999999998
1.6494656709837727,0,0,2.9281086303710935,0,0,1.98744
1.6508515639870893,0,0,1.8124106567382812,0,0,1.911
1.652239307994023,0,0,0.46208092041015625,0,0,1.83456
1.6536301999876741,0,0,-1.2880804931640624,0,0,-0.53508
1.6550269440049306,0,0,0.9409212524414062,0,0,-0.99372
1.656413799006259,0,0,3.5434184570312497,0,0,2.2167600000000003
1.6578053580014966,0,0,3.0526071166992184,0,0,1.07016
1.6591899909835774,0,0,2.6982652709960937,0,0,1.83456
1.6606313090014737,0,0,-0.354341845703125,0,0,1.37592
1.662021719996119,0,0,-1.3934253662109375,0,0,0.45864
1.6634170189790893,0,0,1.5634136840820312,0,0,-0.68796
1.6648049479990732,0,0,3.1292215698242187,0,0,1.75812
1.6661912849813234,0,0,2.4899697265625,0,0,1.75812
1.6675771769951098,0,0,1.4891934326171874,0,0,1.2994800000000002
1.6689637179952115,0,0,-0.40462008056640625,0,0,-0.99372
1.6703509429935366,0,0,-1.1755530151367186,0,0,0.07644000000000001
1.671739686978981,0,0,1.5466542724609373,0,0,0.07644000000000001
1.6731261539971456,0,0,2.980781066894531,0,0,0.68796
1.6745125459856354,0,0,2.6958710693359373,0,0,2.36964
1.6758991050010081,0,0,1.707065783691406,0,0,2.36964
1.6772841819911264,0,0,-0.0143652099609375,0,0,-0.53508
1.6786710190062877,0,0,0.11731588134765625,0,0,-0.53508
1.6800581339921337,0,0,2.023100402832031,0,0,1.2994800000000002
1.6814459890010767,0,0,2.923320227050781,0,0,0.99372
1.6828318259795196,0,0,2.6096798095703124,0,0,1.45236
1.6842179030063562,0,0,1.5705962890624998,0,0,1.911
1.6856034619850107,0,0,-1.2976572998046874,0,0,-1.37592
1.6869912429829128,0,0,-0.1484405029296875,0,0,-0.84084
1.6883785800018813,0,0,2.901772412109375,0,0,1.45236
1.6897653240012005,0,0,2.952050646972656,0,0,1.45236
1.6911505869938992,0,0,2.5641899780273434,0,0,1.60524
1.692536830989411,0,0,-0.38786066894531246,0,0,1.98744
1.693923648999771,0,0,-1.4053963745117186,0,0,-0.45864
1.6953110409958754,0,0,-0.20350714111328125,0,0,-0.68796
1.696697969979141,0,0,3.584119885253906,0,0,2.2931999999999997
1.698084400006337,0,0,3.919308117675781,0,0,1.83456
1.6994707550038584,0,0,1.649604943847656,0,0,2.36964
1.7008569809840992,0,0,-0.507570751953125,0,0,0.84084
1.702254964999156,0,0,-2.085349645996094,0,0,-0.22932
1.7036426539998502,0,0,1.426944189453125,0,0,0.0
1.7050295459921472,0,0,3.1962592163085937,0,0,1.2994800000000002
1.7064159199944697,0,0,2.8107927490234372,0,0,2.06388
1.707803311990574,0,0,1.9416975463867185,0,0,1.68168
1.709188352979254,0,0,0.13646949462890623,0,0,-0.30576000000000003
1.7105746339948382,0,0,-0.814028564453125,0,0,-0.45864
1.7119633219845127,0,0,1.13006318359375,0,0,0.7644
1.7133555109903682,0,0,3.3638533325195312,0,0,0.99372
1.7147415509971324,0,0,3.0430303100585934,0,0,2.4460800000000003
1.7161286099872086,0,0,2.2290017456054687,0,0,3.4398000000000004
1.7175143909989856,0,0,-0.5674257934570313,0,0,9.47856
1.7189011169830337,0,0,-0.4213794921875,0,0,-0.7644
1.7202886939921882,0,0,0.9696516723632812,0,0,1.2994800000000002
1.7216792159888428,0,0,2.980781066894531,0,0,0.30576000000000003
1.7230654229933862,0,0,2.6216508178710938,0,0,1.37592
1.724451666988898,0,0,0.5243301635742187,0,0,1.83456
1.7258377079851925,0,0,-0.7062894897460937,0,0,-0.15288000000000002
1.727224710979499,0,0,-0.4525041137695312,0,0,-0.84084
1.728613213985227,0,0,1.9728221679687499,0,0,1.2994800000000002
1.7299996810033917,0,0,2.3415292236328122,0,0,1.68168
1.7313858879788313,0,0,1.7477672119140624,0,0,0.99372
1.7327727429801598,0,0,0.4165910888671875,0,0,1.1465999999999998
1.7341582840017509,0,0,-0.612915625,0,0,0.6115200000000001
1.7355447679874487,0,0,1.668758557128906,0,0,-0.53508
1.736931124003604,0,0,2.616862414550781,0,0,1.5288
1.7383176269941032,0,0,2.27927998046875,0,0,1.75812
1.73970457498217,0,0,2.020706201171875,0,0,1.83456
1.741090688999975,0,0,0.41419688720703124,0,0,-0.91728
1.742477321997285,0,0,-0.469263525390625,0,0,0.07644000000000001
1.7438646589871496,0,0,1.0271125122070313,0,0,0.91728
1.745257643982768,0,0,2.398990063476562,0,0,0.6115200000000001
1.7466444250021596,0,0,2.482787121582031,0,0,2.4460800000000003
1.7480315020075068,0,0,2.4109610717773435,0,0,2.14032
1.7494170239951927,0,0,-0.7805097412109374,0,0,-0.22932
1.7508039909880608,0,0,-0.8451531860351562,0,0,-0.53508
1.7521920499857515,0,0,0.5195417602539062,0,0,1.1465999999999998
1.753577867988497,0,0,3.2249896362304686,0,0,0.30576000000000003
1.7549640189972706,0,0,3.114856359863281,0,0,1.911
1.75635365198832,0,0,1.1827356201171875,0,0,2.75184
1.7577393219980877,0,0,-0.19632453613281248,0,0,-0.15288000000000002
1.759126140997978,0,0,-0.5674257934570313,0,0,-0.91728
1.7605130879965145,0,0,1.7022773803710936,0,0,0.53508
1.7618987030000426,0,0,2.408566870117187,0,0,0.53508
1.7632841320009902,0,0,2.176329309082031,0,0,0.84084
1.7646699689794332,0,0,0.9265560424804687,0,0,1.2230400000000001
1.7660555089823902,0,0,-0.011971008300781249,0,0,0.45864
1.7674417349917348,0,0,1.3144167114257812,0,0,-0.45864
1.768828237982234,0,0,2.133233679199219,0,0,1.60524
1.7702145380026195,0,0,2.3343466186523436,0,0,2.2931999999999997
1.7716084669809788,0,0,1.7094599853515624,0,0,1.2994800000000002
1.773003340989817,0,0,0.7493851196289062,0,0,0.84084
1.7743903069931548,0,0,0.36631285400390623,0,0,0.68796
1.7757824219879694,0,0,1.915361328125,0,0,0.7644
1.7771684250037652,0,0,2.8850130004882812,0,0,1.2230400000000001
1.7785538909956813,0,0,1.8267758666992187,0,0,2.06388
1.7799397649941966,0,0,1.4915876342773438,0,0,1.75812
1.7813258240057621,0,0,-0.9840168823242187,0,0,-1.60524
1.7827137529966421,0,0,-0.09816226806640624,0,0,0.0
1.7841014970035758,0,0,1.7621324218749999,0,0,1.75812
1.7854870749870315,0,0,2.6958710693359373,0,0,0.0
1.7868730039917864,0,0,1.7980454467773437,0,0,1.5288
1.7882593219983391,0,0,0.19632453613281248,0,0,1.68168
1.7896541219961364,0,0,-0.7110778930664062,0,0,-1.07016
1.7910411070042755,0,0,0.1005564697265625,0,0,0.0
1.7924267950002104,0,0,2.8898014038085935,0,0,2.14032
1.7938133539864793,0,0,2.942473840332031,0,0,0.45864
1.7951991349982563,0,0,2.291250988769531,0,0,1.37592
1.7966025279893074,0,0,0.5099649536132812,0,0,1.83456
1.797989382990636,0,0,-0.33518823242187495,0,0,-0.30576000000000003
1.7993764049897436,0,0,1.5562310791015623,0,0,-0.7644
1.8007626670005266,0,0,2.47081611328125,0,0,0.7644
1.8021488369849976,0,0,2.779668127441406,0,0,1.37592
1.8035346560063772,0,0,1.5801730957031248,0,0,2.4460800000000003
1.8057715570030268,0,0,-0.5003881469726562,0,0,9.01992
1.807175207999535,0,0,-0.17477672119140625,0,0,-0.3822
1.8085655639879405,0,0,1.9704279663085937,0,0,1.98744
1.8099648999923375,0,0,2.2361843505859373,0,0,0.30576000000000003
1.8113734219805337,0,0,1.637633935546875,0,0,0.7644
1.8127596470003482,0,0,0.7948749511718749,0,0,0.45864
1.8141440030012745,0,0,0.03591302490234375,0,0,0.91728
1.8155880789854564,0,0,2.7150246826171873,0,0,0.45864
1.8169763239857275,0,0,2.748543505859375,0,0,1.45236
1.8183632899890654,0,0,1.3646949462890625,0,0,1.75812
1.8197506639990024,0,0,1.0462661254882812,0,0,1.07016
1.8211508149979636,0,0,-0.5458779785156249,0,0,-2.2931999999999997
1.8225408739817794,0,0,0.3280056274414062,0,0,0.45864
1.8239290619967505,0,0,3.0214824951171875,0,0,0.53508
1.8253139359876513,0,0,2.9448680419921875,0,0,0.68796
1.8267002909851726,0,0,1.5059528442382812,0,0,1.98744
1.8280869239824824,0,0,0.9026140258789062,0,0,2.5989600000000004
1.8294728540058713,0,0,-1.9297265380859374,0,0,-1.75812
1.8308800419908948,0,0,-0.430956298828125,0,0,-0.6115200000000001
1.8322674160008319,0,0,3.9504327392578125,0,0,1.83456
1.8336702149827033,0,0,4.3263223999023435,0,0,0.99372
1.8350568669848144,0,0,3.220201232910156,0,0,1.83456
1.8364437779819127,0,0,-0.26815058593749996,0,0,2.98116
1.8378313370049,0,0,-2.023100402832031,0,0,-0.7644
1.8392180989903864,0,0,1.2282254516601563,0,0,-1.2994800000000002
1.840604472992709,0,0,3.337517114257812,0,0,0.99372
1.8419904579932336,0,0,4.094084838867187,0,0,1.07016
1.8433760909829289,0,0,1.8219874633789062,0,0,0.6115200000000001
1.8447626679844689,0,0,0.15562310791015624,0,0,0.53508
1.846149004995823,0,0,-0.9959878906249999,0,0,0.0
1.8475359339790884,0,0,1.0989385620117187,0,0,-0.45864
1.8489225859811995,0,0,2.389413256835937,0,0,1.5288
1.8503158109961078,0,0,2.269703173828125,0,0,1.98744
1.8518211469927337,0,0,1.6639701538085936,0,0,2.6754
1.853294778993586,0,0,-0.5817910034179687,0,0,-0.84084
1.854763577983249,0,0,-0.011971008300781249,0,0,0.3822
1.8562060249969363,0,0,3.5098996337890624,0,0,1.68168
1.8575934359978419,0,0,3.8379052612304685,0,0,0.7644
1.8589807350072078,0,0,2.6144682128906247,0,0,1.75812
1.860367090004729,0,0,-0.852335791015625,0,0,1.45236
1.8617549639893696,0,0,-2.243366955566406,0,0,-2.2167600000000003
1.8631426529900637,0,0,1.714248388671875,0,0,-1.75812
1.8645298779883888,0,0,3.890577697753906,0,0,1.68168
1.865916140988702,0,0,4.062960217285156,0,0,1.75812
1.867302236991236,0,0,1.5155296508789062,0,0,1.07016
1.8686888699885458,0,0,-0.47644613037109373,0,0,2.06388
1.8700763919914607,0,0,-2.3343466186523436,0,0,-0.6115200000000001
1.8714632469927892,0,0,0.10773907470703124,0,0,-2.06388
1.8728499540011398,0,0,2.741360900878906,0,0,0.99372
1.8742360500036739,0,0,3.6631285400390623,0,0,1.2994800000000002
1.8756381089915521,0,0,2.6479870361328124,0,0,1.2994800000000002
1.877025778987445,0,0,0.2154781494140625,0,0,1.83456
1.8784297450038139,0,0,-2.5474305664062498,0,0,9.32568
1.8798178779834416,0,0,-0.7134720947265625,0,0,-2.36964
1.8812047149986029,0,0,3.1220389648437497,0,0,0.30576000000000003
1.8825904029945377,0,0,2.4779987182617185,0,0,1.07016
1.8839772210048977,0,0,2.070984436035156,0,0,0.0
1.8853629469813313,0,0,-1.0366893188476562,0,0,0.6115200000000001
1.886749580007745,0,0,-2.1619640991210938,0,0,-1.911
1.8881383980042301,0,0,1.1659762084960936,0,0,-1.5288
1.8895325129851699,0,0,2.2266075439453124,0,0,2.6754
1.8909396450035274,0,0,3.124433166503906,0,0,0.30576000000000003
1.892326981993392,0,0,1.8004396484374998,0,0,2.5989600000000004
1.8937132819846738,0,0,-0.5099649536132812,0,0,1.68168
1.8951011929893866,0,0,-1.5682020874023437,0,0,7.261800000000001
1.8964889000053518,0,0,0.6440402465820312,0,0,1.2230400000000001
1.8978784770006314,0,0,2.482787121582031,0,0,-1.37592
1.8992653139866889,0,0,4.256890551757812,0,0,0.7644
1.9006519469839986,0,0,2.114080065917969,0,0,1.83456
1.9020431349927094,0,0,1.0678139404296874,0,0,-0.53508
1.9034296569880098,0,0,-2.664746447753906,0,0,-9.555
1.9048175859788898,0,0,-2.6886884643554687,0,0,-4.28064
1.9062050899956375,0,0,2.379836450195312,0,0,0.30576000000000003
1.9075909639941528,0,0,2.7748797241210936,0,0,0.0
1.908977484999923,0,0,2.935291235351562,0,0,1.75812
1.9103637849912047,0,0,0.35194764404296874,0,0,2.5989600000000004
1.9117506030015647,0,0,0.016759411621093748,0,0,-0.15288000000000002
1.913136458984809,0,0,-1.1755530151367186,0,0,0.7644
1.9145236290059984,0,0,-0.2346317626953125,0,0,6.34452
1.9159108540043235,0,0,1.7477672119140624,0,0,2.4460800000000003
1.9172948019986507,0,0,3.545812658691406,0,0,-0.45864
1.9186810649989638,0,0,3.0980969482421874,0,0,4.8921600000000005
1.9200845489976928,0,0,-0.5482721801757812,0,0,0.0
1.9214839969936293,0,0,-0.9361328491210937,0,0,0.84084
1.9228721859981306,0,0,-2.319981408691406,0,0,-3.66912
1.9242598559940234,0,0,0.7302315063476562,0,0,-2.4460800000000003
1.9256462659977842,0,0,1.5370774658203123,0,0,-0.45864
1.9270327510021161,0,0,2.808398547363281,0,0,1.98744
1.9284189399913885,0,0,1.4867992309570313,0,0,0.99372
1.929805164982099,0,0,0.36152445068359373,0,0,1.83456
1.9311961689963937,0,0,-1.5346832641601562,0,0,0.0
1.932598652987508,0,0,-0.5267243652343749,0,0,-9.784320000000001
1.9339860460022464,0,0,0.4261678955078125,0,0,-0.53508
1.9353725489927456,0,0,2.674323254394531,0,0,0.45864
1.9367593299830332,0,0,2.8898014038085935,0,0,0.84084
1.9381457220006268,0,0,1.6543933471679686,0,0,1.1465999999999998
1.9395318739989307,0,0,0.6057330200195312,0,0,0.68796
1.9409181739902124,0,0,-0.3758896606445312,0,0,-0.3822
1.9423141579900403,0,0,-0.41419688720703124,0,0,-1.2230400000000001
1.9437026059895288,0,0,0.37828386230468747,0,0,-0.6115200000000001
1.945088887005113,0,0,1.6136919189453125,0,0,-0.45864
1.9466049449983984,0,0,0.9911994873046874,0,0,0.84084
1.9480075409810524,0,0,0.08858546142578125,0,0,0.07644000000000001
1.949393450981006,0,0,0.22026655273437498,0,0,0.22932
1.95078002900118,0,0,0.15322890625,0,0,9.555
1.9521678839810193,0,0,1.7693150268554687,0,0,0.99372
1.9535538879863452,0,0,1.7884686401367187,0,0,0.91728
1.9549399459792767,0,0,1.1156979736328125,0,0,0.68796
1.956326764979167,0,0,0.7278373046875,0,0,1.75812
1.9577127119991928,0,0,0.5722141967773438,0,0,-0.6115200000000001
1.9590990860015154,0,0,0.7541735229492187,0,0,-0.91728
1.9604858119855635,0,0,0.8810662109374999,0,0,-0.30576000000000003
1.9618718150013592,0,0,0.8643067993164062,0,0,-0.3822
1.963257966999663,0,0,1.2018892333984375,0,0,0.22932
1.964644525985932,0,0,0.6512228515624999,0,0,1.2230400000000001
1.9660804909945,0,0,-0.12210428466796874,0,0,0.53508
1.9674679949821439,0,0,0.08140285644531249,0,0,0.53508
1.9688544060045388,0,0,0.062249243164062495,0,0,0.07644000000000001
1.9702401499962434,0,0,0.9983820922851562,0,0,0.0
1.9716434489819221,0,0,2.2936451904296873,0,0,0.99372
1.9730382489797194,0,0,1.917755529785156,0,0,0.53508
1.9744244189932942,0,0,1.678335363769531,0,0,1.2994800000000002
1.9758168849803042,0,0,1.0702081420898437,0,0,1.1465999999999998
1.9772052220068872,0,0,-0.74699091796875,0,0,-1.2230400000000001
1.9785933179955464,0,0,-0.9050082275390624,0,0,-0.53508
1.9799809879914392,0,0,1.4700398193359374,0,0,8.7906
1.9813679170038085,0,0,1.9704279663085937,0,0,1.07016
1.9827537539822515,0,0,1.1180921752929687,0,0,0.22932
1.9841411460074596,0,0,0.6153098266601562,0,0,0.84084
1.9855265749793034,0,0,0.0526724365234375,0,0,0.7644
1.9869128379796166,0,0,0.13646949462890623,0,0,20
1.9882982120034285,0,0,1.4532804077148436,0,0,0.3822
1.9905243729881477,0,0,1.7669208251953124,0,0,0.99372
1.991917838982772,0,0,0.4477157104492187,0,0,0.15288000000000002
1.9932965280022472,0,0,0.4477157104492187,0,0,0.30576000000000003
1.9946754569828045,0,0,0.28969840087890625,0,0,-0.7644
1.9960577379970346,0,0,0.47884033203125,0,0,-0.3822
1.997436759993434,0,0,0.4908113403320312,0,0,-0.3822
1.9988153190060984,0,0,1.1875240234375,0,0,0.45864
2.0001962109818123,0,0,1.1635820068359375,0,0,0.91728
2.0015749929880258,0,0,0.7350199096679687,0,0,0.99372
2.0029535889916588,0,0,-0.24899697265624998,0,0,0.30576000000000003
2.004342091997387,0,0,0.19871873779296872,0,0,0.0
2.0057280769979116,0,0,0.9409212524414062,0,0,0.22932
2.007134079991374,0,0,1.7669208251953124,0,0,0.53508
2.008521045994712,0,0,1.2282254516601563,0,0,0.99372
2.0099141789833084,0,0,0.6344634399414062,0,0,0.53508
2.011300015990855,0,0,0.5770026000976562,0,0,0.53508
2.012685316003626,0,0,0.8283937744140625,0,0,0.0
2.014070189994527,0,0,0.9097966308593749,0,0,0.0
2.0156374689831864,0,0,0.6272808349609375,0,0,-20
2.0170302129990887,0,0,0.9121908325195311,0,0,-0.3822
2.018417457002215,0,0,0.8116343627929687,0,0,0.22932
2.019805144984275,0,0,1.024718310546875,0,0,0.22932
2.02119131499785,0,0,0.8762778076171874,0,0,0.68796
2.0225775410071947,0,0,0.44532150878906246,0,0,0.0
2.0239647479902487,0,0,-0.13407529296874998,0,0,20
2.0253519179823343,0,0,0.36391865234375,0,0,-0.30576000000000003
2.0267386070045177,0,0,1.005564697265625,0,0,0.30576000000000003
2.02812455498497,0,0,1.85790048828125,0,0,0.6115200000000001
2.0296120939892717,0,0,1.388636962890625,0,0,0.99372
2.031005781987915,0,0,0.584185205078125,0,0,0.84084
2.0323924709809944,0,0,0.18914193115234373,0,0,0.3822
2.0337789740005974,0,0,0.13407529296874998,0,0,20
2.035165680979844,0,0,0.948103857421875,0,0,0.0
2.036552221979946,0,0,1.6041151123046875,0,0,0.0
2.03793850299553,0,0,1.5203180541992187,0,0,0.45864
2.039324173005298,0,0,0.9241618408203125,0,0,0.3822
2.040710269007832,0,0,0.239420166015625,0,0,0.3822
2.042096771998331,0,0,-0.20829554443359374,0,0,-0.3822
2.0434847199940123,0,0,0.0718260498046875,0,0,0.0
2.0448705379967578,0,0,1.2282254516601563,0,0,0.07644000000000001
2.0462561159802135,0,0,1.4604630126953124,0,0,0.30576000000000003
2.0476428599795327,0,0,1.2737152832031249,0,0,1.07016
2.049032251990866,0,0,0.6775590698242188,0,0,0.45864
2.0504183669982012,0,0,0.40222587890625,0,0,0.53508
2.0518048139929306,0,0,0.316034619140625,0,0,0.07644000000000001
2.0531885589880403,0,0,1.0534487304687499,0,0,0.15288000000000002
2.0545843949948903,0,0,1.1085153686523437,0,0,0.22932
2.0567256679933053,0,0,1.1180921752929687,0,0,0.84084
2.058139337983448,0,0,0.8475473876953125,0,0,0.3822
2.0595265819865745,0,0,0.6392518432617187,0,0,-0.15288000000000002
2.060914381989278,0,0,0.7996633544921875,0,0,0.0
2.062301144003868,0,0,0.8164227661132812,0,0,0.22932
2.063689684990095,0,0,0.4836287353515625,0,0,0.15288000000000002
2.0650763179874048,0,0,0.679953271484375,0,0,-20
2.0664642470073886,0,0,1.1611878051757811,0,0,0.7644
2.0678713799861725,0,0,0.8499415893554687,0,0,-9.01992
2.0692579390015453,0,0,0.622492431640625,0,0,0.3822
2.0706439789792057,0,0,0.5506663818359374,0,0,0.07644000000000001
2.072031482006423,0,0,1.1468225952148436,0,0,0.07644000000000001
2.0734164669993334,0,0,1.3096283081054687,0,0,0.91728
2.0748020820028614,0,0,1.4796166259765624,0,0,1.07016
2.076187973987544,0,0,1.2952630981445312,0,0,1.1465999999999998
2.0775738479860593,0,0,1.0103531005859374,0,0,0.7644
2.0789594069938175,0,0,0.9888052856445312,0,0,0.45864
2.0803454289853107,0,0,1.3168109130859373,0,0,0.6115200000000001
2.08173076499952,0,0,1.6160861206054686,0,0,0.45864
2.0831162690010387,0,0,1.687912170410156,0,0,0.68796
2.0845016060047783,0,0,1.3958195678710936,0,0,1.1465999999999998
2.0858867389906663,0,0,0.9097966308593749,0,0,0.7644
2.08727264899062,0,0,0.928950244140625,0,0,0.68796
2.088659448985709,0,0,1.0486603271484374,0,0,0.45864
2.090045249002287,0,0,1.5203180541992187,0,0,0.68796
2.091431640990777,0,0,1.5777788940429687,0,0,0.68796
2.0928177739842795,0,0,1.5658078857421873,0,0,1.1465999999999998
2.0942033879982773,0,0,1.3144167114257812,0,0,0.91728
2.0955884660070296,0,0,1.1013327636718748,0,0,1.07016
2.0969745430047624,0,0,1.0797849487304687,0,0,0.91728
2.0983974910050165,0,0,1.0917559570312498,0,0,0.68796
2.099783771991497,0,0,1.438915197753906,0,0,0.91728
2.101169311994454,0,0,1.3215993164062498,0,0,0.53508
2.1025549639889505,0,0,1.3192051147460937,0,0,0.68796
2.1039468009839766,0,0,1.4030021728515625,0,0,0.6115200000000001
2.105331192986341,0,0,1.1468225952148436,0,0,0.7644
2.106716788985068,0,0,1.3024457031249999,0,0,0.68796
2.1081031439825892,0,0,0.9935936889648437,0,0,0.7644
2.109487943991553,0,0,0.9313444458007812,0,0,0.30576000000000003
2.1108951139904093,0,0,1.3479355346679687,0,0,0.68796
2.112283005990321,0,0,1.5370774658203123,0,0,-9.172799999999999
2.113670545979403,0,0,1.5298948608398437,0,0,0.99372
2.1150565129937604,0,0,1.5490484741210937,0,0,1.07016
2.1164432379882783,0,0,1.3168109130859373,0,0,0.91728
2.1178295929857995,0,0,1.177947216796875,0,0,1.07016
2.119215412007179,0,0,1.0941501586914062,0,0,0.6115200000000001
2.120600544993067,0,0,1.1276689819335937,0,0,0.68796
2.121985195990419,0,0,1.4173673828125,0,0,0.22932
2.123612049006624,0,0,1.5275006591796874,0,0,0.53508
2.1251085510011762,0,0,1.649604943847656,0,0,0.99372
2.1265512020036113,0,0,1.2569558715820313,0,0,0.84084
2.1279902230016887,0,0,1.0797849487304687,0,0,0.6115200000000001
2.129426095983945,0,0,0.8643067993164062,0,0,0.84084
2.1308629880077206,0,0,1.177947216796875,0,0,0.3822
2.1328772809938528,0,0,1.5538368774414062,0,0,0.53508
2.1343782829935662,0,0,1.4820108276367188,0,0,1.1465999999999998
2.135853525978746,0,0,1.426944189453125,0,0,1.07016
2.1373176029883325,0,0,1.1611878051757811,0,0,0.84084
2.1388021239836235,0,0,1.2785036865234374,0,0,0.7644
2.1402869779849425,0,0,1.177947216796875,0,0,0.7644
2.141759610007284,0,0,1.3575123413085937,0,0,0.6115200000000001
2.143240037985379,0,0,1.3910311645507811,0,0,0.68796
2.1446509299858008,0,0,1.4317325927734375,0,0,0.68796
2.14603178499965,0,0,1.3144167114257812,0,0,0.6115200000000001
2.1474111219868064,0,0,1.4413093994140624,0,0,0.6115200000000001
2.1487926630070433,0,0,1.2617442749023438,0,0,0.99372
2.1501711290038656,0,0,1.20667763671875,0,0,0.84084
2.151549984002486,0,0,1.1013327636718748,0,0,0.68796
2.1529426540073473,0,0,1.1420341918945311,0,0,0.3822
2.154322249989491,0,0,1.3144167114257812,0,0,0.22932
2.155750123987673,0,0,1.3814543579101561,0,0,0.7644
2.1571345340053085,0,0,1.618480322265625,0,0,0.53508
2.158516092982609,0,0,1.455674609375,0,0,0.99372
2.159895744989626,0,0,1.3096283081054687,0,0,0.68796
2.1612737120012753,0,0,1.1085153686523437,0,0,0.91728
2.1626524000021163,0,0,1.189918225097656,0,0,0.6115200000000001
2.1640327000059187,0,0,1.2306196533203124,0,0,0.84084
2.1654106109926943,0,0,1.4030021728515625,0,0,0.3822
2.1667891329852864,0,0,1.407790576171875,0,0,0.53508
2.168168987991521,0,0,1.5873557006835937,0,0,0.7644
2.1695471209823154,0,0,1.419761584472656,0,0,0.7644
2.1709253839799203,0,0,1.3120225097656248,0,0,0.84084
2.172316182986833,0,0,1.0893617553710937,0,0,0.84084
2.1736990019853693,0,0,1.1180921752929687,0,0,0.3822
2.175078300992027,0,0,1.2737152832031249,0,0,0.91728
2.1764615639986005,0,0,1.5011644409179687,0,0,0.6115200000000001
2.177840104995994,0,0,1.448492004394531,0,0,0.84084
2.1792178670002613,0,0,1.5346832641601562,0,0,0.7644
2.1805985370010603,0,0,1.4963760375976562,0,0,1.07016
2.181976558989845,0,0,1.2761094848632812,0,0,0.68796
2.183354025997687,0,0,0.93852705078125,0,0,0.68796
2.1847426400054246,0,0,1.1156979736328125,0,0,0.6115200000000001
2.186141440004576,0,0,1.149216796875,0,0,0.68796
2.18753342499258,0,0,1.2713210815429687,0,0,0.6115200000000001
2.188920632004738,0,0,1.5298948608398437,0,0,0.68796
2.1903312829963397,0,0,1.6065093139648436,0,0,0.68796
2.19174380498589,0,0,1.2952630981445312,0,0,0.91728
2.193131011998048,0,0,1.24498486328125,0,0,0.99372
2.1946164399851114,0,0,1.1061211669921875,0,0,0.84084
2.1960044800071046,0,0,1.149216796875,0,0,0.99372
2.1973899839795195,0,0,1.2473790649414063,0,0,0.3822
2.19877515398548,0,0,1.4006079711914061,0,0,0.7644
2.200172841985477,0,0,1.5634136840820312,0,0,-9.09636
2.201559659995837,0,0,1.4915876342773438,0,0,0.84084
2.202945016004378,0,0,1.3024457031249999,0,0,0.91728
2.2043301119992975,0,0,1.189918225097656,0,0,0.68796
2.205715374002466,0,0,1.1252747802734375,0,0,0.6115200000000001
2.207100747997174,0,0,1.2904746948242187,0,0,0.91728
2.2084864919888787,0,0,1.4245499877929686,0,0,0.45864
2.2098719959903974,0,0,1.1923124267578125,0,0,0.91728
2.211257276998367,0,0,1.5610194824218748,0,0,0.91728
2.2126426879840437,0,0,1.3575123413085937,0,0,1.07016
2.214027709007496,0,0,1.2665326782226562,0,0,0.84084
2.2154125649831258,0,0,1.1444283935546875,0,0,0.68796
2.2167981049860828,0,0,1.1563994018554686,0,0,0.53508
2.2181833119830117,0,0,1.2378022583007813,0,0,0.7644
2.2195682039891835,0,0,1.4101847778320311,0,0,0.6115200000000001
2.2209534669818822,0,0,1.446097802734375,0,0,0.84084
2.2223386369878426,0,0,1.6065093139648436,0,0,0.53508
2.2237357150006574,0,0,1.2761094848632812,0,0,0.7644
2.2251273469883017,0,0,1.2378022583007813,0,0,0.84084
2.226512813998852,0,0,0.9576806640625,0,0,1.07016
2.2278996880049817,0,0,1.2425906616210938,0,0,0.6115200000000001
2.2292845060001127,0,0,1.369483349609375,0,0,0.6115200000000001
2.2306706020026468,0,0,1.5083470458984374,0,0,0.45864
2.232071642007213,0,0,1.5610194824218748,0,0,0.7644
2.233456978981849,0,0,1.5969325073242187,0,0,0.7644
2.234841833997052,0,0,1.2138602416992186,0,0,0.7644
2.236227429995779,0,0,1.1252747802734375,0,0,0.53508
2.2376127669995185,0,0,1.120486376953125,0,0,0.99372
2.238998102984624,0,0,1.2234370483398436,0,0,0.45864
2.2403897359909024,0,0,1.2976572998046874,0,0,0.6115200000000001
2.2417748879815917,0,0,1.446097802734375,0,0,0.7644
2.2431599279807415,0,0,1.5251064575195312,0,0,0.91728
2.2445548579853494,0,0,1.177947216796875,0,0,0.91728
2.2459408239810728,0,0,1.149216796875,0,0,0.99372
2.247325678996276,0,0,1.209071838378906,0,0,0.68796
2.2487099790014327,0,0,1.0893617553710937,0,0,0.45864
2.250093074981123,0,0,1.1540052001953125,0,0,0.53508
2.251476375007769,0,0,1.3024457031249999,0,0,0.68796
2.2528762849979103,0,0,1.39821376953125,0,0,0.84084
2.2542630480020307,0,0,1.4891934326171874,0,0,0.7644
2.25564979200135,0,0,1.1731588134765625,0,0,1.07016
2.257036350987619,0,0,1.20667763671875,0,0,0.68796
2.2584219650016166,0,0,1.1611878051757811,0,0,0.68796
2.259805671987124,0,0,1.2641384765625,0,0,0.68796
2.2611832309921738,0,0,1.350329736328125,0,0,0.6115200000000001
2.262561104987981,0,0,1.458068811035156,0,0,0.6115200000000001
2.263945534999948,0,0,1.3934253662109375,0,0,0.7644
2.2653326120052952,0,0,1.4724340209960938,0,0,0.99372
2.266718837985536,0,0,1.1731588134765625,0,0,0.7644
2.2681056000001263,0,0,1.0797849487304687,0,0,0.68796
2.2694911409926135,0,0,1.158793603515625,0,0,0.68796
2.2708777179941535,0,0,1.22583125,0,0,0.45864
2.2722645179892424,0,0,1.3024457031249999,0,0,0.45864
2.273650483984966,0,0,1.4317325927734375,0,0,0.53508
2.2750445059791673,0,0,1.43652099609375,0,0,0.91728
2.2764309539925307,0,0,1.4437036010742186,0,0,0.84084
2.277816993999295,0,0,1.2832920898437499,0,0,0.84084
2.2792023869988043,0,0,1.254561669921875,0,0,0.91728
2.28058955699089,0,0,1.0941501586914062,0,0,0.84084
2.2819757639954332,0,0,1.197100830078125,0,0,0.53508
2.2833619709999766,0,0,1.3766659545898436,0,0,0.15288000000000002
2.2847482329816557,0,0,1.388636962890625,0,0,0.68796
2.286133718007477,0,0,1.4772224243164063,0,0,0.68796
2.287519943987718,0,0,1.2330138549804688,0,0,0.6115200000000001
2.288906205998501,0,0,1.209071838378906,0,0,0.91728
2.2902920059859753,0,0,1.189918225097656,0,0,0.53508
2.291690527985338,0,0,1.218648645019531,0,0,0.3822
2.293076215981273,0,0,1.1061211669921875,0,0,0.84084
2.2944620159978513,0,0,1.5275006591796874,0,0,0.3822
2.295849019981688,0,0,1.39821376953125,0,0,0.6115200000000001
2.2972341160057113,0,0,1.5729904907226562,0,0,0.68796
2.298619933979353,0,0,1.209071838378906,0,0,0.84084
2.300006826000754,0,0,1.2808978881835937,0,0,1.07016
2.3013923479884397,0,0,1.3359645263671873,0,0,0.68796
2.3027864070027135,0,0,1.13006318359375,0,0,1.07016
2.3041729099932127,0,0,1.197100830078125,0,0,0.68796
2.3055695990042295,0,0,1.4700398193359374,0,0,0.84084
2.308109534002142,0,0,1.5251064575195312,0,0,0.84084
2.309498018992599,0,0,1.2785036865234374,0,0,0.91728
2.3108865219983272,0,0,1.2569558715820313,0,0,0.68796
2.3122735990036745,0,0,1.1755530151367186,0,0,0.84084
2.3136608809872996,0,0,1.1156979736328125,0,0,0.3822
2.315047754003899,0,0,1.3024457031249999,0,0,0.6115200000000001
2.316434146981919,0,0,1.3072341064453123,0,0,0.68796
2.3178210569894873,0,0,1.429338391113281,0,0,1.07016
2.3192071529920213,0,0,1.3814543579101561,0,0,0.68796
2.320618267985992,0,0,1.2114660400390624,0,0,0.84084
2.322004918998573,0,0,1.2138602416992186,0,0,0.68796
2.323391162994085,0,0,1.1755530151367186,0,0,0.91728
2.324777667003218,0,0,1.2713210815429687,0,0,0.68796
2.3261637249961495,0,0,1.3335703247070312,0,0,0.6115200000000001
2.3275502290052827,0,0,1.3910311645507811,0,0,0.45864
2.328936342993984,0,0,1.4604630126953124,0,0,0.99372
2.330322680005338,0,0,1.4796166259765624,0,0,1.07016
2.3317095910024364,0,0,1.3048399047851562,0,0,0.99372
2.3330954459961504,0,0,1.3239935180664062,0,0,0.68796
2.3344813199946657,0,0,1.2234370483398436,0,0,0.68796
2.335881229984807,0,0,1.2617442749023438,0,0,0.45864
2.337270529998932,0,0,1.4413093994140624,0,0,0.45864
2.3386630149907432,0,0,1.369483349609375,0,0,0.99372
2.340050684986636,0,0,1.6232687255859375,0,0,0.84084
2.3414358729787637,0,0,1.2497732666015624,0,0,1.07016
2.3428217659820803,0,0,1.2904746948242187,0,0,0.99372
2.3442090280004777,0,0,1.197100830078125,0,0,0.6115200000000001
2.34559497598093,0,0,1.1635820068359375,0,0,0.7644
2.3469804610067513,0,0,1.177947216796875,0,0,0.84084
2.3483667789842,0,0,1.2330138549804688,0,0,0.6115200000000001
2.3497525969869457,0,0,1.3024457031249999,0,0,0.91728
2.3511383419972844,0,0,1.5586252807617187,0,0,0.91728
2.3525258819863666,0,0,1.2425906616210938,0,0,0.7644
2.3539116629981436,0,0,1.2521674682617188,0,0,0.91728
2.3552974069898482,0,0,1.1133037719726562,0,0,0.84084
2.356683632999193,0,0,1.180341418457031,0,0,0.53508
2.3580693579860963,0,0,1.2401964599609374,0,0,0.91728
2.359457268990809,0,0,1.4221557861328125,0,0,0.68796
2.3608437909861095,0,0,1.4437036010742186,0,0,1.07016
2.3622425719804596,0,0,1.6735469604492186,0,0,0.84084
2.363661334005883,0,0,1.2282254516601563,0,0,0.91728
2.365049411979271,0,0,1.1420341918945311,0,0,0.7644
2.366439081990393,0,0,1.1348515869140625,0,0,0.68796
2.3678301039908547,0,0,1.2042834350585936,0,0,0.6115200000000001
2.3692152370058466,0,0,1.3000515014648437,0,0,0.30576000000000003
2.3706013879855163,0,0,1.4125789794921875,0,0,0.30576000000000003
2.3722093149845023,0,0,1.467645617675781,0,0,0.7644
2.3735991150024347,0,0,1.3527239379882812,0,0,0.84084
2.374978378007654,0,0,1.2569558715820313,0,0,0.91728
2.3765112870023586,0,0,1.1013327636718748,0,0,0.3822
2.3778932899876963,0,0,1.1851298217773436,0,0,0.7644
2.3792720710043795,0,0,1.0965443603515623,0,0,0.84084
2.380655001004925,0,0,1.4987702392578124,0,0,0.45864
2.382033762987703,0,0,1.4221557861328125,0,0,0.68796
2.383412452007178,0,0,1.4867992309570313,0,0,0.7644
2.384791844000574,0,0,1.3479355346679687,0,0,0.91728
2.386170477984706,0,0,1.0845733520507812,0,0,0.6115200000000001
2.3875486659817398,0,0,1.2114660400390624,0,0,0.68796
2.3889273919921834,0,0,1.197100830078125,0,0,-9.01992
2.3903083030018024,0,0,1.1923124267578125,0,0,1.07016
2.3917000649962574,0,0,1.4867992309570313,0,0,0.68796
2.3930782539828215,0,0,1.5131354492187499,0,0,0.84084
2.394456812995486,0,0,1.4173673828125,0,0,0.91728
2.395837149990257,0,0,1.2521674682617188,0,0,0.53508
2.3972152640053537,0,0,1.3168109130859373,0,0,0.45864
2.398593785997946,0,0,1.1611878051757811,0,0,0.99372
2.399978845001897,0,0,1.1444283935546875,0,0,0.6115200000000001
2.4013684229867067,0,0,1.3575123413085937,0,0,0.3822
2.4027557779918425,0,0,1.4221557861328125,0,0,0.91728
2.4041437999985646,0,0,1.465251416015625,0,0,0.53508
2.405529284995282,0,0,1.3359645263671873,0,0,1.07016
2.406916176987579,0,0,1.254561669921875,0,0,0.84084
2.4083165689953603,0,0,1.1923124267578125,0,0,0.84084
2.4097033870057203,0,0,1.1923124267578125,0,0,1.07016
2.4110992789792363,0,0,1.0726023437499999,0,0,0.53508
2.4124927090015262,0,0,1.3646949462890625,0,0,0.3822
2.413879248982994,0,0,1.465251416015625,0,0,0.68796
2.415266085998155,0,0,1.465251416015625,0,0,0.91728
2.4166529219946824,0,0,1.3287819213867187,0,0,0.91728
2.4180395919829607,0,0,1.3455413330078123,0,0,0.99372
2.4194258920033462,0,0,1.0414777221679687,0,0,0.68796
2.420826302986825,0,0,1.1563994018554686,0,0,0.53508
2.4222129909903742,0,0,1.1875240234375,0,0,1.1465999999999998
2.4235994019836653,0,0,1.4006079711914061,0,0,0.45864
2.424986739002634,0,0,1.3311761230468748,0,0,0.7644
2.4263734459818806,0,0,1.5251064575195312,0,0,0.84084
2.4277606709802058,0,0,1.2497732666015624,0,0,0.91728
2.42914676698274,0,0,1.1372457885742187,0,0,0.99372
2.430533085978823,0,0,1.0869675537109373,0,0,0.6115200000000001
2.4319206259970088,0,0,1.199495031738281,0,0,0.45864
2.4333075920003466,0,0,1.3287819213867187,0,0,1.2994800000000002
2.434693724993849,0,0,1.3838485595703125,0,0,0.7644
2.4360811179794837,0,0,1.3359645263671873,0,0,0.84084
2.4374668799864594,0,0,1.3407529296874998,0,0,0.68796
2.438853512983769,0,0,1.3646949462890625,0,0,0.6115200000000001
2.440239924006164,0,0,1.1180921752929687,0,0,0.68796
2.441626538988203,0,0,1.0510545288085937,0,0,1.07016
2.4430125969811343,0,0,1.1037269653320312,0,0,0.30576000000000003
2.4443992860033177,0,0,1.455674609375,0,0,0.7644
2.4457860669936053,0,0,1.5179238525390624,0,0,0.53508
2.4471723109891172,0,0,1.4317325927734375,0,0,0.6115200000000001
2.4485585920047015,0,0,1.3646949462890625,0,0,0.99372
2.449944947991753,0,0,1.3335703247070312,0,0,0.84084
2.4513389689964242,0,0,1.1324573852539062,0,0,0.68796
2.452726140007144,0,0,1.1013327636718748,0,0,0.68796
2.4541132349986583,0,0,1.1707646118164061,0,0,-9.24924
2.4555010719923303,0,0,1.5107412475585937,0,0,0.22932
2.4568878900026903,0,0,1.5131354492187499,0,0,0.68796
2.4582748009997886,0,0,1.5490484741210937,0,0,0.99372
2.4596618229988962,0,0,1.3168109130859373,0,0,0.45864
2.461048455996206,0,0,1.369483349609375,0,0,0.91728
2.4624352190003265,0,0,1.0941501586914062,0,0,0.84084
2.463822240999434,0,0,1.2018892333984375,0,0,0.84084
2.4652080399973784,0,0,1.2234370483398436,0,0,0.91728
2.466593766002916,0,0,1.3958195678710936,0,0,0.68796
2.4679811029927805,0,0,1.3168109130859373,0,0,0.91728
2.4693671059794724,0,0,1.5562310791015623,0,0,0.91728
2.470753497997066,0,0,1.2904746948242187,0,0,0.53508
2.4721407610049937,0,0,1.1851298217773436,0,0,0.84084
2.4735267460055184,0,0,1.1659762084960936,0,0,0.7644
2.474912878999021,0,0,1.1109095703125,0,0,0.53508
2.4762994189804886,0,0,1.2665326782226562,0,0,1.2994800000000002
2.4776853850053158,0,0,1.4604630126953124,0,0,0.6115200000000001
2.4790800369810313,0,0,1.3287819213867187,0,0,0.6115200000000001
2.480466743989382,0,0,1.4317325927734375,0,0,0.7644
2.4818531360069755,0,0,1.3575123413085937,0,0,0.68796
2.483239825000055,0,0,1.1611878051757811,0,0,0.84084
2.4846266609965824,0,0,1.0845733520507812,0,0,0.68796
2.4860129979788326,0,0,1.13006318359375,0,0,0.68796
2.48739896499319,0,0,1.4700398193359374,0,0,0.7644
2.4887855050037615,0,0,1.3910311645507811,0,0,0.53508
2.490177286003018,0,0,1.39821376953125,0,0,0.91728
2.4915637339872774,0,0,1.3431471313476562,0,0,0.84084
2.4929509779904038,0,0,1.1013327636718748,0,0,1.1465999999999998
2.494337017997168,0,0,1.1372457885742187,0,0,0.91728
2.4957524839846883,0,0,1.139639990234375,0,0,0.53508
2.4971402839873917,0,0,1.1540052001953125,0,0,0.84084
2.498526546987705,0,0,1.4532804077148436,0,0,0.30576000000000003
2.499913698004093,0,0,1.3814543579101561,0,0,0.68796
2.501300108997384,0,0,1.4987702392578124,0,0,0.7644
2.502686352992896,0,0,1.3239935180664062,0,0,0.7644
2.5040735969960224,0,0,1.24498486328125,0,0,0.91728
2.5054593039967585,0,0,1.0749965454101562,0,0,1.07016
2.5068456229928415,0,0,1.158793603515625,0,0,0.53508
2.5082323669921607,0,0,1.3072341064453123,0,0,0.68796
2.50961881398689,0,0,1.47482822265625,0,0,0.6115200000000001
2.5110048729984555,0,0,1.5059528442382812,0,0,0.68796
2.5123915059957653,0,0,1.4820108276367188,0,0,0.7644
2.5137779359938577,0,0,1.2401964599609374,0,0,0.91728
2.5151648839819245,0,0,1.1923124267578125,0,0,0.84084
2.5165515539993066,0,0,1.216254443359375,0,0,0.7644
2.5179380939807743,0,0,1.2018892333984375,0,0,0.45864
2.5193250050069764,0,0,1.3455413330078123,0,0,0.84084
2.5207117119862232,0,0,1.484405029296875,0,0,0.6115200000000001
2.5220982339815237,0,0,1.3479355346679687,0,0,0.84084
2.5234843299840577,0,0,1.3263877197265623,0,0,0.84084
2.524870925990399,0,0,1.2713210815429687,0,0,0.99372
2.526257596007781,0,0,1.1659762084960936,0,0,0.68796
2.5276447289797943,0,0,1.1444283935546875,0,0,0.91728
2.529031750978902,0,0,1.0893617553710937,0,0,0.53508
2.530418198002735,0,0,1.3120225097656248,0,0,0.45864
2.5318058310076594,0,0,1.446097802734375,0,0,0.53508
2.5331917050061747,0,0,1.5251064575195312,0,0,0.68796
2.5345781710057054,0,0,1.3958195678710936,0,0,0.6115200000000001
2.535965655988548,0,0,1.24498486328125,0,0,0.91728
2.537360362999607,0,0,1.177947216796875,0,0,0.6115200000000001
2.538788087986177,0,0,1.1516109985351561,0,0,0.68796
2.540174925001338,0,0,1.3479355346679687,0,0,0.7644
2.541561094985809,0,0,1.3934253662109375,0,0,0.3822
2.542947264999384,0,0,1.4867992309570313,0,0,0.6115200000000001
2.544334008998703,0,0,1.5634136840820312,0,0,0.91728
2.5457202910038177,0,0,1.3527239379882812,0,0,0.68796
2.547107108985074,0,0,1.1444283935546875,0,0,1.07016
2.5484941309841815,0,0,1.0869675537109373,0,0,-9.32568
2.5498809489945415,0,0,1.218648645019531,0,0,0.68796
2.551267322996864,0,0,1.3120225097656248,0,0,0.84084
2.5526477149978746,0,0,1.4963760375976562,0,0,0.15288000000000002
2.554025717981858,0,0,1.446097802734375,0,0,0.53508
2.5554038510017563,0,0,1.5203180541992187,0,0,0.68796
2.5568083729885984,0,0,1.2856862915039062,0,0,0.84084
2.558371986000566,0,0,1.1516109985351561,0,0,0.6115200000000001
2.5597726739943027,0,0,1.1659762084960936,0,0,0.84084
2.5611564549908508,0,0,1.2114660400390624,0,0,0.53508
2.562542903004214,0,0,1.3527239379882812,0,0,0.7644
2.564063923986396,0,0,1.5107412475585937,0,0,0.84084
2.565467741980683,0,0,1.5562310791015623,0,0,0.68796
2.566915817995323,0,0,1.3958195678710936,0,0,0.68796
2.568336061987793,0,0,1.2928688964843749,0,0,0.84084
2.5697233619866893,0,0,1.1755530151367186,0,0,0.7644
2.5711097169842105,0,0,1.149216796875,0,0,0.7644
2.572494830994401,0,0,1.2378022583007813,0,0,0.6115200000000001
2.573897038004361,0,0,1.3192051147460937,0,0,0.68796
2.575276393996319,0,0,1.37906015625,0,0,0.91728
2.5766787489992566,0,0,1.4963760375976562,0,0,0.84084
2.578058955987217,0,0,1.2138602416992186,0,0,0.91728
2.579437940992648,0,0,1.235408056640625,0,0,0.84084
2.580817740992643,0,0,1.218648645019531,0,0,0.84084
2.5821978370076977,0,0,1.1013327636718748,0,0,0.68796
2.5835919700039085,0,0,1.2569558715820313,0,0,1.07016
2.584972435986856,0,0,1.407790576171875,0,0,0.3822
2.586350975994719,0,0,1.39821376953125,0,0,0.84084
2.588126252987422,0,0,1.3479355346679687,0,0,0.84084
2.5895089419791475,0,0,1.2713210815429687,0,0,0.99372
2.5908879640046507,0,0,1.0869675537109373,0,0,0.91728
2.592269133980153,0,0,1.1635820068359375,0,0,0.68796
2.5936487120052334,0,0,1.0749965454101562,0,0,0.68796
2.5950270110042766,0,0,1.455674609375,0,0,0.45864
2.596432366000954,0,0,1.4867992309570313,0,0,0.68796
2.5978190359892324,0,0,1.6448165405273436,0,0,0.91728
2.5992049099877477,0,0,1.2401964599609374,0,0,0.91728
2.6005905990023166,0,0,1.3072341064453123,0,0,0.84084
2.601976157980971,0,0,1.2234370483398436,0,0,0.84084
2.6033621419919655,0,0,1.120486376953125,0,0,0.68796
2.6047479239932727,0,0,1.1276689819335937,0,0,0.7644
2.6061341679887846,0,0,1.4963760375976562,0,0,0.15288000000000002
2.607520004006801,0,0,1.3623007446289062,0,0,0.84084
2.6089058599900454,0,0,1.5849614990234373,0,0,0.68796
2.6102916410018224,0,0,1.2928688964843749,0,0,1.07016
2.611695903004147,0,0,1.158793603515625,0,0,0.68796
2.6130819440004416,0,0,1.0654197387695312,0,0,0.53508
2.6144673920061905,0,0,1.0438719238281249,0,0,0.6115200000000001
2.6158538019808475,0,0,1.216254443359375,0,0,0.7644
2.6172384719830006,0,0,1.458068811035156,0,0,0.7644
2.618625771981897,0,0,1.2521674682617188,0,0,0.68796
2.620013645995641,0,0,1.4245499877929686,0,0,0.68796
2.6213983339839615,0,0,1.199495031738281,0,0,0.84084
2.622784226987278,0,0,1.1013327636718748,0,0,0.7644
2.62417047098279,0,0,1.1611878051757811,0,0,0.84084
2.625556084996788,0,0,1.0917559570312498,0,0,0.30576000000000003
2.6269592919852585,0,0,1.2832920898437499,0,0,0.7644
2.628346240002429,0,0,1.3814543579101561,0,0,0.6115200000000001
2.6297326689818874,0,0,1.5227122558593749,0,0,0.6115200000000001
2.631118635996245,0,0,1.3910311645507811,0,0,0.7644
2.6325047689897474,0,0,1.254561669921875,0,0,0.84084
2.6338905500015244,0,0,1.1252747802734375,0,0,0.84084
2.6352757010026835,0,0,1.0726023437499999,0,0,0.91728
2.636686055979226,0,0,1.1252747802734375,0,0,0.6115200000000001
2.6380952449981123,0,0,1.467645617675781,0,0,0.22932
2.639520006981911,0,0,1.4939818359375,0,0,0.68796
2.6409073990071192,0,0,1.4149731811523436,0,0,0.84084
2.642292809992796,0,0,1.3287819213867187,0,0,0.91728
2.6438854039879516,0,0,1.3335703247070312,0,0,0.7644
2.645296165981563,0,0,1.0630255371093749,0,0,0.6115200000000001
2.6466836879844777,0,0,0.9816226806640624,0,0,0.84084
2.6480726169829722,0,0,1.2713210815429687,0,0,0.84084
2.6494565650064033,0,0,1.4030021728515625,0,0,0.6115200000000001
2.6508429200039245,0,0,1.2473790649414063,0,0,0.91728
2.652230812003836,0,0,1.426944189453125,0,0,0.91728
2.653617222997127,0,0,1.2761094848632812,0,0,0.84084
2.6550230410066433,0,0,1.2713210815429687,0,0,0.84084
2.656409488990903,0,0,1.13006318359375,0,0,0.68796
2.6578080850013066,0,0,1.1563994018554686,0,0,0.3822
2.6591945700056385,0,0,1.3407529296874998,0,0,0.84084
2.6606018689926714,0,0,1.407790576171875,0,0,0.45864
2.6619893169845454,0,0,1.5322890624999999,0,0,0.91728
2.663376023992896,0,0,1.4413093994140624,0,0,0.7644
2.664756304991897,0,0,1.2330138549804688,0,0,0.99372
2.6661349569913,0,0,1.16837041015625,0,0,0.68796
2.6675135709811,0,0,1.1707646118164061,0,0,0.84084
2.6689012599817943,0,0,1.20667763671875,0,0,0.45864
2.670287725981325,0,0,1.4149731811523436,0,0,0.53508
2.671697266981937,0,0,1.5155296508789062,0,0,0.68796
2.6730838810035493,0,0,1.6328455322265625,0,0,1.07016
2.6744697359972633,0,0,1.467645617675781,0,0,0.7644
2.675856572983321,0,0,1.2497732666015624,0,0,1.07016
2.677241742989281,0,0,1.1540052001953125,0,0,0.99372
2.6786278579966165,0,0,1.180341418457031,0,0,0.7644
2.6800141939893365,0,0,1.2904746948242187,0,0,0.53508
2.6813997529970948,0,0,1.4915876342773438,0,0,0.53508
2.6827861449855845,0,0,1.5107412475585937,0,0,0.84084
2.6841720189841,0,0,1.5275006591796874,0,0,0.91728
2.685557781980606,0,0,1.2665326782226562,0,0,1.07016
2.68694406299619,0,0,1.218648645019531,0,0,0.7644
2.6883311590063386,0,0,1.0989385620117187,0,0,0.7644
2.6897169399890117,0,0,1.1037269653320312,0,0,0.53508
2.691102646989748,0,0,1.3287819213867187,0,0,1.07016
2.6924886879860424,0,0,1.4125789794921875,0,0,0.45864
2.69387411698699,0,0,1.5322890624999999,0,0,0.84084
2.6952598610077985,0,0,1.5322890624999999,0,0,0.6115200000000001
2.6966488829930313,0,0,1.3766659545898436,0,0,0.7644
2.6980392200057395,0,0,1.2713210815429687,0,0,0.7644
2.6994257970072795,0,0,1.0845733520507812,0,0,0.84084
2.700811671005795,0,0,1.20667763671875,0,0,0.53508
2.7021976739924867,0,0,1.3527239379882812,0,0,1.1465999999999998
2.7035828630032483,0,0,1.5538368774414062,0,0,0.53508
2.7049689590057824,0,0,1.4772224243164063,0,0,0.53508
2.706354369991459,0,0,1.4101847778320311,0,0,0.68796
2.7077415399835445,0,0,1.20667763671875,0,0,0.7644
2.7091273950063623,0,0,1.2282254516601563,0,0,0.53508
2.710522323992336,0,0,1.0893617553710937,0,0,0.7644
2.7119093090004753,0,0,1.3024457031249999,0,0,0.68796
2.713311959989369,0,0,1.4796166259765624,0,0,0.22932
2.714704907994019,0,0,1.4101847778320311,0,0,0.68796
2.716092282003956,0,0,1.4796166259765624,0,0,0.6115200000000001
2.7174777110049035,0,0,1.4796166259765624,0,0,0.91728
2.718862954992801,0,0,1.3048399047851562,0,0,1.07016
2.720248957979493,0,0,1.16837041015625,0,0,0.7644
2.7216354059928562,0,0,1.1252747802734375,0,0,0.84084
2.7230212620052043,0,0,1.1755530151367186,0,0,0.7644
2.7244076170027256,0,0,1.235408056640625,0,0,0.30576000000000003
2.72579317598138,0,0,1.4437036010742186,0,0,0.7644
2.7271793090039864,0,0,1.6112977172851561,0,0,0.91728
2.728565904981224,0,0,1.2473790649414063,0,0,0.84084
2.7299515189952217,0,0,1.1707646118164061,0,0,0.91728
2.7313367819879204,0,0,1.0726023437499999,0,0,0.53508
2.732722747983644,0,0,1.158793603515625,0,0,0.68796
2.7341087519889697,0,0,1.2976572998046874,0,0,0.99372
2.7354948289867025,0,0,1.4341267944335936,0,0,0.68796
2.736880813987227,0,0,1.407790576171875,0,0,0.99372
2.7382669649960008,0,0,1.5059528442382812,0,0,1.07016
2.7396536720043514,0,0,1.1061211669921875,0,0,0.7644
2.7410397499916144,0,0,1.2282254516601563,0,0,0.7644
2.74242556799436,0,0,1.1372457885742187,0,0,1.1465999999999998
2.7438122009916697,0,0,1.197100830078125,0,0,0.6115200000000001
2.745197666983586,0,0,1.2976572998046874,0,0,0.91728
2.746583467000164,0,0,1.4030021728515625,0,0,0.68796
2.7479685629950836,0,0,1.5562310791015623,0,0,1.07016
2.7493806770071387,0,0,1.4125789794921875,0,0,0.91728
2.750767644000007,0,0,1.35990654296875,0,0,0.7644
2.7521774619817734,0,0,1.13006318359375,0,0,0.45864
2.7535633349907584,0,0,1.2234370483398436,0,0,0.91728
2.7549495050043333,0,0,1.216254443359375,0,0,0.53508
2.756335657002637,0,0,1.4125789794921875,0,0,0.30576000000000003
2.757721253001364,0,0,1.5059528442382812,0,0,0.45864
2.7591179779847153,0,0,1.467645617675781,0,0,0.84084
2.7605046480020974,0,0,1.2330138549804688,0,0,0.7644
2.7618903929833323,0,0,1.3000515014648437,0,0,0.91728
2.7632757109822705,0,0,1.2234370483398436,0,0,0.68796
2.7646610850060824,0,0,1.0869675537109373,0,0,0.45864
2.7660466429952066,0,0,1.197100830078125,0,0,0.68796
2.767432183987694,0,0,1.4341267944335936,0,0,0.3822
2.76881764997961,0,0,1.4245499877929686,0,0,0.99372
2.77020311699016,0,0,1.6639701538085936,0,0,0.6115200000000001
2.7715964719827753,0,0,1.4006079711914061,0,0,0.84084
2.77300256799208,0,0,1.209071838378906,0,0,0.68796
2.7743819409806747,0,0,1.1468225952148436,0,0,0.53508
2.7757738519867416,0,0,1.1540052001953125,0,0,0.45864
2.77717296598712,0,0,1.2617442749023438,0,0,1.07016
2.7785520809993614,0,0,1.3239935180664062,0,0,0.68796
2.779932065983303,0,0,1.4987702392578124,0,0,0.91728
2.7813110879797023,0,0,1.6615759521484375,0,0,0.91728
2.7826894799945876,0,0,1.2641384765625,0,0,0.91728
2.7840691689925734,0,0,1.1540052001953125,0,0,0.99372
2.785447486996418,0,0,0.93852705078125,0,0,0.84084
2.7868255649809726,0,0,1.2401964599609374,0,0,0.45864
2.7882053460052703,0,0,1.2928688964843749,0,0,0.7644
2.7895837379910517,0,0,1.4317325927734375,0,0,0.7644
2.790966259984998,0,0,1.484405029296875,0,0,0.68796
2.7923475230054464,0,0,1.5298948608398437,0,0,0.84084
2.793729673983762,0,0,1.218648645019531,0,0,0.84084
2.795108325983165,0,0,1.218648645019531,0,0,0.68796
2.7964943289989606,0,0,1.0271125122070313,0,0,0.7644
2.797879574005492,0,0,1.1707646118164061,0,0,0.45864
2.799264928995399,0,0,1.3383587280273437,0,0,0.0
2.800650580000365,0,0,1.438915197753906,0,0,0.68796
2.8020501020073425,0,0,1.43652099609375,0,0,0.99372
2.803436160989804,0,0,1.2521674682617188,0,0,0.91728
2.80482008997933,0,0,1.2401964599609374,0,0,0.84084
2.806203390005976,0,0,1.1420341918945311,0,0,0.68796
2.808304625999881,0,0,0.9241618408203125,0,0,0.45864
2.809739036980318,0,0,1.2904746948242187,0,0,0.6115200000000001
2.811130335991038,0,0,1.35990654296875,0,0,0.84084
2.8125223029928748,0,0,1.2952630981445312,0,0,0.84084
2.8139096389932092,0,0,1.4628572143554686,0,0,0.99372
2.815296512999339,0,0,1.3168109130859373,0,0,0.99372
2.816683145996649,0,0,1.0797849487304687,0,0,0.91728
2.8180693720059935,0,0,1.1276689819335937,0,0,0.6115200000000001
2.8194555229856633,0,0,1.180341418457031,0,0,0.84084
2.820841674983967,0,0,1.3431471313476562,0,0,0.3822
2.822227844997542,0,0,1.388636962890625,0,0,0.53508
2.8236139219952747,0,0,1.3287819213867187,0,0,0.99372
2.825003870006185,0,0,1.3263877197265623,0,0,1.07016
2.826390133006498,0,0,1.0869675537109373,0,0,1.2230400000000001
2.827777394995792,0,0,1.1085153686523437,0,0,0.6115200000000001
2.82916252798168,0,0,1.139639990234375,0,0,0.45864
2.830567530996632,0,0,1.180341418457031,0,0,0.68796
2.8319548679864965,0,0,1.5346832641601562,0,0,0.3822
2.833341630990617,0,0,1.4437036010742186,0,0,0.7644
2.834727541980101,0,0,1.5394716674804687,0,0,0.68796
2.8361148230032995,0,0,1.2928688964843749,0,0,0.84084
2.837500308000017,0,0,1.197100830078125,0,0,0.84084
2.8388859590049833,0,0,1.2138602416992186,0,0,0.7644
2.8402739809826016,0,0,1.1875240234375,0,0,0.6115200000000001
2.84165978099918,0,0,1.3000515014648437,0,0,0.91728
2.8430457469949033,0,0,1.4006079711914061,0,0,0.30576000000000003
2.8444319539994467,0,0,1.47482822265625,0,0,0.99372
2.8458179569861386,0,0,1.5083470458984374,0,0,0.6115200000000001
2.847212071996182,0,0,1.0941501586914062,0,0,0.84084
2.8485985749866813,0,0,1.2856862915039062,0,0,0.68796
2.84998431900749,0,0,1.2018892333984375,0,0,0.99372
2.851376637001522,0,0,1.180341418457031,0,0,0.53508
2.852885806001723,0,0,1.3431471313476562,0,0,0.68796
2.8543769939860795,0,0,1.5011644409179687,0,0,0.84084
2.8558281629811972,0,0,1.6065093139648436,0,0,0.91728
2.857219981000526,0,0,1.4820108276367188,0,0,0.7644
2.85861485498026,0,0,1.2497732666015624,0,0,1.2230400000000001
2.8600031539972406,0,0,1.0749965454101562,0,0,0.84084
2.8613888609979767,0,0,0.9409212524414062,0,0,0.68796
2.862774568988243,0,0,1.2521674682617188,0,0,0.45864
2.8641752009862103,0,0,1.4772224243164063,0,0,0.53508
2.8655611680005677,0,0,1.419761584472656,0,0,1.07016
2.8669472449983004,0,0,1.5346832641601562,0,0,0.91728
2.8683332669897936,0,0,1.0869675537109373,0,0,0.7644
2.8697186219797004,0,0,1.1563994018554686,0,0,0.7644
2.871104514983017,0,0,1.0366893188476562,0,0,0.68796
2.8724905919807497,0,0,1.0199299072265624,0,0,0.53508
2.873876872996334,0,0,1.369483349609375,0,0,0.84084
2.875263024994638,0,0,1.4604630126953124,0,0,0.53508
2.876649065001402,0,0,1.467645617675781,0,0,0.84084
2.878035216999706,0,0,1.5370774658203123,0,0,0.84084
2.879420515993843,0,0,1.2473790649414063,0,0,1.1465999999999998
2.88080629799515,0,0,1.2138602416992186,0,0,0.6115200000000001
2.8821926529926714,0,0,1.1875240234375,0,0,0.3822
2.8835783779795747,0,0,1.1611878051757811,0,0,0.6115200000000001
2.884964084980311,0,0,1.3192051147460937,0,0,0.84084
2.8863501439918764,0,0,1.484405029296875,0,0,0.68796
2.8877496479835827,0,0,1.4939818359375,0,0,1.07016
2.889155854994897,0,0,1.43652099609375,0,0,0.7644
2.890548412979115,0,0,1.2401964599609374,0,0,1.2230400000000001
2.8919353800010867,0,0,1.1540052001953125,0,0,0.84084
2.893320456991205,0,0,1.1875240234375,0,0,1.1465999999999998
2.894706238002982,0,0,1.1923124267578125,0,0,0.53508
2.896099518984556,0,0,1.2928688964843749,0,0,0.53508
2.8974847820063587,0,0,1.4341267944335936,0,0,0.68796
2.8988709340046626,0,0,1.6041151123046875,0,0,0.99372
2.9002569369913545,0,0,1.426944189453125,0,0,0.84084
2.901642421988072,0,0,1.199495031738281,0,0,1.2230400000000001
2.903028536005877,0,0,1.1444283935546875,0,0,0.91728
2.904414466000162,0,0,1.0223241088867188,0,0,0.6115200000000001
2.9058003389800433,0,0,1.2114660400390624,0,0,0.6115200000000001
2.9071865459845867,0,0,1.3287819213867187,0,0,0.53508
2.9085733459796757,0,0,1.5227122558593749,0,0,0.68796
2.9099591269914526,0,0,1.5298948608398437,0,0,0.91728
2.9113449080032296,0,0,1.5083470458984374,0,0,0.91728
2.9127304299909156,0,0,1.1635820068359375,0,0,0.99372
2.914116489002481,0,0,1.1180921752929687,0,0,0.91728
2.9155020299949683,0,0,1.197100830078125,0,0,0.68796
2.91688832899672,0,0,1.3766659545898436,0,0,1.07016
2.918274110998027,0,0,1.4604630126953124,0,0,0.6115200000000001
2.919659965991741,0,0,1.5083470458984374,0,0,0.84084
2.9210607839922886,0,0,1.446097802734375,0,0,0.7644
2.92244873198797,0,0,1.3527239379882812,0,0,0.7644
2.923836753994692,0,0,1.3168109130859373,0,0,0.84084
2.9253599410003517,0,0,1.1013327636718748,0,0,0.91728
2.926750776998233,0,0,1.2378022583007813,0,0,0.7644
2.9281379469903186,0,0,1.3479355346679687,0,0,0.68796
2.929523525002878,0,0,1.4221557861328125,0,0,0.53508
2.9309099359961692,0,0,1.438915197753906,0,0,0.6115200000000001
2.93229664300452,0,0,1.6304513305664061,0,0,0.91728
2.9336831829859875,0,0,1.2593500732421874,0,0,0.99372
2.935080500988988,0,0,1.2210428466796874,0,0,0.6115200000000001
2.9364667079935316,0,0,1.0462661254882812,0,0,0.68796
2.9378526560030878,0,0,1.3096283081054687,0,0,0.53508
2.9392390479915775,0,0,1.4437036010742186,0,0,0.30576000000000003
2.940625032992102,0,0,1.3958195678710936,0,0,0.91728
2.942011259001447,0,0,1.5849614990234373,0,0,0.91728
2.943397520983126,0,0,1.2856862915039062,0,0,0.6115200000000001
2.9447832650039345,0,0,1.2593500732421874,0,0,1.07016
2.9461694909841754,0,0,1.197100830078125,0,0,0.3822
2.947564401983982,0,0,1.0797849487304687,0,0,0.7644
2.948950682999566,0,0,1.1851298217773436,0,0,0.68796
2.9503422789857723,0,0,1.2856862915039062,0,0,0.3822
2.9517477639892604,0,0,1.3527239379882812,0,0,0.91728
2.95313439698657,0,0,1.5107412475585937,0,0,0.68796
2.9545210670039523,0,0,1.2306196533203124,0,0,0.91728
2.95590755098965,0,0,1.254561669921875,0,0,0.84084
2.957292998995399,0,0,1.1707646118164061,0,0,0.68796
2.9586792799818795,0,0,1.1635820068359375,0,0,0.53508
2.9600657649862114,0,0,1.235408056640625,0,0,0.7644
2.9614509719831403,0,0,1.5394716674804687,0,0,0.6115200000000001
2.9628372349834535,0,0,1.429338391113281,0,0,0.68796
2.964223589980975,0,0,1.6256629272460936,0,0,0.91728
2.9656099639832973,0,0,1.158793603515625,0,0,0.7644
2.9669965409848373,0,0,1.2018892333984375,0,0,0.53508
2.968382692983141,0,0,0.9864110839843749,0,0,0.99372
2.9697688809828833,0,0,1.1133037719726562,0,0,0.6115200000000001
2.9711553289962467,0,0,1.2497732666015624,0,0,-8.943480000000001
2.9725430549879093,0,0,1.5466542724609373,0,0,0.45864
2.9739367619913537,0,0,1.5035586425781249,0,0,0.84084
2.9753233949886635,0,0,1.4867992309570313,0,0,0.7644
2.976714138989337,0,0,1.2904746948242187,0,0,1.07016
2.978113735007355,0,0,1.2952630981445312,0,0,0.6115200000000001
2.979505886003608,0,0,1.1372457885742187,0,0,0.7644
2.9808922600059304,0,0,1.2234370483398436,0,0,0.6115200000000001
2.9822786709992215,0,0,1.5251064575195312,0,0,0.07644000000000001
2.983666006999556,0,0,1.3910311645507811,0,0,0.6115200000000001
2.9850531779811718,0,0,1.2713210815429687,0,0,0.84084
2.986439144005999,0,0,1.216254443359375,0,0,0.84084
2.98782555499929,0,0,1.2880804931640624,0,0,0.99372
2.9892118540010415,0,0,1.13006318359375,0,0,0.53508
2.9906120429805014,0,0,1.16837041015625,0,0,0.6115200000000001
2.992255283985287,0,0,1.2761094848632812,0,0,0.45864
2.993636601982871,0,0,1.4604630126953124,0,0,0.91728
2.9950167539936956,0,0,1.4173673828125,0,0,0.84084
2.9963983680063393,0,0,1.3742717529296875,0,0,0.6115200000000001
2.997778186982032,0,0,1.2761094848632812,0,0,0.91728
2.9991565980017185,0,0,1.3431471313476562,0,0,0.68796
3.000537137995707,0,0,1.0702081420898437,0,0,0.84084
3.0019154750043526,0,0,1.2401964599609374,0,0,0.53508
3.0032942929829005,0,0,1.2976572998046874,0,0,0.53508
3.0046834259992465,0,0,1.5466542724609373,0,0,1.07016
3.00609061398427,0,0,1.4437036010742186,0,0,0.6115200000000001
3.0074778590060305,0,0,1.2569558715820313,0,0,0.84084
3.008864528994309,0,0,1.1635820068359375,0,0,0.7644
3.010257902002195,0,0,1.0989385620117187,0,0,0.68796
3.0116454609960783,0,0,1.120486376953125,0,0,1.07016
3.013031593989581,0,0,1.1252747802734375,0,0,0.6115200000000001
3.0144172459840775,0,0,1.4125789794921875,0,0,0.45864
3.01580380499945,0,0,1.3814543579101561,0,0,0.53508
3.017189234000398,0,0,1.4700398193359374,0,0,0.6115200000000001
3.018574699992314,0,0,1.2689268798828124,0,0,0.84084
3.0199615559831727,0,0,1.350329736328125,0,0,0.84084
3.021346817986341,0,0,1.2114660400390624,0,0,0.84084
3.0227428209909704,0,0,1.1611878051757811,0,0,0.53508
3.0241291399870533,0,0,1.2737152832031249,0,0,0.7644
3.0255150870070793,0,0,1.4245499877929686,0,0,0.07644000000000001
3.0269009610055946,0,0,1.3311761230468748,0,0,0.53508
3.028307019994827,0,0,1.3862427612304686,0,0,0.6115200000000001
3.0296935600053985,0,0,1.3096283081054687,0,0,0.91728
3.031079841981409,0,0,1.3215993164062498,0,0,0.7644
3.032466086006025,0,0,0.9528922607421875,0,0,0.7644
3.0338518299977295,0,0,1.0582371337890624,0,0,0.45864
3.03523805498844,0,0,1.1563994018554686,0,0,1.2230400000000001
3.0366241140000056,0,0,1.4508862060546874,0,0,0.6115200000000001
3.0380130620033015,0,0,1.3623007446289062,0,0,0.84084
3.039398861990776,0,0,1.3646949462890625,0,0,0.68796
3.0407847540045623,0,0,1.2306196533203124,0,0,0.68796
3.04217018300551,0,0,1.3742717529296875,0,0,0.45864
3.043555871990975,0,0,1.0702081420898437,0,0,0.91728
3.044941319996724,0,0,1.0917559570312498,0,0,0.53508
3.0463265639846213,0,0,1.3838485595703125,0,0,1.1465999999999998
3.0477137889829464,0,0,1.5107412475585937,0,0,0.53508
3.049099052004749,0,0,1.24498486328125,0,0,0.68796
3.05048416700447,0,0,1.2808978881835937,0,0,0.7644
3.0518715399957728,0,0,1.2569558715820313,0,0,0.68796
3.053257246996509,0,0,1.235408056640625,0,0,0.7644
3.054642917995807,0,0,1.1276689819335937,0,0,1.1465999999999998
3.0560288099804893,0,0,1.1180921752929687,0,0,1.2230400000000001
3.0584874129854143,0,0,1.467645617675781,0,0,0.68796
3.060051709995605,0,0,1.4604630126953124,0,0,0.84084
3.0614404729858506,0,0,1.3479355346679687,0,0,1.07016
3.062826920999214,0,0,1.2856862915039062,0,0,0.91728
3.0642134429945145,0,0,1.1324573852539062,0,0,0.68796
3.065617148997262,0,0,1.0558429321289062,0,0,0.45864
3.0670103750017006,0,0,1.0869675537109373,0,0,0.53508
3.068396249000216,0,0,1.5682020874023437,0,0,0.15288000000000002
3.0697823079826776,0,0,1.4413093994140624,0,0,0.6115200000000001
3.071167717978824,0,0,1.426944189453125,0,0,1.07016
3.072554202983156,0,0,1.1827356201171875,0,0,0.91728
3.073940392001532,0,0,1.3072341064453123,0,0,0.99372
3.0753258210024796,0,0,1.1324573852539062,0,0,0.7644
3.076711064990377,0,0,1.2617442749023438,0,0,0.3822
3.0780966979800723,0,0,1.1013327636718748,0,0,0.6115200000000001
3.0794817759888247,0,0,1.4604630126953124,0,0,0.3822
3.0808674459985923,0,0,1.426944189453125,0,0,0.84084
3.0822531529993284,0,0,1.5969325073242187,0,0,0.6115200000000001
3.0836391930060927,0,0,1.2378022583007813,0,0,0.84084
3.085025214997586,0,0,1.3192051147460937,0,0,0.45864
3.0864108669920824,0,0,1.1252747802734375,0,0,0.91728
3.0877973519964144,0,0,1.16837041015625,0,0,0.53508
3.0891835399961565,0,0,1.0965443603515623,0,0,0.99372
3.0905782289919443,0,0,1.4125789794921875,0,0,0.68796
3.0919657879858278,0,0,1.2617442749023438,0,0,0.84084
3.093349347007461,0,0,1.4030021728515625,0,0,0.7644
3.0947346829925664,0,0,1.2617442749023438,0,0,0.84084
3.096120982983848,0,0,1.2593500732421874,0,0,0.99372
3.0975053570000455,0,0,1.1109095703125,0,0,0.84084
3.098891008005012,0,0,1.1707646118164061,0,0,0.45864
3.100277011981234,0,0,1.4173673828125,0,0,0.45864
3.1016621080052573,0,0,1.446097802734375,0,0,0.6115200000000001
3.1030475739971735,0,0,1.3718775512695311,0,0,0.7644
3.1044340769876726,0,0,1.2713210815429687,0,0,0.91728
3.10582004400203,0,0,1.0893617553710937,0,0,0.99372
3.1072048250061926,0,0,1.235408056640625,0,0,0.84084
3.1086131799966097,0,0,1.1276689819335937,0,0,0.6115200000000001
3.1099997569981497,0,0,1.1947066284179686,0,0,0.45864
3.1114226680074353,0,0,1.4173673828125,0,0,0.22932
3.1128031899861526,0,0,1.455674609375,0,0,0.7644
3.114181433978956,0,0,1.3838485595703125,0,0,0.7644
3.1155594190058764,0,0,1.3024457031249999,0,0,0.84084
3.1169525889854413,0,0,1.3383587280273437,0,0,0.99372
3.1183394439867698,0,0,1.0606313354492187,0,0,0.7644
3.119743594987085,0,0,1.2497732666015624,0,0,0.45864
3.121129209990613,0,0,1.2761094848632812,0,0,0.84084
3.1225141210015863,0,0,1.5179238525390624,0,0,0.45864
3.123911141999997,0,0,1.5107412475585937,0,0,0.68796
3.1252962010039482,0,0,1.465251416015625,0,0,0.84084
3.126680741988821,0,0,1.1851298217773436,0,0,0.91728
3.128066448989557,0,0,1.2378022583007813,0,0,0.7644
3.1294508969876915,0,0,1.1061211669921875,0,0,0.91728
3.130835418996867,0,0,1.1707646118164061,0,0,0.7644
3.132220589002827,0,0,1.4413093994140624,0,0,0.84084
3.133605629001977,0,0,1.4796166259765624,0,0,0.68796
3.134990613994887,0,0,1.2808978881835937,0,0,0.84084
3.136375895002857,0,0,1.4030021728515625,0,0,0.84084
3.137760786979925,0,0,1.1635820068359375,0,0,0.7644
3.1391461239836644,0,0,1.1109095703125,0,0,0.84084
3.140531293989625,0,0,1.1133037719726562,0,0,0.68796
3.1419166489795316,0,0,1.2641384765625,0,0,0.45864
3.143301485979464,0,0,1.4413093994140624,0,0,0.3822
3.144686711981194,0,0,1.407790576171875,0,0,0.53508
3.1460750669939443,0,0,1.458068811035156,0,0,0.99372
3.1474602929956745,0,0,1.3407529296874998,0,0,0.7644
3.1488458329986315,0,0,1.1923124267578125,0,0,0.7644
3.150230522005586,0,0,1.0127473022460938,0,0,0.84084
3.1516159320017323,0,0,1.218648645019531,0,0,0.84084
3.153034935006872,0,0,1.2737152832031249,0,0,0.68796
3.1544339759857394,0,0,1.465251416015625,0,0,0.53508
3.1558226640045177,0,0,1.5131354492187499,0,0,0.6115200000000001
3.1572063339990564,0,0,1.5705962890624998,0,0,0.6115200000000001
3.1585913930030074,0,0,1.3024457031249999,0,0,0.6115200000000001
3.159977600007551,0,0,1.2401964599609374,0,0,0.99372
3.1613620849966537,0,0,1.0869675537109373,0,0,0.6115200000000001
3.162747384980321,0,0,1.1372457885742187,0,0,0.6115200000000001
3.1641338329936843,0,0,1.3000515014648437,0,0,0.53508
3.1655178549990524,0,0,1.438915197753906,0,0,0.53508
3.166903136007022,0,0,1.3838485595703125,0,0,0.99372
3.1682890279917046,0,0,1.5562310791015623,0,0,0.91728
3.1696741429914255,0,0,1.2473790649414063,0,0,0.7644
3.1710594609903637,0,0,1.16837041015625,0,0,0.84084
3.1724440380057786,0,0,1.0726023437499999,0,0,0.7644
3.1738471709832083,0,0,1.1659762084960936,0,0,0.84084
3.1752288779825903,0,0,1.2306196533203124,0,0,0.68796
3.176823379006237,0,0,1.3838485595703125,0,0,0.6115200000000001
3.1782119749987032,0,0,1.5298948608398437,0,0,0.68796
3.1796083859808277,0,0,1.3359645263671873,0,0,0.6115200000000001
3.1809880009968765,0,0,1.1731588134765625,0,0,0.91728
3.1823925960052293,0,0,1.1109095703125,0,0,0.68796
3.183777136990102,0,0,1.1947066284179686,0,0,0.68796
3.1851564359967597,0,0,1.2138602416992186,0,0,0.6115200000000001
3.1865351439919323,0,0,1.4030021728515625,0,0,0.45864
3.1879150359891355,0,0,1.5179238525390624,0,0,0.7644
3.189293761999579,0,0,1.5418658691406248,0,0,0.7644
3.190671710006427,0,0,1.3551181396484375,0,0,0.84084
3.192051731981337,0,0,1.1276689819335937,0,0,0.99372
3.193430419982178,0,0,1.2401964599609374,0,0,0.6115200000000001
3.1948084789910354,0,0,1.199495031738281,0,0,0.3822
3.196195000986336,0,0,1.199495031738281,0,0,0.53508
3.1975807269918732,0,0,1.3383587280273437,0,0,0.7644
3.198973970982479,0,0,1.3814543579101561,0,0,0.6115200000000001
3.2003595480055083,0,0,1.5538368774414062,0,0,0.53508
3.201745273981942,0,0,1.2593500732421874,0,0,0.68796
3.203130980982678,0,0,1.216254443359375,0,0,0.6115200000000001
3.204516743979184,0,0,1.0797849487304687,0,0,0.7644
3.205902468995191,0,0,1.0797849487304687,0,0,0.6115200000000001
3.2072875649901107,0,0,1.2306196533203124,0,0,0.99372
3.2086732540046796,0,0,1.4317325927734375,0,0,0.45864
3.2100592569913715,0,0,1.4030021728515625,0,0,0.84084
3.211444335000124,0,0,1.5107412475585937,0,0,0.99372
3.212829875003081,0,0,1.3192051147460937,0,0,0.99372
3.2142152859887574,0,0,1.209071838378906,0,0,0.7644
3.215600862982683,0,0,1.0965443603515623,0,0,0.91728
3.2169862930022646,0,0,1.0606313354492187,0,0,0.30576000000000003
3.2183718890009914,0,0,1.350329736328125,0,0,0.6115200000000001
3.2197584839886986,0,0,1.4987702392578124,0,0,0.45864
3.221143876988208,0,0,1.407790576171875,0,0,1.1465999999999998
3.2225291389913764,0,0,1.5394716674804687,0,0,0.7644
3.2239215500012506,0,0,1.2042834350585936,0,0,0.99372
3.225306053995155,0,0,1.189918225097656,0,0,0.68796
3.2266913159983233,0,0,1.1947066284179686,0,0,0.91728
3.228076819999842,0,0,1.149216796875,0,0,0.53508
3.229462304007029,0,0,1.3407529296874998,0,0,0.6115200000000001
3.2308476039906964,0,0,1.4221557861328125,0,0,0.7644
3.232233663002262,0,0,1.5107412475585937,0,0,0.68796
3.233618462982122,0,0,1.4317325927734375,0,0,0.84084
3.2350034849951044,0,0,1.2593500732421874,0,0,0.99372
3.236389080993831,0,0,1.1109095703125,0,0,0.7644
3.2377741769887507,0,0,1.16837041015625,0,0,0.84084
3.2391594020009506,0,0,1.2330138549804688,0,0,0.45864
3.240552534989547,0,0,1.4628572143554686,0,0,0.3822
3.2419443159888033,0,0,1.4030021728515625,0,0,0.53508
3.2433300419943407,0,0,1.5107412475585937,0,0,0.91728
3.244715674984036,0,0,1.3551181396484375,0,0,0.7644
3.246101049007848,0,0,1.2761094848632812,0,0,0.99372
3.247486514999764,0,0,1.189918225097656,0,0,1.07016
3.24887198099168,0,0,1.0965443603515623,0,0,0.6115200000000001
3.2502572249795776,0,0,1.3527239379882812,0,0,0.7644
3.2516425990033895,0,0,1.5179238525390624,0,0,0.30576000000000003
3.2530286029796116,0,0,1.4437036010742186,0,0,0.99372
3.254414199007442,0,0,1.4341267944335936,0,0,0.68796
3.2558008499909192,0,0,1.0797849487304687,0,0,0.91728
3.2571853539848235,0,0,1.2114660400390624,0,0,0.84084
3.2585710419807583,0,0,1.1228805786132812,0,0,0.99372
3.2599569339945447,0,0,1.0749965454101562,0,0,0.6115200000000001
3.26134145600372,0,0,1.2713210815429687,0,0,0.6115200000000001
3.262726903980365,0,0,1.4221557861328125,0,0,0.53508
3.26411325900699,0,0,1.458068811035156,0,0,0.7644
3.2654980219958816,0,0,1.484405029296875,0,0,0.84084
3.266883321979549,0,0,1.3335703247070312,0,0,0.91728
3.268269046995556,0,0,1.2042834350585936,0,0,0.84084
3.269654253992485,0,0,1.149216796875,0,0,0.68796
3.2710399240022525,0,0,1.2713210815429687,0,0,0.53508
3.2724251500039827,0,0,1.4173673828125,0,0,0.84084
3.2738102650037035,0,0,1.3838485595703125,0,0,0.91728
3.275195656984579,0,0,1.407790576171875,0,0,0.68796
3.27660058598849,0,0,1.5131354492187499,0,0,0.68796
3.277985792985419,0,0,1.2425906616210938,0,0,1.07016
3.279371204000199,0,0,1.2114660400390624,0,0,0.84084
3.280761280999286,0,0,1.1659762084960936,0,0,0.84084
3.2821469329937827,0,0,1.216254443359375,0,0,0.68796
3.283532992005348,0,0,1.438915197753906,0,0,0.45864
3.2849191989807878,0,0,1.3862427612304686,0,0,0.84084
3.286315201985417,0,0,1.5705962890624998,0,0,0.84084
3.287701556982938,0,0,1.4891934326171874,0,0,0.99372
3.2890868749818765,0,0,1.149216796875,0,0,0.91728
3.290472211985616,0,0,1.0917559570312498,0,0,0.6115200000000001
3.291858401003992,0,0,1.1252747802734375,0,0,0.53508
3.293243441003142,0,0,1.3072341064453123,0,0,0.84084
3.294629203999648,0,0,1.419761584472656,0,0,0.45864
3.296015373984119,0,0,1.4173673828125,0,0,0.7644
3.29740061800112,0,0,1.5131354492187499,0,0,0.91728
3.298794342990732,0,0,1.2832920898437499,0,0,0.84084
3.3001800880010705,0,0,1.2976572998046874,0,0,0.99372
3.3015658869990148,0,0,1.1516109985351561,0,0,1.07016
3.302951353980461,0,0,1.1444283935546875,0,0,0.7644
3.304336245986633,0,0,1.3144167114257812,0,0,0.84084
3.305722174991388,0,0,1.4915876342773438,0,0,0.91728
3.307108974986477,0,0,1.39821376953125,0,0,0.53508
3.3093201360024977,0,0,1.2425906616210938,0,0,1.1465999999999998
3.310769509000238,0,0,1.2880804931640624,0,0,0.91728
3.3121869750029873,0,0,1.0630255371093749,0,0,0.91728
3.3135728299967013,0,0,1.2042834350585936,0,0,0.45864
3.314958723000018,0,0,1.3742717529296875,0,0,0.53508
3.316344744001981,0,0,1.4820108276367188,0,0,0.7644
3.3177302289986983,0,0,1.3766659545898436,0,0,1.07016
3.319115824997425,0,0,1.458068811035156,0,0,0.84084
3.320501179987332,0,0,1.2593500732421874,0,0,0.84084
3.321886090998305,0,0,1.2569558715820313,0,0,0.6115200000000001
3.3232710019801743,0,0,1.0869675537109373,0,0,0.6115200000000001
3.324655728007201,0,0,1.1707646118164061,0,0,0.84084
3.3260412869858555,0,0,1.3479355346679687,0,0,1.1465999999999998
3.327426715986803,0,0,1.4317325927734375,0,0,0.53508
3.328812405001372,0,0,1.3455413330078123,0,0,0.99372
3.3302167039946653,0,0,1.455674609375,0,0,0.53508
3.3316028179833665,0,0,1.0965443603515623,0,0,0.91728
3.3329874699993525,0,0,1.1324573852539062,0,0,0.53508
3.3343713250069413,0,0,1.0773907470703123,0,0,0.7644
3.335769736004295,0,0,1.0941501586914062,0,0,0.6115200000000001
3.3372565530007705,0,0,1.4508862060546874,0,0,0.6115200000000001
3.338642927003093,0,0,1.4413093994140624,0,0,0.84084
3.3400304300012067,0,0,1.5083470458984374,0,0,0.68796
3.3414168960007373,0,0,1.369483349609375,0,0,0.7644
3.342802233004477,0,0,1.1540052001953125,0,0,0.68796
3.344187773996964,0,0,1.0821791503906248,0,0,0.45864
3.3455733330047224,0,0,1.149216796875,0,0,0.91728
3.3469582249817904,0,0,1.2808978881835937,0,0,0.68796
3.3483434689987916,0,0,1.3934253662109375,0,0,0.53508
3.3497285089979414,0,0,1.3862427612304686,0,0,0.6115200000000001
3.3511134199798107,0,0,1.6208745239257811,0,0,0.91728
3.3525007200078107,0,0,1.3623007446289062,0,0,1.1465999999999998
3.353886500990484,0,0,1.158793603515625,0,0,0.84084
3.355271801003255,0,0,1.0797849487304687,0,0,0.6115200000000001
3.356657099997392,0,0,1.1540052001953125,0,0,0.68796
3.3580564559961203,0,0,1.3024457031249999,0,0,-9.24924
3.3594432919926476,0,0,1.4149731811523436,0,0,0.6115200000000001
3.360866831993917,0,0,1.3335703247070312,0,0,0.99372
3.3622538539930247,0,0,1.5562310791015623,0,0,0.84084
3.3636402279953472,0,0,1.3766659545898436,0,0,1.07016
3.365025971987052,0,0,1.2401964599609374,0,0,0.6115200000000001
3.3664181789790746,0,0,1.0103531005859374,0,0,0.6115200000000001
3.3678067379805725,0,0,1.0749965454101562,0,0,0.68796
3.3691903889994137,0,0,1.3910311645507811,0,0,0.68796
3.3705755039991345,0,0,1.3862427612304686,0,0,1.07016
3.3719605809892528,0,0,1.369483349609375,0,0,0.84084
3.373372843983816,0,0,1.4221557861328125,0,0,0.7644
3.374768679990666,0,0,1.1563994018554686,0,0,0.7644
3.376151090982603,0,0,1.2425906616210938,0,0,0.84084
3.3775708350003697,0,0,1.1444283935546875,0,0,0.99372
3.378952245984692,0,0,1.197100830078125,0,0,0.68796
3.3803339159931056,0,0,1.3575123413085937,0,0,0.68796
3.381712307978887,0,0,1.6017209106445311,0,0,0.53508
3.3830911639961414,0,0,1.5155296508789062,0,0,0.53508
3.38447218600777,0,0,1.5131354492187499,0,0,0.7644
3.3858529849967454,0,0,1.2210428466796874,0,0,1.07016
3.3872314890031703,0,0,1.13006318359375,0,0,0.68796
3.388611176982522,0,0,1.2114660400390624,0,0,0.53508
3.3900088839873206,0,0,1.199495031738281,0,0,0.53508
3.3913893879798707,0,0,1.3479355346679687,0,0,0.22932
3.3927699649939314,0,0,1.4772224243164063,0,0,0.6115200000000001
3.394148524006596,0,0,1.5586252807617187,0,0,0.84084
3.39552689800621,0,0,1.5131354492187499,0,0,1.07016
3.396914549986832,0,0,1.197100830078125,0,0,1.1465999999999998
3.3982995899859816,0,0,1.0749965454101562,0,0,0.7644
3.3996867969981395,0,0,1.16837041015625,0,0,0.53508
3.4010798929957673,0,0,1.3838485595703125,0,0,0.91728
3.4024627299804706,0,0,1.458068811035156,0,0,0.3822
3.4038494739797898,0,0,1.3383587280273437,0,0,0.7644
3.4054679929977283,0,0,1.5825672973632812,0,0,0.84084
3.406848237005761,0,0,1.2928688964843749,0,0,0.84084
3.408230240980629,0,0,1.235408056640625,0,0,0.84084
3.409609911002917,0,0,1.209071838378906,0,0,0.7644
3.4109885439975187,0,0,1.2234370483398436,0,0,0.53508
3.4123688619874883,0,0,1.2856862915039062,0,0,0.99372
3.4137471620051656,0,0,1.467645617675781,0,0,0.53508
3.4151252029987518,0,0,1.3646949462890625,0,0,-9.09636
3.4165252239909023,0,0,1.5203180541992187,0,0,0.68796
3.417910430987831,0,0,1.197100830078125,0,0,0.84084
3.419289415993262,0,0,1.1180921752929687,0,0,0.68796
3.420668234990444,0,0,1.0941501586914062,0,0,0.45864
3.422058405005373,0,0,1.2785036865234374,0,0,0.6115200000000001
3.4234372600039933,0,0,1.2856862915039062,0,0,0.7644
3.4248244669870473,0,0,1.3814543579101561,0,0,0.68796
3.426210062985774,0,0,1.3192051147460937,0,0,0.84084
3.4275954919867218,0,0,1.3838485595703125,0,0,0.84084
3.4289805139997043,0,0,1.1947066284179686,0,0,0.99372
3.4303656469855923,0,0,1.1540052001953125,0,0,0.91728
3.431751725001959,0,0,1.197100830078125,0,0,0.53508
3.433136134990491,0,0,1.2521674682617188,0,0,0.68796
3.4345212869811803,0,0,1.3479355346679687,0,0,0.30576000000000003
3.435909197985893,0,0,1.3168109130859373,0,0,0.6115200000000001
3.437293052993482,0,0,1.4245499877929686,0,0,0.7644
3.438677964004455,0,0,1.484405029296875,0,0,0.91728
3.440064281981904,0,0,1.20667763671875,0,0,1.2994800000000002
3.4414481190033257,0,0,1.1348515869140625,0,0,0.91728
3.442833381006494,0,0,1.209071838378906,0,0,0.6115200000000001
3.44421871798113,0,0,1.1540052001953125,0,0,0.68796
3.445603647007374,0,0,1.2617442749023438,0,0,0.45864
3.4469884840073064,0,0,1.4173673828125,0,0,1.07016
3.4483738580020145,0,0,1.6543933471679686,0,0,0.91728
3.4497590090031736,0,0,1.2904746948242187,0,0,0.91728
3.451143679994857,0,0,1.2785036865234374,0,0,0.7644
3.4525302939873654,0,0,1.180341418457031,0,0,0.7644
3.453915222984506,0,0,1.1635820068359375,0,0,0.53508
3.4553004860063083,0,0,1.0893617553710937,0,0,1.1465999999999998
3.456687914993381,0,0,1.5059528442382812,0,0,0.6115200000000001
3.4580730849993415,0,0,1.3934253662109375,0,0,1.1465999999999998
3.45945840398781,0,0,1.3862427612304686,0,0,0.84084
3.4608438329887576,0,0,1.2234370483398436,0,0,0.53508
3.4622382069937885,0,0,1.1611878051757811,0,0,0.68796
3.4636397839931305,0,0,0.9648632690429687,0,0,0.6115200000000001
3.465025657991646,0,0,1.20667763671875,0,0,0.53508
3.466410567983985,0,0,1.3263877197265623,0,0,0.84084
3.4677978119871113,0,0,1.4125789794921875,0,0,0.84084
3.4691826310008764,0,0,1.35990654296875,0,0,0.53508
3.470567671000026,0,0,1.3862427612304686,0,0,0.53508
3.471953508007573,0,0,1.24498486328125,0,0,0.99372
3.4733378079836257,0,0,1.3575123413085937,0,0,0.53508
3.4747322920011356,0,0,1.2473790649414063,0,0,1.07016
3.4761180359928403,0,0,1.1827356201171875,0,0,0.3822
3.4775026879797224,0,0,1.3000515014648437,0,0,0.53508
3.4788882650027517,0,0,1.419761584472656,0,0,0.53508
3.4802737690042704,0,0,1.5083470458984374,0,0,0.99372
3.4816590870032087,0,0,1.180341418457031,0,0,0.84084
3.4830442759848665,0,0,1.2042834350585936,0,0,0.91728
3.4844297969830222,0,0,1.2378022583007813,0,0,0.68796
3.485814744984964,0,0,1.20667763671875,0,0,0.68796
3.487199989001965,0,0,1.2497732666015624,0,0,0.84084
3.488587419007672,0,0,1.446097802734375,0,0,0.53508
3.489972940995358,0,0,1.467645617675781,0,0,0.68796
3.491358500003116,0,0,1.5107412475585937,0,0,0.7644
3.4927436699799728,0,0,1.189918225097656,0,0,0.7644
3.494129155005794,0,0,1.3144167114257812,0,0,0.84084
3.495514768990688,0,0,1.2401964599609374,0,0,0.84084
3.496899994992418,0,0,1.24498486328125,0,0,0.45864
3.4982850909873378,0,0,1.2593500732421874,0,0,0.91728
3.499683815985918,0,0,1.5418658691406248,0,0,0.53508
3.501069652993465,0,0,1.4437036010742186,0,0,0.7644
3.5024550819944125,0,0,1.4939818359375,0,0,0.99372
3.5038417519826908,0,0,1.1755530151367186,0,0,0.99372
3.505232569994405,0,0,1.1156979736328125,0,0,0.68796
3.5066177219850942,0,0,1.0917559570312498,0,0,0.68796
3.5080035769788083,0,0,1.1037269653320312,0,0,0.30576000000000003
3.5093880429922137,0,0,1.209071838378906,0,0,0.99372
3.5107729729788844,0,0,1.4006079711914061,0,0,0.53508
3.5121696429851,0,0,1.3766659545898436,0,0,0.84084
3.513554720004322,0,0,1.37906015625,0,0,0.7644
3.5149398899811786,0,0,1.2641384765625,0,0,0.99372
3.5163251709891483,0,0,1.3215993164062498,0,0,0.84084
3.5177104900067206,0,0,1.1156979736328125,0,0,0.7644
3.5190956970036495,0,0,1.1827356201171875,0,0,0.6115200000000001
3.5204811439907644,0,0,1.1516109985351561,0,0,0.7644
3.5218663699924946,0,0,1.5634136840820312,0,0,0.53508
3.5232514109811746,0,0,1.5227122558593749,0,0,0.7644
3.5246368210064247,0,0,1.3000515014648437,0,0,0.6115200000000001
3.526022379985079,0,0,1.2473790649414063,0,0,0.99372
3.527407513000071,0,0,1.199495031738281,0,0,0.84084
3.528792793978937,0,0,1.189918225097656,0,0,0.7644
3.530178093991708,0,0,1.350329736328125,0,0,0.84084
3.5315631720004603,0,0,1.4604630126953124,0,0,0.6115200000000001
3.532956415991066,0,0,1.3814543579101561,0,0,0.6115200000000001
3.5343418449920136,0,0,1.5083470458984374,0,0,0.7644
3.5357379959896207,0,0,1.2210428466796874,0,0,0.91728
3.537128184980247,0,0,1.1611878051757811,0,0,1.07016
3.5385136700060684,0,0,1.1156979736328125,0,0,0.68796
3.5398996179865208,0,0,1.2042834350585936,0,0,0.6115200000000001
3.541283528000349,0,0,1.3455413330078123,0,0,0.7644
3.54266840199125,0,0,1.4724340209960938,0,0,0.45864
3.544054497993784,0,0,1.3383587280273437,0,0,1.07016
3.545438926987117,0,0,1.3862427612304686,0,0,0.7644
3.5468245600059163,0,0,1.2617442749023438,0,0,0.99372
3.548209822998615,0,0,1.0845733520507812,0,0,0.68796
3.549601512000663,0,0,1.0965443603515623,0,0,0.53508
3.550986551999813,0,0,1.1731588134765625,0,0,0.84084
3.5523715919989627,0,0,1.3120225097656248,0,0,0.68796
3.553756670007715,0,0,1.599326708984375,0,0,0.84084
3.5551418209797703,0,0,1.2401964599609374,0,0,0.91728
3.5565271399973426,0,0,1.3934253662109375,0,0,1.1465999999999998
3.5579118650057353,0,0,1.2401964599609374,0,0,0.91728
3.5593045910063665,0,0,1.3024457031249999,0,0,0.84084
3.5607516120071523,0,0,1.1180921752929687,0,0,0.84084
3.5621559669962153,0,0,1.1109095703125,0,0,0.6115200000000001
3.563542118994519,0,0,1.4245499877929686,0,0,0.53508
3.5649257519980893,0,0,1.3910311645507811,0,0,0.68796
3.56630903299083,0,0,1.3024457031249999,0,0,0.6115200000000001
3.5679039410024416,0,0,1.3646949462890625,0,0,0.68796
3.569309758982854,0,0,1.2234370483398436,0,0,1.07016
3.5706904479884543,0,0,1.1563994018554686,0,0,0.7644
3.572071987990057,0,0,1.1635820068359375,0,0,0.84084
3.573451139993267,0,0,1.1061211669921875,0,0,0.68796
3.574853569007246,0,0,1.43652099609375,0,0,0.3822
3.5762591829989105,0,0,1.4987702392578124,0,0,0.7644
3.577658797992626,0,0,1.5705962890624998,0,0,0.6115200000000001
3.5790381529950537,0,0,1.2713210815429687,0,0,0.7644
3.5804198419791646,0,0,1.2330138549804688,0,0,0.7644
3.581798308005091,0,0,1.0749965454101562,0,0,0.53508
3.583176496991655,0,0,1.197100830078125,0,0,0.45864
3.584556944988435,0,0,1.3287819213867187,0,0,0.84084
