Time,AccelX1,AccelY1,AccelZ1,AccelX2,AccelY2,AccelZ2
4.184985300526023e-06,0,0,1.3527239379882812,0,0,0.91728
0.0037648069846909493,0,0,1.4867992309570313,0,0,0.6115200000000001
0.008127698994940147,0,0,1.3383587280273437,0,0,0.7644
0.011663174984278157,0,0,1.5634136840820312,0,0,0.53508
0.015984271973138675,0,0,1.0749965454101562,0,0,0.91728
0.019492803985485807,0,0,1.3048399047851562,0,0,0.45864
0.02299366897204891,0,0,1.2282254516601563,0,0,0.99372
0.027391893992898986,0,0,1.1228805786132812,0,0,0.99372
0.03094074098044075,0,0,1.4437036010742186,0,0,0.68796
0.0344452359713614,0,0,1.2713210815429687,0,0,0.7644
0.037942119990475476,0,0,1.3670891479492187,0,0,0.68796
0.041435596998780966,0,0,1.5275006591796874,0,0,0.84084
0.04495640698587522,0,0,1.1420341918945311,0,0,0.7644
0.04847056799917482,0,0,1.177947216796875,0,0,0.68796
0.05198697099694982,0,0,1.6304513305664061,0,0,0.99372
0.05550248399958946,0,0,1.2569558715820313,0,0,0.84084
0.05901883097249083,0,0,1.3742717529296875,0,0,0.68796
0.06253660397487693,0,0,1.6328455322265625,0,0,1.911
0.06605211697751656,0,0,1.0797849487304687,0,0,0.91728
0.06956311297835782,0,0,1.3575123413085937,0,0,0.53508
0.07389507899642922,0,0,1.2497732666015624,0,0,0.91728
0.07756873898324557,0,0,1.3192051147460937,0,0,0.45864
0.08109530797810294,0,0,1.235408056640625,0,0,0.68796
0.08472335699480027,0,0,1.3263877197265623,0,0,0.53508
0.08817653797450475,0,0,1.1252747802734375,0,0,0.45864
0.09098048598389141,0,0,1.2306196533203124,0,0,0.91728
0.09378208199632354,0,0,1.2880804931640624,0,0,0.45864
0.09658202997525223,0,0,1.1276689819335937,0,0,0.6115200000000001
0.09938199698808603,0,0,1.3359645263671873,0,0,0.6115200000000001
0.10218387097120285,0,0,1.4125789794921875,0,0,0.7644
0.10498079998069443,0,0,1.4030021728515625,0,0,0.84084
0.10778041498269886,0,0,1.1109095703125,0,0,0.45864
0.1105740109924227,0,0,1.2832920898437499,0,0,0.68796
0.11335349598084576,0,0,1.484405029296875,0,0,0.99372
0.11615235198405571,0,0,1.16837041015625,0,0,0.3822
0.1189475409919396,0,0,1.0989385620117187,0,0,0.7644
0.12174532198696397,0,0,1.4700398193359374,0,0,0.68796
0.12454086297657341,0,0,1.3048399047851562,0,0,0.53508
0.12733564397785813,0,0,1.1061211669921875,0,0,0.99372
0.13013157399836928,0,0,1.2904746948242187,0,0,0.7644
0.13292507699225098,0,0,1.62805712890625,0,0,0.53508
0.1357214139716234,0,0,1.2713210815429687,0,0,0.7644
0.13852430699625984,0,0,1.2138602416992186,0,0,0.22932
0.14136054998380132,0,0,1.3455413330078123,0,0,2.06388
0.1441612759954296,0,0,1.3479355346679687,0,0,1.07016
0.1469700199959334,0,0,1.3407529296874998,0,0,0.6115200000000001
0.14989354097633623,0,0,1.3551181396484375,0,0,0.3822
0.15270365600008518,0,0,1.5849614990234373,0,0,0.91728
0.15550141799030825,0,0,1.235408056640625,0,0,1.07016
0.15830071797245182,0,0,1.189918225097656,0,0,0.22932
0.1611270729918033,0,0,1.3479355346679687,0,0,0.68796
0.16392513297614641,0,0,1.2761094848632812,0,0,0.84084
0.16672606198699214,0,0,1.0606313354492187,0,0,0.30576000000000003
0.1695244729926344,0,0,1.1659762084960936,0,0,1.2230400000000001
0.17232205098844133,0,0,1.369483349609375,0,0,0.99372
0.175122720975196,0,0,1.3551181396484375,0,0,0.99372
0.17803092699614353,0,0,1.1372457885742187,0,0,1.1465999999999998
0.18083028198452666,0,0,1.3527239379882812,0,0,0.53508
0.18365350799285807,0,0,1.4724340209960938,0,0,-9.172799999999999
0.18656473199371248,0,0,1.3455413330078123,0,0,0.7644
0.18962576999911107,0,0,1.1635820068359375,0,0,0.91728
0.19274271398899145,0,0,1.446097802734375,0,0,0.84084
0.1958912319969386,0,0,1.3670891479492187,0,0,0.6115200000000001
0.19900710199726745,0,0,1.1013327636718748,0,0,0.07644000000000001
0.20212408297811635,0,0,1.3742717529296875,0,0,0.7644
0.20529810097650625,0,0,1.3623007446289062,0,0,0.6115200000000001
0.20841991499764845,0,0,1.1923124267578125,0,0,1.2230400000000001
0.21153719298308715,0,0,1.2282254516601563,0,0,0.30576000000000003
0.21467035898240283,0,0,1.3407529296874998,0,0,1.1465999999999998
0.21779165498446673,0,0,1.1228805786132812,0,0,0.7644
0.22090739599661902,0,0,1.3335703247070312,0,0,0.6115200000000001
0.2240240989776794,0,0,1.678335363769531,0,0,0.6115200000000001
0.22714056199765764,0,0,1.3718775512695311,0,0,0.68796
0.2302548769803252,0,0,1.189918225097656,0,0,0.7644
0.23336943198228255,0,0,1.2569558715820313,0,0,0.99372
0.23648513498483226,0,0,1.3766659545898436,0,0,0.7644
0.2396018199797254,0,0,1.0821791503906248,0,0,0.07644000000000001
0.24272539399680682,0,0,1.3646949462890625,0,0,0.6115200000000001
0.24588165298337117,0,0,1.3718775512695311,0,0,0.7644
0.24900026398245245,0,0,1.209071838378906,0,0,0.91728
0.25211598598980345,0,0,1.419761584472656,0,0,0.53508
0.25523213398992084,0,0,1.5107412475585937,0,0,0.45864
0.25837685499573126,0,0,1.2210428466796874,0,0,0.84084
0.2614908739924431,0,0,1.0797849487304687,0,0,0.91728
0.2646059099934064,0,0,1.3862427612304686,0,0,0.7644
0.2677213359856978,0,0,1.2832920898437499,0,0,0.68796
0.27083920597215183,0,0,1.1875240234375,0,0,0.30576000000000003
0.2739908719959203,0,0,1.484405029296875,0,0,0.7644
0.2771247789787594,0,0,1.2952630981445312,0,0,0.53508
0.28024616799666546,0,0,1.1851298217773436,0,0,1.07016
0.2836691079719458,0,0,1.37906015625,0,0,1.1465999999999998
0.2868494589929469,0,0,1.3742717529296875,0,0,0.99372
0.29000303297652863,0,0,1.2210428466796874,0,0,0.7644
0.2931236619770061,0,0,1.2976572998046874,0,0,0.53508
0.2962401059921831,0,0,1.3335703247070312,0,0,0.45864
0.29935532799572684,0,0,1.22583125,0,0,1.68168
0.3024708279990591,0,0,1.254561669921875,0,0,0.68796
0.3055884569766931,0,0,1.22583125,0,0,0.7644
0.30870551298721693,0,0,1.1635820068359375,0,0,0.84084
0.31182086397893727,0,0,1.1923124267578125,0,0,0.45864
0.31493612297344953,0,0,1.6472107421875,0,0,0.91728
0.318072381982347,0,0,1.3239935180664062,0,0,0.6115200000000001
0.321166566980537,0,0,1.1037269653320312,0,0,0.84084
0.32428321498446167,0,0,1.3168109130859373,0,0,0.91728
0.32739710397436284,0,0,1.3431471313476562,0,0,0.99372
0.33051201098714955,0,0,1.0917559570312498,0,0,0.91728
0.33362343697808683,0,0,1.3623007446289062,0,0,0.7644
0.3367393069784157,0,0,1.3527239379882812,0,0,0.68796
0.33988089897320606,0,0,1.1276689819335937,0,0,0.99372
0.34299512099823914,0,0,1.2856862915039062,0,0,0.6115200000000001
0.3461093799851369,0,0,1.426944189453125,0,0,1.07016
0.34922017698409036,0,0,1.1444283935546875,0,0,0.91728
0.35233417598647065,0,0,1.139639990234375,0,0,0.6115200000000001
0.35546441699261777,0,0,1.426944189453125,0,0,0.7644
0.35858023099717684,0,0,1.1372457885742187,0,0,0.6115200000000001
0.36171958298655227,0,0,1.3000515014648437,0,0,0.45864
0.3648345449764747,0,0,1.5131354492187499,0,0,0.84084
0.36794865599949844,0,0,1.350329736328125,0,0,1.07016
0.3710613229777664,0,0,1.1276689819335937,0,0,1.07016
0.3741749889741186,0,0,1.2761094848632812,0,0,0.7644
0.37728634098311886,0,0,1.3383587280273437,0,0,0.91728
0.3803995449852664,0,0,1.0749965454101562,0,0,0.7644
0.38351334098842926,0,0,1.2904746948242187,0,0,0.30576000000000003
0.38665476598544046,0,0,1.3096283081054687,0,0,0.6115200000000001
0.38976789597654715,0,0,1.139639990234375,0,0,0.99372
0.39288082098937593,0,0,1.3623007446289062,0,0,0.7644
0.39599335798993707,0,0,1.5562310791015623,0,0,2.36964
0.399149912991561,0,0,1.3192051147460937,0,0,0.84084
0.4023433559923433,0,0,1.2521674682617188,0,0,0.68796
0.4054643559793476,0,0,1.4628572143554686,0,0,0.7644
0.408577707974473,0,0,1.1348515869140625,0,0,0.68796
0.41169015198829584,0,0,1.1037269653320312,0,0,0.99372
0.41480346699245274,0,0,1.1085153686523437,0,0,1.07016
0.41793179998057894,0,0,1.3335703247070312,0,0,1.1465999999999998
0.4210474479768891,0,0,1.1228805786132812,0,0,0.0
0.4241609289892949,0,0,1.3263877197265623,0,0,0.84084
0.4272739839798305,0,0,1.5514426757812498,0,0,0.7644
0.43038959498517215,0,0,1.13006318359375,0,0,1.60524
0.43350407597608864,0,0,1.5083470458984374,0,0,0.68796
0.43661759499809705,0,0,1.4053963745117186,0,0,1.1465999999999998
0.43972716899588704,0,0,1.1540052001953125,0,0,0.91728
0.44313859098474495,0,0,1.0845733520507812,0,0,0.68796
0.44625714598805644,0,0,1.2593500732421874,0,0,0.22932
0.44940583099378273,0,0,1.2210428466796874,0,0,0.68796
0.4525202189979609,0,0,1.35990654296875,0,0,0.84084
0.4556507929810323,0,0,1.4006079711914061,0,0,0.68796
0.4587651079928037,0,0,1.3623007446289062,0,0,0.99372
0.4618877559842076,0,0,1.0702081420898437,0,0,0.53508
0.46500336698954925,0,0,1.216254443359375,0,0,-9.32568
0.46812342197517864,0,0,1.2689268798828124,0,0,0.7644
0.47123771798214875,0,0,1.1516109985351561,0,0,1.2230400000000001
0.47434975497890264,0,0,1.2569558715820313,0,0,0.7644
0.47746408797684126,0,0,1.3192051147460937,0,0,0.99372
0.48057873599464074,0,0,1.0893617553710937,0,0,0.99372
0.4836915129853878,0,0,1.1947066284179686,0,0,0.6115200000000001
0.48683943899231963,0,0,1.618480322265625,0,0,0.99372
0.49023643499822356,0,0,1.149216796875,0,0,0.7644
0.49336067598778754,0,0,1.2785036865234374,0,0,0.45864
0.4964771009981632,0,0,1.5921441040039062,0,0,0.53508
0.499591359985061,0,0,1.350329736328125,0,0,0.68796
0.5027058229898103,0,0,1.0797849487304687,0,0,0.99372
0.5152506549784448,0,0,1.5083470458984374,0,0,1.75812
0.518689557997277,0,0,1.455674609375,0,0,0.7644
0.5218970749992877,0,0,1.1372457885742187,0,0,0.07644000000000001
0.5250079079996794,0,0,1.3024457031249999,0,0,0.84084
0.5281065939925611,0,0,1.388636962890625,0,0,0.7644
0.5312240749772172,0,0,1.1707646118164061,0,0,0.53508
0.5343874259851873,0,0,1.350329736328125,0,0,0.68796
0.5375702769961208,0,0,1.5322890624999999,0,0,0.7644
0.5406892949831672,0,0,1.20667763671875,0,0,0.84084
0.5438514049747027,0,0,1.3120225097656248,0,0,0.6115200000000001
0.5469745349837467,0,0,1.3718775512695311,0,0,0.53508
0.5500950529822148,0,0,1.4030021728515625,0,0,0.6115200000000001
0.553213811974274,0,0,1.2425906616210938,0,0,1.07016
0.5563410889881197,0,0,1.458068811035156,0,0,0.91728
0.559458903997438,0,0,1.35990654296875,0,0,0.68796
0.5626087919808924,0,0,1.2234370483398436,0,0,0.15288000000000002
0.5657258659775835,0,0,1.4341267944335936,0,0,0.6115200000000001
0.5688430879963562,0,0,1.2880804931640624,0,0,0.7644
0.5719608839717694,0,0,1.2210428466796874,0,0,0.99372
0.5750868839968462,0,0,1.1875240234375,0,0,0.45864
0.578268641984323,0,0,1.4867992309570313,0,0,1.2994800000000002
0.5813919939973857,0,0,1.2210428466796874,0,0,0.84084
0.5846193249744829,0,0,1.2665326782226562,0,0,0.53508
0.5880285439779982,0,0,1.5442600708007812,0,0,0.91728
0.5910793779767118,0,0,1.0941501586914062,0,0,0.84084
0.5938849919766653,0,0,1.0821791503906248,0,0,1.07016
0.5966854589933064,0,0,1.24498486328125,0,0,0.84084
0.5994845739915036,0,0,1.3383587280273437,0,0,0.7644
0.6022845959814731,0,0,1.216254443359375,0,0,1.1465999999999998
0.6050815619819332,0,0,1.2856862915039062,0,0,0.53508
0.6078790469910018,0,0,1.4772224243164063,0,0,0.53508
0.6106770699843764,0,0,1.2952630981445312,0,0,0.99372
0.613472480996279,0,0,1.2234370483398436,0,0,0.07644000000000001
0.6166067579761147,0,0,1.2306196533203124,0,0,0.6115200000000001
0.6194000579998828,0,0,1.2689268798828124,0,0,1.1465999999999998
0.6221853209717665,0,0,1.1109095703125,0,0,0.99372
0.6249660279718228,0,0,1.1372457885742187,0,0,0.53508
0.6277482539881021,0,0,1.2593500732421874,0,0,0.84084
0.6305388139735442,0,0,1.35990654296875,0,0,0.7644
0.6333369279745966,0,0,1.0917559570312498,0,0,0.91728
0.6361370609956793,0,0,1.3742717529296875,0,0,0.53508
0.6389350649842527,0,0,1.467645617675781,0,0,1.2994800000000002
0.641733716998715,0,0,1.3215993164062498,0,0,0.45864
0.6445312569849193,0,0,1.1444283935546875,0,0,1.2230400000000001
0.6473319829965476,0,0,1.35990654296875,0,0,0.99372
0.6503106509917416,0,0,1.3239935180664062,0,0,0.68796
0.6532374129747041,0,0,1.1420341918945311,0,0,0.99372
0.6560726009774953,0,0,1.2785036865234374,0,0,0.6115200000000001
0.6588712159718852,0,0,1.4939818359375,0,0,0.84084
0.6616687559871934,0,0,1.3383587280273437,0,0,0.84084
0.6644682039914187,0,0,1.20667763671875,0,0,0.30576000000000003
0.6672661889751907,0,0,1.3551181396484375,0,0,0.6115200000000001
0.6700650449784007,0,0,1.2665326782226562,0,0,0.68796
0.6728597709734458,0,0,1.1420341918945311,0,0,0.7644
0.6756557560001966,0,0,1.13006318359375,0,0,0.45864
0.6784539259970188,0,0,1.5322890624999999,0,0,0.99372
0.6812499849766027,0,0,1.2401964599609374,0,0,0.7644
0.6840474329947028,0,0,1.13006318359375,0,0,0.22932
0.686879176995717,0,0,1.2617442749023438,0,0,0.68796
0.6896770139865112,0,0,1.43652099609375,0,0,1.2994800000000002
0.6925075909821317,0,0,1.1276689819335937,0,0,0.84084
0.6953055019839667,0,0,1.3431471313476562,0,0,0.84084
0.698104153998429,0,0,1.455674609375,0,0,0.99372
0.7008991579932626,0,0,1.3192051147460937,0,0,0.45864
0.7036951429909095,0,0,1.0821791503906248,0,0,1.2994800000000002
0.7064929429907352,0,0,1.2785036865234374,0,0,0.68796
0.7093147419800516,0,0,1.5227122558593749,0,0,2.2167600000000003
0.7121179119858425,0,0,1.3670891479492187,0,0,0.84084
0.7149161199922673,0,0,1.218648645019531,0,0,0.3822
0.7177349749836139,0,0,1.3455413330078123,0,0,0.53508
0.7205302929796744,0,0,1.3287819213867187,0,0,0.6115200000000001
0.7233253339945804,0,0,1.2138602416992186,0,0,0.6115200000000001
0.7261248189897742,0,0,1.3407529296874998,0,0,0.3822
0.7289197119825985,0,0,1.5801730957031248,0,0,0.84084
0.7317160109814722,0,0,1.2521674682617188,0,0,0.91728
0.7345209589984734,0,0,1.1635820068359375,0,0,0.68796
0.73731675898307,0,0,1.3575123413085937,0,0,0.6115200000000001
0.7401141519949306,0,0,1.3383587280273437,0,0,0.84084
0.7429296369955409,0,0,1.218648645019531,0,0,0.6115200000000001
0.745728658977896,0,0,1.1875240234375,0,0,0.99372
0.7485257359803654,0,0,1.3024457031249999,0,0,0.7644
0.7513208879972808,0,0,1.3120225097656248,0,0,0.53508
0.754117446980672,0,0,1.0989385620117187,0,0,1.07016
0.7569107839954086,0,0,1.3144167114257812,0,0,0.45864
0.7597065839800052,0,0,1.6208745239257811,0,0,0.3822
0.7625028469774406,0,0,1.3263877197265623,0,0,1.1465999999999998
0.7652966099849436,0,0,1.177947216796875,0,0,-0.30576000000000003
0.7681021689786576,0,0,1.2473790649414063,0,0,0.30576000000000003
0.7708985059871338,0,0,1.407790576171875,0,0,1.07016
0.7737395649892278,0,0,1.2114660400390624,0,0,0.53508
0.7772574109840207,0,0,1.254561669921875,0,0,0.68796
0.7800945809867699,0,0,1.4867992309570313,0,0,0.7644
0.7828948259993922,0,0,1.2665326782226562,0,0,0.84084
0.7857254029950127,0,0,1.0821791503906248,0,0,0.7644
0.788624645996606,0,0,1.2976572998046874,0,0,0.99372
0.7915972219780087,0,0,1.2473790649414063,0,0,0.7644
0.7947115549759474,0,0,1.1516109985351561,0,0,0.7644
0.7978934239945374,0,0,1.254561669921875,0,0,0.6115200000000001
0.8010097019723617,0,0,1.22583125,0,0,0.91728
0.8041662189934868,0,0,1.1252747802734375,0,0,0.91728
0.8072863119887188,0,0,1.1348515869140625,0,0,0.84084
0.8104056629817933,0,0,1.6831237670898436,0,0,0.91728
0.8135200339893345,0,0,1.2593500732421874,0,0,0.45864
0.8172886549727991,0,0,1.3646949462890625,0,0,0.99372
0.8204048589977901,0,0,1.3910311645507811,0,0,0.7644
0.8235049509967212,0,0,1.3192051147460937,0,0,0.53508
0.8266377659747377,0,0,1.20667763671875,0,0,0.53508
0.8299210229888558,0,0,1.4963760375976562,0,0,0.6115200000000001
0.8330982249754015,0,0,1.2952630981445312,0,0,0.6115200000000001
0.836269983992679,0,0,1.0941501586914062,0,0,0.99372
0.8393907239951659,0,0,1.3766659545898436,0,0,0.7644
0.8425059279834386,0,0,1.1516109985351561,0,0,0.84084
0.8456191499717534,0,0,1.1156979736328125,0,0,0.07644000000000001
0.8487329829949886,0,0,1.22583125,0,0,0.6115200000000001
0.8518831489782315,0,0,1.2737152832031249,0,0,0.6115200000000001
0.854998426977545,0,0,1.1276689819335937,0,0,2.14032
0.8581147039949428,0,0,1.2832920898437499,0,0,0.84084
0.8612268709985074,0,0,1.4772224243164063,0,0,1.2230400000000001
0.8643418149731588,0,0,1.3575123413085937,0,0,0.45864
0.867462906986475,0,0,1.0869675537109373,0,0,0.45864
0.8705785919737536,0,0,1.467645617675781,0,0,0.53508
0.8737193689739797,0,0,1.2880804931640624,0,0,0.53508
0.8768373689963482,0,0,1.3096283081054687,0,0,1.1465999999999998
0.8799512019904796,0,0,1.5131354492187499,0,0,0.7644
0.8830662579857744,0,0,1.3646949462890625,0,0,0.99372
0.8862295899889432,0,0,1.16837041015625,0,0,0.0
0.889380403998075,0,0,1.254561669921875,0,0,1.83456
0.8924967929779086,0,0,1.3407529296874998,0,0,0.68796
0.8956250889750663,0,0,1.1827356201171875,0,0,1.1465999999999998
0.8987394039868377,0,0,1.3311761230468748,0,0,0.53508
0.9038265839917585,0,0,1.149216796875,0,0,0.6115200000000001
0.9069502129859757,0,0,1.2832920898437499,0,0,0.91728
0.9100681389973033,0,0,1.235408056640625,0,0,0.99372
0.9131804529752117,0,0,1.2928688964843749,0,0,0.91728
0.9162958789966069,0,0,1.1372457885742187,0,0,1.2230400000000001
0.9194184339721687,0,0,1.3910311645507811,0,0,0.45864
0.9225358599796891,0,0,1.4891934326171874,0,0,1.07016
0.9256475639995188,0,0,1.1731588134765625,0,0,1.2994800000000002
0.9287603039992973,0,0,1.3263877197265623,0,0,0.68796
0.9318779709865339,0,0,1.5035586425781249,0,0,1.60524
0.93499409998185,0,0,1.1755530151367186,0,0,0.7644
0.9381104329950176,0,0,1.3718775512695311,0,0,0.45864
0.9412236179923639,0,0,1.4149731811523436,0,0,0.84084
0.9443390069936868,0,0,1.139639990234375,0,0,0.53508
0.9474546919809654,0,0,1.0295067138671874,0,0,1.07016
0.9505703399772756,0,0,1.5227122558593749,0,0,0.99372
0.9536822469963226,0,0,1.2808978881835937,0,0,0.91728
0.9568514499987941,0,0,1.0797849487304687,0,0,0.07644000000000001
0.9599682829866651,0,0,1.2976572998046874,0,0,0.68796
0.9630802459723782,0,0,1.2641384765625,0,0,0.68796
0.9662356339977123,0,0,1.2713210815429687,0,0,0.7644
0.9694528179825284,0,0,1.2330138549804688,0,0,0.6115200000000001
0.9725751139922068,0,0,1.3311761230468748,0,0,1.07016
0.9756887059775181,0,0,1.1444283935546875,0,0,0.84084
0.9788047059846576,0,0,1.3096283081054687,0,0,0.45864
0.9819210389978252,0,0,1.5682020874023437,0,0,0.7644
0.9850378169794567,0,0,1.3551181396484375,0,0,0.53508
0.9881523349904455,0,0,1.024718310546875,0,0,0.91728
0.9913025379937608,0,0,1.2282254516601563,0,0,0.84084
0.9944194079726003,0,0,1.2282254516601563,0,0,1.1465999999999998
0.9975329259759746,0,0,1.1324573852539062,0,0,0.6115200000000001
1.0021778519731015,0,0,1.6112977172851561,0,0,0.99372
1.0054730349802412,0,0,1.3575123413085937,0,0,0.84084
1.0087252739758696,0,0,1.3215993164062498,0,0,0.30576000000000003
1.0120704189757816,0,0,1.6232687255859375,0,0,0.6115200000000001
1.0152982699801214,0,0,1.3335703247070312,0,0,0.22932
1.01854456399451,0,0,1.1827356201171875,0,0,0.68796
1.0217877659888472,0,0,1.6352397338867186,0,0,0.3822
1.0250275979924481,0,0,1.3455413330078123,0,0,0.7644
1.0282421519805212,0,0,1.2234370483398436,0,0,1.07016
1.0314353729772847,0,0,1.2521674682617188,0,0,0.7644
1.0346245569817256,0,0,1.5131354492187499,0,0,0.99372
1.0377989819971845,0,0,1.1947066284179686,0,0,0.22932
1.0409127039893065,0,0,1.3670891479492187,0,0,0.84084
1.04405262999353,0,0,1.2856862915039062,0,0,0.7644
1.047180147987092,0,0,1.2401964599609374,0,0,0.91728
1.0502969249791931,0,0,1.3479355346679687,0,0,0.6115200000000001
1.0534089249849785,0,0,1.6065093139648436,0,0,0.99372
1.0565536099893507,0,0,1.2737152832031249,0,0,0.84084
1.0596806279791053,0,0,1.369483349609375,0,0,0.53508
1.0627989049826283,0,0,1.6735469604492186,0,0,0.7644
1.0659813119855244,0,0,1.1252747802734375,0,0,0.53508
1.0690985709952656,0,0,1.1013327636718748,0,0,0.6115200000000001
1.072214144980535,0,0,1.4221557861328125,0,0,0.53508
1.0754153469752055,0,0,1.426944189453125,0,0,0.68796
1.0786662159953266,0,0,1.1420341918945311,0,0,0.68796
1.081947083992418,0,0,1.4724340209960938,0,0,1.2230400000000001
1.0852111379790585,0,0,1.3407529296874998,0,0,1.2230400000000001
1.088431950978702,0,0,1.1348515869140625,0,0,0.91728
1.0918129469791893,0,0,1.2808978881835937,0,0,0.6115200000000001
1.0943619539903011,0,0,1.5011644409179687,0,0,0.53508
1.0958131399820559,0,0,1.2617442749023438,0,0,0.91728
1.0979466519784182,0,0,1.0989385620117187,0,0,0.6115200000000001
1.0993930049880873,0,0,1.1133037719726562,0,0,0.91728
1.1008268029836472,0,0,1.2832920898437499,0,0,0.6115200000000001
1.102322173974244,0,0,1.3000515014648437,0,0,1.98744
1.1038465809833724,0,0,1.448492004394531,0,0,1.1465999999999998
1.1052800639881752,0,0,1.3239935180664062,0,0,0.99372
1.1067489729903173,0,0,1.2665326782226562,0,0,0.91728
1.1081495479738805,0,0,1.1324573852539062,0,0,0.6115200000000001
1.1095260319998488,0,0,1.216254443359375,0,0,1.2994800000000002
1.1109071819810197,0,0,1.3144167114257812,0,0,0.68796
1.1122808319923934,0,0,1.2569558715820313,0,0,0.53508
1.1136557599820662,0,0,1.4437036010742186,0,0,0.7644
1.1150342069740873,0,0,1.3072341064453123,0,0,0.68796
1.1164081349852495,0,0,1.1875240234375,0,0,0.84084
1.1177830069791526,0,0,1.1420341918945311,0,0,0.6115200000000001
1.1191570469818544,0,0,1.1947066284179686,0,0,1.2994800000000002
1.120530696993228,0,0,1.3431471313476562,0,0,0.6115200000000001
1.1219136799918488,0,0,1.35990654296875,0,0,0.91728
1.1232968859840184,0,0,1.5107412475585937,0,0,0.68796
1.1246790729928762,0,0,1.3862427612304686,0,0,0.53508
1.1260612229816616,0,0,1.3527239379882812,0,0,1.07016
1.1274682809889782,0,0,1.197100830078125,0,0,0.7644
1.1288535969797522,0,0,1.2569558715820313,0,0,0.84084
1.1302385439921636,0,0,1.2808978881835937,0,0,0.0
1.1316225459740963,0,0,1.3431471313476562,0,0,0.3822
1.1330062879715115,0,0,1.5227122558593749,0,0,0.3822
1.1343900679785293,0,0,1.3144167114257812,0,0,0.6115200000000001
1.1357736259815283,0,0,1.3000515014648437,0,0,0.84084
1.137156756973127,0,0,1.1276689819335937,0,0,0.99372
1.1385402219893876,0,0,1.1731588134765625,0,0,0.6115200000000001
1.1399238719895948,0,0,1.2976572998046874,0,0,0.45864
1.1413069299887866,0,0,1.3072341064453123,0,0,0.84084
1.1426902469829656,0,0,1.4173673828125,0,0,0.7644
1.1440741189871915,0,0,1.618480322265625,0,0,0.7644
1.145457639999222,0,0,1.3407529296874998,0,0,0.84084
1.146840733999852,0,0,1.2832920898437499,0,0,-9.09636
1.1482265509839635,0,0,1.1420341918945311,0,0,0.91728
1.1496207749878522,0,0,1.2713210815429687,0,0,0.0
1.1518348409736063,0,0,1.3144167114257812,0,0,0.7644
1.1532192869926803,0,0,1.4772224243164063,0,0,0.6115200000000001
1.1546114559751004,0,0,1.39821376953125,0,0,0.68796
1.1560007729858626,0,0,1.4101847778320311,0,0,1.1465999999999998
1.1573892379819881,0,0,1.1731588134765625,0,0,1.1465999999999998
1.1587709249870386,0,0,1.1707646118164061,0,0,0.45864
1.1601500189863145,0,0,1.3311761230468748,0,0,0.53508
1.1615295959927607,0,0,1.3407529296874998,0,0,0.53508
1.1629099309793673,0,0,1.3479355346679687,0,0,0.68796
1.1642892849922646,0,0,1.4532804077148436,0,0,0.99372
1.165670878981473,0,0,1.2904746948242187,0,0,0.84084
1.167059214989422,0,0,1.3263877197265623,0,0,0.7644
1.1684466049773619,0,0,1.177947216796875,0,0,0.53508
1.1698349409853108,0,0,1.199495031738281,0,0,1.2994800000000002
1.1712211649864912,0,0,1.3215993164062498,0,0,1.2230400000000001
1.1726088329742197,0,0,1.3623007446289062,0,0,0.68796
1.1739970950002316,0,0,1.5490484741210937,0,0,0.68796
1.1753834299743176,0,0,1.3024457031249999,0,0,0.68796
1.1767706359969452,0,0,1.2138602416992186,0,0,0.53508
1.1781558969814796,0,0,1.1133037719726562,0,0,0.84084
1.1795350099855568,0,0,1.1659762084960936,0,0,0.91728
1.1809143819846213,0,0,1.3144167114257812,0,0,0.0
1.1823027919745073,0,0,1.3215993164062498,0,0,0.53508
1.1837145159952343,0,0,1.5538368774414062,0,0,0.45864
1.1851059429754969,0,0,1.5035586425781249,0,0,0.68796
1.186493889981648,0,0,1.2617442749023438,0,0,0.84084
1.1878818729892373,0,0,1.1635820068359375,0,0,1.1465999999999998
1.1892693569825497,0,0,1.1755530151367186,0,0,0.45864
1.190657969971653,0,0,1.3000515014648437,0,0,0.3822
1.1920447679876816,0,0,1.3168109130859373,0,0,0.3822
1.193431880994467,0,0,1.4987702392578124,0,0,0.53508
1.194819493975956,0,0,1.3575123413085937,0,0,0.7644
1.1962068289867602,0,0,1.2952630981445312,0,0,0.91728
1.1975935159716755,0,0,1.1276689819335937,0,0,0.99372
1.1989812399842776,0,0,1.20667763671875,0,0,0.6115200000000001
1.2003683719958644,0,0,1.2617442749023438,0,0,0.7644
1.2017565409769304,0,0,1.3215993164062498,0,0,0.84084
1.2031433389929589,0,0,1.3287819213867187,0,0,0.84084
1.2045677109854296,0,0,1.4245499877929686,0,0,0.99372
1.2059574159793556,0,0,1.3096283081054687,0,0,0.84084
1.2073443439730909,0,0,1.16837041015625,0,0,0.30576000000000003
1.2087320869904943,0,0,1.0989385620117187,0,0,0.68796
1.21012049599085,0,0,1.209071838378906,0,0,1.1465999999999998
1.211507330997847,0,0,1.4030021728515625,0,0,0.99372
1.212894388998393,0,0,1.3958195678710936,0,0,0.68796
1.2142765209719073,0,0,1.43652099609375,0,0,0.6115200000000001
1.2156550229992718,0,0,1.2808978881835937,0,0,0.84084
1.2170392469852231,0,0,1.2378022583007813,0,0,0.6115200000000001
1.218429100990761,0,0,1.2114660400390624,0,0,0.68796
1.2198164729925338,0,0,1.1755530151367186,0,0,0.68796
1.221203548979247,0,0,1.1468225952148436,0,0,0.22932
1.2225865139917005,0,0,1.2521674682617188,0,0,0.30576000000000003
1.2239651079871692,0,0,1.5203180541992187,0,0,0.53508
1.2253462029912043,0,0,1.3670891479492187,0,0,0.7644
1.226737945980858,0,0,1.4173673828125,0,0,0.68796
1.2281265029741917,0,0,1.3383587280273437,0,0,0.91728
1.2295139869966079,0,0,1.1540052001953125,0,0,1.1465999999999998
1.2308960999944247,0,0,1.2234370483398436,0,0,0.22932
1.2322748419828713,0,0,1.4221557861328125,0,0,0.53508
1.233653269999195,0,0,1.419761584472656,0,0,0.30576000000000003
1.235043994995067,0,0,1.6615759521484375,0,0,0.84084
1.236431144992821,0,0,1.3551181396484375,0,0,1.07016
1.237815275992034,0,0,1.0773907470703123,0,0,1.1465999999999998
1.2391934629995376,0,0,1.1133037719726562,0,0,0.7644
1.2405721689865459,0,0,1.1635820068359375,0,0,1.2994800000000002
1.2419577449909411,0,0,1.3527239379882812,0,0,1.07016
1.2433468949748203,0,0,1.3934253662109375,0,0,0.7644
1.244734507985413,0,0,1.5897499023437498,0,0,0.91728
1.2461219729739241,0,0,1.3359645263671873,0,0,0.30576000000000003
1.247513585985871,0,0,1.24498486328125,0,0,0.3822
1.2488998839980923,0,0,1.180341418457031,0,0,0.7644
1.2502868679875974,0,0,1.218648645019531,0,0,0.84084
1.251673924998613,0,0,1.2282254516601563,0,0,0.91728
1.2530605569772888,0,0,1.2593500732421874,0,0,0.68796
1.254447799990885,0,0,1.6352397338867186,0,0,0.53508
1.2558348389866296,0,0,1.5179238525390624,0,0,0.84084
1.2572217109845951,0,0,1.2808978881835937,0,0,0.68796
1.2586088789976202,0,0,1.1707646118164061,0,0,0.91728
1.2599959179933649,0,0,1.0845733520507812,0,0,0.68796
1.2613828649919014,0,0,1.3096283081054687,0,0,0.0
1.2627696999988984,0,0,1.235408056640625,0,0,0.30576000000000003
1.2641565169906244,0,0,1.5418658691406248,0,0,0.45864
1.2655434259795584,0,0,1.369483349609375,0,0,0.7644
1.266930390993366,0,0,1.388636962890625,0,0,1.07016
1.2683175040001515,0,0,1.1444283935546875,0,0,1.07016
1.2697079129866324,0,0,1.197100830078125,0,0,0.84084
1.2710953599889763,0,0,1.158793603515625,0,0,0.99372
1.272482805972686,0,0,1.2641384765625,0,0,0.99372
1.2738709559780546,0,0,1.5227122558593749,0,0,0.99372
1.2752933649753686,0,0,1.4317325927734375,0,0,0.99372
1.2766886999888811,0,0,1.3670891479492187,0,0,0.99372
1.2780777579755522,0,0,1.3335703247070312,0,0,0.84084
1.2794648889976088,0,0,1.1061211669921875,0,0,0.3822
1.2808515769720543,0,0,1.1755530151367186,0,0,1.07016
1.2822340599959716,0,0,1.2785036865234374,0,0,0.99372
1.2836132469819859,0,0,1.3263877197265623,0,0,0.6115200000000001
1.284991952998098,0,0,1.5729904907226562,0,0,0.6115200000000001
1.2863813619769644,0,0,1.2641384765625,0,0,0.84084
1.2877684379927814,0,0,1.3311761230468748,0,0,0.7644
1.2891565699828789,0,0,1.1276689819335937,0,0,0.53508
1.2905445719952695,0,0,1.149216796875,0,0,0.68796
1.2919323509850074,0,0,1.3287819213867187,0,0,0.30576000000000003
1.2933192609925754,0,0,1.3000515014648437,0,0,0.68796
1.294707817985909,0,0,1.388636962890625,0,0,0.6115200000000001
1.296094634977635,0,0,1.6735469604492186,0,0,0.6115200000000001
1.297516636986984,0,0,1.2761094848632812,0,0,0.91728
1.2988975829794072,0,0,1.177947216796875,0,0,0.99372
1.3002763259864878,0,0,1.2018892333984375,0,0,0.6115200000000001
1.3016549019957893,0,0,1.2593500732421874,0,0,0.30576000000000003
1.3030344219878316,0,0,1.3670891479492187,0,0,0.91728
1.3044127949979156,0,0,1.4341267944335936,0,0,0.6115200000000001
1.3058695549843833,0,0,1.4987702392578124,0,0,0.91728
1.3072486869932618,0,0,1.4053963745117186,0,0,1.1465999999999998
1.3086272819782607,0,0,1.1923124267578125,0,0,0.68796
1.310013097972842,0,0,1.1085153686523437,0,0,0.6115200000000001
1.311400970997056,0,0,1.158793603515625,0,0,0.99372
1.3127883979759645,0,0,1.3048399047851562,0,0,1.1465999999999998
1.3141767149791121,0,0,1.419761584472656,0,0,1.07016
1.315563531999942,0,0,1.5346832641601562,0,0,0.84084
1.316950996988453,0,0,1.3527239379882812,0,0,0.7644
1.3183385169832036,0,0,1.254561669921875,0,0,0.6115200000000001
1.3197266859933734,0,0,1.1228805786132812,0,0,0.7644
1.3211132989963517,0,0,1.199495031738281,0,0,0.84084
1.3224955049809068,0,0,1.2306196533203124,0,0,0.6115200000000001
1.323874061985407,0,0,1.3287819213867187,0,0,0.53508
1.3253729329735506,0,0,1.6472107421875,0,0,0.91728
1.3267629169858992,0,0,1.3479355346679687,0,0,0.68796
1.3281511589884758,0,0,1.2569558715820313,0,0,0.91728
1.3295379759802017,0,0,1.0749965454101562,0,0,0.84084
1.3311482529970817,0,0,1.1611878051757811,0,0,1.45236
1.33253940299619,0,0,1.2617442749023438,0,0,0.7644
1.3339282009983435,0,0,1.2473790649414063,0,0,0.22932
1.3353089439915493,0,0,1.5729904907226562,0,0,0.6115200000000001
1.3366930199845228,0,0,1.3263877197265623,0,0,0.68796
1.3380774849792942,0,0,1.2330138549804688,0,0,0.68796
1.339460227987729,0,0,1.158793603515625,0,0,0.99372
1.340843544981908,0,0,1.1659762084960936,0,0,0.7644
1.34224911997444,0,0,1.254561669921875,0,0,-0.15288000000000002
1.3436346589878667,0,0,1.2617442749023438,0,0,0.6115200000000001
1.3450186609989032,0,0,1.2425906616210938,0,0,0.53508
1.3464042929990683,0,0,1.3335703247070312,0,0,0.84084
1.347788053972181,0,0,1.5179238525390624,0,0,0.7644
1.3491718889854383,0,0,1.1851298217773436,0,0,0.91728
1.3505558359902352,0,0,1.0941501586914062,0,0,0.7644
1.3519393929746002,0,0,1.199495031738281,0,0,0.3822
1.3533227469888516,0,0,1.3455413330078123,0,0,0.7644
1.3546992679766845,0,0,1.2378022583007813,0,0,0.68796
1.3560726219729986,0,0,1.3192051147460937,0,0,0.84084
1.357445530971745,0,0,1.3048399047851562,0,0,1.1465999999999998
1.3588295149966143,0,0,1.3192051147460937,0,0,0.84084
1.3602128499769606,0,0,1.2042834350585936,0,0,0.53508
1.361596203991212,0,0,1.2138602416992186,0,0,0.91728
1.3629813349980395,0,0,1.1540052001953125,0,0,0.84084
1.3643651889869943,0,0,1.3742717529296875,0,0,0.68796
1.3657600619771983,0,0,1.6017209106445311,0,0,0.68796
1.3671433969866484,0,0,1.3311761230468748,0,0,0.6115200000000001
1.368527157988865,0,0,1.3838485595703125,0,0,0.84084
1.369907048996538,0,0,1.3551181396484375,0,0,0.84084
1.3712792179721873,0,0,1.1611878051757811,0,0,0.91728
1.3726527939725202,0,0,1.3575123413085937,0,0,0.0
1.3740343139797915,0,0,1.2976572998046874,0,0,0.6115200000000001
1.3754177239898127,0,0,1.5610194824218748,0,0,0.30576000000000003
1.376800910977181,0,0,1.4532804077148436,0,0,0.45864
1.378185356996255,0,0,1.3335703247070312,0,0,0.91728
1.3795686369994655,0,0,1.350329736328125,0,0,0.6115200000000001
1.3809515099856071,0,0,1.177947216796875,0,0,0.68796
1.3823351039900444,0,0,1.218648645019531,0,0,0.84084
1.3837172169878613,0,0,1.2569558715820313,0,0,0.84084
1.3850998489942867,0,0,1.419761584472656,0,0,0.84084
1.3864834619744215,0,0,1.465251416015625,0,0,1.07016
1.387866111996118,0,0,1.2832920898437499,0,0,0.84084
1.3892490399884991,0,0,1.22583125,0,0,0.68796
1.3906322639959399,0,0,1.3144167114257812,0,0,0.68796
1.3920150809863117,0,0,1.158793603515625,0,0,1.45236
1.3933980269939639,0,0,1.2808978881835937,0,0,1.07016
1.3947820659959689,0,0,1.2473790649414063,0,0,0.84084
1.3961651049903594,0,0,1.5586252807617187,0,0,0.91728
1.3975478849897627,0,0,1.369483349609375,0,0,0.68796
1.3989323129935656,0,0,1.235408056640625,0,0,0.6115200000000001
1.4003839989891276,0,0,1.139639990234375,0,0,0.84084
1.4027990999748,0,0,1.3311761230468748,0,0,0.0
1.404276711982675,0,0,1.3766659545898436,0,0,0.3822
1.4056676959735341,0,0,1.4149731811523436,0,0,-9.01992
1.4070570309995674,0,0,1.2785036865234374,0,0,0.68796
1.4084441069862805,0,0,1.3431471313476562,0,0,0.91728
1.4098319049808197,0,0,1.3455413330078123,0,0,1.2230400000000001
1.4112185549747664,0,0,1.1109095703125,0,0,0.53508
1.412605186982546,0,0,1.1109095703125,0,0,0.15288000000000002
1.4140083369857166,0,0,1.3527239379882812,0,0,0.84084
1.4153958019742277,0,0,1.4413093994140624,0,0,0.53508
1.4167923589993734,0,0,1.5514426757812498,0,0,1.2230400000000001
1.4181812869792338,0,0,1.3718775512695311,0,0,0.99372
1.4195680109842215,0,0,1.2521674682617188,0,0,0.84084
1.420954401983181,0,0,1.149216796875,0,0,0.68796
1.4223406259843614,0,0,1.1444283935546875,0,0,1.37592
1.423727682995377,0,0,1.2761094848632812,0,0,0.7644
1.4251138149993494,0,0,1.3383587280273437,0,0,0.53508
1.426505705981981,0,0,1.637633935546875,0,0,0.84084
1.4278919479984324,0,0,1.3144167114257812,0,0,0.6115200000000001
1.4292779129755218,0,0,1.3168109130859373,0,0,0.68796
1.430664359999355,0,0,1.3766659545898436,0,0,0.99372
1.432051120995311,0,0,1.1827356201171875,0,0,0.68796
1.4334384749818128,0,0,1.2952630981445312,0,0,0.0
1.4348255879885983,0,0,1.3575123413085937,0,0,0.22932
1.4362126639753114,0,0,1.618480322265625,0,0,0.68796
1.437598183983937,0,0,1.5035586425781249,0,0,0.6115200000000001
1.4389849639846943,0,0,1.2761094848632812,0,0,0.99372
1.4403710219776258,0,0,1.1540052001953125,0,0,0.91728
1.4417598009749781,0,0,1.139639990234375,0,0,0.45864
1.4431459699990228,0,0,1.2210428466796874,0,0,0.0
1.4445320269733202,0,0,1.24498486328125,0,0,0.6115200000000001
1.4459186769963708,0,0,1.6160861206054686,0,0,0.45864
1.447303993976675,0,0,1.5011644409179687,0,0,0.91728
1.448689940996701,0,0,1.448492004394531,0,0,0.91728
1.4500763129908592,0,0,1.20667763671875,0,0,0.84084
1.4514648519980256,0,0,1.197100830078125,0,0,0.45864
1.4528510949749034,0,0,1.0917559570312498,0,0,0.91728
1.4542373929871246,0,0,1.3096283081054687,0,0,1.07016
1.4556232279865071,0,0,1.3431471313476562,0,0,1.1465999999999998
1.4570089149929117,0,0,1.3814543579101561,0,0,0.99372
1.4583951579988934,0,0,1.2641384765625,0,0,0.6115200000000001
1.4597805669764057,0,0,1.3407529296874998,0,0,0.53508
1.4611664399853908,0,0,1.2378022583007813,0,0,0.84084
1.4625525899755303,0,0,1.0773907470703123,0,0,1.45236
1.4639389619987924,0,0,1.3383587280273437,0,0,0.53508
1.4653248899849132,0,0,1.3120225097656248,0,0,0.3822
1.466711224988103,0,0,1.4820108276367188,0,0,0.68796
1.4680971349880565,0,0,1.37906015625,0,0,0.68796
1.4694829139916692,0,0,1.3551181396484375,0,0,0.45864
1.4708691009727772,0,0,1.1540052001953125,0,0,0.91728
1.4722548999998253,0,0,1.1635820068359375,0,0,0.7644
1.4736406239971984,0,0,1.3718775512695311,0,0,-0.07644000000000001
1.4750286629714537,0,0,1.3024457031249999,0,0,0.30576000000000003
1.4764146649977192,0,0,1.4532804077148436,0,0,0.3822
1.4778446290001739,0,0,1.5322890624999999,0,0,0.68796
1.479232093988685,0,0,1.3742717529296875,0,0,0.7644
1.480617965979036,0,0,1.3623007446289062,0,0,0.84084
1.4820065609819721,0,0,1.2282254516601563,0,0,0.7644
1.4834418589889538,0,0,1.120486376953125,0,0,0.22932
1.4848306569911074,0,0,1.2641384765625,0,0,0.68796
1.4862186959944665,0,0,1.426944189453125,0,0,0.68796
1.4876050489838235,0,0,1.4939818359375,0,0,0.84084
1.4889905699819792,0,0,1.39821376953125,0,0,0.84084
1.490377701993566,0,0,1.197100830078125,0,0,0.68796
1.4917699809884652,0,0,1.0821791503906248,0,0,0.7644
1.493155260977801,0,0,1.180341418457031,0,0,1.37592
1.4945415409747511,0,0,1.3287819213867187,0,0,0.7644
1.4959275609871838,0,0,1.4149731811523436,0,0,0.68796
1.497313284984557,0,0,1.6903063720703124,0,0,0.7644
1.4986987869779114,0,0,1.5059528442382812,0,0,0.7644
1.5000845670001581,0,0,1.2665326782226562,0,0,0.68796
1.501474883989431,0,0,1.0797849487304687,0,0,0.7644
1.5028604969847947,0,0,1.13006318359375,0,0,1.1465999999999998
1.5042462579731364,0,0,1.2641384765625,0,0,0.0
1.5056313709937967,0,0,1.3383587280273437,0,0,0.68796
1.5070168919919524,0,0,1.637633935546875,0,0,0.68796
1.5084022269875277,0,0,1.4006079711914061,0,0,0.53508
1.5098013949755114,0,0,1.35990654296875,0,0,0.91728
1.5111880819895305,0,0,1.0989385620117187,0,0,0.99372
1.5125743989774492,0,0,1.177947216796875,0,0,0.84084
1.5139603269926738,0,0,1.2713210815429687,0,0,0.45864
1.5153453099774197,0,0,1.2737152832031249,0,0,0.7644
1.516730163973989,0,0,1.3192051147460937,0,0,0.53508
1.51811651798198,0,0,1.4125789794921875,0,0,0.7644
1.5195015569915995,0,0,1.2904746948242187,0,0,0.99372
1.5208865589811467,0,0,1.1372457885742187,0,0,0.7644
1.522288171981927,0,0,1.1180921752929687,0,0,0.7644
1.5236741369881202,0,0,1.1731588134765625,0,0,0.7644
1.5250596199766733,0,0,1.2737152832031249,0,0,0.99372
1.526445955998497,0,0,1.235408056640625,0,0,0.84084
1.527831901999889,0,0,1.4006079711914061,0,0,0.99372
1.529217051982414,0,0,1.3359645263671873,0,0,0.68796
1.530603479972342,0,0,1.3479355346679687,0,0,0.99372
1.5319894259737339,0,0,1.180341418457031,0,0,0.7644
1.5333748539851513,0,0,1.0821791503906248,0,0,1.07016
1.5347610779863317,0,0,1.3192051147460937,0,0,0.30576000000000003
1.5361462659784593,0,0,1.3215993164062498,0,0,0.6115200000000001
1.5375316009740345,0,0,1.5753846923828123,0,0,0.53508
1.5389174179872498,0,0,1.2737152832031249,0,0,0.6115200000000001
1.5403027899737936,0,0,1.3910311645507811,0,0,0.99372
1.5417013659898657,0,0,1.0941501586914062,0,0,0.84084
1.543088052974781,0,0,1.1372457885742187,0,0,0.6115200000000001
1.5444759989914019,0,0,1.3287819213867187,0,0,0.15288000000000002
1.5458625569881406,0,0,1.2976572998046874,0,0,0.45864
1.547247743990738,0,0,1.5442600708007812,0,0,0.7644
1.548633226979291,0,0,1.4532804077148436,0,0,0.68796
1.5500196739740204,0,0,1.3024457031249999,0,0,1.45236
1.5514049909834284,0,0,1.1755530151367186,0,0,0.99372
1.552790454996284,0,0,1.1875240234375,0,0,0.7644
1.5541759389743675,0,0,1.3192051147460937,0,0,0.53508
1.5555694039794616,0,0,1.2497732666015624,0,0,0.99372
1.5569554979738314,0,0,1.5083470458984374,0,0,0.3822
1.5583399629977066,0,0,1.467645617675781,0,0,0.99372
1.559929128998192,0,0,1.3479355346679687,0,0,0.91728
1.5613143909722567,0,0,1.3575123413085937,0,0,0.84084
1.5627067439781968,0,0,1.1372457885742187,0,0,0.84084
1.564090486994246,0,0,1.2473790649414063,0,0,0.6115200000000001
1.5654736929864157,0,0,1.3263877197265623,0,0,1.07016
1.5668576579773799,0,0,1.429338391113281,0,0,0.84084
1.5682401779922657,0,0,1.4939818359375,0,0,0.99372
1.5696230879984796,0,0,1.3024457031249999,0,0,0.91728
1.5710071449866518,0,0,1.2761094848632812,0,0,0.53508
1.572389757988276,0,0,1.1827356201171875,0,0,0.6115200000000001
1.5737722049816512,0,0,1.2521674682617188,0,0,0.99372
1.575155354978051,0,0,1.2473790649414063,0,0,0.84084
1.5765373009780888,0,0,1.3718775512695311,0,0,0.68796
1.577921117976075,0,0,1.5251064575195312,0,0,0.30576000000000003
1.5793038609845098,0,0,1.3048399047851562,0,0,0.53508
1.5806989739940036,0,0,1.3311761230468748,0,0,0.68796
1.5820836979837622,0,0,1.1037269653320312,0,0,1.1465999999999998
1.5834656629886013,0,0,1.1851298217773436,0,0,0.7644
1.5848481089924462,0,0,1.2401964599609374,0,0,0.0
1.5862318149884231,0,0,1.3096283081054687,0,0,0.22932
1.5876150389958639,0,0,1.448492004394531,0,0,0.3822
1.58899842997198,0,0,1.3192051147460937,0,0,0.84084
1.5903823579719756,0,0,1.3718775512695311,0,0,1.2994800000000002
1.5917657669924665,0,0,1.1228805786132812,0,0,0.7644
1.5931487689958885,0,0,1.1851298217773436,0,0,0.7644
1.5945348639797885,0,0,1.3072341064453123,0,0,0.53508
1.595916791993659,0,0,1.3455413330078123,0,0,0.99372
1.5972996459749993,0,0,1.3551181396484375,0,0,0.91728
1.5986893139779568,0,0,1.35990654296875,0,0,0.7644
1.600072019995423,0,0,1.3455413330078123,0,0,1.07016
1.601454928983003,0,0,1.3551181396484375,0,0,0.6115200000000001
1.602830838994123,0,0,1.0606313354492187,0,0,0.53508
1.6042038779996801,0,0,1.16837041015625,0,0,1.2230400000000001
1.605577046982944,0,0,1.0917559570312498,0,0,0.99372
1.606960214994615,0,0,1.429338391113281,0,0,0.6115200000000001
1.6083420509821735,0,0,1.3958195678710936,0,0,0.84084
1.6097248489968479,0,0,1.3192051147460937,0,0,0.7644
1.6111056289810222,0,0,1.2306196533203124,0,0,0.53508
1.6124849269981496,0,0,1.3527239379882812,0,0,0.91728
1.6138637439871673,0,0,1.1133037719726562,0,0,0.91728
1.6152435049880296,0,0,1.1731588134765625,0,0,0.15288000000000002
1.6167981349863112,0,0,1.3048399047851562,0,0,0.53508
1.6181842479854822,0,0,1.4604630126953124,0,0,0.53508
1.6195578799815848,0,0,1.2569558715820313,0,0,0.45864
1.6209311589773279,0,0,1.2832920898437499,0,0,0.84084
1.6223071249842178,0,0,1.0797849487304687,0,0,0.91728
1.6236801449849736,0,0,1.2521674682617188,0,0,0.68796
1.6250958499731496,0,0,1.2785036865234374,0,0,0.0
1.626472963980632,0,0,1.2617442749023438,0,0,0.53508
1.6278465769719332,0,0,1.5825672973632812,0,0,0.7644
1.6292191719985567,0,0,1.5275006591796874,0,0,0.7644
1.6305955069838092,0,0,1.3168109130859373,0,0,0.99372
1.6319695089769084,0,0,1.2593500732421874,0,0,0.84084
1.6333848999929614,0,0,1.0797849487304687,0,0,0.45864
1.6347611609962769,0,0,1.158793603515625,0,0,0.7644
1.6361344959877897,0,0,1.2976572998046874,0,0,0.99372
1.6375075909891166,0,0,1.3455413330078123,0,0,0.6115200000000001
1.6389056109765079,0,0,1.608903515625,0,0,0.53508
1.6402898539963644,0,0,1.37906015625,0,0,0.84084
1.6416732449724805,0,0,1.2689268798828124,0,0,0.53508
1.6430636909790337,0,0,1.158793603515625,0,0,0.6115200000000001
1.6444470819842536,0,0,1.218648645019531,0,0,0.99372
1.6458308619912714,0,0,1.20667763671875,0,0,0.7644
1.6472128819732461,0,0,1.3742717529296875,0,0,0.91728
1.6485961619764566,0,0,1.4796166259765624,0,0,0.91728
1.6499801089812536,0,0,1.3431471313476562,0,0,0.91728
1.652256673987722,0,0,1.149216796875,0,0,0.84084
1.6537191190000158,0,0,1.1276689819335937,0,0,0.45864
1.6551083069934975,0,0,1.2210428466796874,0,0,-9.01992
1.6564974199864082,0,0,1.2737152832031249,0,0,0.6115200000000001
1.6578859769797418,0,0,1.4317325927734375,0,0,0.6115200000000001
1.6592717199819162,0,0,1.5322890624999999,0,0,0.99372
1.6606584809778724,0,0,1.3623007446289062,0,0,0.6115200000000001
1.6620438899844885,0,0,1.2401964599609374,0,0,0.91728
1.6634221889835317,0,0,1.1420341918945311,0,0,0.53508
1.6648008019838016,0,0,1.2856862915039062,0,0,1.45236
1.6661876739817671,0,0,1.3287819213867187,0,0,1.1465999999999998
1.6675765089748893,0,0,1.3766659545898436,0,0,0.68796
1.6689636779774446,0,0,1.6328455322265625,0,0,0.84084
1.6703509949729778,0,0,1.4796166259765624,0,0,0.91728
1.6717373109713662,0,0,1.158793603515625,0,0,0.84084
1.6731246469717007,0,0,1.1156979736328125,0,0,0.7644
1.6745114449877292,0,0,1.1516109985351561,0,0,0.68796
1.6758984839834739,0,0,1.2617442749023438,0,0,0.0
1.6772852819995023,0,0,1.2282254516601563,0,0,0.6115200000000001
1.6786659139906988,0,0,1.5322890624999999,0,0,0.84084
1.6800440079823602,0,0,1.3575123413085937,0,0,0.68796
1.6814221399836242,0,0,1.3455413330078123,0,0,0.68796
1.682811345992377,0,0,1.1731588134765625,0,0,1.07016
1.6841980509925634,0,0,1.20667763671875,0,0,0.84084
1.685584293998545,0,0,1.2832920898437499,0,0,0.53508
1.6869911659741774,0,0,1.3096283081054687,0,0,0.68796
1.6883778719929978,0,0,1.3551181396484375,0,0,0.6115200000000001
1.6897655769716948,0,0,1.2928688964843749,0,0,0.91728
1.6911522829905152,0,0,1.3215993164062498,0,0,0.7644
1.6925391549884807,0,0,1.369483349609375,0,0,0.99372
1.6939261019870173,0,0,1.1851298217773436,0,0,0.68796
1.6953120479884092,0,0,1.235408056640625,0,0,1.37592
1.69669797597453,0,0,1.20667763671875,0,0,1.1465999999999998
1.6980919589987025,0,0,1.3359645263671873,0,0,0.84084
1.6994782019755803,0,0,1.62805712890625,0,0,0.6115200000000001
1.7008643889857922,0,0,1.3287819213867187,0,0,0.7644
1.702251520997379,0,0,1.2641384765625,0,0,0.3822
1.70366204099264,0,0,1.0726023437499999,0,0,0.84084
1.7050598579808138,0,0,1.0749965454101562,0,0,-8.867040000000001
1.7064500079723075,0,0,1.3168109130859373,0,0,0.7644
1.7078373799740802,0,0,1.2569558715820313,0,0,0.68796
1.7092248629778624,0,0,1.656787548828125,0,0,0.45864
1.7106120499956887,0,0,1.3623007446289062,0,0,0.7644
1.711998977989424,0,0,1.2952630981445312,0,0,0.68796
1.713385331997415,0,0,1.2138602416992186,0,0,1.07016
1.7147658339818008,0,0,1.1755530151367186,0,0,0.53508
1.7161444839730393,0,0,1.2617442749023438,0,0,0.07644000000000001
1.7175228199921548,0,0,1.4939818359375,0,0,0.45864
1.7189114329812583,0,0,1.5107412475585937,0,0,0.68796
1.7202986749762204,0,0,1.43652099609375,0,0,0.45864
1.721696491993498,0,0,1.2832920898437499,0,0,0.84084
1.7230832719942555,0,0,1.1851298217773436,0,0,0.84084
1.7244701069721486,0,0,1.1061211669921875,0,0,0.6115200000000001
1.7258575529849622,0,0,1.1659762084960936,0,0,1.2230400000000001
1.7272436289931647,0,0,1.0989385620117187,0,0,1.07016
1.7286303909786511,0,0,1.467645617675781,0,0,0.91728
1.7300150039955042,0,0,1.4796166259765624,0,0,0.91728
1.731407319981372,0,0,1.3646949462890625,0,0,0.84084
1.732786081993254,0,0,1.20667763671875,0,0,0.53508
1.734172268974362,0,0,1.2114660400390624,0,0,0.53508
1.7355586779885925,0,0,1.2641384765625,0,0,1.2994800000000002
1.736945142998593,0,0,1.3215993164062498,0,0,1.07016
1.738331903994549,0,0,1.3359645263671873,0,0,0.6115200000000001
1.7397181099804584,0,0,1.5179238525390624,0,0,0.68796
1.741104741988238,0,0,1.2713210815429687,0,0,0.53508
1.742491335986415,0,0,1.235408056640625,0,0,0.6115200000000001
1.7438770419976208,0,0,1.180341418457031,0,0,0.84084
1.7452631549967919,0,0,1.2042834350585936,0,0,0.91728
1.7466611199779436,0,0,1.3215993164062498,0,0,0.53508
1.7480475659831427,0,0,1.2880804931640624,0,0,0.45864
1.7494343269790988,0,0,1.5059528442382812,0,0,0.91728
1.7508213109977078,0,0,1.3024457031249999,0,0,0.68796
1.7522071459970903,0,0,1.3144167114257812,0,0,1.07016
1.7535936109779868,0,0,1.2378022583007813,0,0,1.1465999999999998
1.7549801869899966,0,0,1.2234370483398436,0,0,0.7644
1.7563751519774087,0,0,1.0845733520507812,0,0,0.0
1.7577632279717363,0,0,1.2282254516601563,0,0,0.45864
1.7591497109970078,0,0,1.419761584472656,0,0,0.7644
1.7605358429718763,0,0,1.369483349609375,0,0,1.07016
1.761923214973649,0,0,1.388636962890625,0,0,1.2994800000000002
1.7633091239840724,0,0,1.2593500732421874,0,0,0.7644
1.7646952189970762,0,0,1.199495031738281,0,0,0.6115200000000001
1.766082201997051,0,0,1.2617442749023438,0,0,1.1465999999999998
1.7674679449992254,0,0,1.2808978881835937,0,0,0.91728
1.7688539839873556,0,0,1.3215993164062498,0,0,0.7644
1.7702410229831003,0,0,1.5442600708007812,0,0,0.7644
1.7716270059754606,0,0,1.3311761230468748,0,0,0.91728
1.773013785976218,0,0,1.3383587280273437,0,0,0.68796
1.7744063989957795,0,0,1.120486376953125,0,0,0.45864
1.7757932159875054,0,0,1.1228805786132812,0,0,1.07016
1.77718025498325,0,0,1.3024457031249999,0,0,0.68796
1.7785678679938428,0,0,1.2928688964843749,0,0,0.68796
1.7799542029970326,0,0,1.5083470458984374,0,0,0.53508
1.7813409639929887,0,0,1.3311761230468748,0,0,0.7644
1.7827274289738853,0,0,1.2952630981445312,0,0,0.6115200000000001
1.7841346899804194,0,0,1.1444283935546875,0,0,0.7644
1.7855231179855764,0,0,1.1827356201171875,0,0,0.7644
1.78691056399839,0,0,1.2641384765625,0,0,0.07644000000000001
1.788297713996144,0,0,1.2473790649414063,0,0,0.30576000000000003
1.7896972529997583,0,0,1.6112977172851561,0,0,0.68796
1.7911114029993769,0,0,1.5035586425781249,0,0,0.68796
1.7924981830001343,0,0,1.3359645263671873,0,0,1.2230400000000001
1.7938858509878628,0,0,1.158793603515625,0,0,0.91728
1.795271649985807,0,0,1.1851298217773436,0,0,0.53508
1.7966585029789712,0,0,1.2473790649414063,0,0,0.22932
1.7980458939855453,0,0,1.448492004394531,0,0,0.84084
1.7994321179867256,0,0,1.5753846923828123,0,0,0.84084
1.8008187679806724,0,0,1.4772224243164063,0,0,0.99372
1.8022064559918363,0,0,1.3311761230468748,0,0,0.99372
1.8035920499823987,0,0,1.1827356201171875,0,0,0.45864
1.8049786259944085,0,0,1.2018892333984375,0,0,0.68796
1.8063675169833004,0,0,1.1875240234375,0,0,1.1465999999999998
1.8077542969840579,0,0,1.2785036865234374,0,0,0.7644
1.8091406129824463,0,0,1.3000515014648437,0,0,0.53508
1.8105278559960425,0,0,1.4915876342773438,0,0,0.91728
1.8119144689990208,0,0,1.3646949462890625,0,0,0.68796
1.81330067498493,0,0,1.3263877197265623,0,0,0.84084
1.8147004169877619,0,0,1.2330138549804688,0,0,0.91728
1.8160869189887308,0,0,1.139639990234375,0,0,0.99372
1.8174831619835459,0,0,1.2593500732421874,0,0,0.30576000000000003
1.8188807559781708,0,0,1.3000515014648437,0,0,0.15288000000000002
1.8202671839972027,0,0,1.4867992309570313,0,0,0.68796
1.8216537599801086,0,0,1.3455413330078123,0,0,0.7644
1.8230337809945922,0,0,1.3168109130859373,0,0,0.99372
1.824411967972992,0,0,1.1755530151367186,0,0,0.84084
1.825836061994778,0,0,1.1635820068359375,0,0,0.84084
1.8272250079899095,0,0,1.149216796875,0,0,0.30576000000000003
1.8303882849868387,0,0,1.446097802734375,0,0,0.84084
1.8329121069982648,0,0,1.3742717529296875,0,0,1.2994800000000002
1.83430834999308,0,0,1.3120225097656248,0,0,0.91728
1.8356882219959516,0,0,1.149216796875,0,0,0.6115200000000001
1.8370674279867671,0,0,1.1133037719726562,0,0,0.7644
1.8384475409984589,0,0,1.2617442749023438,0,0,0.7644
1.839826801995514,0,0,1.2808978881835937,0,0,0.53508
1.8412059149995912,0,0,1.426944189453125,0,0,1.07016
1.842587546998402,0,0,1.3527239379882812,0,0,0.68796
1.843967029999476,0,0,1.2761094848632812,0,0,0.84084
1.8453456989955157,0,0,1.139639990234375,0,0,0.6115200000000001
1.84672536799917,0,0,1.22583125,0,0,1.37592
1.8481031849805731,0,0,1.3527239379882812,0,0,0.84084
1.8494820569758303,0,0,1.3934253662109375,0,0,1.07016
1.850861595972674,0,0,1.608903515625,0,0,0.53508
1.8522400239889976,0,0,1.438915197753906,0,0,0.84084
1.853618822991848,0,0,1.3096283081054687,0,0,0.7644
1.8549978249939159,0,0,1.218648645019531,0,0,0.91728
1.856376140989596,0,0,1.1324573852539062,0,0,0.99372
1.857772457995452,0,0,1.2521674682617188,0,0,0.0
1.8591514969884884,0,0,1.350329736328125,0,0,0.45864
1.8605293699947651,0,0,1.5538368774414062,0,0,0.53508
1.8619158159999643,0,0,1.4006079711914061,0,0,0.30576000000000003
1.8633015589730348,0,0,1.3048399047851562,0,0,1.2994800000000002
1.8647064859978855,0,0,1.16837041015625,0,0,0.99372
1.866095284000039,0,0,1.1085153686523437,0,0,0.7644
1.8674798049905803,0,0,1.209071838378906,0,0,0.45864
1.8688662329805084,0,0,1.2880804931640624,0,0,0.91728
1.8702523089887109,0,0,1.254561669921875,0,0,0.68796
1.8716379769903142,0,0,1.438915197753906,0,0,0.68796
1.8730240719742142,0,0,1.2785036865234374,0,0,0.7644
1.87440977798542,0,0,1.16837041015625,0,0,0.7644
1.8758017429790925,0,0,1.0462661254882812,0,0,0.68796
1.877187725971453,0,0,1.1348515869140625,0,0,1.37592
1.8785747089714278,0,0,1.388636962890625,0,0,0.91728
1.8799599709745962,0,0,1.3383587280273437,0,0,0.7644
1.8813452499744017,0,0,1.446097802734375,0,0,1.07016
1.8827303079888225,0,0,1.2952630981445312,0,0,0.53508
1.8841161799791735,0,0,1.3383587280273437,0,0,0.53508
1.885501070995815,0,0,1.1659762084960936,0,0,0.3822
1.8869794979982544,0,0,1.0941501586914062,0,0,0.91728
1.8883666479960084,0,0,1.2976572998046874,0,0,0.07644000000000001
1.8897550939873327,0,0,1.3239935180664062,0,0,0.53508
1.8911417259951122,0,0,1.4437036010742186,0,0,0.53508
1.8925283389980905,0,0,1.3048399047851562,0,0,0.53508
1.8939153959800024,0,0,1.2737152832031249,0,0,0.68796
1.8953007129894104,0,0,1.1037269653320312,0,0,0.84084
1.8966868819843512,0,0,1.1228805786132812,0,0,0.6115200000000001
1.8980708099843469,0,0,1.1133037719726562,0,0,0.0
1.8994483859860338,0,0,1.3144167114257812,0,0,0.53508
1.9008274429943413,0,0,1.5035586425781249,0,0,0.6115200000000001
1.9022649629914667,0,0,1.429338391113281,0,0,0.6115200000000001
1.9038057779835071,0,0,1.3239935180664062,0,0,0.91728
1.9051937799958978,0,0,1.199495031738281,0,0,0.91728
1.9065860599803273,0,0,1.16837041015625,0,0,0.91728
1.9079726729833055,0,0,1.2761094848632812,0,0,0.22932
1.9093788229802158,0,0,1.3024457031249999,0,0,0.84084
1.9107653059763834,0,0,1.3934253662109375,0,0,0.6115200000000001
1.912151937984163,0,0,1.6208745239257811,0,0,0.91728
1.9135383099783212,0,0,1.3527239379882812,0,0,0.84084
1.9149186269787606,0,0,1.3575123413085937,0,0,0.68796
1.9162972399790306,0,0,1.1540052001953125,0,0,0.3822
1.9176762419810984,0,0,1.158793603515625,0,0,1.1465999999999998
1.919064798974432,0,0,1.2880804931640624,0,0,0.68796
1.9204512459982652,0,0,1.3814543579101561,0,0,0.6115200000000001
1.9218387849978171,0,0,1.5921441040039062,0,0,0.91728
1.9232256199757103,0,0,1.5011644409179687,0,0,0.84084
1.924611788999755,0,0,1.2425906616210938,0,0,0.7644
1.9261266969842836,0,0,1.216254443359375,0,0,0.7644
1.927517086995067,0,0,1.1372457885742187,0,0,1.2230400000000001
1.9289043859753292,0,0,1.3120225097656248,0,0,0.6115200000000001
1.9302909799735062,0,0,1.4221557861328125,0,0,0.68796
1.9319834779889788,0,0,1.6472107421875,0,0,0.91728
1.9333741839800496,0,0,1.3024457031249999,0,0,0.6115200000000001
1.9349046839924995,0,0,1.3670891479492187,0,0,0.6115200000000001
1.936297055974137,0,0,1.189918225097656,0,0,0.53508
1.9376833919959608,0,0,1.199495031738281,0,0,1.37592
1.9391045229858719,0,0,1.3335703247070312,0,0,0.91728
1.940491598972585,0,0,1.388636962890625,0,0,0.6115200000000001
1.9418787679751404,0,0,1.5921441040039062,0,0,0.6115200000000001
1.9432649729715195,0,0,1.3646949462890625,0,0,0.53508
1.9446511789865326,0,0,1.3096283081054687,0,0,0.84084
1.9460384769772645,0,0,1.1133037719726562,0,0,0.99372
1.9474261639988981,0,0,1.197100830078125,0,0,0.99372
1.9488120549940504,0,0,1.2713210815429687,0,0,0.15288000000000002
1.9501982609799597,0,0,1.3575123413085937,0,0,0.53508
1.9515841329994146,0,0,1.4987702392578124,0,0,0.45864
1.9530155969841871,0,0,1.4628572143554686,0,0,0.99372
1.9544046359951608,0,0,1.3192051147460937,0,0,1.1465999999999998
1.9557907309790608,0,0,1.1420341918945311,0,0,0.91728
1.9571768809983041,0,0,1.1444283935546875,0,0,0.7644
1.9585629379726015,0,0,1.254561669921875,0,0,0.3822
1.959948680974776,0,0,1.3192051147460937,0,0,0.7644
1.961334330990212,0,0,1.5514426757812498,0,0,0.3822
1.9627202409901656,0,0,1.448492004394531,0,0,0.7644
1.9641055569809396,0,0,1.3024457031249999,0,0,1.45236
1.9654942439810839,0,0,1.2497732666015624,0,0,0.99372
1.9668809689756017,0,0,1.1923124267578125,0,0,0.91728
1.9682668969908264,0,0,1.2234370483398436,0,0,0.91728
1.969652583997231,0,0,1.3192051147460937,0,0,1.37592
1.9710383999918122,0,0,1.2737152832031249,0,0,0.84084
1.9724245129909832,0,0,1.4939818359375,0,0,0.68796
1.973809792980319,0,0,1.2665326782226562,0,0,0.3822
1.975192979996791,0,0,1.4987702392578124,0,0,0.6115200000000001
1.976576592976926,0,0,1.1013327636718748,0,0,0.53508
1.9779728919966146,0,0,0.928950244140625,0,0,1.2994800000000002
1.9793542829866055,0,0,1.3096283081054687,0,0,0.6115200000000001
1.980733339994913,0,0,1.2617442749023438,0,0,0.53508
1.9821192859963048,0,0,1.4604630126953124,0,0,0.7644
1.9835060849727597,0,0,1.3263877197265623,0,0,0.68796
1.98489230897394,0,0,1.4030021728515625,0,0,0.7644
1.9862784779979847,0,0,1.1563994018554686,0,0,1.1465999999999998
1.9876643869793043,0,0,1.177947216796875,0,0,0.84084
1.9890503329806961,0,0,1.3479355346679687,0,0,0.22932
1.9904367059934884,0,0,1.3215993164062498,0,0,0.6115200000000001
1.9918227259768173,0,0,1.2665326782226562,0,0,0.68796
1.9932175429712515,0,0,1.3192051147460937,0,0,1.1465999999999998
1.9946330259845126,0,0,1.3000515014648437,0,0,1.07016
1.9960215089959092,0,0,1.120486376953125,0,0,-9.09636
1.9974202889716253,0,0,1.120486376953125,0,0,0.91728
1.9988073279964738,0,0,1.0989385620117187,0,0,0.68796
2.000193625979591,0,0,1.3000515014648437,0,0,0.91728
2.001579571980983,0,0,1.4413093994140624,0,0,0.68796
2.0029682039748877,0,0,1.6112977172851561,0,0,0.68796
2.0044264269818086,0,0,1.3910311645507811,0,0,0.6115200000000001
2.005819650978083,0,0,1.1228805786132812,0,0,0.84084
2.0072062829858623,0,0,1.0869675537109373,0,0,0.68796
2.0085929519846104,0,0,1.1372457885742187,0,0,1.1465999999999998
2.009977434994653,0,0,1.2904746948242187,0,0,0.99372
2.01135654799873,0,0,1.4006079711914061,0,0,0.84084
2.0127345319779124,0,0,1.5658078857421873,0,0,0.84084
2.014119977975497,0,0,1.438915197753906,0,0,0.6115200000000001
2.0155062759877183,0,0,1.3168109130859373,0,0,0.6115200000000001
2.016899925976759,0,0,1.1755530151367186,0,0,0.68796
2.018287020997377,0,0,1.20667763671875,0,0,0.7644
2.019673522998346,0,0,1.2880804931640624,0,0,0.0
2.021060116996523,0,0,1.3000515014648437,0,0,0.6115200000000001
2.022442378976848,0,0,1.5969325073242187,0,0,0.3822
2.0238207509974018,0,0,1.4796166259765624,0,0,0.53508
2.025198808987625,0,0,1.3024457031249999,0,0,0.99372
2.026594976981869,0,0,1.158793603515625,0,0,1.07016
2.027980997983832,0,0,1.1923124267578125,0,0,0.6115200000000001
2.0293680369795766,0,0,1.2617442749023438,0,0,0.45864
2.0307493899890687,0,0,1.3311761230468748,0,0,-8.7906
2.032128965976881,0,0,1.5490484741210937,0,0,0.6115200000000001
2.0335074869799428,0,0,1.458068811035156,0,0,0.68796
2.034903988998849,0,0,1.2617442749023438,0,0,0.7644
2.0362945279921405,0,0,1.2042834350585936,0,0,0.84084
2.0376817519718315,0,0,1.1420341918945311,0,0,0.30576000000000003
2.039073882973753,0,0,1.1851298217773436,0,0,1.37592
2.040464699995937,0,0,1.39821376953125,0,0,0.68796
2.0418495909834746,0,0,1.3335703247070312,0,0,0.53508
2.043235629971605,0,0,1.4891934326171874,0,0,0.84084
2.0446210759982932,0,0,1.2665326782226562,0,0,0.68796
2.0460079119948205,0,0,1.2713210815429687,0,0,0.3822
2.047393209999427,0,0,1.2042834350585936,0,0,0.68796
2.04877874898375,0,0,1.2018892333984375,0,0,0.99372
2.0501653059909586,0,0,1.2737152832031249,0,0,0.07644000000000001
2.051558400999056,0,0,1.2880804931640624,0,0,0.91728
2.052944643975934,0,0,1.5538368774414062,0,0,0.6115200000000001
2.0543307379994076,0,0,1.3359645263671873,0,0,0.99372
2.055716165981721,0,0,1.3359645263671873,0,0,1.1465999999999998
2.057101723999949,0,0,1.1707646118164061,0,0,1.07016
2.0584872999752406,0,0,1.2473790649414063,0,0,0.53508
2.059872875979636,0,0,1.369483349609375,0,0,0.0
2.06125891499687,0,0,1.3646949462890625,0,0,0.6115200000000001
2.062658360984642,0,0,1.4149731811523436,0,0,0.6115200000000001
2.064044565981021,0,0,1.5538368774414062,0,0,0.7644
2.0654300679743756,0,0,1.3862427612304686,0,0,1.2994800000000002
2.0668162559741177,0,0,1.3311761230468748,0,0,0.91728
2.0682014979829546,0,0,1.1372457885742187,0,0,0.68796
2.069586851983331,0,0,1.24498486328125,0,0,0.84084
2.070972612971673,0,0,1.3551181396484375,0,0,1.2994800000000002
2.072358114994131,0,0,1.4125789794921875,0,0,0.99372
2.0737535989901517,0,0,1.6136919189453125,0,0,0.7644
2.0751401749730576,0,0,1.3575123413085937,0,0,1.07016
2.076524176984094,0,0,1.2378022583007813,0,0,0.45864
2.0779219749965705,0,0,1.1659762084960936,0,0,0.45864
2.0793096799752675,0,0,1.2665326782226562,0,0,1.1465999999999998
2.08069594099652,0,0,1.3766659545898436,0,0,-9.24924
2.082084035995649,0,0,1.3311761230468748,0,0,0.68796
2.0834755749965552,0,0,1.5514426757812498,0,0,0.91728
2.084875779983122,0,0,1.2976572998046874,0,0,0.22932
2.0862629679904785,0,0,1.2521674682617188,0,0,0.84084
2.0876485989720095,0,0,1.0869675537109373,0,0,0.68796
2.089034026983427,0,0,1.1444283935546875,0,0,0.91728
2.0904196959745605,0,0,1.2210428466796874,0,0,0.22932
2.0918054379872046,0,0,1.3239935180664062,0,0,0.6115200000000001
2.0931917739799246,0,0,1.5370774658203123,0,0,0.91728
2.0945773129933514,0,0,1.3455413330078123,0,0,0.91728
2.0959628889977466,0,0,1.2976572998046874,0,0,1.07016
2.0973484459973406,0,0,1.2593500732421874,0,0,0.91728
2.0987338179838844,0,0,1.2808978881835937,0,0,0.84084
2.1001195059798192,0,0,1.2569558715820313,0,0,1.07016
2.1015051559952553,0,0,1.2737152832031249,0,0,0.99372
2.1028905469866004,0,0,1.2306196533203124,0,0,0.91728
2.1042757709801663,0,0,1.4101847778320311,0,0,0.7644
2.1056612539978232,0,0,1.2832920898437499,0,0,0.68796
2.1070471269777045,0,0,1.0989385620117187,0,0,0.6115200000000001
2.108488627971383,0,0,1.1085153686523437,0,0,0.53508
2.1099504989979323,0,0,1.0989385620117187,0,0,0.7644
2.1113908150000498,0,0,1.2976572998046874,0,0,1.07016
2.112833908991888,0,0,1.3192051147460937,0,0,0.68796
2.1142853729834314,0,0,1.4532804077148436,0,0,0.7644
2.115724003990181,0,0,1.3120225097656248,0,0,2.5989600000000004
2.117184245988028,0,0,1.16837041015625,0,0,0.6115200000000001
2.1186554319865536,0,0,1.3383587280273437,0,0,0.6115200000000001
2.120106655987911,0,0,1.2569558715820313,0,0,0.7644
2.121566415997222,0,0,1.369483349609375,0,0,0.68796
2.1230575459776446,0,0,1.5275006591796874,0,0,0.6115200000000001
2.124492732982617,0,0,1.455674609375,0,0,0.45864
2.1259596409799997,0,0,1.3192051147460937,0,0,1.07016
2.1274047159822658,0,0,1.2138602416992186,0,0,0.91728
2.128802810999332,0,0,1.1611878051757811,0,0,0.84084
2.130189571995288,0,0,1.1923124267578125,0,0,0.99372
2.13156736997189,0,0,1.3144167114257812,0,0,1.2230400000000001
2.1329455209779553,0,0,1.2425906616210938,0,0,0.68796
2.1343353929987643,0,0,1.5298948608398437,0,0,0.84084
2.13572172797285,0,0,1.2713210815429687,0,0,0.84084
2.137107581977034,0,0,1.197100830078125,0,0,0.7644
2.1384907879983075,0,0,1.1540052001953125,0,0,0.6115200000000001
2.1398685299791396,0,0,1.1635820068359375,0,0,1.07016
2.1412465509783942,0,0,1.3551181396484375,0,0,0.3822
2.14263360897894,0,0,1.35990654296875,0,0,0.3822
2.144022758991923,0,0,1.5729904907226562,0,0,0.53508
2.14540959399892,0,0,1.4053963745117186,0,0,0.68796
2.146790354978293,0,0,1.407790576171875,0,0,0.68796
2.148168152983999,0,0,1.1420341918945311,0,0,-8.71416
2.149547895998694,0,0,1.177947216796875,0,0,0.99372
2.150936156976968,0,0,1.16837041015625,0,0,0.0
2.1523878809821326,0,0,1.3527239379882812,0,0,0.45864
2.153850918984972,0,0,1.4772224243164063,0,0,0.6115200000000001
2.155234883975936,0,0,1.2928688964843749,0,0,0.84084
2.1566126269754022,0,0,1.3359645263671873,0,0,1.07016
2.1579996469954494,0,0,1.2234370483398436,0,0,1.1465999999999998
2.1593863159941975,0,0,1.2042834350585936,0,0,0.68796
2.1607726509973872,0,0,1.3000515014648437,0,0,0.84084
2.1621560789935756,0,0,1.2952630981445312,0,0,0.99372
2.1635339509812184,0,0,1.3527239379882812,0,0,0.53508
2.1649114529718645,0,0,1.5514426757812498,0,0,1.2230400000000001
2.1662980659748428,0,0,1.3239935180664062,0,0,0.7644
2.167684290994657,0,0,1.35990654296875,0,0,0.84084
2.1690917179803364,0,0,1.209071838378906,0,0,0.45864
2.17047757198452,0,0,1.20667763671875,0,0,1.2230400000000001
2.171862480987329,0,0,1.3766659545898436,0,0,0.68796
2.1732556499773636,0,0,1.3646949462890625,0,0,0.84084
2.1746419109986164,0,0,1.5610194824218748,0,0,0.6115200000000001
2.17602598699159,0,0,1.2952630981445312,0,0,0.6115200000000001
2.1774093969725072,0,0,1.254561669921875,0,0,0.68796
2.1788085459847935,0,0,1.1540052001953125,0,0,0.68796
2.1801953819813207,0,0,1.209071838378906,0,0,0.91728
2.181580975971883,0,0,1.3623007446289062,0,0,0.0
2.182970440975623,0,0,1.3168109130859373,0,0,0.3822
2.184356461977586,0,0,1.5442600708007812,0,0,0.3822
2.185754944977816,0,0,1.2689268798828124,0,0,0.84084
2.1871411509928294,0,0,1.2976572998046874,0,0,0.84084
2.1885271339851897,0,0,1.3575123413085937,0,0,0.99372
2.189913802983938,0,0,1.1372457885742187,0,0,0.6115200000000001
2.191298415971687,0,0,1.2401964599609374,0,0,0.30576000000000003
2.192683972971281,0,0,1.2880804931640624,0,0,0.3822
2.194070178986294,0,0,1.5729904907226562,0,0,0.68796
2.195454995991895,0,0,1.4820108276367188,0,0,0.84084
2.1968505719851237,0,0,1.5227122558593749,0,0,1.2994800000000002
2.1982366849842947,0,0,1.158793603515625,0,0,1.2230400000000001
2.19962220499292,0,0,1.2210428466796874,0,0,0.53508
2.201007725991076,0,0,1.2832920898437499,0,0,1.2994800000000002
2.202393597981427,0,0,1.3000515014648437,0,0,0.7644
2.2037787849840242,0,0,1.3718775512695311,0,0,0.68796
2.20516430598218,0,0,1.5610194824218748,0,0,0.91728
2.2065499739837833,0,0,1.5275006591796874,0,0,1.07016
2.2079352909931913,0,0,1.2832920898437499,0,0,0.91728
2.209320496971486,0,0,1.2282254516601563,0,0,0.45864
2.210706609999761,0,0,1.2665326782226562,0,0,0.91728
2.2120917039865162,0,0,1.3263877197265623,0,0,0.30576000000000003
2.2134771879937034,0,0,1.3383587280273437,0,0,0.68796
2.214863170986064,0,0,1.4173673828125,0,0,0.84084
2.2162718209729064,0,0,1.4006079711914061,0,0,0.68796
2.2176598409714643,0,0,1.3670891479492187,0,0,0.84084
2.2190494729729835,0,0,1.1659762084960936,0,0,0.68796
2.220435863971943,0,0,1.2018892333984375,0,0,0.7644
2.221819661994232,0,0,1.2761094848632812,0,0,-9.32568
2.2232005529804155,0,0,1.35990654296875,0,0,0.45864
2.2245786099811085,0,0,1.5251064575195312,0,0,0.53508
2.225963111995952,0,0,1.24498486328125,0,0,0.91728
2.2273547999793664,0,0,1.388636962890625,0,0,1.1465999999999998
2.2287328759848606,0,0,1.3096283081054687,0,0,0.91728
2.230117895989679,0,0,1.1635820068359375,0,0,0.45864
2.231509212986566,0,0,1.1276689819335937,0,0,0.99372
2.2328953439719044,0,0,1.3958195678710936,0,0,0.68796
2.2342771609837655,0,0,1.4101847778320311,0,0,0.68796
2.2356549599790014,0,0,1.659181750488281,0,0,1.1465999999999998
2.2370325359806884,0,0,1.4101847778320311,0,0,0.53508
2.238418759981869,0,0,1.3431471313476562,0,0,0.68796
2.239805835997686,0,0,1.1037269653320312,0,0,0.45864
2.2411920049926266,0,0,1.2042834350585936,0,0,1.2230400000000001
2.242573506984627,0,0,1.3479355346679687,0,0,0.15288000000000002
2.243951433978509,0,0,1.3862427612304686,0,0,0.84084
2.245340472989483,0,0,1.6160861206054686,0,0,0.7644
2.2467282159777824,0,0,1.2401964599609374,0,0,0.7644
2.248114476999035,0,0,1.2138602416992186,0,0,0.84084
2.2495008499827236,0,0,1.197100830078125,0,0,0.6115200000000001
2.250887073983904,0,0,1.2330138549804688,0,0,0.68796
2.2522732979850844,0,0,1.2928688964843749,0,0,0.0
2.253659632988274,0,0,1.3192051147460937,0,0,0.53508
2.255039912997745,0,0,1.6639701538085936,0,0,0.53508
2.2564172109996434,0,0,1.438915197753906,0,0,0.91728
2.257830545975594,0,0,1.3239935180664062,0,0,0.91728
2.2592169739946257,0,0,1.1731588134765625,0,0,0.84084
2.260610697994707,0,0,1.189918225097656,0,0,1.07016
2.261997366993455,0,0,1.2425906616210938,0,0,0.84084
2.26338257297175,0,0,1.3000515014648437,0,0,0.7644
2.264767907996429,0,0,1.3575123413085937,0,0,0.53508
2.2661538169777486,0,0,1.438915197753906,0,0,0.91728
2.2675379119755235,0,0,1.3910311645507811,0,0,0.91728
2.268922950985143,0,0,1.149216796875,0,0,0.84084
2.270308415987529,0,0,1.1707646118164061,0,0,0.68796
2.271693343995139,0,0,1.1348515869140625,0,0,1.1465999999999998
2.2730783089937177,0,0,1.3766659545898436,0,0,0.91728
2.2744627919746563,0,0,1.3623007446289062,0,0,0.53508
2.2760919949796516,0,0,1.4939818359375,0,0,0.99372
2.277485478000017,0,0,1.2282254516601563,0,0,0.91728
2.278894812974613,0,0,1.2425906616210938,0,0,0.6115200000000001
2.2802823149831966,0,0,1.2210428466796874,0,0,0.7644
2.281672131997766,0,0,1.2138602416992186,0,0,1.5288
2.2830536519759335,0,0,1.2928688964843749,0,0,0.7644
2.2844314689864404,0,0,1.2689268798828124,0,0,1.07016
2.2858424889855087,0,0,1.407790576171875,0,0,0.84084
2.287229324982036,0,0,1.2856862915039062,0,0,0.7644
2.2886151599814184,0,0,1.3431471313476562,0,0,0.68796
2.290000439999858,0,0,1.2042834350585936,0,0,0.7644
2.2913868489849847,0,0,1.1659762084960936,0,0,0.7644
2.292772591987159,0,0,1.3144167114257812,0,0,0.15288000000000002
2.294159000972286,0,0,1.2952630981445312,0,0,0.68796
2.2955441879748832,0,0,1.5203180541992187,0,0,0.6115200000000001
2.2969295980001334,0,0,1.3383587280273437,0,0,0.7644
2.2983149139909074,0,0,1.3718775512695311,0,0,0.91728
2.2997003049822524,0,0,1.0941501586914062,0,0,0.99372
2.301085973973386,0,0,1.139639990234375,0,0,0.6115200000000001
2.302471456991043,0,0,1.1109095703125,0,0,0.45864
2.3038760509807616,0,0,1.2713210815429687,0,0,0.99372
2.305262571986532,0,0,1.4125789794921875,0,0,0.45864
2.3066673329740297,0,0,1.599326708984375,0,0,0.91728
2.3080536130000837,0,0,1.2880804931640624,0,0,0.91728
2.3094392259954475,0,0,1.3048399047851562,0,0,1.07016
2.310825134976767,0,0,1.1851298217773436,0,0,0.6115200000000001
2.31221085897414,0,0,1.218648645019531,0,0,1.1465999999999998
2.313596157997381,0,0,1.3742717529296875,0,0,0.7644
2.3149816219811328,0,0,1.3551181396484375,0,0,0.68796
2.3163669759815093,0,0,1.4604630126953124,0,0,0.68796
2.317753681971226,0,0,1.3096283081054687,0,0,0.6115200000000001
2.3191455909982324,0,0,1.2665326782226562,0,0,0.53508
2.3205313149956055,0,0,1.0989385620117187,0,0,0.68796
2.3219179279985838,0,0,1.1947066284179686,0,0,0.99372
2.32330285597709,0,0,1.3072341064453123,0,0,0.15288000000000002
2.324688005988719,0,0,1.3407529296874998,0,0,0.7644
2.3260743049904704,0,0,1.4939818359375,0,0,0.68796
2.3274594729882665,0,0,1.5083470458984374,0,0,0.68796
2.3288449379906524,0,0,1.3407529296874998,0,0,0.84084
2.3302326439879835,0,0,1.1731588134765625,0,0,0.91728
2.3316182939743157,0,0,1.1516109985351561,0,0,0.6115200000000001
2.3330037399719004,0,0,1.254561669921875,0,0,0.22932
2.3343897979939356,0,0,1.22583125,0,0,0.53508
2.3357751699804794,0,0,1.5658078857421873,0,0,0.84084
2.3371605049760547,0,0,1.4604630126953124,0,0,0.7644
2.3385461189900525,0,0,1.3862427612304686,0,0,1.07016
2.33993130599265,0,0,1.2234370483398436,0,0,0.99372
2.3413167339749634,0,0,1.13006318359375,0,0,0.53508
2.3427031059982255,0,0,1.2114660400390624,0,0,0.84084
2.344099366979208,0,0,1.2880804931640624,0,0,1.07016
2.34548525797436,0,0,1.2761094848632812,0,0,0.91728
2.346870740992017,0,0,1.419761584472656,0,0,0.91728
2.3482632429804653,0,0,1.3072341064453123,0,0,0.6115200000000001
2.3496488929959014,0,0,1.2617442749023438,0,0,0.7644
2.3510350249998737,0,0,1.1444283935546875,0,0,0.53508
2.3524204709974583,0,0,1.2018892333984375,0,0,1.2230400000000001
2.3538067689805757,0,0,1.3646949462890625,0,0,0.53508
2.355192252987763,0,0,1.2952630981445312,0,0,0.53508
2.3565777549811173,0,0,1.4891934326171874,0,0,0.6115200000000001
2.357963441987522,0,0,1.3431471313476562,0,0,0.68796
2.359348999976646,0,0,1.3359645263671873,0,0,0.7644
2.3607348529912997,0,0,1.177947216796875,0,0,0.84084
2.362121299986029,0,0,1.1540052001953125,0,0,0.99372
2.3635062649846077,0,0,1.3359645263671873,0,0,0.15288000000000002
2.364891432982404,0,0,1.3239935180664062,0,0,0.45864
2.3662772869865876,0,0,1.4101847778320311,0,0,0.68796
2.367670121981064,0,0,1.5011644409179687,0,0,0.6115200000000001
2.3690556609944906,0,0,1.3670891479492187,0,0,0.99372
2.370441162987845,0,0,1.2234370483398436,0,0,0.91728
2.371826386981411,0,0,1.1444283935546875,0,0,0.53508
2.37321172299562,0,0,1.13006318359375,0,0,1.07016
2.3745961689855903,0,0,1.3168109130859373,0,0,1.1465999999999998
2.375979707983788,0,0,1.4628572143554686,0,0,0.53508
2.3773636729747523,0,0,1.6639701538085936,0,0,1.1465999999999998
2.378761970991036,0,0,1.2952630981445312,0,0,0.84084
2.380148583994014,0,0,1.20667763671875,0,0,0.91728
2.381534678977914,0,0,1.120486376953125,0,0,0.6115200000000001
2.3829190699907485,0,0,1.2378022583007813,0,0,1.2230400000000001
2.384317607997218,0,0,1.2976572998046874,0,0,0.84084
2.385705535998568,0,0,1.37906015625,0,0,0.99372
2.3870907229720615,0,0,1.5562310791015623,0,0,0.6115200000000001
2.3884761329973117,0,0,1.4700398193359374,0,0,0.45864
2.3898628009774256,0,0,1.1516109985351561,0,0,0.22932
2.391259136988083,0,0,1.149216796875,0,0,0.99372
2.3926452309824526,0,0,1.209071838378906,0,0,1.07016
2.394032325973967,0,0,1.2976572998046874,0,0,0.0
2.3954172169906087,0,0,1.5035586425781249,0,0,0.53508
2.396803199982969,0,0,1.5466542724609373,0,0,0.6115200000000001
2.398190590989543,0,0,1.350329736328125,0,0,0.53508
2.399574777984526,0,0,1.2641384765625,0,0,1.2230400000000001
2.4009600579738617,0,0,1.158793603515625,0,0,1.07016
2.402392373973271,0,0,1.209071838378906,0,0,0.68796
2.4038558379979804,0,0,1.3096283081054687,0,0,0.15288000000000002
2.405290172988316,0,0,1.458068811035156,0,0,0.45864
2.406690710980911,0,0,1.5442600708007812,0,0,0.6115200000000001
2.4080771389999427,0,0,1.2976572998046874,0,0,0.6115200000000001
2.409463511983631,0,0,1.3215993164062498,0,0,1.1465999999999998
2.410849624982802,0,0,1.0749965454101562,0,0,0.91728
2.4122353669954464,0,0,1.1468225952148436,0,0,0.30576000000000003
2.4136212399753276,0,0,1.2282254516601563,0,0,0.3822
2.41500731598353,0,0,1.407790576171875,0,0,0.68796
2.4163935399847105,0,0,1.2641384765625,0,0,0.6115200000000001
2.417809133999981,0,0,1.4724340209960938,0,0,0.99372
2.41919693199452,0,0,1.2761094848632812,0,0,0.84084
2.420583118975628,0,0,1.3766659545898436,0,0,0.6115200000000001
2.42196617697482,0,0,1.2114660400390624,0,0,0.45864
2.423344178998377,0,0,1.1468225952148436,0,0,1.2230400000000001
2.4247220139950514,0,0,1.2713210815429687,0,0,0.91728
2.426112404995365,0,0,1.2928688964843749,0,0,1.07016
2.427501610975014,0,0,1.4053963745117186,0,0,0.68796
2.428887741989456,0,0,1.2808978881835937,0,0,0.22932
2.4302697999810334,0,0,1.2856862915039062,0,0,0.6115200000000001
2.43164767199778,0,0,1.139639990234375,0,0,0.7644
2.433024822996231,0,0,1.1324573852539062,0,0,1.2230400000000001
2.4344123619957827,0,0,1.2378022583007813,0,0,0.15288000000000002
2.435807196976384,0,0,1.3335703247070312,0,0,0.53508
2.4371933649817947,0,0,1.4987702392578124,0,0,0.7644
2.4385795899725053,0,0,1.5107412475585937,0,0,0.68796
2.4399654799781274,0,0,1.2138602416992186,0,0,1.07016
2.4413514269981533,0,0,1.216254443359375,0,0,0.99372
2.442731113987975,0,0,1.1635820068359375,0,0,0.7644
2.444109004980419,0,0,1.2569558715820313,0,0,0.07644000000000001
2.4454870999907143,0,0,1.3000515014648437,0,0,0.7644
2.4468735459959134,0,0,1.438915197753906,0,0,0.45864
2.448258028976852,0,0,1.6208745239257811,0,0,0.84084
2.4496429759892635,0,0,1.3575123413085937,0,0,1.2230400000000001
2.451027921983041,0,0,1.218648645019531,0,0,0.68796
2.4524126279866323,0,0,1.1061211669921875,0,0,0.45864
2.453811944986228,0,0,1.1827356201171875,0,0,1.07016
2.4551960209792014,0,0,1.3335703247070312,0,0,0.91728
2.456580762984231,0,0,1.2617442749023438,0,0,0.7644
2.4579667649813928,0,0,1.5251064575195312,0,0,0.68796
2.459350322984392,0,0,1.3575123413085937,0,0,0.91728
2.4607437509985175,0,0,1.2114660400390624,0,0,0.45864
2.4621322339808103,0,0,1.177947216796875,0,0,0.84084
2.463518494972959,0,0,1.0773907470703123,0,0,1.2994800000000002
2.464903459971538,0,0,1.3120225097656248,0,0,0.22932
2.4662889059982263,0,0,1.3742717529296875,0,0,0.68796
2.4676738339767326,0,0,1.5514426757812498,0,0,0.68796
2.469058595976094,0,0,1.3646949462890625,0,0,0.84084
2.4704436529718805,0,0,1.3838485595703125,0,0,0.99372
2.4718283219845034,0,0,1.197100830078125,0,0,1.07016
2.4732130089832935,0,0,0.9864110839843749,0,0,0.68796
2.474596510990523,0,0,1.1707646118164061,0,0,0.0
2.4759794019919354,0,0,1.2856862915039062,0,0,0.7644
2.477362032979727,0,0,1.4221557861328125,0,0,0.68796
2.4787723679910414,0,0,1.3910311645507811,0,0,0.84084
2.480174851982156,0,0,1.2928688964843749,0,0,1.2230400000000001
2.4815606129996013,0,0,1.3048399047851562,0,0,0.68796
2.482947169977706,0,0,1.2282254516601563,0,0,0.68796
2.4843333019816782,0,0,1.2234370483398436,0,0,0.84084
2.4857195259828586,0,0,1.3144167114257812,0,0,0.91728
2.4871059539727867,0,0,1.3766659545898436,0,0,0.68796
2.4884923629870173,0,0,1.6160861206054686,0,0,0.84084
2.4898760319920257,0,0,1.3215993164062498,0,0,0.6115200000000001
2.4912545339902863,0,0,1.120486376953125,0,0,0.84084
2.492633294983534,0,0,1.1156979736328125,0,0,0.84084
2.494017556979088,0,0,1.197100830078125,0,0,1.2230400000000001
2.495402650994947,0,0,1.3670891479492187,0,0,0.7644
2.4967879859905224,0,0,1.3287819213867187,0,0,0.45864
2.4981741179944947,0,0,1.5442600708007812,0,0,0.53508
2.499558082985459,0,0,1.2928688964843749,0,0,0.68796
2.500943010993069,0,0,1.3670891479492187,0,0,0.91728
2.502328493981622,0,0,1.1061211669921875,0,0,0.84084
2.5037130149721634,0,0,1.1875240234375,0,0,1.2994800000000002
2.5051052939961664,0,0,1.3239935180664062,0,0,0.22932
2.506490092986496,0,0,1.2856862915039062,0,0,0.3822
2.507874834991526,0,0,1.4030021728515625,0,0,0.53508
2.5092601149808615,0,0,1.4820108276367188,0,0,0.45864
2.510655838996172,0,0,1.3215993164062498,0,0,1.07016
2.5120409339724574,0,0,1.2569558715820313,0,0,0.99372
2.513425731973257,0,0,1.3527239379882812,0,0,0.68796
2.514811196975643,0,0,1.1659762084960936,0,0,0.30576000000000003
2.516196198994294,0,0,1.2713210815429687,0,0,0.7644
2.517581033986062,0,0,1.4820108276367188,0,0,0.68796
2.518976887979079,0,0,1.4939818359375,0,0,0.99372
2.52036164898891,0,0,1.3455413330078123,0,0,1.1465999999999998
2.5217568729713093,0,0,1.218648645019531,0,0,0.53508
2.5231484859832563,0,0,1.1468225952148436,0,0,0.68796
2.5245338029926643,0,0,1.2952630981445312,0,0,1.45236
2.5259197859850246,0,0,1.2641384765625,0,0,1.1465999999999998
2.5273038249870297,0,0,1.22583125,0,0,1.07016
2.528688363992842,0,0,1.5442600708007812,0,0,0.6115200000000001
2.530073662986979,0,0,1.3096283081054687,0,0,0.45864
2.531458201992791,0,0,1.350329736328125,0,0,0.53508
2.5328425179759506,0,0,1.189918225097656,0,0,0.84084
2.5342288539977744,0,0,1.1875240234375,0,0,1.1465999999999998
2.5356133559835143,0,0,1.3144167114257812,0,0,0.0
2.5369979869865347,0,0,1.3479355346679687,0,0,0.30576000000000003
2.5383828599879052,0,0,1.2976572998046874,0,0,0.53508
2.5397673249826767,0,0,1.4413093994140624,0,0,0.99372
2.5411524929804727,0,0,1.465251416015625,0,0,0.99372
2.5425378099898808,0,0,1.120486376953125,0,0,1.1465999999999998
2.5439709039928857,0,0,1.1420341918945311,0,0,0.68796
2.5453605729853734,0,0,1.3168109130859373,0,0,0.3822
2.5467521109967493,0,0,1.3192051147460937,0,0,0.68796
2.548137872974621,0,0,1.3766659545898436,0,0,0.91728
2.54952278197743,0,0,1.369483349609375,0,0,0.68796
2.5509082099888474,0,0,1.2976572998046874,0,0,1.1465999999999998
2.5522931929735932,0,0,1.2306196533203124,0,0,0.68796
2.553678157972172,0,0,1.1180921752929687,0,0,0.7644
2.555065715976525,0,0,1.2042834350585936,0,0,0.99372
2.5564516069716774,0,0,1.2976572998046874,0,0,1.2230400000000001
2.5578385899716523,0,0,1.2785036865234374,0,0,0.84084
2.5592221479746513,0,0,1.4245499877929686,0,0,0.53508
2.560606815997744,0,0,1.3838485595703125,0,0,0.7644
2.5619927259976976,0,0,1.35990654296875,0,0,0.84084
2.5633769129926804,0,0,1.1611878051757811,0,0,0.91728
2.564761784975417,0,0,1.2018892333984375,0,0,1.2230400000000001
2.5661650089896284,0,0,1.0869675537109373,0,0,0.45864
2.5675495299801696,0,0,1.3168109130859373,0,0,0.6115200000000001
2.5689346239960287,0,0,1.4987702392578124,0,0,0.91728
2.570320107974112,0,0,1.426944189453125,0,0,0.53508
2.571705201989971,0,0,1.3120225097656248,0,0,1.1465999999999998
2.573090277990559,0,0,1.1372457885742187,0,0,1.1465999999999998
2.574475186993368,0,0,1.189918225097656,0,0,0.84084
2.5758584489813074,0,0,1.3168109130859373,0,0,0.22932
2.57724924699869,0,0,1.3215993164062498,0,0,0.84084
2.5786480819806457,0,0,1.5370774658203123,0,0,0.6115200000000001
2.5800336029788014,0,0,1.3742717529296875,0,0,0.6115200000000001
2.5814184749906417,0,0,1.2018892333984375,0,0,0.91728
2.582804142992245,0,0,1.254561669921875,0,0,0.91728
2.584189441986382,0,0,1.3263877197265623,0,0,0.68796
2.585574128985172,0,0,1.2689268798828124,0,0,0.84084
2.5869595749827567,0,0,1.2785036865234374,0,0,1.07016
2.588344354997389,0,0,1.3192051147460937,0,0,0.99372
2.589729504979914,0,0,1.4915876342773438,0,0,0.99372
2.591115302988328,0,0,1.3742717529296875,0,0,0.68796
2.59249995398568,0,0,1.2425906616210938,0,0,0.68796
2.5938853259722237,0,0,1.197100830078125,0,0,0.6115200000000001
2.5952694569714367,0,0,1.216254443359375,0,0,1.37592
2.5966544409748167,0,0,1.3144167114257812,0,0,0.6115200000000001
2.5980399799882434,0,0,1.3407529296874998,0,0,0.45864
2.5994239259744063,0,0,1.465251416015625,0,0,1.2994800000000002
2.6008084649802186,0,0,1.235408056640625,0,0,0.7644
2.602193874976365,0,0,1.2761094848632812,0,0,0.99372
2.6035840989788994,0,0,1.1468225952148436,0,0,0.7644
2.604969618987525,0,0,1.1013327636718748,0,0,0.68796
2.6063545659999363,0,0,1.3215993164062498,0,0,0.07644000000000001
2.607739215978654,0,0,1.3814543579101561,0,0,0.53508
2.6091241069952957,0,0,1.429338391113281,0,0,0.53508
2.6105209050001577,0,0,1.4341267944335936,0,0,0.99372
2.6119061849894933,0,0,1.2593500732421874,0,0,1.07016
2.613290926994523,0,0,1.1707646118164061,0,0,0.91728
2.6146761139971204,0,0,1.1420341918945311,0,0,0.7644
2.616060578991892,0,0,1.13006318359375,0,0,0.3822
2.6174455259751994,0,0,1.2641384765625,0,0,1.1465999999999998
2.6188374539779034,0,0,1.3527239379882812,0,0,0.7644
2.6202222149877343,0,0,1.6735469604492186,0,0,1.07016
2.6216067349887453,0,0,1.3263877197265623,0,0,0.91728
2.622992255986901,0,0,1.3263877197265623,0,0,0.6115200000000001
2.6243780909862835,0,0,1.1540052001953125,0,0,0.45864
2.6257651669729967,0,0,1.2330138549804688,0,0,1.2230400000000001
2.627144113997929,0,0,1.3311761230468748,0,0,0.84084
2.6285215789976064,0,0,1.4053963745117186,0,0,1.07016
2.629907431983156,0,0,1.6615759521484375,0,0,0.7644
2.6312930819985922,0,0,1.4437036010742186,0,0,0.53508
2.6326788069854956,0,0,1.2593500732421874,0,0,0.6115200000000001
2.634062382974662,0,0,1.1420341918945311,0,0,0.6115200000000001
2.6356039379897993,0,0,1.1827356201171875,0,0,0.99372
2.6370291619969066,0,0,1.3646949462890625,0,0,0.22932
2.6384189419914037,0,0,1.3311761230468748,0,0,0.45864
2.639804832986556,0,0,1.5682020874023437,0,0,0.68796
2.641190222988371,0,0,1.484405029296875,0,0,0.6115200000000001
2.6425765399762895,0,0,1.3000515014648437,0,0,0.84084
2.6439620239834767,0,0,1.158793603515625,0,0,0.84084
2.645347136975033,0,0,1.0941501586914062,0,0,0.68796
2.6467326569836587,0,0,1.3024457031249999,0,0,0.0
2.648117584991269,0,0,1.5131354492187499,0,0,0.22932
2.6495026979828253,0,0,1.5011644409179687,0,0,0.6115200000000001
2.6508889589749742,0,0,1.448492004394531,0,0,1.1465999999999998
2.6522742949891835,0,0,1.2976572998046874,0,0,1.1465999999999998
2.653762554982677,0,0,1.2138602416992186,0,0,0.91728
2.655193666985724,0,0,1.1444283935546875,0,0,0.6115200000000001
2.6565809839812573,0,0,1.209071838378906,0,0,0.3822
2.6579708559729625,0,0,1.5155296508789062,0,0,0.84084
2.659352542978013,0,0,1.4867992309570313,0,0,0.84084
2.6607375819876324,0,0,1.4915876342773438,0,0,0.84084
2.662123491987586,0,0,1.3024457031249999,0,0,0.68796
2.663508400990395,0,0,1.177947216796875,0,0,0.7644
2.6648937549907714,0,0,1.158793603515625,0,0,0.53508
2.6662794789881445,0,0,1.20667763671875,0,0,1.37592
2.6676649629953317,0,0,1.3479355346679687,0,0,1.07016
2.6690498719981406,0,0,1.3168109130859373,0,0,1.07016
2.6704358179995324,0,0,1.446097802734375,0,0,0.7644
2.6718210419930983,0,0,1.2832920898437499,0,0,0.6115200000000001
2.6732060439826455,0,0,1.22583125,0,0,0.53508
2.6745899169764016,0,0,1.1468225952148436,0,0,1.2230400000000001
2.6759730849880725,0,0,1.1228805786132812,0,0,0.84084
2.6773565689800307,0,0,1.2832920898437499,0,0,0.22932
2.6787574969930574,0,0,1.3407529296874998,0,0,0.6115200000000001
2.6801436279783957,0,0,1.5011644409179687,0,0,0.91728
2.681529055989813,0,0,1.3551181396484375,0,0,0.68796
2.682914779987186,0,0,1.3192051147460937,0,0,0.91728
2.6843066339788493,0,0,1.1228805786132812,0,0,0.7644
2.685708616976626,0,0,1.0893617553710937,0,0,0.84084
2.6870967489958275,0,0,1.1635820068359375,0,0,0.30576000000000003
2.688482194993412,0,0,1.2808978881835937,0,0,0.91728
2.689868937974097,0,0,1.2785036865234374,0,0,0.6115200000000001
2.6912531059933826,0,0,1.6136919189453125,0,0,0.84084
2.6926379229989834,0,0,1.388636962890625,0,0,0.99372
2.694043628987856,0,0,1.3192051147460937,0,0,0.68796
2.695428222999908,0,0,1.1659762084960936,0,0,0.68796
2.696812983980635,0,0,1.2234370483398436,0,0,1.07016
2.6982055970001966,0,0,1.2473790649414063,0,0,0.91728
2.6995896739827003,0,0,1.3479355346679687,0,0,0.99372
2.700974897976266,0,0,1.5466542724609373,0,0,0.68796
2.702360343973851,0,0,1.2880804931640624,0,0,0.6115200000000001
2.703745530976448,0,0,1.2042834350585936,0,0,0.53508
2.7051303109910805,0,0,1.139639990234375,0,0,0.99372
2.7065156829776242,0,0,1.2617442749023438,0,0,1.2230400000000001
2.7079009259759914,0,0,1.3096283081054687,0,0,0.3822
2.709285742981592,0,0,1.2976572998046874,0,0,0.53508
2.710673281981144,0,0,1.70467158203125,0,0,0.45864
2.7120582099887542,0,0,1.4149731811523436,0,0,0.30576000000000003
2.7134430819714908,0,0,1.3455413330078123,0,0,0.91728
2.7148289359756745,0,0,1.1228805786132812,0,0,0.91728
2.7162134009995498,0,0,1.1635820068359375,0,0,0.99372
2.71759808799834,0,0,1.3168109130859373,0,0,0.0
2.718983385973843,0,0,1.2785036865234374,0,0,0.6115200000000001
2.720367906993488,0,0,1.5466542724609373,0,0,0.68796
2.7217535939998925,0,0,1.4724340209960938,0,0,0.7644
2.7231502619979437,0,0,1.3670891479492187,0,0,0.99372
2.7245372829784174,0,0,1.1468225952148436,0,0,0.99372
2.725922821991844,0,0,1.1180921752929687,0,0,0.7644
2.7273075829725713,0,0,1.1755530151367186,0,0,0.99372
2.728692936972948,0,0,1.2761094848632812,0,0,1.2994800000000002
2.730078364984365,0,0,1.3215993164062498,0,0,0.84084
2.731462143972749,0,0,1.446097802734375,0,0,1.1465999999999998
2.732846812985372,0,0,1.3024457031249999,0,0,1.1465999999999998
2.7345786999794655,0,0,1.1635820068359375,0,0,0.53508
2.7359598129987717,0,0,1.16837041015625,0,0,0.3822
2.7373383889789693,0,0,1.1659762084960936,0,0,1.07016
2.738718316977611,0,0,1.218648645019531,0,0,1.07016
2.7400970039889216,0,0,1.350329736328125,0,0,0.91728
2.741488949977793,0,0,1.446097802734375,0,0,0.6115200000000001
2.7428677489806432,0,0,1.3168109130859373,0,0,0.53508
2.744245805981336,0,0,1.2593500732421874,0,0,0.84084
2.745623530994635,0,0,1.1540052001953125,0,0,0.3822
2.747002754971618,0,0,1.1707646118164061,0,0,0.7644
2.7483807009994052,0,0,1.2330138549804688,0,0,0.30576000000000003
2.7497662589885294,0,0,1.3263877197265623,0,0,0.53508
2.7511517239909153,0,0,1.467645617675781,0,0,0.7644
2.752546003990574,0,0,1.2617442749023438,0,0,0.68796
2.753931967978133,0,0,1.2569558715820313,0,0,0.68796
2.75531615599175,0,0,1.1851298217773436,0,0,1.1465999999999998
2.756700768979499,0,0,1.1707646118164061,0,0,0.99372
2.758086399990134,0,0,1.2952630981445312,0,0,0.07644000000000001
2.7594705499941483,0,0,1.2952630981445312,0,0,0.6115200000000001
2.760855181986699,0,0,1.2569558715820313,0,0,0.53508
2.7622406839800533,0,0,1.3287819213867187,0,0,0.99372
2.7636252039810643,0,0,1.2832920898437499,0,0,1.1465999999999998
2.7650097249716055,0,0,1.177947216796875,0,0,0.99372
2.766394707985455,0,0,1.0797849487304687,0,0,0.68796
2.7677790809830185,0,0,1.1516109985351561,0,0,0.99372
2.7691636569797993,0,0,1.2785036865234374,0,0,0.99372
2.7705486589984503,0,0,1.4030021728515625,0,0,0.7644
2.771933400974376,0,0,1.5849614990234373,0,0,1.07016
2.7733181069779675,0,0,1.3215993164062498,0,0,0.68796
2.7747012389882,0,0,1.3000515014648437,0,0,0.6115200000000001
2.7760842589777894,0,0,1.1013327636718748,0,0,0.7644
2.777466816973174,0,0,1.1731588134765625,0,0,0.91728
2.778865040978417,0,0,1.2808978881835937,0,0,0.3822
2.7802516169904266,0,0,1.3479355346679687,0,0,0.6115200000000001
2.781638081971323,0,0,1.5203180541992187,0,0,0.84084
2.7830243979988154,0,0,1.484405029296875,0,0,0.84084
2.784410381980706,0,0,1.2880804931640624,0,0,0.91728
2.7858191239938606,0,0,1.1635820068359375,0,0,0.99372
2.787206070992397,0,0,1.1444283935546875,0,0,0.84084
2.78859184999601,0,0,1.2832920898437499,0,0,0.0
2.7899781669839285,0,0,1.2282254516601563,0,0,0.45864
2.7913636509911157,0,0,1.5011644409179687,0,0,0.53508
2.7927502269740216,0,0,1.6472107421875,0,0,0.68796
2.7941366359882522,0,0,1.3096283081054687,0,0,1.2994800000000002
2.795522230997449,0,0,1.1947066284179686,0,0,0.68796
2.7969081769988406,0,0,1.1324573852539062,0,0,0.53508
2.798294067993993,0,0,1.2521674682617188,0,0,0.6115200000000001
2.7996797549712937,0,0,1.3000515014648437,0,0,1.1465999999999998
2.8010657939885277,0,0,1.3335703247070312,0,0,0.6115200000000001
2.8024523879867047,0,0,1.5825672973632812,0,0,0.91728
2.8038377419870812,0,0,1.2641384765625,0,0,0.91728
2.805223743984243,0,0,1.1923124267578125,0,0,0.6115200000000001
2.806609782972373,0,0,1.2138602416992186,0,0,0.68796
2.8079948959930334,0,0,1.0773907470703123,0,0,1.2994800000000002
2.809380805992987,0,0,1.3311761230468748,0,0,0.91728
2.810768677998567,0,0,1.2497732666015624,0,0,0.7644
2.8121469389880076,0,0,1.407790576171875,0,0,0.45864
2.813525088975439,0,0,1.2425906616210938,0,0,1.1465999999999998
2.815976467973087,0,0,1.1563994018554686,0,0,0.84084
2.8173714320000727,0,0,1.1348515869140625,0,0,0.68796
2.8187617309740745,0,0,1.2569558715820313,0,0,0.15288000000000002
2.8201470659987535,0,0,1.2713210815429687,0,0,0.68796
2.8215325489873067,0,0,1.3934253662109375,0,0,0.6115200000000001
2.8229125699726865,0,0,1.5011644409179687,0,0,1.1465999999999998
2.8242900719924364,0,0,1.3455413330078123,0,0,0.91728
2.82567255498725,0,0,1.1659762084960936,0,0,0.6115200000000001
2.8270646309829317,0,0,1.1875240234375,0,0,1.07016
2.8300274289795198,0,0,1.22583125,0,0,0.91728
2.831497559993295,0,0,1.37906015625,0,0,0.84084
2.832953967998037,0,0,1.47482822265625,0,0,0.84084
2.834345951996511,0,0,1.3814543579101561,0,0,0.7644
2.8357341199880466,0,0,1.3239935180664062,0,0,0.6115200000000001
2.8371222329733428,0,0,1.0965443603515623,0,0,0.53508
2.8385104579792824,0,0,1.1875240234375,0,0,1.45236
2.8398980339989066,0,0,1.3383587280273437,0,0,1.07016
2.841285460977815,0,0,1.3215993164062498,0,0,0.68796
2.8426660369732417,0,0,1.4939818359375,0,0,0.6115200000000001
2.8440446509921458,0,0,1.3646949462890625,0,0,0.53508
2.8454235599783715,0,0,1.3072341064453123,0,0,0.68796
2.8468273029720876,0,0,1.1923124267578125,0,0,0.6115200000000001
2.84821626698249,0,0,1.1875240234375,0,0,1.1465999999999998
2.849604102986632,0,0,1.3096283081054687,0,0,0.07644000000000001
2.8509934379835613,0,0,1.4173673828125,0,0,0.6115200000000001
2.852379531977931,0,0,1.62805712890625,0,0,-9.09636
2.8537698119762354,0,0,1.484405029296875,0,0,0.68796
2.855157961981604,0,0,1.2665326782226562,0,0,1.1465999999999998
2.8565452229813673,0,0,1.199495031738281,0,0,0.84084
2.85792989199399,0,0,1.1085153686523437,0,0,0.6115200000000001
2.8593077269906644,0,0,1.2473790649414063,0,0,0.3822
2.860686210973654,0,0,1.369483349609375,0,0,0.91728
2.8620717499870807,0,0,1.5490484741210937,0,0,0.53508
2.8634589739958756,0,0,1.426944189453125,0,0,0.91728
2.864845345990034,0,0,1.2880804931640624,0,0,0.91728
2.8662337369751185,0,0,1.2042834350585936,0,0,0.53508
2.8676210539997555,0,0,1.1659762084960936,0,0,0.68796
2.869007536995923,0,0,1.0989385620117187,0,0,0.84084
2.870393946999684,0,0,1.2330138549804688,0,0,1.07016
2.8717994669859763,0,0,1.1923124267578125,0,0,0.68796
2.873186098993756,0,0,1.4891934326171874,0,0,0.7644
2.8745728969806805,0,0,1.2832920898437499,0,0,0.84084
2.8759664359968156,0,0,1.2306196533203124,0,0,0.7644
2.877352326991968,0,0,1.1875240234375,0,0,0.68796
2.878740142972674,0,0,1.218648645019531,0,0,1.07016
2.880272457987303,0,0,1.2617442749023438,0,0,0.45864
2.8816613309900276,0,0,1.3623007446289062,0,0,0.7644
2.8830488699895795,0,0,1.465251416015625,0,0,0.7644
2.8844357789785136,0,0,1.3239935180664062,0,0,0.7644
2.885823447984876,0,0,1.3072341064453123,0,0,0.99372
2.8872099119762424,0,0,1.1061211669921875,0,0,0.91728
2.8885967479727697,0,0,1.2042834350585936,0,0,0.6115200000000001
2.8899809529830236,0,0,1.13006318359375,0,0,-0.45864
2.8913600479718298,0,0,1.3048399047851562,0,0,0.53508
2.892739160975907,0,0,1.388636962890625,0,0,0.68796
2.8941234779777005,0,0,1.3958195678710936,0,0,0.7644
2.8955100169987418,0,0,1.4317325927734375,0,0,1.07016
2.8968966489774175,0,0,1.3024457031249999,0,0,0.99372
2.898282798996661,0,0,1.1372457885742187,0,0,0.53508
2.899668911995832,0,0,1.3431471313476562,0,0,0.7644
2.901054727990413,0,0,1.2832920898437499,0,0,0.91728
2.902439470984973,0,0,1.3048399047851562,0,0,0.6115200000000001
2.90469007397769,0,0,1.3407529296874998,0,0,0.45864
2.90614716798882,0,0,1.218648645019531,0,0,0.45864
2.9075295769725926,0,0,1.1420341918945311,0,0,-8.7906
2.9089102639991324,0,0,1.218648645019531,0,0,0.91728
2.91031054398627,0,0,1.3048399047851562,0,0,0.07644000000000001
2.9118150629801676,0,0,1.3934253662109375,0,0,0.45864
2.9132061389973387,0,0,1.5801730957031248,0,0,0.6115200000000001
2.914589732972672,0,0,1.39821376953125,0,0,0.91728
2.915968883986352,0,0,1.4724340209960938,0,0,1.2230400000000001
2.917347440990852,0,0,1.1444283935546875,0,0,0.99372
2.918735924991779,0,0,1.0773907470703123,0,0,0.91728
2.9201431299734395,0,0,1.2569558715820313,0,0,0.07644000000000001
2.9215307059930637,0,0,1.35990654296875,0,0,0.30576000000000003
2.9229180039837956,0,0,1.2425906616210938,0,0,0.3822
2.924305172986351,0,0,1.369483349609375,0,0,0.99372
2.925706285983324,0,0,1.2880804931640624,0,0,1.1465999999999998
2.9270942879957147,0,0,1.1420341918945311,0,0,0.99372
2.928481122973608,0,0,1.120486376953125,0,0,0.53508
2.9298649949778337,0,0,1.199495031738281,0,0,1.1465999999999998
2.931251367990626,0,0,1.3527239379882812,0,0,1.07016
2.9326303329726215,0,0,1.2569558715820313,0,0,0.68796
2.9340154829842504,0,0,1.419761584472656,0,0,0.68796
2.935402280971175,0,0,1.3479355346679687,0,0,0.84084
2.9367888379783835,0,0,1.3718775512695311,0,0,0.6115200000000001
2.9381758399831597,0,0,1.1923124267578125,0,0,0.84084
2.9395611199724954,0,0,1.16837041015625,0,0,0.91728
2.94094699199195,0,0,1.4030021728515625,0,0,0.22932
2.942332901991904,0,0,1.3263877197265623,0,0,0.99372
2.9437184959824663,0,0,1.5227122558593749,0,0,0.68796
2.9451040539715905,0,0,1.2378022583007813,0,0,0.6115200000000001
2.9464901109749917,0,0,1.2138602416992186,0,0,1.1465999999999998
2.9478755759773776,0,0,1.1755530151367186,0,0,0.6115200000000001
2.9492612819885835,0,0,1.0726023437499999,0,0,0.91728
2.9506575429986697,0,0,1.0749965454101562,0,0,0.3822
2.9520429149852134,0,0,1.3958195678710936,0,0,0.45864
2.9534280099906027,0,0,1.5322890624999999,0,0,0.53508
2.954813659976935,0,0,1.5251064575195312,0,0,0.68796
2.9561994209943805,0,0,1.3551181396484375,0,0,0.91728
2.957584830990527,0,0,1.1324573852539062,0,0,1.07016
2.9590073509898502,0,0,1.1133037719726562,0,0,0.7644
2.960395426984178,0,0,1.1731588134765625,0,0,0.99372
2.961783779988764,0,0,1.3383587280273437,0,0,0.68796
2.9631707269873004,0,0,1.4053963745117186,0,0,0.91728
2.9645672099723015,0,0,1.6136919189453125,0,0,0.84084
2.965955267980462,0,0,1.3215993164062498,0,0,0.7644
2.9673415099969134,0,0,1.2617442749023438,0,0,0.7644
2.9687281229998916,0,0,1.2042834350585936,0,0,0.6115200000000001
2.9701121439866256,0,0,1.2018892333984375,0,0,1.07016
2.971490089985309,0,0,1.3048399047851562,0,0,0.84084
2.972868462995393,0,0,1.3527239379882812,0,0,0.7644
2.9742516679980326,0,0,1.4604630126953124,0,0,0.6115200000000001
2.975636355986353,0,0,1.3383587280273437,0,0,0.3822
2.9770202089857776,0,0,1.235408056640625,0,0,0.6115200000000001
2.978451654984383,0,0,1.1420341918945311,0,0,0.91728
2.9798430649971124,0,0,1.20667763671875,0,0,0.91728
2.9812307149986736,0,0,1.3670891479492187,0,0,0.0
2.9826179569936357,0,0,1.3910311645507811,0,0,0.0
2.984026162972441,0,0,1.5753846923828123,0,0,0.45864
2.985414904978825,0,0,1.3048399047851562,0,0,0.91728
2.986796406999929,0,0,1.2713210815429687,0,0,0.84084
2.988175242993748,0,0,1.1228805786132812,0,0,1.2230400000000001
2.9895732069853693,0,0,1.1851298217773436,0,0,0.99372
2.9909622089762706,0,0,1.2617442749023438,0,0,0.15288000000000002
2.9923489339998923,0,0,1.3646949462890625,0,0,0.45864
2.993745546991704,0,0,1.5083470458984374,0,0,0.68796
2.995132473995909,0,0,1.4101847778320311,0,0,1.07016
2.9965190129878465,0,0,1.484405029296875,0,0,0.91728
2.9979058299795724,0,0,1.2521674682617188,0,0,0.91728
2.9992908879939932,0,0,1.1827356201171875,0,0,0.6115200000000001
3.0006767779996153,0,0,1.1468225952148436,0,0,0.91728
3.0020637799752876,0,0,1.3910311645507811,0,0,0.99372
3.0034485969808884,0,0,1.4915876342773438,0,0,1.07016
3.00491302399314,0,0,1.4245499877929686,0,0,0.7644
3.0063058409723453,0,0,1.3000515014648437,0,0,0.68796
3.0077020279713906,0,0,1.2856862915039062,0,0,0.6115200000000001
3.0091004189744126,0,0,1.1420341918945311,0,0,0.53508
3.0104870869836304,0,0,1.1516109985351561,0,0,1.45236
3.0118733479757793,0,0,1.3359645263671873,0,0,0.68796
3.0132597209885716,0,0,1.3383587280273437,0,0,0.3822
3.0146642409963533,0,0,1.618480322265625,0,0,0.91728
3.0160500389756635,0,0,1.3359645263671873,0,0,0.68796
3.017443670978537,0,0,1.43652099609375,0,0,0.68796
3.0188290429941844,0,0,1.1468225952148436,0,0,1.07016
3.020214951975504,0,0,1.1013327636718748,0,0,0.84084
3.0216014359903056,0,0,1.1827356201171875,0,0,0.0
3.0229880299884826,0,0,1.3120225097656248,0,0,0.6115200000000001
3.0243742729944643,0,0,1.4939818359375,0,0,0.53508
3.025765237980522,0,0,1.4867992309570313,0,0,0.7644
3.027152776980074,0,0,1.3527239379882812,0,0,1.1465999999999998
3.028539111983264,0,0,1.1875240234375,0,0,0.68796
3.0299257439910434,0,0,1.1635820068359375,0,0,0.6115200000000001
3.031312041974161,0,0,1.180341418457031,0,0,0.84084
3.0326982109982055,0,0,1.2904746948242187,0,0,1.07016
3.03408482397208,0,0,1.3455413330078123,0,0,0.68796
3.0354712889820803,0,0,1.448492004394531,0,0,1.1465999999999998
3.0368570499995258,0,0,1.3407529296874998,0,0,0.68796
3.0382432919868734,0,0,1.3048399047851562,0,0,0.45864
3.039629442995647,0,0,1.1468225952148436,0,0,0.53508
3.0410150369862095,0,0,1.2306196533203124,0,0,0.99372
3.0424013349984307,0,0,1.3646949462890625,0,0,0.45864
3.0437873189803213,0,0,1.2641384765625,0,0,0.45864
3.045173172984505,0,0,1.5945383056640625,0,0,0.91728
3.0465590999810956,0,0,1.3192051147460937,0,0,0.53508
3.04795728699537,0,0,1.2808978881835937,0,0,0.91728
3.049343955994118,0,0,1.1755530151367186,0,0,0.99372
3.0507303279882763,0,0,1.2018892333984375,0,0,0.99372
3.0521230709855445,0,0,1.2832920898437499,0,0,0.07644000000000001
3.0535090169869363,0,0,1.2497732666015624,0,0,0.15288000000000002
3.054895241977647,0,0,1.5753846923828123,0,0,0.7644
3.056281520985067,0,0,1.3311761230468748,0,0,0.7644
3.0576669309812132,0,0,1.3455413330078123,0,0,1.07016
3.059052709984826,0,0,1.1707646118164061,0,0,0.91728
3.060438822983997,0,0,1.3670891479492187,0,0,0.7644
3.061825639975723,0,0,1.3479355346679687,0,0,0.3822
3.063211104978109,0,0,1.3670891479492187,0,0,0.91728
3.064596921991324,0,0,1.3144167114257812,0,0,0.6115200000000001
3.0659839239961,0,0,1.3575123413085937,0,0,0.6115200000000001
3.0673697409802116,0,0,1.1923124267578125,0,0,1.07016
3.068755593994865,0,0,1.1611878051757811,0,0,0.53508
3.070141910982784,0,0,1.180341418457031,0,0,0.6115200000000001
3.071527171996422,0,0,1.1252747802734375,0,0,1.5288
3.0729129889805336,0,0,1.3575123413085937,0,0,0.99372
3.0742995469772723,0,0,1.3096283081054687,0,0,0.0
3.0756851409969386,0,0,1.5538368774414062,0,0,0.91728
3.0770704389724415,0,0,1.3311761230468748,0,0,0.68796
3.078456996998284,0,0,1.4437036010742186,0,0,0.6115200000000001
3.079842850973364,0,0,1.13006318359375,0,0,0.7644
3.0812286299769767,0,0,1.1420341918945311,0,0,0.7644
3.0826149839849677,0,0,1.3575123413085937,0,0,0.0
3.0840011709951796,0,0,1.2785036865234374,0,0,0.7644
3.0853870249993633,0,0,1.4317325927734375,0,0,0.53508
3.086772860988276,0,0,1.3814543579101561,0,0,0.6115200000000001
3.0881584549788386,0,0,1.2378022583007813,0,0,1.07016
3.089544363989262,0,0,1.1348515869140625,0,0,0.53508
3.0909307739930227,0,0,1.1540052001953125,0,0,0.53508
3.0923233869834803,0,0,1.1468225952148436,0,0,0.22932
3.093710684974212,0,0,1.22583125,0,0,1.07016
3.0951066309935413,0,0,1.4724340209960938,0,0,0.53508
3.0964947439788375,0,0,1.4939818359375,0,0,0.7644
3.0978816349816043,0,0,1.37906015625,0,0,0.99372
3.0992673589789774,0,0,1.2808978881835937,0,0,0.84084
3.1006529349833727,0,0,1.2641384765625,0,0,0.91728
3.1020394189981744,0,0,1.1348515869140625,0,0,0.84084
3.1034266429778654,0,0,1.235408056640625,0,0,1.2230400000000001
3.1048122369975317,0,0,1.37906015625,0,0,0.91728
3.106206979980925,0,0,1.6017209106445311,0,0,0.84084
3.107593092980096,0,0,1.2473790649414063,0,0,0.6115200000000001
3.1089789099933114,0,0,1.1947066284179686,0,0,0.6115200000000001
3.1103649299766403,0,0,1.1372457885742187,0,0,0.68796
3.111750950978603,0,0,1.20667763671875,0,0,0.91728
3.113136748987017,0,0,1.2593500732421874,0,0,0.3822
3.1145226579974405,0,0,1.2425906616210938,0,0,0.68796
3.1159084379905835,0,0,1.5945383056640625,0,0,0.68796
3.1172940509859473,0,0,1.3910311645507811,0,0,0.68796
3.1186796829861123,0,0,1.458068811035156,0,0,1.2994800000000002
3.120065443974454,0,0,1.0869675537109373,0,0,0.6115200000000001
3.121451241982868,0,0,1.0749965454101562,0,0,0.6115200000000001
3.12283742899308,0,0,1.3527239379882812,0,0,0.15288000000000002
3.124222838989226,0,0,1.350329736328125,0,0,0.53508
3.1256088039954193,0,0,1.3311761230468748,0,0,0.7644
3.1269951579743065,0,0,1.35990654296875,0,0,1.07016
3.1283808819716796,0,0,1.2617442749023438,0,0,0.84084
3.129768401995534,0,0,1.1923124267578125,0,0,0.99372
3.1311547189834528,0,0,1.1875240234375,0,0,0.68796
3.132540535996668,0,0,1.0845733520507812,0,0,0.84084
3.1339271669858135,0,0,1.3958195678710936,0,0,0.99372
3.13531233597314,0,0,1.2713210815429687,0,0,0.53508
3.1366982079925947,0,0,1.3623007446289062,0,0,0.99372
3.1380843769875355,0,0,1.2761094848632812,0,0,0.91728
3.1394918599980883,0,0,1.2497732666015624,0,0,0.53508
3.1408817139745224,0,0,1.3263877197265623,0,0,0.30576000000000003
3.1424064549792092,0,0,1.218648645019531,0,0,0.99372
3.143965009978274,0,0,1.3048399047851562,0,0,1.37592
3.145347141980892,0,0,1.235408056640625,0,0,0.53508
3.1467279589851387,0,0,1.4604630126953124,0,0,0.99372
3.1481060899968725,0,0,1.3407529296874998,0,0,0.91728
3.14948472197284,0,0,1.3144167114257812,0,0,0.68796
3.1508650389732793,0,0,1.1420341918945311,0,0,0.91728
3.152242984971963,0,0,1.1540052001953125,0,0,1.2230400000000001
3.1536206909804605,0,0,1.3718775512695311,0,0,0.7644
3.1561350869887974,0,0,1.5634136840820312,0,0,0.53508
3.1575325149751734,0,0,1.6256629272460936,0,0,0.53508
3.158925793977687,0,0,1.3144167114257812,0,0,1.07016
3.1603246849845164,0,0,1.1707646118164061,0,0,1.07016
3.1617127799836453,0,0,1.1707646118164061,0,0,0.91728
3.1630998559994623,0,0,1.2138602416992186,0,0,0.45864
3.164487060974352,0,0,1.2330138549804688,0,0,0.7644
3.1658931369893253,0,0,1.4532804077148436,0,0,0.7644
3.167271657992387,0,0,1.426944189453125,0,0,0.84084
3.168650566978613,0,0,1.2904746948242187,0,0,0.7644
3.170045698992908,0,0,1.24498486328125,0,0,0.7644
3.1714333489944693,0,0,1.1540052001953125,0,0,0.45864
3.1728205909894314,0,0,1.3048399047851562,0,0,1.2994800000000002
3.1742080749827437,0,0,1.2641384765625,0,0,1.37592
3.1755941689771134,0,0,1.2378022583007813,0,0,0.84084
3.176980819000164,0,0,1.5251064575195312,0,0,0.7644
3.1783677289786283,0,0,1.350329736328125,0,0,0.3822
3.1797544159926474,0,0,1.180341418457031,0,0,0.6115200000000001
3.1811412329843733,0,0,1.1731588134765625,0,0,0.45864
3.18252340098843,0,0,1.139639990234375,0,0,0.99372
3.183919587987475,0,0,1.3407529296874998,0,0,0.0
3.18529914598912,0,0,1.2665326782226562,0,0,0.45864
3.186706147971563,0,0,1.5753846923828123,0,0,0.6115200000000001
3.188092426978983,0,0,1.3910311645507811,0,0,0.53508
3.189478447980946,0,0,1.2976572998046874,0,0,0.99372
3.1908647649979685,0,0,1.0845733520507812,0,0,0.68796
3.1922512659803033,0,0,1.0534487304687499,0,0,0.99372
3.193811469973298,0,0,1.2713210815429687,0,0,0.30576000000000003
3.1952071019914,0,0,1.3479355346679687,0,0,0.53508
3.196594714972889,0,0,1.5849614990234373,0,0,0.53508
3.1979838089901023,0,0,1.2952630981445312,0,0,0.99372
3.199369754991494,0,0,1.2569558715820313,0,0,0.91728
3.2007558869954664,0,0,1.1827356201171875,0,0,1.2230400000000001
3.202140444976976,0,0,1.1228805786132812,0,0,0.53508
3.203694962983718,0,0,1.235408056640625,0,0,0.0
3.2050759089761414,0,0,1.3144167114257812,0,0,0.68796
3.206464707996929,0,0,1.2689268798828124,0,0,0.68796
3.2078522099764086,0,0,1.3431471313476562,0,0,0.84084
3.2092435259837657,0,0,1.3263877197265623,0,0,1.07016
3.2106371949776076,0,0,1.180341418457031,0,0,1.2230400000000001
3.212025085987989,0,0,1.1707646118164061,0,0,0.7644
3.2134118279791437,0,0,1.0869675537109373,0,0,-8.71416
3.214801126974635,0,0,1.2737152832031249,0,0,0.68796
3.216187257989077,0,0,1.2713210815429687,0,0,0.53508
3.2175736489880364,0,0,1.4173673828125,0,0,0.6115200000000001
3.2190073169767857,0,0,1.2497732666015624,0,0,0.84084
3.2203857819840778,0,0,1.3359645263671873,0,0,0.7644
3.2217761909996625,0,0,1.1611878051757811,0,0,0.6115200000000001
3.2231633229821455,0,0,1.180341418457031,0,0,0.84084
3.224566287972266,0,0,1.3192051147460937,0,0,1.1465999999999998
3.2259566039720085,0,0,1.2952630981445312,0,0,0.68796
3.2273449770000298,0,0,1.2952630981445312,0,0,0.7644
3.2287393489968963,0,0,1.3431471313476562,0,0,0.30576000000000003
3.2301265729765873,0,0,1.369483349609375,0,0,0.53508
3.2315132599906065,0,0,1.0989385620117187,0,0,1.1465999999999998
3.2329002439801116,0,0,1.1468225952148436,0,0,0.91728
3.2342824489751365,0,0,1.24498486328125,0,0,0.30576000000000003
3.235660858976189,0,0,1.3144167114257812,0,0,0.53508
3.237038508988917,0,0,1.5394716674804687,0,0,0.7644
3.238424862996908,0,0,1.3910311645507811,0,0,0.99372
3.239811067993287,0,0,1.3263877197265623,0,0,1.07016
3.241197162977187,0,0,1.1252747802734375,0,0,0.91728
3.2425833689922,0,0,1.1085153686523437,0,0,0.45864
3.243971703981515,0,0,1.2737152832031249,0,0,0.22932
3.2453572059748694,0,0,1.2282254516601563,0,0,0.7644
3.2468017259961925,0,0,1.4820108276367188,0,0,0.84084
3.248188931000186,0,0,1.5610194824218748,0,0,0.99372
3.2495752849790733,0,0,1.3120225097656248,0,0,1.1465999999999998
3.2509618240001146,0,0,1.13006318359375,0,0,0.6115200000000001
3.2523479369992856,0,0,1.1611878051757811,0,0,0.6115200000000001
3.2537346799799707,0,0,1.2856862915039062,0,0,1.07016
3.2551215149869677,0,0,1.2952630981445312,0,0,0.99372
3.2565071649733,0,0,1.484405029296875,0,0,0.68796
3.257893110974692,0,0,1.5705962890624998,0,0,0.91728
3.2592781509738415,0,0,1.3048399047851562,0,0,0.91728
3.2606634669937193,0,0,1.2785036865234374,0,0,0.53508
3.262049283977831,0,0,1.20667763671875,0,0,0.6115200000000001
3.2634341379744,0,0,1.199495031738281,0,0,0.84084
3.2648202139826026,0,0,1.3096283081054687,0,0,0.53508
3.2662066599878017,0,0,1.2808978881835937,0,0,0.3822
3.2675914769934025,0,0,1.438915197753906,0,0,0.7644
3.2689765349787194,0,0,1.2521674682617188,0,0,0.6115200000000001
3.270361906994367,0,0,1.3359645263671873,0,0,1.2994800000000002
3.27175829798216,0,0,1.1276689819335937,0,0,0.99372
3.2731446139805485,0,0,0.9911994873046874,0,0,0.7644
3.2745295419881586,0,0,1.254561669921875,0,0,0.22932
3.2764754819800146,0,0,1.3646949462890625,0,0,0.68796
3.2778717799810693,0,0,1.5011644409179687,0,0,0.7644
3.2792610039759893,0,0,1.3718775512695311,0,0,0.68796
3.2806487279885914,0,0,1.2952630981445312,0,0,0.53508
3.282035433978308,0,0,1.2138602416992186,0,0,0.7644
3.283447935973527,0,0,1.20667763671875,0,0,0.68796
3.2848346599785145,0,0,1.2832920898437499,0,0,0.0
3.2862541799840983,0,0,1.3455413330078123,0,0,0.6115200000000001
3.2876415709906723,0,0,1.5035586425781249,0,0,0.45864
3.289028553990647,0,0,1.446097802734375,0,0,0.68796
3.2904148519737646,0,0,1.2904746948242187,0,0,1.2230400000000001
3.291801224986557,0,0,1.20667763671875,0,0,0.84084
3.293187596980715,0,0,1.2761094848632812,0,0,0.68796
3.294573635997949,0,0,1.2593500732421874,0,0,0.22932
3.295959489973029,0,0,1.3383587280273437,0,0,0.68796
3.2973454919992946,0,0,1.3311761230468748,0,0,0.68796
3.2987316599756014,0,0,1.4532804077148436,0,0,0.84084
3.300117569975555,0,0,1.2832920898437499,0,0,0.84084
3.3015038309968077,0,0,1.149216796875,0,0,0.7644
3.3028901479847264,0,0,1.1563994018554686,0,0,0.6115200000000001
3.3042764269921463,0,0,1.1156979736328125,0,0,1.45236
3.3056624849850778,0,0,1.3383587280273437,0,0,1.07016
3.3070480979804415,0,0,1.4772224243164063,0,0,0.53508
3.308433858997887,0,0,1.5131354492187499,0,0,0.68796
3.3098204169946257,0,0,1.3407529296874998,0,0,0.53508
3.3112056409881916,0,0,1.3096283081054687,0,0,1.07016
3.312591290974524,0,0,1.0821791503906248,0,0,0.84084
3.3139774599985685,0,0,1.0917559570312498,0,0,0.84084
3.3153629989828914,0,0,1.3646949462890625,0,0,0.45864
3.3167593519901857,0,0,1.2928688964843749,0,0,0.53508
3.3181455389712937,0,0,1.47482822265625,0,0,0.7644
3.319531022978481,0,0,1.3359645263671873,0,0,0.7644
3.320916505996138,0,0,1.3335703247070312,0,0,1.2230400000000001
3.322301748994505,0,0,1.3551181396484375,0,0,1.1465999999999998
3.323685917974217,0,0,1.158793603515625,0,0,0.7644
3.3251839739969,0,0,1.2952630981445312,0,0,0.0
3.3265773089951836,0,0,1.2114660400390624,0,0,0.7644
3.327964643976884,0,0,1.4125789794921875,0,0,0.53508
3.3293515909754205,0,0,1.5897499023437498,0,0,0.91728
3.3307385929801967,0,0,1.3048399047851562,0,0,1.2230400000000001
3.3321254089823924,0,0,1.3551181396484375,0,0,1.07016
3.3335123929718975,0,0,1.1324573852539062,0,0,0.84084
3.334899190987926,0,0,1.177947216796875,0,0,0.7644
3.336286174977431,0,0,1.3287819213867187,0,0,1.1465999999999998
3.337672750989441,0,0,1.407790576171875,0,0,0.84084
3.3390594189986587,0,0,1.5729904907226562,0,0,0.91728
3.340446253976552,0,0,1.2856862915039062,0,0,0.7644
3.3418854779738467,0,0,1.1875240234375,0,0,0.91728
3.3432714979862794,0,0,0.948103857421875,0,0,0.68796
3.3446585559868254,0,0,1.1755530151367186,0,0,1.2994800000000002
3.3460458169865888,0,0,1.2880804931640624,0,0,0.6115200000000001
3.347431466972921,0,0,1.3527239379882812,0,0,0.7644
3.348818135971669,0,0,1.5634136840820312,0,0,0.6115200000000001
3.3502053229894955,0,0,1.3024457031249999,0,0,0.3822
3.3515911209979095,0,0,1.2473790649414063,0,0,-8.7906
3.352979659975972,0,0,1.20667763671875,0,0,0.68796
3.354366661980748,0,0,1.1755530151367186,0,0,0.7644
3.355752922972897,0,0,1.218648645019531,0,0,0.0
3.357139258994721,0,0,1.2737152832031249,0,0,0.45864
3.3585268529714085,0,0,1.5227122558593749,0,0,0.7644
3.3599207249935716,0,0,1.3646949462890625,0,0,0.45864
3.3613074679742567,0,0,1.2593500732421874,0,0,1.07016
3.3626939879904967,0,0,1.2114660400390624,0,0,0.91728
3.364080378989456,0,0,1.158793603515625,0,0,0.68796
3.365466695977375,0,0,1.24498486328125,0,0,0.53508
3.3668536419863813,0,0,1.3287819213867187,0,0,1.2994800000000002
3.3682400699763093,0,0,1.2880804931640624,0,0,0.53508
3.3696258869895246,0,0,1.3910311645507811,0,0,0.84084
3.371012407995295,0,0,1.2378022583007813,0,0,0.7644
3.3723985759716015,0,0,1.158793603515625,0,0,0.99372
3.37378702298156,0,0,1.20667763671875,0,0,0.30576000000000003
3.3751740619773045,0,0,1.197100830078125,0,0,1.1465999999999998
3.376559988973895,0,0,1.2952630981445312,0,0,1.07016
3.377946824999526,0,0,1.24498486328125,0,0,0.84084
3.3793326409941074,0,0,1.4772224243164063,0,0,0.7644
3.3807183659810107,0,0,1.3527239379882812,0,0,0.53508
3.382105385971954,0,0,1.3934253662109375,0,0,0.99372
3.383490720996633,0,0,1.1659762084960936,0,0,0.84084
3.3848763899877667,0,0,1.1252747802734375,0,0,0.7644
3.386262447980698,0,0,1.1563994018554686,0,0,0.0
3.387648411997361,0,0,1.3192051147460937,0,0,0.45864
3.389034173975233,0,0,1.5298948608398437,0,0,0.6115200000000001
3.3904204349964857,0,0,1.4173673828125,0,0,0.6115200000000001
3.391806399973575,0,0,1.3623007446289062,0,0,1.1465999999999998
3.3931918279849924,0,0,1.1444283935546875,0,0,0.99372
3.3945774589956272,0,0,1.139639990234375,0,0,0.6115200000000001
3.395963312999811,0,0,1.1707646118164061,0,0,0.3822
3.397348851984134,0,0,1.3263877197265623,0,0,0.7644
3.3987350209790748,0,0,1.4437036010742186,0,0,0.6115200000000001
3.4001392999780364,0,0,1.4604630126953124,0,0,1.1465999999999998
3.401525875990046,0,0,1.2473790649414063,0,0,0.91728
3.402911988989217,0,0,1.1061211669921875,0,0,0.7644
3.4043047319864854,0,0,1.1324573852539062,0,0,0.6115200000000001
3.4057114929892123,0,0,1.1875240234375,0,0,1.2994800000000002
3.4071687719842885,0,0,1.3455413330078123,0,0,0.91728
3.408573995984625,0,0,1.3814543579101561,0,0,0.53508
3.4099758679803926,0,0,1.5394716674804687,0,0,0.68796
3.4113622769946232,0,0,1.407790576171875,0,0,0.84084
3.4127480939787347,0,0,1.3048399047851562,0,0,0.84084
3.41413526298129,0,0,1.1109095703125,0,0,0.84084
3.415520986978663,0,0,1.2114660400390624,0,0,0.84084
3.416907562990673,0,0,1.369483349609375,0,0,1.07016
3.418302138976287,0,0,1.3910311645507811,0,0,0.84084
3.419688417983707,0,0,1.5825672973632812,0,0,0.68796
3.421074049983872,0,0,1.3168109130859373,0,0,0.45864
3.4224632929835934,0,0,1.3096283081054687,0,0,0.7644
3.4238505349785555,0,0,1.180341418457031,0,0,0.99372
3.425237721996382,0,0,1.180341418457031,0,0,0.84084
3.426629001973197,0,0,1.3311761230468748,0,0,0.22932
3.4280176339962054,0,0,1.5059528442382812,0,0,0.22932
3.4294042469991837,0,0,1.5490484741210937,0,0,0.7644
3.4307908409973606,0,0,1.4221557861328125,0,0,0.84084
3.4321773249830585,0,0,1.24498486328125,0,0,1.07016
3.433563715982018,0,0,1.158793603515625,0,0,0.84084
3.434950365975965,0,0,1.1707646118164061,0,0,0.6115200000000001
3.4363369229831733,0,0,1.2952630981445312,0,0,0.22932
3.437724035989959,0,0,1.3838485595703125,0,0,0.7644
3.4391100939828902,0,0,1.3311761230468748,0,0,0.99372
3.440496280993102,0,0,1.3646949462890625,0,0,1.07016
3.4418828009802382,0,0,1.3335703247070312,0,0,0.91728
3.443269191979198,0,0,1.2210428466796874,0,0,0.7644
3.444655638973927,0,0,1.2138602416992186,0,0,0.7644
3.446042565978132,0,0,1.1540052001953125,0,0,1.1465999999999998
3.4474386609799694,0,0,1.235408056640625,0,0,0.99372
3.448825532977935,0,0,1.3407529296874998,0,0,0.45864
3.4502124799764715,0,0,1.4724340209960938,0,0,0.68796
3.451598480984103,0,0,1.3263877197265623,0,0,0.84084
3.4529845389770344,0,0,1.2665326782226562,0,0,0.7644
3.454371114989044,0,0,1.1252747802734375,0,0,0.7644
3.4557620239793323,0,0,1.1923124267578125,0,0,2.6754
3.4571503039915115,0,0,1.3742717529296875,0,0,0.53508
3.4585467869765125,0,0,1.4149731811523436,0,0,0.6115200000000001
3.459933399979491,0,0,1.4030021728515625,0,0,0.45864
3.461319753987482,0,0,1.2737152832031249,0,0,0.6115200000000001
3.4627062379731797,0,0,1.2785036865234374,0,0,0.84084
3.464092479989631,0,0,1.149216796875,0,0,0.99372
3.465478833997622,0,0,1.1468225952148436,0,0,0.68796
3.466865094989771,0,0,1.149216796875,0,0,0.07644000000000001
3.4682514679734595,0,0,1.350329736328125,0,0,0.84084
3.4696379139786586,0,0,1.407790576171875,0,0,0.68796
3.4710248789924663,0,0,1.4963760375976562,0,0,0.68796
3.4724112509866245,0,0,1.2904746948242187,0,0,1.2230400000000001
3.4738214749959297,0,0,1.3359645263671873,0,0,0.84084
3.4752099399920553,0,0,1.189918225097656,0,0,0.53508
3.476596663997043,0,0,1.2425906616210938,0,0,0.7644
3.477983980992576,0,0,1.2737152832031249,0,0,0.99372
3.479370408982504,0,0,1.4317325927734375,0,0,0.7644
3.480756595992716,0,0,1.649604943847656,0,0,0.91728
3.4821438759972807,0,0,1.1252747802734375,0,0,0.68796
3.4835292479838245,0,0,1.199495031738281,0,0,0.7644
3.4849157499847934,0,0,1.2018892333984375,0,0,0.84084
3.486302158999024,0,0,1.2282254516601563,0,0,1.45236
3.4876886799756903,0,0,1.2617442749023438,0,0,0.45864
3.489074459997937,0,0,1.3168109130859373,0,0,0.6115200000000001
3.490461183973821,0,0,1.5035586425781249,0,0,0.15288000000000002
3.4918589819862973,0,0,1.2737152832031249,0,0,0.3822
3.493245964986272,0,0,1.2497732666015624,0,0,0.84084
3.4946329119848087,0,0,1.1420341918945311,0,0,1.07016
3.496019764977973,0,0,1.0606313354492187,0,0,0.99372
3.497405785979936,0,0,1.2282254516601563,0,0,0.0
3.4987920099811163,0,0,1.2976572998046874,0,0,0.30576000000000003
3.500178344984306,0,0,1.5155296508789062,0,0,0.53508
3.5015646439860575,0,0,1.4006079711914061,0,0,0.7644
3.5029514049820136,0,0,1.2832920898437499,0,0,1.07016
3.5043456469720695,0,0,1.1755530151367186,0,0,0.7644
3.50573346397141,0,0,1.2042834350585936,0,0,0.7644
3.5071215399948414,0,0,1.216254443359375,0,0,0.84084
3.5085079119889997,0,0,1.2617442749023438,0,0,0.99372
3.5098954329732805,0,0,1.235408056640625,0,0,0.45864
3.5112809719867073,0,0,1.419761584472656,0,0,0.84084
3.512667121976847,0,0,1.2401964599609374,0,0,0.91728
3.514054049999686,0,0,1.1252747802734375,0,0,0.53508
3.515439903974766,0,0,1.2210428466796874,0,0,0.6115200000000001
3.5168393309868407,0,0,1.1444283935546875,0,0,0.91728
3.5182377959717996,0,0,1.3479355346679687,0,0,0.53508
3.5196242979727685,0,0,1.2928688964843749,0,0,-9.631440000000001
3.521011577977333,0,0,1.4987702392578124,0,0,0.84084
3.52239822797128,0,0,1.2713210815429687,0,0,0.45864
3.5237843039794825,0,0,1.3000515014648437,0,0,0.7644
3.5251701209926978,0,0,1.2210428466796874,0,0,0.91728
3.526556233991869,0,0,1.1324573852539062,0,0,0.6115200000000001
3.527946253976552,0,0,1.120486376953125,0,0,0.0
3.5293324969825335,0,0,1.3742717529296875,0,0,0.3822
3.5307213139894884,0,0,1.5203180541992187,0,0,0.45864
3.5321072789956816,0,0,1.2617442749023438,0,0,0.68796
3.5334934839920606,0,0,1.350329736328125,0,0,1.1465999999999998
3.5348995969980024,0,0,1.254561669921875,0,0,1.2230400000000001
3.5362870799726807,0,0,1.0462661254882812,0,0,0.68796
3.5376733419834636,0,0,1.2497732666015624,0,0,0.30576000000000003
3.5390600099926814,0,0,1.3814543579101561,0,0,0.7644
3.540446159982821,0,0,1.4101847778320311,0,0,0.68796
3.5418333289853763,0,0,1.6208745239257811,0,0,0.84084
3.543219478975516,0,0,1.369483349609375,0,0,0.91728
3.544605369999772,0,0,1.2497732666015624,0,0,0.68796
3.545992908999324,0,0,1.158793603515625,0,0,0.68796
3.5473848179972265,0,0,1.199495031738281,0,0,1.2230400000000001
3.548770967987366,0,0,1.3048399047851562,0,0,0.7644
3.5501585629826877,0,0,1.3742717529296875,0,0,1.1465999999999998
3.5515442679752596,0,0,1.5801730957031248,0,0,0.91728
3.5529305299860425,0,0,1.3263877197265623,0,0,0.30576000000000003
3.5543171799799893,0,0,1.3096283081054687,0,0,0.68796
3.5557032189972233,0,0,1.0797849487304687,0,0,0.7644
3.5570894239936024,0,0,1.1276689819335937,0,0,1.2994800000000002
3.558476277976297,0,0,1.3144167114257812,0,0,0.15288000000000002
3.559861909976462,0,0,1.3359645263671873,0,0,0.3822
3.5612480969866738,0,0,1.5298948608398437,0,0,0.53508
3.5626347469806205,0,0,1.2378022583007813,0,0,0.91728
3.5640208599797916,0,0,1.2952630981445312,0,0,1.2230400000000001
3.565407491987571,0,0,1.1731588134765625,0,0,0.99372
3.5667943449807353,0,0,0.9600748657226562,0,0,0.91728
