Time,AccelX1,AccelY1,AccelZ1,AccelX2,AccelY2,AccelZ2
4.943984095007181e-06,0,0,1.0965443603515623,0,0,0.7644
0.0036438989918679,0,0,1.2976572998046874,0,0,0.99372
0.007278557983227074,0,0,1.1109095703125,0,0,0.6115200000000001
0.010919866006588563,0,0,1.3144167114257812,0,0,1.60524
0.014433636999456212,0,0,1.2282254516601563,0,0,0.91728
0.017946520005352795,0,0,1.209071838378906,0,0,0.91728
0.021544846007600427,0,0,1.2282254516601563,0,0,0.7644
0.02532250399235636,0,0,1.2904746948242187,0,0,0.91728
0.028901440993649885,0,0,1.1635820068359375,0,0,0.7644
0.03241734200855717,0,0,1.24498486328125,0,0,0.7644
0.03594107698881999,0,0,1.2521674682617188,0,0,0.91728
0.0399670829938259,0,0,1.2330138549804688,0,0,0.53508
0.0436622409906704,0,0,1.3718775512695311,0,0,0.53508
0.04721614200389013,0,0,1.3168109130859373,0,0,0.7644
0.05032597400713712,0,0,1.1731588134765625,0,0,0.7644
0.053431195992743596,0,0,1.2497732666015624,0,0,0.84084
0.056536305986810476,0,0,1.4508862060546874,0,0,1.07016
0.059648786002071574,0,0,1.3383587280273437,0,0,0.7644
0.06275343298329972,0,0,1.1252747802734375,0,0,0.68796
0.06586159899597988,0,0,1.2401964599609374,0,0,2.2167600000000003
0.06896713399328291,0,0,1.24498486328125,0,0,0.84084
0.07244151798659004,0,0,1.3239935180664062,0,0,0.99372
0.07567345999996178,0,0,1.22583125,0,0,0.6115200000000001
0.07880695798667148,0,0,1.5275006591796874,0,0,0.91728
0.081917067989707,0,0,1.3670891479492187,0,0,0.7644
0.0850271969975438,0,0,1.2138602416992186,0,0,0.6115200000000001
0.08813704698695801,0,0,1.22583125,0,0,1.07016
0.091244009003276,0,0,1.3215993164062498,0,0,0.99372
0.09435078600654379,0,0,1.0797849487304687,0,0,1.1465999999999998
0.09746146999532357,0,0,1.369483349609375,0,0,0.7644
0.10056904298835434,0,0,1.3479355346679687,0,0,1.07016
0.10367713400046341,0,0,1.13006318359375,0,0,0.6115200000000001
0.10678091098088771,0,0,1.1947066284179686,0,0,0.99372
0.10989037298713811,0,0,1.4939818359375,0,0,0.6115200000000001
0.11298542699660175,0,0,1.3862427612304686,0,0,0.91728
0.11608638899633661,0,0,1.3766659545898436,0,0,0.3822
0.1192145730019547,0,0,1.3096283081054687,0,0,0.99372
0.12232057200162672,0,0,1.254561669921875,0,0,0.68796
0.12542747799307108,0,0,1.180341418457031,0,0,0.91728
0.12853197698132135,0,0,1.2808978881835937,0,0,1.1465999999999998
0.13163825398078188,0,0,1.5059528442382812,0,0,1.2230400000000001
0.13473945698933676,0,0,1.5107412475585937,0,0,0.7644
0.13798734298325144,0,0,1.3311761230468748,0,0,0.91728
0.141286523983581,0,0,1.3335703247070312,0,0,1.07016
0.14463489098125137,0,0,1.3742717529296875,0,0,0.68796
0.14757372500025667,0,0,1.2928688964843749,0,0,0.99372
0.15036528298514895,0,0,1.2378022583007813,0,0,0.91728
0.15315711899893358,0,0,1.3000515014648437,0,0,1.07016
0.1559643810032867,0,0,1.3215993164062498,0,0,0.84084
0.1587548099923879,0,0,1.3646949462890625,0,0,0.84084
0.16154677598387934,0,0,1.177947216796875,0,0,0.91728
0.164357130008284,0,0,1.4772224243164063,0,0,0.68796
0.16712933700182475,0,0,1.429338391113281,0,0,0.84084
0.16992696898523718,0,0,1.2378022583007813,0,0,0.68796
0.1727202309994027,0,0,1.2330138549804688,0,0,1.37592
0.17551341900252737,0,0,1.484405029296875,0,0,1.07016
0.17830079200211912,0,0,1.3383587280273437,0,0,0.53508
0.18109188799280673,0,0,1.3215993164062498,0,0,1.2230400000000001
0.18388411300838925,0,0,1.1109095703125,0,0,1.1465999999999998
0.18669133700313978,0,0,1.3024457031249999,0,0,0.84084
0.18948369199642912,0,0,1.2713210815429687,0,0,0.99372
0.19230380599037744,0,0,1.1635820068359375,0,0,0.84084
0.19509406798169948,0,0,1.216254443359375,0,0,0.45864
0.1978848110011313,0,0,1.3838485595703125,0,0,0.68796
0.20067405499867164,0,0,1.120486376953125,0,0,0.68796
0.20346692798193544,0,0,1.3359645263671873,0,0,0.91728
0.20625459699658677,0,0,1.3862427612304686,0,0,0.84084
0.20904539598268457,0,0,1.3048399047851562,0,0,1.07016
0.21183550998102874,0,0,1.1133037719726562,0,0,0.84084
0.21462316100951284,0,0,1.2952630981445312,0,0,0.84084
0.21741336799459532,0,0,1.39821376953125,0,0,0.84084
0.22020379599416628,0,0,1.3742717529296875,0,0,0.6115200000000001
0.22299155799555592,0,0,1.218648645019531,0,0,2.36964
0.22578211699146777,0,0,1.13006318359375,0,0,0.7644
0.22857217499404214,0,0,1.4125789794921875,0,0,0.68796
0.2313639560015872,0,0,1.3192051147460937,0,0,0.68796
0.23415308800758794,0,0,1.3263877197265623,0,0,0.7644
0.23695953498827294,0,0,1.2928688964843749,0,0,0.99372
0.23976187099469826,0,0,1.5227122558593749,0,0,0.68796
0.24255189200630412,0,0,1.3407529296874998,0,0,0.84084
0.2453521169954911,0,0,1.2306196533203124,0,0,0.91728
0.24830746999941766,0,0,1.3096283081054687,0,0,1.2994800000000002
0.2514180239813868,0,0,1.2713210815429687,0,0,1.2994800000000002
0.25455081899417564,0,0,1.2832920898437499,0,0,0.84084
0.2576604110072367,0,0,1.13006318359375,0,0,0.6115200000000001
0.2607669649878517,0,0,1.5251064575195312,0,0,0.91728
0.2638735749933403,0,0,1.3192051147460937,0,0,0.68796
0.2669791289954446,0,0,1.2785036865234374,0,0,0.7644
0.2701364060048945,0,0,1.2832920898437499,0,0,0.7644
0.2734119950036984,0,0,1.2593500732421874,0,0,0.68796
0.27653040099539794,0,0,1.13006318359375,0,0,0.91728
0.27963128898409195,0,0,1.3311761230468748,0,0,0.7644
0.282713917986257,0,0,1.4221557861328125,0,0,0.68796
0.2858066390035674,0,0,1.4317325927734375,0,0,1.2230400000000001
0.2889141009945888,0,0,1.35990654296875,0,0,0.91728
0.2920250629831571,0,0,1.2569558715820313,0,0,0.45864
0.2951285800081678,0,0,1.149216796875,0,0,0.7644
0.2982359860034194,0,0,1.1755530151367186,0,0,0.99372
0.301370670000324,0,0,1.24498486328125,0,0,0.84084
0.3044965020089876,0,0,1.5059528442382812,0,0,0.91728
0.30760629699216224,0,0,1.5035586425781249,0,0,0.91728
0.31074620300205424,0,0,1.2234370483398436,0,0,0.6115200000000001
0.31385342398425564,0,0,1.216254443359375,0,0,0.3822
0.3169479790085461,0,0,1.4101847778320311,0,0,0.84084
0.3200912000029348,0,0,1.3718775512695311,0,0,1.07016
0.32321192100062035,0,0,1.4245499877929686,0,0,0.84084
0.32632112299324945,0,0,1.5131354492187499,0,0,1.2230400000000001
0.3294249929895159,0,0,1.3192051147460937,0,0,0.68796
0.33252962099504657,0,0,1.1827356201171875,0,0,0.84084
0.33563837900874205,0,0,1.2904746948242187,0,0,0.7644
0.33873984098318033,0,0,1.2306196533203124,0,0,0.91728
0.34184485900914297,0,0,1.158793603515625,0,0,0.99372
0.3449825609859545,0,0,1.13006318359375,0,0,1.2230400000000001
0.348090911982581,0,0,1.3527239379882812,0,0,1.1465999999999998
0.35130492798634805,0,0,1.35990654296875,0,0,1.1465999999999998
0.35441285200067796,0,0,1.1324573852539062,0,0,0.99372
0.35751786999753676,0,0,1.2880804931640624,0,0,0.7644
0.36062225798377767,0,0,1.369483349609375,0,0,0.91728
0.3637290530023165,0,0,1.1037269653320312,0,0,0.7644
0.3668304779857863,0,0,1.3383587280273437,0,0,1.2230400000000001
0.36993432900635526,0,0,1.4820108276367188,0,0,0.84084
0.3730385869857855,0,0,1.20667763671875,0,0,2.14032
0.3761449379962869,0,0,1.2785036865234374,0,0,0.84084
0.3792487879982218,0,0,1.37906015625,0,0,0.68796
0.38235226899269037,0,0,1.2641384765625,0,0,0.6115200000000001
0.385457841999596,0,0,1.3623007446289062,0,0,0.6115200000000001
0.38856578498962335,0,0,1.3359645263671873,0,0,1.1465999999999998
0.3916712100035511,0,0,1.4413093994140624,0,0,0.91728
0.39477295000688173,0,0,1.2306196533203124,0,0,1.1465999999999998
0.3978776709991507,0,0,1.3742717529296875,0,0,0.91728
0.40098017000127584,0,0,1.2306196533203124,0,0,0.91728
0.40408653899794444,0,0,1.455674609375,0,0,0.91728
0.40721533400937915,0,0,1.3311761230468748,0,0,1.07016
0.4103189070010558,0,0,1.2737152832031249,0,0,0.84084
0.4134237580001354,0,0,1.3096283081054687,0,0,0.91728
0.41652936799800955,0,0,1.2593500732421874,0,0,1.07016
0.4196358670014888,0,0,1.3263877197265623,0,0,0.53508
0.42273725499399006,0,0,1.3766659545898436,0,0,0.91728
0.4258399390091654,0,0,1.254561669921875,0,0,0.91728
0.4289446409966331,0,0,1.1755530151367186,0,0,1.07016
0.4320496959844604,0,0,1.3239935180664062,0,0,0.99372
0.4351506950042676,0,0,1.3072341064453123,0,0,0.91728
0.4382654340006411,0,0,1.1372457885742187,0,0,0.7644
0.44140528500429355,0,0,1.2880804931640624,0,0,0.45864
0.44451613500132225,0,0,1.4437036010742186,0,0,0.7644
0.44765315199038014,0,0,1.3551181396484375,0,0,0.84084
0.4507779100094922,0,0,1.2521674682617188,0,0,0.7644
0.45388218699372374,0,0,1.254561669921875,0,0,0.45864
0.4570777959888801,0,0,1.2808978881835937,0,0,1.07016
0.4602845530025661,0,0,1.1109095703125,0,0,0.99372
0.4635590309917461,0,0,1.254561669921875,0,0,0.68796
0.4667738809948787,0,0,1.3479355346679687,0,0,0.84084
0.4699289340060204,0,0,1.3096283081054687,0,0,1.07016
0.4730331189930439,0,0,1.13006318359375,0,0,0.68796
0.4761375990055967,0,0,1.3646949462890625,0,0,0.91728
0.4792434129922185,0,0,1.2785036865234374,0,0,0.7644
0.48234778200276196,0,0,1.2737152832031249,0,0,0.6115200000000001
0.4854517619824037,0,0,1.254561669921875,0,0,1.1465999999999998
0.48855646498850547,0,0,1.5275006591796874,0,0,0.91728
0.4916642970056273,0,0,1.4939818359375,0,0,1.1465999999999998
0.4947679809993133,0,0,1.2330138549804688,0,0,1.2994800000000002
0.49787523999111727,0,0,1.2665326782226562,0,0,1.07016
0.5009800529805943,0,0,1.2641384765625,0,0,2.52252
0.5132254399941303,0,0,1.2425906616210938,0,0,0.99372
0.51655693599605,0,0,1.24498486328125,0,0,0.7644
0.5197311939846259,0,0,1.1180921752929687,0,0,1.07016
0.5229193029808812,0,0,1.446097802734375,0,0,0.84084
0.5260865410091355,0,0,1.3096283081054687,0,0,0.99372
0.5291960219910834,0,0,1.3239935180664062,0,0,0.91728
0.5323001869837753,0,0,1.3311761230468748,0,0,0.53508
0.5355977579893079,0,0,1.3263877197265623,0,0,0.99372
0.53883706999477,0,0,1.1563994018554686,0,0,0.6115200000000001
0.5420524379878771,0,0,1.4987702392578124,0,0,1.07016
0.5451837139844429,0,0,1.3168109130859373,0,0,0.68796
0.5484400999848731,0,0,1.3742717529296875,0,0,0.91728
0.5513226579932962,0,0,1.3239935180664062,0,0,0.68796
0.5541242710023653,0,0,1.22583125,0,0,0.91728
0.5569509769848082,0,0,1.1923124267578125,0,0,0.91728
0.5597526280034799,0,0,1.3215993164062498,0,0,0.84084
0.5625513900013175,0,0,1.3455413330078123,0,0,0.53508
0.5653522450011224,0,0,1.3718775512695311,0,0,0.91728
0.5681527470005676,0,0,1.3239935180664062,0,0,0.3822
0.5709522499819286,0,0,1.2713210815429687,0,0,0.6115200000000001
0.5737508639867883,0,0,1.2401964599609374,0,0,0.91728
0.5765496809908655,0,0,1.3455413330078123,0,0,0.84084
0.5793621650082059,0,0,1.2832920898437499,0,0,0.7644
0.5821441870066337,0,0,1.3407529296874998,0,0,0.68796
0.5849703559943009,0,0,1.429338391113281,0,0,0.68796
0.5879229859856423,0,0,1.4173673828125,0,0,0.91728
0.5908363579947036,0,0,1.2832920898437499,0,0,0.7644
0.5936307119845878,0,0,1.2330138549804688,0,0,0.99372
0.5964224369963631,0,0,1.47482822265625,0,0,0.91728
0.5992137730063405,0,0,1.5011644409179687,0,0,0.84084
0.6020031469815876,0,0,1.3455413330078123,0,0,0.91728
0.6047914089867845,0,0,1.2737152832031249,0,0,1.2994800000000002
0.6075816149823368,0,0,1.426944189453125,0,0,0.91728
0.6103654140024446,0,0,1.3838485595703125,0,0,0.84084
0.6131502880016342,0,0,1.3670891479492187,0,0,0.84084
0.6164223210071214,0,0,1.2832920898437499,0,0,0.53508
0.6192395279940683,0,0,1.2497732666015624,0,0,0.7644
0.6220437519950792,0,0,1.1707646118164061,0,0,1.07016
0.6248738660069648,0,0,1.1659762084960936,0,0,0.84084
0.6276772389828693,0,0,1.3096283081054687,0,0,0.99372
0.6304755749879405,0,0,1.2808978881835937,0,0,0.91728
0.6332822809927166,0,0,1.3048399047851562,0,0,0.7644
0.6360812099883333,0,0,1.2856862915039062,0,0,0.7644
0.638886045984691,0,0,1.4125789794921875,0,0,0.84084
0.6416868630039971,0,0,1.2378022583007813,0,0,1.07016
0.6444884210068267,0,0,1.218648645019531,0,0,0.99372
0.6474513849825598,0,0,1.3287819213867187,0,0,1.1465999999999998
0.650436940981308,0,0,1.4149731811523436,0,0,1.2230400000000001
0.6535535510047339,0,0,1.5203180541992187,0,0,0.7644
0.6566701050032862,0,0,1.2832920898437499,0,0,0.68796
0.6597860110050533,0,0,1.2425906616210938,0,0,0.84084
0.6629004729911685,0,0,1.3527239379882812,0,0,0.7644
0.6660172310075723,0,0,1.1156979736328125,0,0,0.84084
0.6691336369840428,0,0,1.3718775512695311,0,0,1.1465999999999998
0.6722498209855985,0,0,1.426944189453125,0,0,0.99372
0.6753661349939648,0,0,1.3072341064453123,0,0,0.84084
0.6784814669808839,0,0,1.2473790649414063,0,0,0.84084
0.6816002249834128,0,0,1.3383587280273437,0,0,1.1465999999999998
0.6848187599971425,0,0,1.350329736328125,0,0,1.07016
0.688183663005475,0,0,1.2856862915039062,0,0,0.53508
0.6913498649955727,0,0,1.2952630981445312,0,0,0.6115200000000001
0.6944687890063506,0,0,1.43652099609375,0,0,0.6115200000000001
0.697585583984619,0,0,1.0797849487304687,0,0,0.68796
0.7007013979891781,0,0,1.3096283081054687,0,0,0.84084
0.7038464889919851,0,0,1.5155296508789062,0,0,0.45864
0.7069616359949578,0,0,1.4149731811523436,0,0,0.99372
0.7100769130047411,0,0,1.3646949462890625,0,0,0.91728
0.7131935599900316,0,0,1.3646949462890625,0,0,0.53508
0.7163102430058643,0,0,1.369483349609375,0,0,0.7644
0.719450909004081,0,0,1.3766659545898436,0,0,0.7644
0.7225645369908307,0,0,1.0893617553710937,0,0,0.84084
0.725772350007901,0,0,1.4053963745117186,0,0,1.2230400000000001
0.7288950519869104,0,0,1.2832920898437499,0,0,1.07016
0.732015699002659,0,0,1.0773907470703123,0,0,0.99372
0.7351311050006188,0,0,1.3024457031249999,0,0,0.68796
0.7382456040068064,0,0,1.3335703247070312,0,0,-8.943480000000001
0.7413677139848005,0,0,1.0989385620117187,0,0,0.91728
0.7445072309928946,0,0,1.2617442749023438,0,0,1.37592
0.7476652659825049,0,0,1.3000515014648437,0,0,1.1465999999999998
0.7507785799971316,0,0,1.2928688964843749,0,0,0.91728
0.7538942449900787,0,0,1.1516109985351561,0,0,0.6115200000000001
0.7571134459867608,0,0,1.254561669921875,0,0,1.07016
0.7602349639928434,0,0,1.24498486328125,0,0,0.6115200000000001
0.7633522219839506,0,0,1.2306196533203124,0,0,2.4460800000000003
0.7664669239893556,0,0,1.2928688964843749,0,0,1.07016
0.7695822189853061,0,0,1.465251416015625,0,0,0.91728
0.7727857909922022,0,0,1.177947216796875,0,0,0.84084
0.7759601039870176,0,0,1.369483349609375,0,0,0.91728
0.7798892410064582,0,0,1.4245499877929686,0,0,1.07016
0.7830545539909508,0,0,1.4772224243164063,0,0,1.2994800000000002
0.7861728300049435,0,0,1.3551181396484375,0,0,1.2230400000000001
0.7892900510050822,0,0,1.2521674682617188,0,0,0.91728
0.7924387159873731,0,0,1.1013327636718748,0,0,0.91728
0.7955581230053212,0,0,1.1109095703125,0,0,0.6115200000000001
0.79867191798985,0,0,1.2832920898437499,0,0,0.68796
0.8017866759910248,0,0,1.429338391113281,0,0,0.99372
0.8049032299895771,0,0,1.3383587280273437,0,0,1.07016
0.8080204139987472,0,0,1.1133037719726562,0,0,0.7644
0.8111359869944863,0,0,1.5275006591796874,0,0,0.91728
0.8142669849912636,0,0,1.4963760375976562,0,0,0.68796
0.8173810209846124,0,0,1.3072341064453123,0,0,0.6115200000000001
0.8204972789972089,0,0,1.3718775512695311,0,0,1.2994800000000002
0.8236622780095786,0,0,1.3383587280273437,0,0,1.07016
0.8267832759884186,0,0,1.0917559570312498,0,0,1.07016
0.8298979969986249,0,0,1.1133037719726562,0,0,0.91728
0.8330150329857133,0,0,1.4939818359375,0,0,0.7644
0.836226790008368,0,0,1.2401964599609374,0,0,0.3822
0.8393666399933863,0,0,1.22583125,0,0,0.99372
0.8424862689862493,0,0,1.2880804931640624,0,0,-9.09636
0.8456085819925647,0,0,1.3144167114257812,0,0,0.99372
0.8487668210000265,0,0,1.1563994018554686,0,0,0.99372
0.8518826899817213,0,0,1.235408056640625,0,0,0.30576000000000003
0.8549971519969404,0,0,1.4173673828125,0,0,0.7644
0.8581111509993207,0,0,1.426944189453125,0,0,0.6115200000000001
0.861225945991464,0,0,1.3407529296874998,0,0,1.07016
0.8643402599846013,0,0,1.3072341064453123,0,0,0.84084
0.8674946280079894,0,0,1.2569558715820313,0,0,0.68796
0.870612794009503,0,0,1.24498486328125,0,0,0.45864
0.8737309779971838,0,0,1.3766659545898436,0,0,0.84084
0.8768469209899195,0,0,2.1595698974609374,0,0,2.14032
0.8799634749884717,0,0,2.5857377929687497,0,0,2.14032
0.8830757699906826,0,0,2.473210314941406,0,0,1.60524
0.8861896579910535,0,0,2.3774422485351563,0,0,0.6115200000000001
0.8893031199986581,0,0,1.5514426757812498,0,0,0.91728
0.8924217479943763,0,0,1.5969325073242187,0,0,1.37592
0.8955383029824588,0,0,1.4532804077148436,0,0,1.68168
0.8986505419888999,0,0,2.1547814941406247,0,0,1.5288
0.9017645779822487,0,0,1.8555062866210936,0,0,1.37592
0.9048801320022903,0,0,1.6328455322265625,0,0,1.1465999999999998
0.9079967050056439,0,0,1.838746875,0,0,1.37592
0.9111096489941701,0,0,1.6136919189453125,0,0,1.60524
0.9142244620015845,0,0,1.6232687255859375,0,0,2.06388
0.9173736269876827,0,0,2.1404162841796874,0,0,1.45236
0.9204840149905067,0,0,1.7094599853515624,0,0,0.99372
0.9236461429973133,0,0,2.068590234375,0,0,1.5288
0.9267641049809754,0,0,1.3551181396484375,0,0,0.99372
0.9298797700030264,0,0,1.5514426757812498,0,0,1.37592
0.9329938979935832,0,0,2.0470424194335934,0,0,1.2230400000000001
0.9361098969820887,0,0,1.4891934326171874,0,0,1.60524
0.9392252109828405,0,0,1.924938134765625,0,0,1.98744
0.9423398390063085,0,0,2.2457611572265623,0,0,1.2230400000000001
0.9454539119906258,0,0,1.9512743530273435,0,0,0.7644
0.9485976700088941,0,0,1.9823989746093749,0,0,0.99372
0.9517143169941846,0,0,1.8028338500976562,0,0,0.53508
0.9548278159927577,0,0,1.350329736328125,0,0,0.91728
0.9579435180057772,0,0,2.308010400390625,0,0,2.2931999999999997
0.9610618499864358,0,0,2.0566192260742184,0,0,1.60524
0.9641767379944213,0,0,1.8195932617187498,0,0,0.91728
0.967293255002005,0,0,2.2074539306640624,0,0,1.60524
0.9704080320079811,0,0,1.4149731811523436,0,0,0.99372
0.9735228639910929,0,0,1.6208745239257811,0,0,1.45236
0.9766381029912736,0,0,2.7365724975585937,0,0,2.06388
0.9797533249948174,0,0,1.2641384765625,0,0,0.99372
0.9828653789882082,0,0,1.7310078002929687,0,0,0.84084
0.9859790629998315,0,0,1.6831237670898436,0,0,1.60524
0.9890946359955706,0,0,0.9744400756835937,0,0,1.60524
0.9922098199895117,0,0,2.0470424194335934,0,0,1.68168
0.9953512439969927,0,0,2.214636535644531,0,0,1.98744
0.9984653909923509,0,0,1.9656395629882812,0,0,1.75812
1.0015907599881757,0,0,1.1061211669921875,0,0,2.4460800000000003
1.0048217949806713,0,0,1.66636435546875,0,0,2.2931999999999997
1.0080534770095255,0,0,1.659181750488281,0,0,1.2994800000000002
1.0113105849886779,0,0,1.5035586425781249,0,0,0.07644000000000001
1.0145210459886584,0,0,2.272097375488281,0,0,1.07016
1.0177641729824245,0,0,1.7286135986328124,0,0,1.37592
1.0216566989838611,0,0,1.5777788940429687,0,0,0.84084
1.0250621020095423,0,0,2.1547814941406247,0,0,2.52252
1.028387931000907,0,0,1.5682020874023437,0,0,1.83456
1.0315962989989202,0,0,1.0127473022460938,0,0,0.30576000000000003
1.0347702050057705,0,0,1.7381904052734374,0,0,3.4398000000000004
1.0386263429827522,0,0,1.448492004394531,0,0,0.91728
1.0417656560020987,0,0,1.216254443359375,0,0,9.32568
1.044897932006279,0,0,3.2154128295898436,0,0,3.21048
1.0481340959959198,0,0,1.6232687255859375,0,0,-1.2994800000000002
1.0511060410062782,0,0,0.09576806640624999,0,0,-1.2994800000000002
1.053649379988201,0,0,3.1866824096679687,0,0,3.21048
1.0563311440055259,0,0,2.2649147705078123,0,0,2.6754
1.0588710199808702,0,0,0.4644751220703125,0,0,-0.22932
1.0614317109866533,0,0,2.281674182128906,0,0,1.2994800000000002
1.0640177160094026,0,0,4.113238452148437,0,0,2.6754
1.0665675369964447,0,0,0.8810662109374999,0,0,0.45864
1.069139486993663,0,0,-0.36391865234375,0,0,-0.45864
1.0717552510031965,0,0,2.760514514160156,0,0,1.07016
1.0743909779994283,0,0,0.8571241943359375,0,0,0.99372
1.0770959999936167,0,0,-1.0271125122070313,0,0,0.22932
1.0797642449906562,0,0,2.3726538452148436,0,0,1.83456
1.0827050609805156,0,0,1.8267758666992187,0,0,1.2994800000000002
1.0853565839934163,0,0,0.2561795776367187,0,0,0.7644
1.0880426799994893,0,0,2.4779987182617185,0,0,1.83456
1.0907018700090703,0,0,1.3024457031249999,0,0,-0.68796
1.0933534860087093,0,0,-0.28012159423828126,0,0,0.3822
1.096027489984408,0,0,2.710236279296875,0,0,2.5989600000000004
1.0986904199817218,0,0,1.455674609375,0,0,-8.867040000000001
1.1013551100040786,0,0,-0.26336218261718747,0,0,0.30576000000000003
1.1040321879845578,0,0,2.8419173706054686,0,0,1.911
1.1067076549807098,0,0,1.9584569580078124,0,0,0.99372
1.1093814930063672,0,0,-0.8738836059570312,0,0,-0.30576000000000003
1.1120456820062827,0,0,1.6160861206054686,0,0,1.83456
1.1146448540093843,0,0,1.7980454467773437,0,0,1.75812
1.117176303989254,0,0,0.2705447875976562,0,0,1.07016
1.1197051249910146,0,0,2.3511060302734372,0,0,1.68168
1.1222267239936627,0,0,1.9871873779296874,0,0,0.68796
1.1247511559922714,0,0,0.3495534423828125,0,0,0.3822
1.1277687670080923,0,0,2.0829554443359375,0,0,1.911
1.1303148840088397,0,0,0.5913678100585937,0,0,0.6115200000000001
1.1328398899931926,0,0,-0.7589619262695312,0,0,0.15288000000000002
1.1354083769838326,0,0,2.568978381347656,0,0,2.4460800000000003
1.1379293089848943,0,0,2.3295582153320313,0,0,1.75812
1.1404548889840953,0,0,-0.28730419921875,0,0,-0.07644000000000001
1.142976228002226,0,0,1.9704279663085937,0,0,1.2994800000000002
1.1454974199878052,0,0,2.454056701660156,0,0,0.7644
1.148103313986212,0,0,0.7062894897460937,0,0,0.15288000000000002
1.150576560990885,0,0,0.49320554199218747,0,0,1.07016
1.1528825139976107,0,0,2.013523596191406,0,0,1.45236
1.1552077450032812,0,0,1.2928688964843749,0,0,1.45236
1.1575141609937418,0,0,0.7829039428710937,0,0,0.45864
1.1598209099902306,0,0,2.2074539306640624,0,0,1.68168
1.1621256599901244,0,0,1.7525556152343749,0,0,1.1465999999999998
1.1644449279992841,0,0,0.32561142578124996,0,0,0.45864
1.1667627139831893,0,0,1.4006079711914061,0,0,0.91728
1.1690802039811388,0,0,1.89620771484375,0,0,0.3822
1.1713992680015508,0,0,0.5434837768554687,0,0,-9.784320000000001
1.1737168699910399,0,0,0.2609679809570312,0,0,0.91728
1.1760423039959278,0,0,2.0566192260742184,0,0,1.2230400000000001
1.1783568499959074,0,0,1.8746598999023436,0,0,1.2230400000000001
1.1806746360089164,0,0,0.27293898925781246,0,0,1.2230400000000001
1.1829917930008378,0,0,2.1164742675781247,0,0,1.911
1.185310615983326,0,0,1.3646949462890625,0,0,0.6115200000000001
1.1876295509864576,0,0,0.6871358764648438,0,0,9.32568
1.1899501890002284,0,0,0.32082302246093747,0,0,0.30576000000000003
1.1922675859823357,0,0,1.905784521484375,0,0,1.5288
1.1945852059870958,0,0,1.0582371337890624,0,0,1.37592
1.1969031769840512,0,0,0.239420166015625,0,0,1.75812
1.1992218160012271,0,0,2.7150246826171873,0,0,1.911
1.2015386389975902,0,0,1.5275006591796874,0,0,0.15288000000000002
1.2038572960009333,0,0,0.9050082275390624,0,0,-0.68796
1.2061742119840346,0,0,2.4157494750976563,0,0,1.5288
1.2084922200010624,0,0,1.8842367065429686,0,0,1.07016
1.2108128769905306,0,0,0.18435352783203124,0,0,-0.6115200000000001
1.2131313669960946,0,0,1.0223241088867188,0,0,0.91728
1.2154502650082577,0,0,2.636016027832031,0,0,2.36964
1.2177660699817352,0,0,1.7022773803710936,0,0,1.07016
1.2201253369858023,0,0,-0.5482721801757812,0,0,0.0
1.2225022339844145,0,0,1.7980454467773437,0,0,1.68168
1.2249322779825889,0,0,3.1866824096679687,0,0,0.7644
1.2273068600043189,0,0,0.47884033203125,0,0,-0.30576000000000003
1.2296298870060127,0,0,0.055066638183593745,0,0,0.6115200000000001
1.2319481179874856,0,0,2.2649147705078123,0,0,0.99372
1.2342661999864504,0,0,1.2018892333984375,0,0,0.7644
1.2365842089930084,0,0,0.16759411621093748,0,0,1.2994800000000002
1.238910087995464,0,0,2.262520568847656,0,0,2.4460800000000003
1.241230095998617,0,0,1.0582371337890624,0,0,0.45864
1.2435507900081575,0,0,0.23223756103515625,0,0,-1.1465999999999998
1.2458718359994236,0,0,0.8307879760742187,0,0,1.2230400000000001
1.248270454001613,0,0,3.2249896362304686,0,0,2.14032
1.2507461459899787,0,0,0.19153613281249998,0,0,-1.45236
1.2538547559815925,0,0,0.08858546142578125,0,0,2.5989600000000004
1.2569623849994969,0,0,4.11802685546875,0,0,1.37592
1.2600678649905603,0,0,-1.407790576171875,0,0,-0.30576000000000003
1.2631751599838026,0,0,2.6886884643554687,0,0,1.60524
1.266315732995281,0,0,1.6448165405273436,0,0,0.30576000000000003
1.2694235100061633,0,0,-0.40940848388671874,0,0,-8.48484
1.2744265589863062,0,0,1.2617442749023438,0,0,-0.30576000000000003
1.277630019991193,0,0,0.47165772705078124,0,0,2.2167600000000003
1.2807430370012298,0,0,2.932897033691406,0,0,0.68796
1.2838543139805552,0,0,0.22505495605468748,0,0,0.15288000000000002
1.2869583499850705,0,0,1.8555062866210936,0,0,1.83456
1.290064311993774,0,0,1.3311761230468748,0,0,0.68796
1.2931703850044869,0,0,-1.0103531005859374,0,0,0.6115200000000001
1.2962827169976663,0,0,4.106055847167968,0,0,2.06388
1.299389400985092,0,0,1.0534487304687499,0,0,-0.30576000000000003
1.3024943069904111,0,0,0.49320554199218747,0,0,1.2230400000000001
1.3056000839860644,0,0,2.901772412109375,0,0,2.2167600000000003
1.3087125830061268,0,0,-0.6009446166992187,0,0,-0.99372
1.3118259150069207,0,0,1.7908628417968748,0,0,1.2230400000000001
1.3149283579841722,0,0,1.8746598999023436,0,0,-0.30576000000000003
1.3180344679858536,0,0,1.388636962890625,0,0,2.2167600000000003
1.321141227002954,0,0,2.0925322509765625,0,0,1.45236
1.3242548359849025,0,0,-0.023942016601562498,0,0,9.32568
1.3273671499919146,0,0,2.157175695800781,0,0,1.5288
1.3304712789831683,0,0,1.6543933471679686,0,0,-0.53508
1.3337340529833455,0,0,-0.181959326171875,0,0,1.5288
1.3368594970088452,0,0,2.6791116577148437,0,0,1.37592
1.339962439989904,0,0,1.3383587280273437,0,0,0.0
1.3430459210067056,0,0,1.9632453613281249,0,0,0.6115200000000001
1.34615871598362,0,0,2.693476867675781,0,0,1.83456
1.3493565649841912,0,0,-0.7709329345703124,0,0,9.40212
1.3522951400082093,0,0,2.157175695800781,0,0,1.1465999999999998
1.355349899007706,0,0,1.3239935180664062,0,0,0.0
1.3581751419987995,0,0,1.39821376953125,0,0,2.5989600000000004
1.3609638669877313,0,0,2.5043349365234375,0,0,0.45864
1.3641386429953855,0,0,0.3327940307617187,0,0,0.0
1.3677023769996595,0,0,2.7365724975585937,0,0,2.14032
1.3704921389871743,0,0,1.024718310546875,0,0,0.53508
1.373285882989876,0,0,-0.277727392578125,0,0,0.45864
1.3760817000002135,0,0,2.9640216552734375,0,0,1.45236
1.3788677959819324,0,0,1.7190367919921874,0,0,0.53508
1.3816552799835335,0,0,-0.40222587890625,0,0,0.91728
1.3844460049876943,0,0,2.8802245971679685,0,0,1.07016
1.3872362670081202,0,0,1.0199299072265624,0,0,-0.3822
1.3900253809988499,0,0,1.2018892333984375,0,0,1.60524
1.3928122729994357,0,0,1.879448303222656,0,0,0.45864
1.3956071639840957,0,0,1.2114660400390624,0,0,0.0
1.398394260002533,0,0,1.9704279663085937,0,0,2.4460800000000003
1.4011820029991213,0,0,1.0366893188476562,0,0,-0.30576000000000003
1.4039724690082949,0,0,0.43574470214843747,0,0,0.07644000000000001
1.4067575279914308,0,0,2.04943662109375,0,0,2.06388
1.4095468079904094,0,0,1.5251064575195312,0,0,0.53508
1.4123345889966004,0,0,-0.5219359619140624,0,0,0.22932
1.4151235549943522,0,0,3.3159692993164063,0,0,1.60524
1.4179117429885082,0,0,1.455674609375,0,0,1.2230400000000001
1.4206996709981468,0,0,-0.9050082275390624,0,0,0.15288000000000002
1.4234891739906743,0,0,2.5426421630859375,0,0,1.37592
1.4262765659950674,0,0,1.4604630126953124,0,0,1.2230400000000001
1.4290639020036906,0,0,0.1149216796875,0,0,0.53508
1.4318532570032403,0,0,2.094926452636719,0,0,1.37592
1.4346378149930388,0,0,1.2641384765625,0,0,0.30576000000000003
1.4374626689823344,0,0,0.6105214233398437,0,0,1.75812
1.4402689679991454,0,0,3.1316157714843746,0,0,1.75812
1.4430579890031368,0,0,-0.737414111328125,0,0,-1.60524
1.445859658997506,0,0,0.06703764648437499,0,0,1.60524
1.4486804199987091,0,0,3.2632968627929686,0,0,1.75812
1.451478497008793,0,0,-0.3758896606445312,0,0,-0.91728
1.454270093003288,0,0,1.936909143066406,0,0,2.4460800000000003
1.4570585399924312,0,0,2.9472622436523435,0,0,1.98744
1.4598504129971843,0,0,0.023942016601562498,0,0,-0.30576000000000003
1.4627998209907673,0,0,1.467645617675781,0,0,1.75812
1.4656908600009046,0,0,2.583343591308594,0,0,1.2994800000000002
1.4685733240039553,0,0,-1.1061211669921875,0,0,-0.6115200000000001
1.4714216039865278,0,0,2.2673089721679687,0,0,1.2994800000000002
1.4742139219888486,0,0,1.9225439331054686,0,0,1.5288
1.477005016990006,0,0,-0.6296750366210937,0,0,0.0
1.4797914829978254,0,0,2.272097375488281,0,0,1.2230400000000001
1.4825620790070388,0,0,1.7884686401367187,0,0,-8.63772
1.4853649699944071,0,0,-0.6823474731445313,0,0,0.84084
1.4881539169873577,0,0,2.940079638671875,0,0,1.68168
1.4909407169907354,0,0,0.4740519287109375,0,0,-1.60524
1.4937299419834744,0,0,-1.3575123413085937,0,0,1.2230400000000001
1.4965192409872543,0,0,3.4859576171874997,0,0,2.2167600000000003
1.4993456689990126,0,0,1.216254443359375,0,0,-1.2230400000000001
1.50213676400017,0,0,0.28490999755859375,0,0,1.2994800000000002
1.5049267489812337,0,0,4.189852905273438,0,0,1.5288
1.5077167699928395,0,0,0.9720458740234375,0,0,-0.3822
1.5105025509838015,0,0,-0.8595183959960937,0,0,1.1465999999999998
1.51329183098278,0,0,2.710236279296875,0,0,1.60524
1.5160812039976008,0,0,1.0462661254882812,0,0,0.53508
1.5188660959829576,0,0,1.637633935546875,0,0,1.5288
1.5216684129845817,0,0,2.427720483398437,0,0,-8.7906
1.5253454049816355,0,0,-0.32082302246093747,0,0,-9.784320000000001
1.5282233890029602,0,0,2.583343591308594,0,0,1.60524
1.5310260209953412,0,0,0.7158662963867187,0,0,-1.2994800000000002
1.5338299860013649,0,0,0.9959878906249999,0,0,1.2994800000000002
1.5366197109979112,0,0,3.287238879394531,0,0,1.5288
1.5394727509992663,0,0,1.37906015625,0,0,-1.07016
1.542280697991373,0,0,0.36152445068359373,0,0,1.37592
1.5450807739980519,0,0,2.712630480957031,0,0,0.91728
1.5478827210026793,0,0,-0.0047884033203125,0,0,-0.30576000000000003
1.5507825749809854,0,0,1.3239935180664062,0,0,0.6115200000000001
1.5538377779885195,0,0,2.3343466186523436,0,0,2.75184
1.556960888003232,0,0,-0.4285620971679687,0,0,9.32568
1.560082609008532,0,0,1.8459294799804686,0,0,0.7644
1.5632254029915202,0,0,1.5346832641601562,0,0,-0.15288000000000002
1.5663419759948738,0,0,0.9552864624023437,0,0,1.75812
1.569456437980989,0,0,1.3838485595703125,0,0,1.60524
1.5725701409974135,0,0,0.7996633544921875,0,0,1.07016
1.5756848620076198,0,0,2.6384102294921874,0,0,2.4460800000000003
1.5787976569845341,0,0,0.6057330200195312,0,0,-1.5288
1.5821421529981308,0,0,1.3168109130859373,0,0,1.75812
1.5852671879983973,0,0,2.128445275878906,0,0,1.75812
1.588389020995237,0,0,-0.21068974609375,0,0,0.6115200000000001
1.5915028160088696,0,0,2.6695348510742187,0,0,1.60524
1.5945976109942421,0,0,1.2138602416992186,0,0,-9.47856
1.5977183319919277,0,0,-0.13168109130859373,0,0,1.37592
1.6008384419837967,0,0,1.7597382202148437,0,0,0.3822
1.603957162995357,0,0,0.17238251953125,0,0,1.45236
1.6070716620015446,0,0,2.0733786376953125,0,0,1.37592
1.6101716609846335,0,0,1.1252747802734375,0,0,-9.09636
1.6132880479854066,0,0,0.37828386230468747,0,0,1.2994800000000002
1.616421046986943,0,0,2.834734765625,0,0,0.68796
1.6195373969967477,0,0,0.28730419921875,0,0,9.24924
1.622650025994517,0,0,2.070984436035156,0,0,1.75812
1.6257646729936823,0,0,1.1420341918945311,0,0,1.68168
1.628878782998072,0,0,-1.0797849487304687,0,0,-0.30576000000000003
1.6319970960030332,0,0,3.706224169921875,0,0,1.60524
1.6351086139911786,0,0,0.74699091796875,0,0,9.01992
1.6382200759835541,0,0,1.3192051147460937,0,0,1.911
1.6414232960087247,0,0,2.123656872558594,0,0,1.37592
1.6445622940082103,0,0,-0.7398083129882812,0,0,0.3822
1.6477121069910936,0,0,3.6008792968749996,0,0,2.06388
1.6508439210010692,0,0,0.19871873779296872,0,0,-1.37592
1.653949753002962,0,0,1.4939818359375,0,0,2.06388
1.6570619179983623,0,0,2.748543505859375,0,0,1.911
1.6601624909962993,0,0,-0.7398083129882812,0,0,9.631440000000001
1.663265193987172,0,0,2.003946789550781,0,0,1.1465999999999998
1.6663633410062175,0,0,1.9009961181640624,0,0,-0.7644
1.6694965809874702,0,0,-1.5298948608398437,0,0,0.7644
1.6726310609956272,0,0,3.0933085449218747,0,0,1.45236
1.675751578004565,0,0,0.35194764404296874,0,0,0.30576000000000003
1.6788620949955657,0,0,2.0302830078125,0,0,0.99372
1.681976075982675,0,0,1.6927005737304686,0,0,0.68796
1.6850916850089561,0,0,-0.6488286499023437,0,0,8.867040000000001
1.6882081840012688,0,0,2.9951462768554684,0,0,1.45236
1.6913526830030605,0,0,1.7836802368164062,0,0,0.45864
1.6944655150000472,0,0,0.36391865234375,0,0,1.5288
1.6975790139986202,0,0,2.8706477905273435,0,0,2.4460800000000003
1.700691215984989,0,0,-1.7094599853515624,0,0,-1.07016
1.7038084740052,0,0,2.9089550170898435,0,0,1.45236
1.7069202690036036,0,0,1.7429788085937499,0,0,-0.99372
1.710034435003763,0,0,0.22266075439453123,0,0,2.06388
1.7131474890047684,0,0,2.8754361938476563,0,0,1.5288
1.7162637840083335,0,0,0.5363011718749999,0,0,-0.07644000000000001
1.7193782459944487,0,0,1.5155296508789062,0,0,0.84084
1.7224915779952426,0,0,2.185906115722656,0,0,0.15288000000000002
1.726664248999441,0,0,1.3742717529296875,0,0,0.99372
1.7297790439915843,0,0,2.3367408203125,0,0,2.4460800000000003
1.7328799139941111,0,0,-0.507570751953125,0,0,0.0
1.7359964310016949,0,0,2.4061726684570313,0,0,1.83456
1.7391029300051741,0,0,1.8602946899414061,0,0,-0.68796
1.7422010219888762,0,0,0.0909796630859375,0,0,2.2931999999999997
1.7453020389948506,0,0,2.43250888671875,0,0,1.83456
1.7484488709887955,0,0,0.4070142822265625,0,0,-0.91728
1.7516046649834607,0,0,2.896984008789062,0,0,1.45236
1.7547205529990606,0,0,2.1404162841796874,0,0,0.3822
1.7578369780094363,0,0,-0.8116343627929687,0,0,0.53508
1.7609566989995074,0,0,2.7269956909179687,0,0,0.99372
1.7640746980032418,0,0,1.1444283935546875,0,0,0.0
1.7672291029884946,0,0,0.9840168823242187,0,0,0.22932
1.7703508060076274,0,0,1.944091748046875,0,0,0.99372
1.7734738599974662,0,0,0.1484405029296875,0,0,2.36964
1.7770639089867473,0,0,2.1787235107421874,0,0,1.07016
1.7802032769832294,0,0,-0.18435352783203124,0,0,0.07644000000000001
1.7833606459898874,0,0,2.427720483398437,0,0,1.37592
1.7864793670014478,0,0,1.5322890624999999,0,0,0.07644000000000001
1.7895795700023882,0,0,0.3064578125,0,0,1.2994800000000002
1.7926962719939183,0,0,2.829946362304687,0,0,1.37592
1.795813807984814,0,0,0.3447650390625,0,0,9.40212
1.7989267880038824,0,0,1.898601916503906,0,0,0.07644000000000001
1.802042953990167,0,0,1.2737152832031249,0,0,1.5288
1.8051479709974956,0,0,-0.5291185668945312,0,0,0.53508
1.808262043981813,0,0,2.626439221191406,0,0,1.68168
1.8113801349827554,0,0,1.1061211669921875,0,0,8.867040000000001
1.814513689983869,0,0,3.095702746582031,0,0,1.911
1.817629522003699,0,0,1.4437036010742186,0,0,1.98744
1.8207435759832151,0,0,-1.429338391113281,0,0,-0.30576000000000003
1.8238636489841156,0,0,3.5338416503906247,0,0,2.06388
1.8269750920007937,0,0,1.3646949462890625,0,0,-0.6115200000000001
1.8300888320081867,0,0,-0.239420166015625,0,0,2.5989600000000004
1.8332264600030612,0,0,3.447650390625,0,0,1.911
1.836340884998208,0,0,-0.28012159423828126,0,0,-0.53508
1.839554418984335,0,0,3.7038299682617186,0,0,0.84084
1.8426560660009272,0,0,1.3096283081054687,0,0,-0.6115200000000001
1.8459958960011136,0,0,-0.8499415893554687,0,0,1.2230400000000001
1.8491098950034939,0,0,3.095702746582031,0,0,1.37592
1.8522474299825262,0,0,-0.15083470458984374,0,0,0.84084
1.8553706879902165,0,0,2.214636535644531,0,0,0.84084
1.8584695949975867,0,0,1.5466542724609373,0,0,-0.6115200000000001
1.8615890929941088,0,0,-0.7709329345703124,0,0,0.45864
1.8647076849883888,0,0,3.8283284545898435,0,0,1.5288
1.86782464600401,0,0,-0.6919242797851562,0,0,8.4084
1.8709395339828916,0,0,0.7900865478515624,0,0,0.15288000000000002
1.8740540700091515,0,0,3.0789433349609374,0,0,2.75184
1.8771699579956476,0,0,-1.8938135131835936,0,0,-2.2167600000000003
1.8802883449825458,0,0,2.0278888061523435,0,0,1.83456
1.8834029919817112,0,0,1.6927005737304686,0,0,-0.7644
1.8865167319891043,0,0,-0.33758243408203126,0,0,-0.15288000000000002
1.8896328969858587,0,0,2.8898014038085935,0,0,3.0576
1.8927470069902483,0,0,-0.46208092041015625,0,0,-3.13404
1.8958651539869606,0,0,1.0534487304687499,0,0,1.60524
1.898976930999197,0,0,3.4763808105468748,0,0,2.75184
1.9020910219987854,0,0,-1.6208745239257811,0,0,-4.433520000000001
1.9052036689827219,0,0,-0.14604630126953125,0,0,1.1465999999999998
1.9083500929991715,0,0,2.789244934082031,0,0,3.59268
1.9114681110077072,0,0,-1.7118541870117185,0,0,-1.1465999999999998
1.9145844430022407,0,0,2.6240450195312497,0,0,-9.707880000000001
1.9176977190072648,0,0,3.1794998046874996,0,0,0.0
1.9208111070038285,0,0,-1.3335703247070312,0,0,-1.07016
1.9239285869989544,0,0,1.369483349609375,0,0,1.2230400000000001
1.9270426229923032,0,0,2.5354595581054684,0,0,2.90472
1.930155214999104,0,0,-1.4939818359375,0,0,-0.84084
1.9332709359878208,0,0,0.7230489013671875,0,0,0.91728
1.9363858790020458,0,0,2.001552587890625,0,0,1.75812
1.939502433000598,0,0,-0.38307226562499996,0,0,-0.45864
1.9426158209971618,0,0,0.28012159423828126,0,0,-0.68796
1.9457303379895166,0,0,1.3623007446289062,0,0,1.07016
1.9488456519902684,0,0,0.584185205078125,0,0,0.68796
1.9519856690021697,0,0,1.3551181396484375,0,0,0.91728
1.95558938398608,0,0,0.7709329345703124,0,0,-0.68796
1.9587269199837465,0,0,1.3479355346679687,0,0,-0.6115200000000001
1.9618490480061155,0,0,0.5770026000976562,0,0,0.45864
1.9649678799905814,0,0,-0.17477672119140625,0,0,-0.15288000000000002
1.9680896200006828,0,0,0.9409212524414062,0,0,0.3822
1.9712350440095179,0,0,1.5538368774414062,0,0,1.07016
1.9743528759863693,0,0,0.9600748657226562,0,0,0.22932
1.9775299849861767,0,0,-0.04548983154296875,0,0,-1.07016
1.980688576004468,0,0,1.6065093139648436,0,0,0.45864
1.98381107498426,0,0,0.9600748657226562,0,0,1.2230400000000001
1.9869258510007057,0,0,-0.3280056274414062,0,0,0.0
1.9900460350036155,0,0,1.5825672973632812,0,0,0.30576000000000003
1.9931641820003279,0,0,1.1923124267578125,0,0,0.3822
1.9962813289894257,0,0,-0.06943184814453125,0,0,0.07644000000000001
1.9993989389913622,0,0,1.37906015625,0,0,0.68796
2.002514085994335,0,0,0.22744915771484372,0,0,0.3822
2.005630398984067,0,0,1.1611878051757811,0,0,0.68796
2.00874602800468,0,0,0.7206546997070312,0,0,0.30576000000000003
2.0118551930063404,0,0,1.3479355346679687,0,0,0.45864
2.014958932995796,0,0,0.6871358764648438,0,0,-0.22932
2.0180986349878367,0,0,0.5051765502929687,0,0,0.30576000000000003
2.021213597006863,0,0,1.2689268798828124,0,0,0.07644000000000001
2.024422557995422,0,0,0.12210428466796874,0,0,0.0
2.0276128700061236,0,0,1.5107412475585937,0,0,0.53508
2.0307346470071934,0,0,0.6512228515624999,0,0,0.0
2.03385336798965,0,0,0.3758896606445312,0,0,0.3822
2.037041217990918,0,0,1.7956512451171873,0,0,-8.7906
2.040249085985124,0,0,0.4477157104492187,0,0,-0.53508
2.043373269989388,0,0,1.0486603271484374,0,0,-0.07644000000000001
2.0464912129973527,0,0,1.2401964599609374,0,0,0.7644
2.049606174987275,0,0,-0.0718260498046875,0,0,0.0
2.0527263959811535,0,0,1.0558429321289062,0,0,0.22932
2.055842486995971,0,0,1.4796166259765624,0,0,0.99372
2.058983597002225,0,0,0.7254431030273437,0,0,0.3822
2.0620984099805355,0,0,0.46208092041015625,0,0,0.0
2.0652139830053784,0,0,1.01514150390625,0,0,0.53508
2.068329036992509,0,0,0.36391865234375,0,0,0.3822
2.0714766650053207,0,0,1.0510545288085937,0,0,0.53508
2.0746510149911046,0,0,1.5705962890624998,0,0,1.1465999999999998
2.077771476993803,0,0,1.35990654296875,0,0,0.45864
2.0808895679947454,0,0,1.6615759521484375,0,0,0.7644
2.084007475001272,0,0,1.484405029296875,0,0,0.53508
2.0871182509872597,0,0,1.0127473022460938,0,0,0.45864
2.0902315829880536,0,0,1.5083470458984374,0,0,0.99372
2.093381248007063,0,0,1.0606313354492187,0,0,1.1465999999999998
2.0964970059867483,0,0,1.5035586425781249,0,0,0.91728
2.0996115609887056,0,0,1.3814543579101561,0,0,0.91728
2.102722873998573,0,0,1.1516109985351561,0,0,0.45864
2.105839483992895,0,0,1.197100830078125,0,0,0.53508
2.1089526870055124,0,0,1.3359645263671873,0,0,0.7644
2.1120938519889023,0,0,0.9935936889648437,0,0,1.75812
2.1152787570026703,0,0,1.3910311645507811,0,0,0.91728
2.1184770700056106,0,0,1.2856862915039062,0,0,0.84084
2.121647308988031,0,0,1.3000515014648437,0,0,0.68796
2.124877694994211,0,0,1.0199299072265624,0,0,0.3822
2.128080433991272,0,0,1.0821791503906248,0,0,0.91728
2.131290227989666,0,0,1.4317325927734375,0,0,0.68796
2.134541817009449,0,0,1.1252747802734375,0,0,0.91728
2.1381323100067675,0,0,1.3263877197265623,0,0,0.6115200000000001
2.1414071589824744,0,0,1.5107412475585937,0,0,0.7644
2.144624952983577,0,0,1.3000515014648437,0,0,0.7644
2.1478497839998454,0,0,1.1827356201171875,0,0,0.68796
2.1510390960029326,0,0,1.3431471313476562,0,0,0.84084
2.1542525939876214,0,0,1.2856862915039062,0,0,0.84084
2.157319870981155,0,0,1.0271125122070313,0,0,0.84084
2.15985870998702,0,0,1.1324573852539062,0,0,0.22932
2.1623859939863905,0,0,1.5275006591796874,0,0,0.68796
2.164916777983308,0,0,1.4173673828125,0,0,1.07016
2.167448858002899,0,0,1.2042834350585936,0,0,0.84084
2.1699752709828317,0,0,1.158793603515625,0,0,0.84084
2.1725048139924183,0,0,1.4317325927734375,0,0,0.7644
2.1750311169889756,0,0,1.618480322265625,0,0,1.07016
2.177561603981303,0,0,1.1013327636718748,0,0,0.6115200000000001
2.1800905549898744,0,0,1.0773907470703123,0,0,0.53508
2.1826158379844856,0,0,1.4963760375976562,0,0,0.45864
2.185143381007947,0,0,1.5035586425781249,0,0,1.2230400000000001
2.1876720169966575,0,0,1.1635820068359375,0,0,0.68796
2.190197244985029,0,0,1.139639990234375,0,0,0.84084
2.192725695989793,0,0,1.2378022583007813,0,0,0.30576000000000003
2.1952541649807245,0,0,1.467645617675781,0,0,0.91728
2.1977814300043974,0,0,1.465251416015625,0,0,1.2230400000000001
2.2003238619945478,0,0,0.9552864624023437,0,0,0.84084
2.2028669049905147,0,0,1.1252747802734375,0,0,0.53508
2.205407817993546,0,0,1.3575123413085937,0,0,0.84084
2.20794663898414,0,0,1.5466542724609373,0,0,0.68796
2.2104845700087026,0,0,1.1420341918945311,0,0,0.84084
2.213024928001687,0,0,1.1827356201171875,0,0,0.84084
2.2155638780095614,0,0,1.3862427612304686,0,0,0.7644
2.218102421000367,0,0,1.4915876342773438,0,0,0.91728
2.2206380749994423,0,0,1.254561669921875,0,0,0.6115200000000001
2.223172711004736,0,0,1.20667763671875,0,0,0.84084
2.2258856219996233,0,0,1.3000515014648437,0,0,0.53508
2.2284439060022123,0,0,1.4891934326171874,0,0,0.91728
2.2309847449942026,0,0,1.2880804931640624,0,0,0.6115200000000001
2.233525288000237,0,0,1.1635820068359375,0,0,0.45864
2.23606746000587,0,0,1.4245499877929686,0,0,0.68796
2.238617299008183,0,0,1.4700398193359374,0,0,0.68796
2.241164804989239,0,0,1.2210428466796874,0,0,0.91728
2.2437088660080917,0,0,1.1635820068359375,0,0,0.53508
2.246249630989041,0,0,1.199495031738281,0,0,0.22932
2.248789784993278,0,0,1.484405029296875,0,0,0.99372
2.251331717008725,0,0,1.24498486328125,0,0,0.91728
2.253964573988924,0,0,1.177947216796875,0,0,0.68796
2.2568911669950467,0,0,1.1611878051757811,0,0,0.45864
2.260013369988883,0,0,1.4173673828125,0,0,1.07016
2.263126720994478,0,0,1.216254443359375,0,0,0.91728
2.266241756005911,0,0,1.0869675537109373,0,0,0.7644
2.2693924400082324,0,0,1.4820108276367188,0,0,0.7644
2.273019302985631,0,0,1.2880804931640624,0,0,0.7644
2.276223114982713,0,0,1.1252747802734375,0,0,0.45864
2.2794965939829126,0,0,1.3072341064453123,0,0,0.99372
2.282619092002278,0,0,1.6543933471679686,0,0,0.99372
2.285735590994591,0,0,1.1707646118164061,0,0,0.53508
2.2888502569985576,0,0,1.1420341918945311,0,0,0.30576000000000003
2.291965237003751,0,0,1.5227122558593749,0,0,0.84084
2.2950778649828862,0,0,1.120486376953125,0,0,0.84084
2.2981910119997337,0,0,1.2138602416992186,0,0,0.6115200000000001
2.301303807995282,0,0,1.4245499877929686,0,0,0.7644
2.3044200660078786,0,0,1.5705962890624998,0,0,1.1465999999999998
2.3075340460054576,0,0,1.2210428466796874,0,0,0.7644
2.3106499149871524,0,0,1.2761094848632812,0,0,0.53508
2.3137630069977604,0,0,1.5035586425781249,0,0,0.68796
2.316877042001579,0,0,1.0797849487304687,0,0,0.68796
2.3199892999837175,0,0,1.1755530151367186,0,0,0.6115200000000001
2.3230954659811687,0,0,1.6136919189453125,0,0,1.07016
2.326241926988587,0,0,1.3958195678710936,0,0,0.99372
2.329393980995519,0,0,1.0893617553710937,0,0,0.53508
2.332540571980644,0,0,1.2593500732421874,0,0,0.7644
2.335860364983091,0,0,1.3024457031249999,0,0,0.6115200000000001
2.338979827007279,0,0,1.2306196533203124,0,0,0.6115200000000001
2.342094436986372,0,0,1.0893617553710937,0,0,1.07016
2.3452077499823645,0,0,1.4006079711914061,0,0,0.6115200000000001
2.3483242680085823,0,0,1.2976572998046874,0,0,0.84084
2.351467266009422,0,0,1.0390835205078124,0,0,0.6115200000000001
2.3546395970042795,0,0,1.4006079711914061,0,0,0.7644
2.3577576149837114,0,0,1.235408056640625,0,0,0.7644
2.3608724100049585,0,0,1.1037269653320312,0,0,0.53508
2.363989204983227,0,0,1.1180921752929687,0,0,0.91728
2.367101184994681,0,0,1.4149731811523436,0,0,0.7644
2.3702174249920063,0,0,1.2425906616210938,0,0,0.84084
2.375661358004436,0,0,1.2497732666015624,0,0,0.68796
2.378776152996579,0,0,1.5131354492187499,0,0,0.45864
2.3818915220035706,0,0,1.3192051147460937,0,0,0.68796
2.3850097800022922,0,0,1.3287819213867187,0,0,1.07016
2.388125889992807,0,0,1.467645617675781,0,0,0.99372
2.3912401300040074,0,0,1.3958195678710936,0,0,0.99372
2.394354388001375,0,0,1.139639990234375,0,0,0.68796
2.397468515991932,0,0,1.3527239379882812,0,0,0.45864
2.400583070993889,0,0,1.4891934326171874,0,0,0.99372
2.403699680988211,0,0,1.2928688964843749,0,0,0.91728
2.4068113649846055,0,0,1.2138602416992186,0,0,1.07016
2.4099256040062755,0,0,1.5059528442382812,0,0,0.91728
2.4130393989908043,0,0,1.3431471313476562,0,0,1.07016
2.416155343002174,0,0,1.2042834350585936,0,0,0.53508
2.4192709339840803,0,0,1.3766659545898436,0,0,0.7644
2.4223805619985797,0,0,1.4891934326171874,0,0,0.99372
2.425545782985864,0,0,1.2330138549804688,0,0,1.07016
2.4286633929878008,0,0,1.180341418457031,0,0,0.99372
2.4317825399921276,0,0,1.5155296508789062,0,0,0.91728
2.4349211489898153,0,0,1.3623007446289062,0,0,0.68796
2.4380376299959607,0,0,1.1755530151367186,0,0,0.3822
2.4411603129992727,0,0,1.3862427612304686,0,0,0.68796
2.4442809789907187,0,0,1.4628572143554686,0,0,0.99372
2.4473954410059378,0,0,1.254561669921875,0,0,0.6115200000000001
2.4504923099884763,0,0,1.1133037719726562,0,0,1.07016
2.4536138639959972,0,0,1.4987702392578124,0,0,0.6115200000000001
2.456751917983638,0,0,1.4700398193359374,0,0,0.91728
2.459863158001099,0,0,1.2138602416992186,0,0,0.3822
2.4648018750012852,0,0,1.350329736328125,0,0,0.91728
2.4680506129807327,0,0,1.2569558715820313,0,0,0.84084
2.471309480984928,0,0,1.0845733520507812,0,0,0.6115200000000001
2.474436052987585,0,0,1.2689268798828124,0,0,0.68796
2.4775559959816746,0,0,1.39821376953125,0,0,0.7644
2.4806745320092887,0,0,0.928950244140625,0,0,0.45864
2.4837909009947907,0,0,1.3407529296874998,0,0,0.45864
2.4869054190057795,0,0,1.4221557861328125,0,0,0.68796
2.490048084000591,0,0,1.180341418457031,0,0,0.6115200000000001
2.493227063008817,0,0,1.3168109130859373,0,0,1.07016
2.496355487994151,0,0,1.39821376953125,0,0,0.68796
2.4994797830004245,0,0,1.43652099609375,0,0,0.68796
2.5025985589891206,0,0,1.0773907470703123,0,0,0.53508
2.5057163549936377,0,0,1.3192051147460937,0,0,0.84084
2.5088344639807474,0,0,1.39821376953125,0,0,0.91728
2.5119537779828534,0,0,1.22583125,0,0,0.6115200000000001
2.51507181400666,0,0,1.3215993164062498,0,0,0.7644
2.5181886829959694,0,0,1.5155296508789062,0,0,0.84084
2.5213048300065566,0,0,1.484405029296875,0,0,0.99372
2.5273539409972727,0,0,1.3168109130859373,0,0,0.7644
2.5305578089901246,0,0,1.6041151123046875,0,0,0.99372
2.5338346019852906,0,0,1.1348515869140625,0,0,0.6115200000000001
2.5369872669980396,0,0,1.2425906616210938,0,0,0.3822
2.5401009139895905,0,0,1.4149731811523436,0,0,0.7644
2.543249245994957,0,0,1.254561669921875,0,0,0.3822
2.5463587999984156,0,0,1.1827356201171875,0,0,0.6115200000000001
2.5494665399892256,0,0,1.3455413330078123,0,0,0.68796
2.5525737979914993,0,0,1.6041151123046875,0,0,1.07016
2.55572931500501,0,0,1.1276689819335937,0,0,0.84084
2.5587220559827983,0,0,1.2737152832031249,0,0,0.84084
2.5615160960005596,0,0,1.4006079711914061,0,0,0.99372
2.5643085979972966,0,0,1.4915876342773438,0,0,0.99372
2.5671014899853617,0,0,1.1324573852539062,0,0,0.7644
2.5698907710029744,0,0,1.2306196533203124,0,0,0.3822
2.572670255001867,0,0,1.39821376953125,0,0,1.1465999999999998
2.5757234769989736,0,0,1.218648645019531,0,0,0.99372
2.578532016981626,0,0,1.1444283935546875,0,0,0.7644
2.5813317779975478,0,0,1.2425906616210938,0,0,0.53508
2.5841304659843445,0,0,1.37906015625,0,0,0.68796
2.586926116986433,0,0,1.3766659545898436,0,0,0.7644
2.589723471988691,0,0,1.158793603515625,0,0,0.53508
2.5925197519827634,0,0,1.39821376953125,0,0,0.84084
2.5953215879853815,0,0,1.5203180541992187,0,0,0.68796
2.5981170540035237,0,0,1.2521674682617188,0,0,0.68796
2.600916167983087,0,0,1.149216796875,0,0,20
2.6037138929823413,0,0,1.5083470458984374,0,0,0.0
2.6065095250087325,0,0,1.3263877197265623,0,0,0.7644
2.6093064169981517,0,0,1.1516109985351561,0,0,0.6115200000000001
2.6122810840024613,0,0,1.3623007446289062,0,0,0.84084
2.6150838639878202,0,0,1.4149731811523436,0,0,0.84084
2.6178802189824637,0,0,1.446097802734375,0,0,0.91728
2.6207047950010747,0,0,1.1252747802734375,0,0,0.99372
2.623613445000956,0,0,1.1372457885742187,0,0,0.6115200000000001
2.6264151879877318,0,0,1.6041151123046875,0,0,0.68796
2.6292300799977966,0,0,1.1731588134765625,0,0,0.91728
2.632028266991256,0,0,1.149216796875,0,0,0.7644
2.6348245659901295,0,0,1.254561669921875,0,0,0.3822
2.637669457006268,0,0,1.4508862060546874,0,0,0.7644
2.6404716270044446,0,0,1.3096283081054687,0,0,1.911
2.643364646995906,0,0,1.1133037719726562,0,0,0.6115200000000001
2.6461713159806095,0,0,1.3048399047851562,0,0,0.7644
2.6489616709877737,0,0,1.4245499877929686,0,0,0.53508
2.6517563219822478,0,0,1.2234370483398436,0,0,0.68796
2.6545642869896255,0,0,1.2210428466796874,0,0,0.6115200000000001
2.6573874749883544,0,0,1.2330138549804688,0,0,0.84084
2.6604999550036155,0,0,1.668758557128906,0,0,0.99372
2.663616528006969,0,0,1.0965443603515623,0,0,0.91728
2.6667327859904617,0,0,1.2401964599609374,0,0,0.7644
2.6698472480056807,0,0,1.4939818359375,0,0,0.91728
2.6729622650018428,0,0,1.0749965454101562,0,0,0.68796
2.6760775419825222,0,0,1.16837041015625,0,0,0.45864
2.679221428988967,0,0,1.2976572998046874,0,0,0.99372
2.6823381319991313,0,0,1.6352397338867186,0,0,0.91728
2.685452981997514,0,0,1.1180921752929687,0,0,0.6115200000000001
2.688568370009307,0,0,1.3168109130859373,0,0,0.30576000000000003
2.6916844609950203,0,0,1.3742717529296875,0,0,1.07016
2.6947967190062627,0,0,1.0869675537109373,0,0,0.45864
2.6979096260038204,0,0,1.0989385620117187,0,0,0.84084
2.7010241060052067,0,0,1.5322890624999999,0,0,1.1465999999999998
2.7041394379921257,0,0,1.4724340209960938,0,0,0.91728
2.707254862994887,0,0,1.139639990234375,0,0,0.53508
2.710369473003084,0,0,1.350329736328125,0,0,0.3822
2.7134839159843978,0,0,1.3934253662109375,0,0,0.91728
2.716597747988999,0,0,1.3575123413085937,0,0,0.68796
2.7197121909994166,0,0,1.1563994018554686,0,0,1.1465999999999998
2.722850189980818,0,0,1.3862427612304686,0,0,0.68796
2.7260574839892797,0,0,1.3934253662109375,0,0,0.91728
2.729197907989146,0,0,1.1013327636718748,0,0,0.45864
2.7323083149967715,0,0,1.0965443603515623,0,0,0.68796
2.735416424984578,0,0,1.2952630981445312,0,0,0.7644
2.7385326270014048,0,0,1.2569558715820313,0,0,0.68796
2.7416484220011625,0,0,1.1276689819335937,0,0,0.6115200000000001
2.7447628469963092,0,0,1.4173673828125,0,0,0.99372
2.7478991969837807,0,0,1.3096283081054687,0,0,0.91728
2.7510118070058525,0,0,1.1540052001953125,0,0,0.7644
2.754126768995775,0,0,1.3215993164062498,0,0,0.84084
2.7572825079842005,0,0,1.4604630126953124,0,0,0.7644
2.7604303029947914,0,0,1.3766659545898436,0,0,0.68796
2.7635469129891135,0,0,1.3479355346679687,0,0,0.84084
2.7666594669863116,0,0,1.4437036010742186,0,0,0.6115200000000001
2.7697735030087642,0,0,1.3670891479492187,0,0,0.84084
2.7728877979971003,0,0,1.149216796875,0,0,0.53508
2.77602472298895,0,0,1.4532804077148436,0,0,0.91728
2.779255256988108,0,0,1.4508862060546874,0,0,0.84084
2.782381106982939,0,0,1.2210428466796874,0,0,0.6115200000000001
2.7854981060081627,0,0,1.1156979736328125,0,0,1.98744
2.7886130870028865,0,0,1.2785036865234374,0,0,0.99372
2.7917270670004655,0,0,1.2497732666015624,0,0,0.84084
2.7948416209837887,0,0,1.0773907470703123,0,0,0.45864
2.7979549529845826,0,0,1.458068811035156,0,0,0.7644
2.801069340988761,0,0,1.5131354492187499,0,0,0.91728
2.804184598993743,0,0,1.2114660400390624,0,0,0.91728
2.807324282999616,0,0,1.3024457031249999,0,0,0.45864
2.8104394850088283,0,0,1.3215993164062498,0,0,0.84084
2.813553335989127,0,0,1.2832920898437499,0,0,0.91728
2.8166675939864945,0,0,1.1180921752929687,0,0,0.84084
2.819779871002538,0,0,1.4030021728515625,0,0,1.07016
2.8229189059929922,0,0,1.388636962890625,0,0,0.99372
2.826059996994445,0,0,1.1085153686523437,0,0,0.53508
2.8291785519977566,0,0,1.2306196533203124,0,0,0.84084
2.832295847008936,0,0,1.3215993164062498,0,0,0.45864
2.835408846003702,0,0,1.2473790649414063,0,0,0.84084
2.838522603997262,0,0,1.235408056640625,0,0,0.7644
2.8416365099838004,0,0,1.4221557861328125,0,0,0.7644
2.8447681200050283,0,0,1.4173673828125,0,0,0.84084
2.8478805070044473,0,0,1.1444283935546875,0,0,0.6115200000000001
2.8509743209870066,0,0,1.3670891479492187,0,0,0.6115200000000001
2.854095023998525,0,0,1.4030021728515625,0,0,0.84084
2.857340001995908,0,0,1.180341418457031,0,0,0.45864
2.8604559089872055,0,0,1.16837041015625,0,0,0.7644
2.8635644629830495,0,0,1.448492004394531,0,0,0.84084
2.8666715919971466,0,0,1.197100830078125,0,0,0.68796
2.869778091000626,0,0,1.1180921752929687,0,0,0.53508
2.8728841450065374,0,0,1.235408056640625,0,0,0.84084
2.8762414929806255,0,0,1.5203180541992187,0,0,0.84084
2.879390379996039,0,0,1.2593500732421874,0,0,0.68796
2.882497601007344,0,0,1.1755530151367186,0,0,0.53508
2.8856048040033784,0,0,1.3910311645507811,0,0,1.1465999999999998
2.888711895007873,0,0,1.0893617553710937,0,0,0.53508
2.8918195419828407,0,0,1.0965443603515623,0,0,0.53508
2.8949223929957952,0,0,1.5059528442382812,0,0,0.68796
2.898080001992639,0,0,1.5562310791015623,0,0,0.7644
2.901208797004074,0,0,1.3718775512695311,0,0,0.68796
2.904316555999685,0,0,1.2641384765625,0,0,0.45864
2.907464849995449,0,0,1.3359645263671873,0,0,0.91728
2.9105711269949097,0,0,1.199495031738281,0,0,0.84084
2.91367605200503,0,0,1.3383587280273437,0,0,0.45864
2.91678201398463,0,0,1.407790576171875,0,0,0.68796
2.919989362999331,0,0,1.4628572143554686,0,0,0.99372
2.923096140002599,0,0,1.3718775512695311,0,0,0.68796
2.926202786999056,0,0,1.16837041015625,0,0,0.07644000000000001
2.9293102489900775,0,0,1.4173673828125,0,0,0.84084
2.932418137002969,0,0,1.1563994018554686,0,0,0.68796
2.9355678760039154,0,0,1.2952630981445312,0,0,0.84084
2.9386792450095527,0,0,1.37906015625,0,0,0.7644
2.941787096002372,0,0,1.2401964599609374,0,0,0.99372
2.9448995759885293,0,0,1.0726023437499999,0,0,0.30576000000000003
2.9480078159831464,0,0,1.2928688964843749,0,0,0.53508
2.951376070996048,0,0,1.4030021728515625,0,0,0.84084
2.9545237729907967,0,0,1.3168109130859373,0,0,0.68796
2.9576625489862636,0,0,1.1707646118164061,0,0,0.6115200000000001
2.9607700659835245,0,0,1.407790576171875,0,0,0.91728
2.963876972993603,0,0,1.3718775512695311,0,0,0.91728
2.9669823609874584,0,0,1.1731588134765625,0,0,0.3822
2.9700898219889496,0,0,1.484405029296875,0,0,0.68796
2.973196320992429,0,0,1.3192051147460937,0,0,1.07016
2.976304227981018,0,0,1.189918225097656,0,0,0.7644
2.9794272819999605,0,0,1.2378022583007813,0,0,0.84084
2.982532909984002,0,0,1.2689268798828124,0,0,0.84084
2.9856398169940803,0,0,1.3455413330078123,0,0,0.6115200000000001
2.988745796988951,0,0,1.3359645263671873,0,0,0.68796
2.9918530180002563,0,0,1.467645617675781,0,0,0.91728
2.994955814006971,0,0,1.2928688964843749,0,0,0.91728
2.9980615160020534,0,0,1.0773907470703123,0,0,0.84084
3.0011656999995466,0,0,1.177947216796875,0,0,0.7644
3.0042719210032374,0,0,1.2593500732421874,0,0,0.68796
3.0073781609826256,0,0,1.2114660400390624,0,0,0.91728
3.0105117890052497,0,0,1.158793603515625,0,0,0.68796
3.0136198989930563,0,0,1.4939818359375,0,0,0.84084
3.016728176007746,0,0,1.4532804077148436,0,0,0.91728
3.0198533599905204,0,0,1.197100830078125,0,0,0.6115200000000001
3.022958543995628,0,0,1.2665326782226562,0,0,0.3822
3.0260672839940526,0,0,1.465251416015625,0,0,0.91728
3.0292568559816573,0,0,1.1037269653320312,0,0,0.91728
3.032398262002971,0,0,1.2330138549804688,0,0,0.45864
3.0355074270046316,0,0,1.3838485595703125,0,0,0.7644
3.0386253150063567,0,0,1.4604630126953124,0,0,0.7644
3.041832960996544,0,0,1.3383587280273437,0,0,0.45864
3.044956662983168,0,0,1.149216796875,0,0,0.45864
3.048068087984575,0,0,1.419761584472656,0,0,0.99372
3.0511728639830835,0,0,1.1851298217773436,0,0,0.68796
3.054316862981068,0,0,1.1085153686523437,0,0,0.45864
3.0574624720029533,0,0,1.484405029296875,0,0,1.1465999999999998
3.0605720079911407,0,0,1.3192051147460937,0,0,1.1465999999999998
3.0636803039815277,0,0,1.1468225952148436,0,0,0.3822
3.066783616988687,0,0,1.2641384765625,0,0,0.84084
3.0698902090080082,0,0,1.3120225097656248,0,0,0.68796
3.0729972450062633,0,0,1.3455413330078123,0,0,0.84084
3.0763078710006084,0,0,1.2952630981445312,0,0,0.84084
3.0794254619977437,0,0,1.4149731811523436,0,0,0.91728
3.0825307759805582,0,0,1.3144167114257812,0,0,0.68796
3.085638218995882,0,0,1.2042834350585936,0,0,0.53508
3.088743976986734,0,0,1.2856862915039062,0,0,0.7644
3.091848512995057,0,0,1.4508862060546874,0,0,0.99372
3.0949529570061713,0,0,1.2521674682617188,0,0,0.6115200000000001
3.098103436990641,0,0,1.2665326782226562,0,0,0.6115200000000001
3.1012018249894027,0,0,1.2401964599609374,0,0,0.7644
3.1043197120015975,0,0,1.2761094848632812,0,0,0.7644
3.107446192007046,0,0,1.0821791503906248,0,0,0.7644
3.1105513389920816,0,0,1.5227122558593749,0,0,0.7644
3.1136587639921345,0,0,1.6112977172851561,0,0,0.84084
3.116792095999699,0,0,1.3335703247070312,0,0,0.68796
3.1198989099939354,0,0,1.0797849487304687,0,0,0.45864
3.123000241990667,0,0,1.62805712890625,0,0,0.68796
3.1261033519986086,0,0,1.2138602416992186,0,0,0.6115200000000001
3.129207461985061,0,0,1.3718775512695311,0,0,0.3822
3.132313627982512,0,0,1.419761584472656,0,0,1.07016
3.135417868004879,0,0,1.3910311645507811,0,0,0.7644
3.138538958999561,0,0,1.1540052001953125,0,0,0.7644
3.141644699004246,0,0,1.235408056640625,0,0,0.53508
3.1447528270073235,0,0,1.455674609375,0,0,0.84084
3.1478604000003543,0,0,1.2042834350585936,0,0,0.7644
3.1509625659964513,0,0,1.0989385620117187,0,0,0.6115200000000001
3.1540681199985556,0,0,1.4700398193359374,0,0,0.68796
3.15733169100713,0,0,1.2928688964843749,0,0,0.84084
3.160470615985105,0,0,1.1516109985351561,0,0,0.6115200000000001
3.163578225998208,0,0,1.3575123413085937,0,0,0.45864
3.1666808539885096,0,0,1.3742717529296875,0,0,0.84084
3.169786315993406,0,0,1.1731588134765625,0,0,0.84084
3.172892647999106,0,0,1.0965443603515623,0,0,0.84084
3.1760013699822593,0,0,1.5131354492187499,0,0,0.84084
3.1791042200056836,0,0,1.1420341918945311,0,0,0.99372
3.182209681981476,0,0,1.3623007446289062,0,0,0.53508
3.1853189959947485,0,0,1.2856862915039062,0,0,0.45864
3.1884251619921997,0,0,1.3455413330078123,0,0,0.68796
3.191532456985442,0,0,1.20667763671875,0,0,0.7644
3.1946352520026267,0,0,1.1875240234375,0,0,0.84084
3.1977417320013046,0,0,1.6543933471679686,0,0,1.1465999999999998
3.200846249994356,0,0,1.4772224243164063,0,0,0.7644
3.2039533040078823,0,0,1.197100830078125,0,0,0.53508
3.2070574880053755,0,0,1.2904746948242187,0,0,0.6115200000000001
3.2101636359875556,0,0,1.3479355346679687,0,0,0.6115200000000001
3.2132688380079344,0,0,1.3096283081054687,0,0,0.6115200000000001
3.2163981889898423,0,0,1.2832920898437499,0,0,0.84084
3.219505983986892,0,0,1.4437036010742186,0,0,0.53508
3.22260792698944,0,0,1.3646949462890625,0,0,1.07016
3.2257120739959646,0,0,1.3407529296874998,0,0,0.6115200000000001
3.228817388007883,0,0,1.2282254516601563,0,0,0.6115200000000001
3.2319247759878635,0,0,1.2521674682617188,0,0,0.68796
3.2354054549941793,0,0,1.2042834350585936,0,0,0.91728
3.238530417002039,0,0,1.20667763671875,0,0,0.7644
3.241647360002389,0,0,1.4149731811523436,0,0,0.7644
3.244766247982625,0,0,1.197100830078125,0,0,0.84084
3.247886783996364,0,0,1.1061211669921875,0,0,0.7644
3.2510018379834946,0,0,1.4317325927734375,0,0,1.07016
3.254102040984435,0,0,1.5179238525390624,0,0,0.84084
3.257217631995445,0,0,1.1851298217773436,0,0,0.7644
3.260368222981924,0,0,1.3670891479492187,0,0,0.30576000000000003
3.263489203003701,0,0,1.2617442749023438,0,0,0.84084
3.2665962759929243,0,0,1.1875240234375,0,0,0.7644
3.269734645000426,0,0,1.0845733520507812,0,0,0.7644
3.2728499959921464,0,0,1.3096283081054687,0,0,1.1465999999999998
3.2759639020077884,0,0,1.5227122558593749,0,0,0.84084
3.279138326004613,0,0,1.1923124267578125,0,0,0.68796
3.282312269002432,0,0,1.446097802734375,0,0,-8.867040000000001
3.2854308410023805,0,0,1.254561669921875,0,0,0.53508
3.2885448219894897,0,0,1.1037269653320312,0,0,0.7644
3.2916580610035453,0,0,1.1372457885742187,0,0,0.99372
3.2947674859897234,0,0,1.3431471313476562,0,0,0.6115200000000001
3.297881410981063,0,0,1.2042834350585936,0,0,-9.01992
3.3009958539914805,0,0,1.1563994018554686,0,0,0.68796
3.3041122230060864,0,0,1.3120225097656248,0,0,0.68796
3.3072269069962204,0,0,1.5011644409179687,0,0,0.6115200000000001
3.3103405910078436,0,0,1.2018892333984375,0,0,0.91728
3.3134835899982136,0,0,1.2593500732421874,0,0,0.99372
3.316596958989976,0,0,1.47482822265625,0,0,0.6115200000000001
3.3197104950086214,0,0,1.4317325927734375,0,0,0.68796
3.322816772008082,0,0,1.1180921752929687,0,0,0.45864
3.3259822329855524,0,0,1.4413093994140624,0,0,0.84084
3.3290986939973664,0,0,1.3814543579101561,0,0,0.99372
3.33221391600091,0,0,1.1827356201171875,0,0,0.68796
3.335403673001565,0,0,1.3120225097656248,0,0,0.91728
3.3385210229898803,0,0,1.429338391113281,0,0,0.91728
3.3416340590047184,0,0,1.2880804931640624,0,0,0.6115200000000001
3.3447490950056817,0,0,1.1707646118164061,0,0,0.3822
3.34786300099222,0,0,1.4820108276367188,0,0,0.6115200000000001
3.3509732779930346,0,0,1.4437036010742186,0,0,0.7644
3.354085461993236,0,0,1.139639990234375,0,0,0.7644
3.357198238983983,0,0,1.3431471313476562,0,0,0.53508
3.3603105889924336,0,0,1.5227122558593749,0,0,0.91728
3.363849137997022,0,0,1.2665326782226562,0,0,0.7644
3.366983840998728,0,0,1.2138602416992186,0,0,0.6115200000000001
3.3701003580063116,0,0,1.458068811035156,0,0,1.1465999999999998
3.3732132829900365,0,0,1.4532804077148436,0,0,0.99372
3.3763277260004543,0,0,1.3407529296874998,0,0,0.68796
3.3794733909890056,0,0,1.2856862915039062,0,0,0.7644
3.3825863899837714,0,0,1.2282254516601563,0,0,0.7644
3.3856975189992227,0,0,1.2713210815429687,0,0,0.6115200000000001
3.388809702999424,0,0,1.197100830078125,0,0,1.1465999999999998
3.39192558999639,0,0,1.448492004394531,0,0,0.68796
3.395036384987179,0,0,1.3670891479492187,0,0,0.68796
3.3981482179951854,0,0,1.0941501586914062,0,0,0.7644
3.401289475004887,0,0,1.2378022583007813,0,0,0.84084
3.4077406369906384,0,0,1.0749965454101562,0,0,0.6115200000000001
3.410853616980603,0,0,1.3359645263671873,0,0,-0.22932
3.4139696350030135,0,0,1.3934253662109375,0,0,0.53508
3.417100243997993,0,0,1.2138602416992186,0,0,0.68796
3.4202131319907494,0,0,1.350329736328125,0,0,0.45864
3.423510146996705,0,0,1.3287819213867187,0,0,1.07016
3.4266299239825457,0,0,1.388636962890625,0,0,0.68796
3.4297746070078574,0,0,1.0749965454101562,0,0,0.84084
3.432891328004189,0,0,1.2569558715820313,0,0,0.30576000000000003
3.4360061420011334,0,0,1.3263877197265623,0,0,0.84084
3.4391171409806702,0,0,1.1133037719726562,0,0,0.7644
3.442229342996143,0,0,1.0773907470703123,0,0,0.6115200000000001
3.4453757489973214,0,0,1.618480322265625,0,0,0.99372
3.448506451997673,0,0,1.4317325927734375,0,0,0.91728
3.4516125619993545,0,0,1.2832920898437499,0,0,0.30576000000000003
3.454891076980857,0,0,1.2593500732421874,0,0,0.7644
3.458091056003468,0,0,1.2808978881835937,0,0,0.53508
3.4611947590019554,0,0,1.216254443359375,0,0,0.7644
3.464499828987755,0,0,1.235408056640625,0,0,1.07016
3.4674403489916585,0,0,1.3958195678710936,0,0,0.91728
3.4703575909952633,0,0,1.448492004394531,0,0,0.84084
3.4731466859811917,0,0,1.1252747802734375,0,0,0.68796
3.4759401890041772,0,0,1.3000515014648437,0,0,0.53508
3.4787362839851994,0,0,1.35990654296875,0,0,0.84084
3.4815306389937177,0,0,1.2593500732421874,0,0,0.15288000000000002
3.4843246969976462,0,0,1.1875240234375,0,0,0.68796
3.487118441000348,0,0,1.24498486328125,0,0,0.53508
3.489916294987779,0,0,1.235408056640625,0,0,0.99372
3.492710057005752,0,0,1.149216796875,0,0,0.68796
3.4955059489875566,0,0,1.0726023437499999,0,0,0.45864
3.4982979519991204,0,0,1.3048399047851562,0,0,0.68796
3.501095676998375,0,0,1.3551181396484375,0,0,0.7644
3.5038937899807934,0,0,1.1731588134765625,0,0,0.7644
3.5066887009888887,0,0,1.1731588134765625,0,0,0.53508
3.509518887993181,0,0,1.3000515014648437,0,0,0.45864
3.512320223991992,0,0,1.4508862060546874,0,0,0.84084
3.5151173929916695,0,0,1.149216796875,0,0,0.68796
3.5178990440035705,0,0,1.2378022583007813,0,0,0.84084
3.5206920839846134,0,0,1.5586252807617187,0,0,0.84084
3.5236053630069364,0,0,1.37906015625,0,0,0.84084
3.526401328999782,0,0,1.2330138549804688,0,0,0.53508
3.5310867719817907,0,0,1.4939818359375,0,0,0.68796
3.533989254006883,0,0,1.4987702392578124,0,0,0.7644
3.536805256997468,0,0,1.2401964599609374,0,0,0.53508
3.5396028149989434,0,0,1.197100830078125,0,0,1.911
3.5423813369998243,0,0,1.467645617675781,0,0,0.84084
3.5452084869903047,0,0,1.39821376953125,0,0,0.84084
3.548003489995608,0,0,1.120486376953125,0,0,0.68796
3.550782881997293,0,0,1.3407529296874998,0,0,0.99372
3.55358777299989,0,0,1.3742717529296875,0,0,0.68796
3.556376980006462,0,0,1.3910311645507811,0,0,0.91728
3.559156075003557,0,0,1.2737152832031249,0,0,0.99372
3.5619558739999775,0,0,1.3742717529296875,0,0,0.6115200000000001
3.564844523993088,0,0,1.465251416015625,0,0,0.84084
3.5679130049829837,0,0,1.2832920898437499,0,0,0.6115200000000001
3.5711272619955707,0,0,1.0773907470703123,0,0,0.68796
3.5742453720013145,0,0,1.3934253662109375,0,0,0.84084
3.57736455599661,0,0,1.429338391113281,0,0,0.99372
3.5804783509811386,0,0,1.1611878051757811,0,0,0.84084
3.58359242399456,0,0,1.2473790649414063,0,0,0.45864
3.5867050149827264,0,0,1.1013327636718748,0,0,1.07016
3.5899710299854632,0,0,1.2401964599609374,0,0,0.91728
3.5930899920058437,0,0,1.3263877197265623,0,0,0.68796
3.5962087500083726,0,0,1.4149731811523436,0,0,0.99372
3.599371674004942,0,0,1.5059528442382812,0,0,0.91728
3.6024760069849435,0,0,1.0989385620117187,0,0,0.84084
3.605617727007484,0,0,1.2378022583007813,0,0,0.53508
3.6087341340025887,0,0,1.3311761230468748,0,0,0.6115200000000001
3.611851244000718,0,0,1.2473790649414063,0,0,0.6115200000000001
3.6149647980055306,0,0,1.2976572998046874,0,0,0.99372
3.618064518988831,0,0,1.467645617675781,0,0,0.84084
3.6211778330034576,0,0,1.5035586425781249,0,0,0.99372
3.6242922199890018,0,0,1.1228805786132812,0,0,0.6115200000000001
3.627408533997368,0,0,1.2593500732421874,0,0,0.7644
3.630522810999537,0,0,1.446097802734375,0,0,0.84084
3.633634883997729,0,0,1.1923124267578125,0,0,0.45864
3.6367517529870383,0,0,1.2665326782226562,0,0,1.2230400000000001
3.639877751003951,0,0,1.4317325927734375,0,0,0.53508
3.642994121008087,0,0,1.3192051147460937,0,0,0.91728
3.646695778996218,0,0,1.3479355346679687,0,0,0.3822
3.6498170740087517,0,0,1.4508862060546874,0,0,0.91728
3.6529169800051022,0,0,1.4030021728515625,0,0,0.91728
3.6560152389865834,0,0,1.3096283081054687,0,0,0.68796
3.6591356819844805,0,0,1.3742717529296875,0,0,0.3822
3.662253532005707,0,0,1.2306196533203124,0,0,0.7644
3.6654063089808915,0,0,1.1516109985351561,0,0,0.6115200000000001
3.6685200299834833,0,0,1.1516109985351561,0,0,0.68796
3.671634139987873,0,0,1.599326708984375,0,0,0.30576000000000003
3.674745341995731,0,0,1.3048399047851562,0,0,0.91728
3.677858859009575,0,0,1.0845733520507812,0,0,0.68796
3.6809708579967264,0,0,1.3670891479492187,0,0,0.53508
3.684085746004712,0,0,1.3024457031249999,0,0,0.84084
3.6872264109842945,0,0,1.3455413330078123,0,0,0.68796
3.6903400769806467,0,0,1.2138602416992186,0,0,0.7644
3.6934536499902606,0,0,1.4532804077148436,0,0,0.68796
3.6965663339942694,0,0,1.2856862915039062,0,0,0.7644
3.6996809440024663,0,0,1.2593500732421874,0,0,0.6115200000000001
3.702807016001316,0,0,1.3048399047851562,0,0,0.7644
3.7059205709956586,0,0,1.3192051147460937,0,0,0.6115200000000001
3.709031236008741,0,0,1.0749965454101562,0,0,0.53508
3.7121429389808327,0,0,1.3766659545898436,0,0,1.2994800000000002
3.715257845004089,0,0,1.5131354492187499,0,0,0.84084
3.7183702510083094,0,0,1.4532804077148436,0,0,0.84084
3.7214822499954607,0,0,1.20667763671875,0,0,0.84084
3.724592563987244,0,0,1.4101847778320311,0,0,0.6115200000000001
3.728351739991922,0,0,1.24498486328125,0,0,0.7644
3.731484867981635,0,0,1.3311761230468748,0,0,0.45864
3.7345841079950333,0,0,1.2521674682617188,0,0,0.7644
3.737682348000817,0,0,1.2593500732421874,0,0,0.91728
3.740799291001167,0,0,1.199495031738281,0,0,0.99372
3.7439164749812335,0,0,1.3479355346679687,0,0,0.45864
3.7470316030085087,0,0,1.2689268798828124,0,0,1.2230400000000001
3.7501461950014345,0,0,1.6065093139648436,0,0,0.6115200000000001
3.753261008008849,0,0,1.2114660400390624,0,0,0.6115200000000001
3.7563935249927454,0,0,1.388636962890625,0,0,0.68796
3.7595113950083032,0,0,1.465251416015625,0,0,0.6115200000000001
3.7626240229874384,0,0,1.1923124267578125,0,0,0.6115200000000001
3.765775317995576,0,0,1.2832920898437499,0,0,0.91728
3.768891446001362,0,0,1.465251416015625,0,0,0.91728
3.7720078520069364,0,0,1.4939818359375,0,0,0.6115200000000001
3.7751218880002853,0,0,1.1707646118164061,0,0,0.91728
3.7782209609868005,0,0,1.3024457031249999,0,0,0.68796
3.7814041629899293,0,0,1.5203180541992187,0,0,0.53508
3.784662827005377,0,0,1.1420341918945311,0,0,0.68796
3.7877869369986,0,0,1.3718775512695311,0,0,0.91728
3.790938805002952,0,0,1.4221557861328125,0,0,0.7644
3.7940422669926193,0,0,1.3646949462890625,0,0,0.91728
3.7971611359971575,0,0,1.3670891479492187,0,0,0.45864
3.8002801169932354,0,0,1.2282254516601563,0,0,0.68796
3.803462595999008,0,0,1.465251416015625,0,0,0.7644
3.806579038995551,0,0,1.2713210815429687,0,0,20
3.8096797229954973,0,0,1.3263877197265623,0,0,0.6115200000000001
3.8127934449876193,0,0,1.4867992309570313,0,0,1.1465999999999998
3.8159079990000464,0,0,1.2737152832031249,0,0,0.6115200000000001
3.819025756994961,0,0,1.209071838378906,0,0,0.53508
3.8221387559897266,0,0,1.2473790649414063,0,0,0.84084
3.8252522359834984,0,0,1.419761584472656,0,0,0.6115200000000001
3.8283662159810774,0,0,1.2042834350585936,0,0,0.84084
3.831477936997544,0,0,1.3072341064453123,0,0,20
3.8345894920057617,0,0,1.2593500732421874,0,0,0.0
3.8378902850090526,0,0,1.1755530151367186,0,0,0.53508
3.841008449991932,0,0,1.2593500732421874,0,0,0.7644
3.844121633999748,0,0,1.438915197753906,0,0,0.68796
3.847766163991764,0,0,1.2378022583007813,0,0,0.99372
3.850864829000784,0,0,1.3407529296874998,0,0,0.30576000000000003
3.853968273004284,0,0,1.3359645263671873,0,0,0.7644
3.857066438009497,0,0,1.2641384765625,0,0,0.84084
3.8601772889960557,0,0,1.1707646118164061,0,0,0.84084
3.863291454996215,0,0,1.3048399047851562,0,0,0.53508
3.8664233979943674,0,0,1.2808978881835937,0,0,0.68796
3.8695411369844805,0,0,1.1611878051757811,0,0,0.99372
3.8726550249848515,0,0,1.2114660400390624,0,0,0.91728
3.8760967050038744,0,0,1.2689268798828124,0,0,0.7644
3.87940997898113,0,0,1.4987702392578124,0,0,0.6115200000000001
3.8825358109897934,0,0,1.235408056640625,0,0,0.68796
3.885655438993126,0,0,1.3096283081054687,0,0,0.53508
3.88877490098821,0,0,1.2378022583007813,0,0,0.84084
3.891891510982532,0,0,1.0965443603515623,0,0,0.6115200000000001
3.8950075839820784,0,0,1.0869675537109373,0,0,-8.7906
3.898126546002459,0,0,1.4101847778320311,0,0,0.68796
3.9012734509888105,0,0,1.3287819213867187,0,0,1.07016
3.904441541992128,0,0,1.1348515869140625,0,0,0.6115200000000001
3.9075586149992887,0,0,1.3072341064453123,0,0,0.7644
3.9106725769815966,0,0,1.3168109130859373,0,0,1.911
3.913786964985775,0,0,1.2952630981445312,0,0,0.84084
3.916901685995981,0,0,1.1707646118164061,0,0,0.91728
3.920017035998171,0,0,1.4820108276367188,0,0,0.53508
3.9231294420023914,0,0,1.4939818359375,0,0,1.07016
3.9262672000040766,0,0,1.1180921752929687,0,0,0.68796
3.9293836620054208,0,0,1.3287819213867187,0,0,0.91728
3.9324985870043747,0,0,1.235408056640625,0,0,1.2230400000000001
3.935612900007982,0,0,1.3072341064453123,0,0,0.7644
3.938724973006174,0,0,1.3718775512695311,0,0,1.37592
3.9418390649952926,0,0,1.3814543579101561,0,0,20
3.9449542119982652,0,0,1.235408056640625,0,0,-9.784320000000001
3.9480739510036074,0,0,1.199495031738281,0,0,0.53508
3.9512172089889646,0,0,1.5107412475585937,0,0,0.99372
3.954334651993122,0,0,1.4724340209960938,0,0,0.99372
3.957480390992714,0,0,1.2569558715820313,0,0,0.91728
3.960600111982785,0,0,1.2306196533203124,0,0,0.6115200000000001
3.9637169259949587,0,0,1.3263877197265623,0,0,0.91728
3.9668687579978723,0,0,1.2593500732421874,0,0,0.53508
3.9699849050084595,0,0,1.197100830078125,0,0,0.84084
3.973099976981757,0,0,1.5346832641601562,0,0,0.7644
3.976217772986274,0,0,1.5011644409179687,0,0,0.45864
3.979360714991344,0,0,1.180341418457031,0,0,0.84084
3.982476028992096,0,0,1.2808978881835937,0,0,0.53508
3.985590231983224,0,0,1.2593500732421874,0,0,0.68796
3.9887044339848217,0,0,1.1755530151367186,0,0,0.6115200000000001
3.991819636983564,0,0,1.216254443359375,0,0,1.1465999999999998
3.994933949987171,0,0,1.3910311645507811,0,0,0.68796
3.9980476530035958,0,0,1.3934253662109375,0,0,0.84084
4.00118220699369,0,0,1.199495031738281,0,0,0.6115200000000001
4.004298223997466,0,0,1.5155296508789062,0,0,0.45864
4.007414018997224,0,0,1.3072341064453123,0,0,0.84084
4.010528999991948,0,0,1.3407529296874998,0,0,0.68796
4.0136439059861,0,0,1.1324573852539062,0,0,1.07016
4.016757478995714,0,0,1.3575123413085937,0,0,0.7644
4.019873106997693,0,0,1.5011644409179687,0,0,0.91728
4.022985401999904,0,0,1.1228805786132812,0,0,0.53508
4.026101400988409,0,0,1.4820108276367188,0,0,0.91728
4.029213158995844,0,0,1.4437036010742186,0,0,0.7644
4.034936126001412,0,0,1.120486376953125,0,0,0.84084
4.0380573099828325,0,0,1.2569558715820313,0,0,1.07016
4.041235566983232,0,0,1.2641384765625,0,0,0.91728
4.044358084996929,0,0,1.3335703247070312,0,0,0.45864
4.047546044981573,0,0,1.3311761230468748,0,0,2.14032
4.0506534519954585,0,0,1.3072341064453123,0,0,0.68796
4.053776988002937,0,0,1.0845733520507812,0,0,0.6115200000000001
4.056930966995424,0,0,1.254561669921875,0,0,0.99372
4.060075818008045,0,0,1.2880804931640624,0,0,0.7644
4.063304740993772,0,0,1.3407529296874998,0,0,0.53508
4.066462294984376,0,0,1.1228805786132812,0,0,0.6115200000000001
4.069578330992954,0,0,1.3096283081054687,0,0,0.7644
4.072692032990744,0,0,1.2641384765625,0,0,0.99372
4.075805847009178,0,0,1.2952630981445312,0,0,0.84084
4.078916308993939,0,0,1.1156979736328125,0,0,0.45864
4.0822660269914195,0,0,1.3072341064453123,0,0,0.68796
4.085390377003932,0,0,1.3263877197265623,0,0,-9.09636
4.088513097987743,0,0,1.0821791503906248,0,0,0.6115200000000001
4.09162948600715,0,0,1.467645617675781,0,0,0.99372
4.094740762986476,0,0,1.637633935546875,0,0,0.6115200000000001
4.097856576001504,0,0,1.0821791503906248,0,0,0.68796
4.10099592700135,0,0,1.3048399047851562,0,0,0.3822
4.10411116600153,0,0,1.3742717529296875,0,0,0.53508
4.107224090985255,0,0,1.1228805786132812,0,0,0.7644
4.110335812001722,0,0,1.1109095703125,0,0,0.84084
4.11344847799046,0,0,1.5179238525390624,0,0,0.68796
4.1165626059810165,0,0,1.3527239379882812,0,0,0.84084
4.119674030982424,0,0,1.199495031738281,0,0,0.30576000000000003
4.122779325989541,0,0,1.2976572998046874,0,0,0.84084
4.125917269004276,0,0,1.3646949462890625,0,0,0.45864
4.129032656986965,0,0,1.1420341918945311,0,0,0.53508
4.132144748000428,0,0,1.2952630981445312,0,0,0.99372
4.135617038991768,0,0,1.5298948608398437,0,0,0.91728
4.138759519002633,0,0,1.3551181396484375,0,0,0.6115200000000001
4.141972479003016,0,0,1.3766659545898436,0,0,0.53508
4.145366863987874,0,0,1.4006079711914061,0,0,0.99372
4.148520009999629,0,0,1.6112977172851561,0,0,0.91728
4.151639063988114,0,0,1.1731588134765625,0,0,0.84084
4.1547542859916575,0,0,1.369483349609375,0,0,0.53508
4.157853729004273,0,0,1.2641384765625,0,0,0.91728
4.161515665997285,0,0,1.2880804931640624,0,0,0.91728
4.164636664005229,0,0,1.1133037719726562,0,0,1.07016
4.167789828992682,0,0,1.4772224243164063,0,0,0.84084
4.170905106002465,0,0,1.1109095703125,0,0,0.7644
4.174003660009475,0,0,1.1324573852539062,0,0,0.6115200000000001
4.177117825980531,0,0,1.419761584472656,0,0,0.7644
4.1802352689846884,0,0,1.426944189453125,0,0,0.7644
4.183350990002509,0,0,1.2282254516601563,0,0,0.6115200000000001
4.186465489008697,0,0,1.2761094848632812,0,0,0.6115200000000001
4.1895642839954235,0,0,1.3910311645507811,0,0,1.07016
4.192711560986936,0,0,1.2617442749023438,0,0,0.68796
4.195828781987075,0,0,1.1923124267578125,0,0,0.45864
4.198940002999734,0,0,1.4915876342773438,0,0,0.6115200000000001
4.202067593985703,0,0,1.5155296508789062,0,0,0.91728
4.20518190698931,0,0,1.2018892333984375,0,0,0.68796
4.208297906006919,0,0,1.3742717529296875,0,0,0.45864
4.211412978998851,0,0,1.2808978881835937,0,0,0.84084
4.214525514980778,0,0,1.0917559570312498,0,0,0.45864
4.217638217989588,0,0,1.197100830078125,0,0,0.7644
4.220751493994612,0,0,1.3168109130859373,0,0,0.91728
4.223865345004015,0,0,1.350329736328125,0,0,0.68796
4.226977899001213,0,0,1.3263877197265623,0,0,0.6115200000000001
4.2300890829938,0,0,1.3455413330078123,0,0,0.30576000000000003
4.233202378003625,0,0,1.3527239379882812,0,0,0.68796
4.2363166739814915,0,0,1.1037269653320312,0,0,0.6115200000000001
4.2394586539885495,0,0,1.120486376953125,0,0,0.99372
4.242571726004826,0,0,1.5490484741210937,0,0,0.91728
4.245680966007058,0,0,1.5179238525390624,0,0,0.84084
4.248857408994809,0,0,1.3623007446289062,0,0,0.45864
4.251963037007954,0,0,1.3144167114257812,0,0,0.84084
4.255059535993496,0,0,1.2880804931640624,0,0,0.53508
4.258157998003298,0,0,1.3096283081054687,0,0,0.53508
4.261257607984589,0,0,1.22583125,0,0,0.7644
4.264355514984345,0,0,1.5346832641601562,0,0,0.7644
4.267491606005933,0,0,1.4939818359375,0,0,0.7644
4.270640475006076,0,0,1.20667763671875,0,0,0.84084
4.273760306998156,0,0,1.4053963745117186,0,0,0.84084
4.276877897995291,0,0,1.5203180541992187,0,0,0.68796
4.279995527002029,0,0,1.24498486328125,0,0,0.53508
4.283238153002458,0,0,1.3479355346679687,0,0,0.3822
4.286638038000092,0,0,1.467645617675781,0,0,0.84084
4.289758998987963,0,0,1.0989385620117187,0,0,0.6115200000000001
4.29287549800938,0,0,1.24498486328125,0,0,0.7644
4.295986534008989,0,0,1.4604630126953124,0,0,1.1465999999999998
4.299113069981104,0,0,1.5131354492187499,0,0,0.53508
4.302239604992792,0,0,1.216254443359375,0,0,0.84084
4.305376881995471,0,0,1.3168109130859373,0,0,0.7644
4.308493288001046,0,0,1.2976572998046874,0,0,0.84084
4.311604193993844,0,0,1.218648645019531,0,0,0.68796
4.3146961749880575,0,0,1.2904746948242187,0,0,0.53508
4.31781474800664,0,0,1.4915876342773438,0,0,0.84084
4.320929023990175,0,0,1.3168109130859373,0,0,0.68796
4.324059429985937,0,0,1.1228805786132812,0,0,0.45864
4.327239798993105,0,0,1.235408056640625,0,0,0.6115200000000001
4.330356352991657,0,0,1.465251416015625,0,0,0.91728
4.333470388985006,0,0,1.0893617553710937,0,0,0.3822
4.336932271980913,0,0,1.2689268798828124,0,0,0.68796
4.340065197000513,0,0,1.438915197753906,0,0,0.84084
4.343210380990058,0,0,1.3000515014648437,0,0,0.53508
4.3463262129807845,0,0,1.2042834350585936,0,0,0.84084
4.349426451983163,0,0,1.467645617675781,0,0,0.68796
4.352542913984507,0,0,1.5179238525390624,0,0,0.68796
4.355680949985981,0,0,1.2521674682617188,0,0,0.7644
4.358797836990561,0,0,1.3718775512695311,0,0,-9.40212
4.3619183549890295,0,0,1.2617442749023438,0,0,0.99372
4.365023908991134,0,0,1.0869675537109373,0,0,0.45864
4.368135519005591,0,0,1.120486376953125,0,0,0.45864
4.371285536006326,0,0,1.5275006591796874,0,0,1.07016
4.374399608990643,0,0,1.5729904907226562,0,0,0.7644
4.377514903986594,0,0,1.35990654296875,0,0,0.68796
4.380629143997794,0,0,1.3646949462890625,0,0,2.2167600000000003
4.383744068007218,0,0,1.2473790649414063,0,0,0.99372
4.386854401003802,0,0,1.2808978881835937,0,0,0.68796
4.389967787981732,0,0,1.0773907470703123,0,0,0.53508
4.393080453999573,0,0,1.5011644409179687,0,0,1.2230400000000001
4.396196878980845,0,0,1.4053963745117186,0,0,0.99372
4.399342229007743,0,0,1.1635820068359375,0,0,0.53508
4.402456523996079,0,0,1.2713210815429687,0,0,0.68796
4.405571782001061,0,0,1.2665326782226562,0,0,0.53508
4.408682299981592,0,0,1.2138602416992186,0,0,0.53508
4.411826391005889,0,0,1.2976572998046874,0,0,1.07016
4.414942851988599,0,0,1.2330138549804688,0,0,0.84084
4.418058591982117,0,0,1.2761094848632812,0,0,0.7644
4.421173830982298,0,0,1.3144167114257812,0,0,0.6115200000000001
4.42428897798527,0,0,1.3048399047851562,0,0,0.7644
4.427409124997212,0,0,1.3646949462890625,0,0,0.68796
4.430524919996969,0,0,1.3646949462890625,0,0,0.53508
4.43364175298484,0,0,1.235408056640625,0,0,0.7644
4.436775509995641,0,0,1.3742717529296875,0,0,1.07016
4.43989450900699,0,0,1.1372457885742187,0,0,0.7644
4.443005618988536,0,0,1.1228805786132812,0,0,0.6115200000000001
4.446409633004805,0,0,1.3407529296874998,0,0,0.99372
4.449778073001653,0,0,1.2425906616210938,0,0,0.7644
4.45288153499132,0,0,1.199495031738281,0,0,0.68796
4.456005329993786,0,0,1.3335703247070312,0,0,0.6115200000000001
4.459102199005429,0,0,1.254561669921875,0,0,0.68796
4.462200957990717,0,0,1.2018892333984375,0,0,0.6115200000000001
4.465517935983371,0,0,1.1851298217773436,0,0,0.84084
4.468766951002181,0,0,1.5179238525390624,0,0,0.7644
4.473635725007625,0,0,1.3215993164062498,0,0,0.84084
4.476874685002258,0,0,1.2330138549804688,0,0,0.6115200000000001
4.480134274985176,0,0,1.4796166259765624,0,0,0.91728
4.483470214996487,0,0,1.2521674682617188,0,0,0.68796
4.486738211999182,0,0,1.2306196533203124,0,0,0.99372
4.490032782981871,0,0,1.4867992309570313,0,0,0.84084
4.493253909982741,0,0,1.47482822265625,0,0,0.84084
4.4965409989818,0,0,1.1348515869140625,0,0,0.53508
4.499764812004287,0,0,1.22583125,0,0,0.53508
