Time,AccelX1,AccelY1,AccelZ1,AccelX2,AccelY2,AccelZ2
5.592999514192343e-06,0,0,1.2401964599609374,0,0,0.84084
0.0036627500085160136,0,0,1.35990654296875,0,0,0.7644
0.007243611995363608,0,0,1.2569558715820313,0,0,0.99372
0.01092139899265021,0,0,1.2713210815429687,0,0,-9.01992
0.014503001002594829,0,0,1.1611878051757811,0,0,0.68796
0.018027623009402305,0,0,1.3670891479492187,0,0,1.1465999999999998
0.021548577991779894,0,0,1.1611878051757811,0,0,0.3822
0.02506671898299828,0,0,1.1348515869140625,0,0,0.99372
0.028891688998555765,0,0,1.2521674682617188,0,0,0.84084
0.032436662004329264,0,0,1.3910311645507811,0,0,0.45864
0.03942136999103241,0,0,1.3215993164062498,0,0,0.91728
0.042932529002428055,0,0,1.4820108276367188,0,0,1.2230400000000001
0.04648029900272377,0,0,1.180341418457031,0,0,2.36964
0.04999856898211874,0,0,1.4867992309570313,0,0,1.2230400000000001
0.05352661700453609,0,0,1.4245499877929686,0,0,0.99372
0.0570234979968518,0,0,1.197100830078125,0,0,0.7644
0.060538824007380754,0,0,1.5035586425781249,0,0,0.7644
0.06405881600221619,0,0,1.24498486328125,0,0,0.7644
0.06764517800183967,0,0,1.3168109130859373,0,0,1.60524
0.07118420698679984,0,0,1.5035586425781249,0,0,0.99372
0.07504515800974332,0,0,1.1109095703125,0,0,0.84084
0.07828698799130507,0,0,1.2234370483398436,0,0,1.07016
0.08145513298222795,0,0,1.5107412475585937,0,0,1.07016
0.0845632040000055,0,0,1.1731588134765625,0,0,0.84084
0.08766412799013779,0,0,1.3527239379882812,0,0,0.84084
0.09076705100596882,0,0,1.35990654296875,0,0,0.84084
0.09386190099758096,0,0,1.6112977172851561,0,0,0.3822
0.0969587319996208,0,0,1.1755530151367186,0,0,0.68796
0.10007824798231013,0,0,1.2330138549804688,0,0,0.99372
0.10319043099298142,0,0,1.2210428466796874,0,0,1.07016
0.10639535301015712,0,0,1.209071838378906,0,0,0.99372
0.10951198000111617,0,0,1.2665326782226562,0,0,1.1465999999999998
0.11262699600774795,0,0,1.369483349609375,0,0,0.84084
0.11575651200837456,0,0,1.1037269653320312,0,0,0.68796
0.11887271300656721,0,0,1.2856862915039062,0,0,0.91728
0.12198626599274576,0,0,1.429338391113281,0,0,0.99372
0.12512341199908406,0,0,1.4006079711914061,0,0,0.84084
0.12823633500374854,0,0,1.2665326782226562,0,0,0.91728
0.13156927400268614,0,0,1.2808978881835937,0,0,0.84084
0.13468278999789618,0,0,1.5634136840820312,0,0,0.53508
0.13777671399293467,0,0,1.1875240234375,0,0,0.7644
0.14089593398966826,0,0,1.0893617553710937,0,0,0.3822
0.14401120899128728,0,0,1.2785036865234374,0,0,1.2994800000000002
0.14728444500360638,0,0,1.3479355346679687,0,0,1.07016
0.15052164500229992,0,0,1.2976572998046874,0,0,0.7644
0.15395808199536987,0,0,1.2785036865234374,0,0,0.53508
0.15716050498303957,0,0,1.1731588134765625,0,0,0.7644
0.1602866869943682,0,0,1.3287819213867187,0,0,0.99372
0.16344240700709634,0,0,1.3862427612304686,0,0,0.68796
0.16656210800283588,0,0,1.3215993164062498,0,0,1.2994800000000002
0.16968151199398562,0,0,1.3551181396484375,0,0,0.7644
0.17283708398463205,0,0,1.2880804931640624,0,0,1.07016
0.17595561800408177,0,0,1.3838485595703125,0,0,0.68796
0.17907591199036688,0,0,1.3742717529296875,0,0,0.7644
0.18219187200884335,0,0,1.3383587280273437,0,0,0.15288000000000002
0.18530992500018328,0,0,1.35990654296875,0,0,1.1465999999999998
0.18842784900334664,0,0,1.3096283081054687,0,0,0.99372
0.1915446420025546,0,0,1.3575123413085937,0,0,1.2994800000000002
0.1946628059959039,0,0,1.5083470458984374,0,0,0.84084
0.19786596900667064,0,0,1.1947066284179686,0,0,0.84084
0.2010063930065371,0,0,1.0797849487304687,0,0,0.53508
0.20411335298558697,0,0,1.3479355346679687,0,0,0.84084
0.20722564699826762,0,0,1.4939818359375,0,0,1.2994800000000002
0.21034762600902468,0,0,1.350329736328125,0,0,0.84084
0.21346469700802118,0,0,1.2952630981445312,0,0,0.7644
0.21658437998848967,0,0,1.5298948608398437,0,0,0.99372
0.21970121099730022,0,0,1.2425906616210938,0,0,0.99372
0.22281861599185504,0,0,1.3024457031249999,0,0,0.15288000000000002
0.22593361299368553,0,0,1.3862427612304686,0,0,0.45864
0.2290510919992812,0,0,1.177947216796875,0,0,0.3822
0.23217125600785948,0,0,1.120486376953125,0,0,0.91728
0.2352907349995803,0,0,1.2330138549804688,0,0,0.91728
0.23843573199701495,0,0,1.3311761230468748,0,0,1.2994800000000002
0.2415523219970055,0,0,1.1348515869140625,0,0,1.1465999999999998
0.24466726399259642,0,0,1.3215993164062498,0,0,1.07016
0.2477868539863266,0,0,1.350329736328125,0,0,0.68796
0.25090327800717205,0,0,1.3359645263671873,0,0,0.53508
0.25402325598406605,0,0,1.3551181396484375,0,0,0.3822
0.2571391059900634,0,0,1.2569558715820313,0,0,1.1465999999999998
0.26025347399991006,0,0,1.0869675537109373,0,0,0.7644
0.2634030449844431,0,0,1.1516109985351561,0,0,1.37592
0.2665213200089056,0,0,1.4867992309570313,0,0,0.84084
0.26963520600111224,0,0,1.350329736328125,0,0,1.2230400000000001
0.272787463007262,0,0,1.2832920898437499,0,0,0.91728
0.27591536700492725,0,0,1.2808978881835937,0,0,1.2230400000000001
0.2790330499992706,0,0,1.4173673828125,0,0,0.84084
0.28219704699586146,0,0,1.2138602416992186,0,0,0.45864
0.28529606299707666,0,0,1.2832920898437499,0,0,1.07016
0.2883935050049331,0,0,1.3646949462890625,0,0,1.37592
0.29149548400891945,0,0,1.3646949462890625,0,0,0.91728
0.2946065370051656,0,0,1.1109095703125,0,0,0.6115200000000001
0.297722775983857,0,0,1.4125789794921875,0,0,0.68796
0.30083851399831474,0,0,1.22583125,0,0,0.68796
0.30395693698665127,0,0,1.3766659545898436,0,0,0.53508
0.3070751380000729,0,0,1.3024457031249999,0,0,0.68796
0.3101902839844115,0,0,1.6208745239257811,0,0,1.1465999999999998
0.31330787399201654,0,0,1.2617442749023438,0,0,1.07016
0.31642313100746833,0,0,1.2713210815429687,0,0,0.68796
0.3195271659933496,0,0,1.5155296508789062,0,0,0.91728
0.3226365330046974,0,0,1.1085153686523437,0,0,0.91728
0.32575345700024627,0,0,1.2928688964843749,0,0,0.45864
0.32889317598892376,0,0,1.4508862060546874,0,0,0.7644
0.3320095810049679,0,0,1.1827356201171875,0,0,0.84084
0.33512681900174357,0,0,1.235408056640625,0,0,1.5288
0.33831037100753747,0,0,1.5011644409179687,0,0,0.99372
0.3414304610050749,0,0,1.2976572998046874,0,0,1.1465999999999998
0.34455031098332256,0,0,1.2425906616210938,0,0,0.91728
0.3476667710056063,0,0,1.2976572998046874,0,0,0.91728
0.35078473199973814,0,0,1.3838485595703125,0,0,0.84084
0.3539015249989461,0,0,1.2880804931640624,0,0,0.45864
0.3570175970089622,0,0,1.1348515869140625,0,0,0.84084
0.36014050198718905,0,0,1.3215993164062498,0,0,0.99372
0.3632525180000812,0,0,1.2952630981445312,0,0,0.99372
0.36636808898765594,0,0,1.3263877197265623,0,0,1.2994800000000002
0.3694904570002109,0,0,1.4700398193359374,0,0,0.84084
0.37263713899301365,0,0,1.2306196533203124,0,0,0.7644
0.37575537798693404,0,0,1.3718775512695311,0,0,0.91728
0.37887104199035093,0,0,1.2856862915039062,0,0,0.84084
0.3819835949980188,0,0,1.3958195678710936,0,0,0.68796
0.38509990699822083,0,0,1.3623007446289062,0,0,0.6115200000000001
0.388215107988799,0,0,1.3192051147460937,0,0,0.68796
0.3913313829980325,0,0,1.4867992309570313,0,0,0.07644000000000001
0.39444834398454987,0,0,1.254561669921875,0,0,0.84084
0.3975609710032586,0,0,1.2282254516601563,0,0,0.53508
0.4006758389878087,0,0,1.3455413330078123,0,0,0.6115200000000001
0.4057960330101196,0,0,1.1180921752929687,0,0,1.1465999999999998
0.40892995600006543,0,0,1.2593500732421874,0,0,0.84084
0.4120426209992729,0,0,1.3120225097656248,0,0,0.91728
0.41515526600414887,0,0,1.0654197387695312,0,0,0.84084
0.4183113740000408,0,0,1.369483349609375,0,0,0.15288000000000002
0.4214300199819263,0,0,1.254561669921875,0,0,0.91728
0.4245511839981191,0,0,1.1755530151367186,0,0,0.6115200000000001
0.42765895900083706,0,0,1.2282254516601563,0,0,1.07016
0.43076682699029334,0,0,1.4341267944335936,0,0,1.1465999999999998
0.4338736030040309,0,0,1.5131354492187499,0,0,1.1465999999999998
0.4369827479822561,0,0,1.216254443359375,0,0,0.91728
0.4400936529855244,0,0,1.3958195678710936,0,0,0.7644
0.44320287299342453,0,0,1.4963760375976562,0,0,0.68796
0.44631040800595656,0,0,1.0917559570312498,0,0,0.68796
0.4494278309866786,0,0,1.3718775512695311,0,0,0.15288000000000002
0.45253618000424467,0,0,1.158793603515625,0,0,1.1465999999999998
0.45564282598206773,0,0,1.189918225097656,0,0,0.91728
0.45875074999639764,0,0,1.5107412475585937,0,0,1.5288
0.46195098699536175,0,0,1.4628572143554686,0,0,0.3822
0.4650601510074921,0,0,1.5251064575195312,0,0,0.84084
0.4681665929965675,0,0,1.2593500732421874,0,0,0.91728
0.4712752939958591,0,0,1.4437036010742186,0,0,0.91728
0.4744392169814091,0,0,1.4963760375976562,0,0,0.7644
0.47755491800489835,0,0,1.2497732666015624,0,0,1.07016
0.4806657489971258,0,0,1.3742717529296875,0,0,1.2994800000000002
0.48377537599299103,0,0,1.3623007446289062,0,0,-8.63772
0.4868861149880104,0,0,1.0965443603515623,0,0,0.7644
0.48999205700238235,0,0,1.4939818359375,0,0,1.2994800000000002
0.493099794985028,0,0,1.1085153686523437,0,0,0.68796
0.49620653298916295,0,0,1.1252747802734375,0,0,0.53508
0.49931262398604304,0,0,1.2737152832031249,0,0,0.30576000000000003
0.502422953984933,0,0,1.39821376953125,0,0,0.91728
0.5157691369822714,0,0,1.678335363769531,0,0,0.99372
0.5190410770010203,0,0,1.216254443359375,0,0,0.7644
0.522232351009734,0,0,1.2928688964843749,0,0,0.99372
0.5253246449865401,0,0,1.4532804077148436,0,0,0.84084
0.5284127169870771,0,0,1.2713210815429687,0,0,0.68796
0.5315052520018071,0,0,1.3048399047851562,0,0,2.90472
0.5354071839828975,0,0,1.2401964599609374,0,0,1.07016
0.538540921988897,0,0,1.1348515869140625,0,0,0.84084
0.5416282530059107,0,0,1.2569558715820313,0,0,0.99372
0.5447157319867983,0,0,1.3192051147460937,0,0,0.6115200000000001
0.5478106189984828,0,0,1.3287819213867187,0,0,0.84084
0.5508993199910037,0,0,1.2497732666015624,0,0,0.68796
0.5539839479897637,0,0,1.3814543579101561,0,0,1.07016
0.5570702609838918,0,0,1.3120225097656248,0,0,1.07016
0.5601559990027454,0,0,1.3407529296874998,0,0,0.91728
0.5632447380048689,0,0,1.0845733520507812,0,0,1.07016
0.5663579760002904,0,0,1.5131354492187499,0,0,2.36964
0.5694703249901067,0,0,1.3670891479492187,0,0,0.68796
0.572570137999719,0,0,1.3742717529296875,0,0,0.15288000000000002
0.5757602090016007,0,0,1.24498486328125,0,0,0.68796
0.5786086169828195,0,0,1.0989385620117187,0,0,0.91728
0.5813958589860704,0,0,1.1228805786132812,0,0,1.07016
0.5841847129922826,0,0,1.3407529296874998,0,0,0.7644
0.5869966030004434,0,0,1.6041151123046875,0,0,0.68796
0.5899572880007327,0,0,1.2976572998046874,0,0,0.99372
0.5927555109956302,0,0,1.2401964599609374,0,0,1.75812
0.5955476609815378,0,0,1.4413093994140624,0,0,0.99372
0.5983383480051998,0,0,1.3120225097656248,0,0,1.1465999999999998
0.6011529229872394,0,0,1.13006318359375,0,0,0.7644
0.6039424620103091,0,0,1.2521674682617188,0,0,9.631440000000001
0.6067334819817916,0,0,1.2832920898437499,0,0,0.99372
0.6095187980099581,0,0,1.2114660400390624,0,0,0.45864
0.6123094669892453,0,0,1.1180921752929687,0,0,0.99372
0.6151015979994554,0,0,1.4317325927734375,0,0,0.68796
0.6179676169995219,0,0,1.6112977172851561,0,0,0.84084
0.6207749329914805,0,0,1.0869675537109373,0,0,0.99372
0.6235733419889584,0,0,1.2952630981445312,0,0,1.60524
0.6263959549833089,0,0,1.5370774658203123,0,0,1.2230400000000001
0.6291895860049408,0,0,1.2569558715820313,0,0,0.84084
0.6319847170088906,0,0,1.1851298217773436,0,0,0.6115200000000001
0.6347755699825939,0,0,1.3431471313476562,0,0,0.0
0.6375612939882558,0,0,1.3742717529296875,0,0,1.1465999999999998
0.6403498889994808,0,0,1.2138602416992186,0,0,0.6115200000000001
0.6431397419946734,0,0,1.3311761230468748,0,0,0.91728
0.6459295579988975,0,0,1.4820108276367188,0,0,0.91728
0.6487453370064031,0,0,1.3551181396484375,0,0,1.07016
0.6515353950089775,0,0,1.158793603515625,0,0,0.91728
0.6544267649878748,0,0,1.177947216796875,0,0,1.5288
0.6573137840023264,0,0,1.4413093994140624,0,0,0.7644
0.6601338229957037,0,0,1.3407529296874998,0,0,1.45236
0.6629247319942806,0,0,1.2042834350585936,0,0,0.91728
0.6657115849957336,0,0,1.2282254516601563,0,0,0.6115200000000001
0.6685145309893414,0,0,1.2904746948242187,0,0,0.99372
0.6713061440095771,0,0,1.20667763671875,0,0,0.53508
0.6741233119973913,0,0,1.189918225097656,0,0,0.45864
0.67701016398496,0,0,1.407790576171875,0,0,0.6115200000000001
0.679798850993393,0,0,1.3120225097656248,0,0,0.68796
0.6825914630026091,0,0,1.2210428466796874,0,0,0.84084
0.6853803170088213,0,0,1.3431471313476562,0,0,1.45236
0.6881823549920227,0,0,1.4724340209960938,0,0,0.84084
0.6909703389974311,0,0,1.1659762084960936,0,0,1.07016
0.6937579509976786,0,0,1.1372457885742187,0,0,0.6115200000000001
0.6965453419834375,0,0,1.2282254516601563,0,0,0.7644
0.6993333249993157,0,0,1.0821791503906248,0,0,0.91728
0.7021196970017627,0,0,1.1133037719726562,0,0,0.45864
0.7049368089938071,0,0,1.2665326782226562,0,0,0.45864
0.7077175150043331,0,0,1.4796166259765624,0,0,0.7644
0.7105348859913647,0,0,1.2904746948242187,0,0,0.68796
0.7133221469994169,0,0,1.1324573852539062,0,0,0.68796
0.7161108159925789,0,0,1.3000515014648437,0,0,1.37592
0.7189270950038917,0,0,1.3311761230468748,0,0,0.68796
0.7217118190019391,0,0,1.4604630126953124,0,0,1.2994800000000002
0.7245002829877194,0,0,1.3144167114257812,0,0,0.91728
0.7272877109935507,0,0,1.3359645263671873,0,0,0.53508
0.7300743240048178,0,0,1.2976572998046874,0,0,0.99372
0.7328631219861563,0,0,1.1516109985351561,0,0,0.6115200000000001
0.7356540120090358,0,0,1.2713210815429687,0,0,0.68796
0.7384607359999791,0,0,1.3455413330078123,0,0,0.84084
0.7412479409831576,0,0,1.4963760375976562,0,0,0.6115200000000001
0.7440357570012566,0,0,1.3479355346679687,0,0,0.84084
0.7468397220072802,0,0,1.1659762084960936,0,0,1.45236
0.7496372599853203,0,0,1.4915876342773438,0,0,1.2230400000000001
0.7524264469975606,0,0,1.4341267944335936,0,0,0.99372
0.7552505229832605,0,0,1.2042834350585936,0,0,0.91728
0.75803774598171,0,0,1.2330138549804688,0,0,0.6115200000000001
0.7608256000094116,0,0,1.2737152832031249,0,0,0.99372
0.7636127309815492,0,0,1.0797849487304687,0,0,0.68796
0.7664010479929857,0,0,1.1875240234375,0,0,0.68796
0.7691862719948404,0,0,1.43652099609375,0,0,0.91728
0.7719751810072921,0,0,1.3910311645507811,0,0,0.91728
0.7748549960087985,0,0,1.3431471313476562,0,0,0.7644
0.7777119780075736,0,0,1.2785036865234374,0,0,0.3822
0.7808181610016618,0,0,1.2665326782226562,0,0,0.7644
0.7839220660098363,0,0,1.0989385620117187,0,0,1.1465999999999998
0.787792349990923,0,0,1.2928688964843749,0,0,0.84084
0.7909347919921856,0,0,1.5227122558593749,0,0,0.7644
0.7940364189853426,0,0,1.209071838378906,0,0,0.91728
0.7971468800096773,0,0,1.2282254516601563,0,0,0.3822
0.8002524139883462,0,0,1.5227122558593749,0,0,0.68796
0.8033875410037581,0,0,1.5131354492187499,0,0,0.99372
0.8064944089855999,0,0,1.3718775512695311,0,0,0.53508
0.8095957589976024,0,0,1.3072341064453123,0,0,0.99372
0.8127004230045713,0,0,1.35990654296875,0,0,0.84084
0.8158048650075216,0,0,1.139639990234375,0,0,0.91728
0.8189112879917957,0,0,1.3455413330078123,0,0,0.7644
0.822014453005977,0,0,1.22583125,0,0,0.6115200000000001
0.8251193210016936,0,0,1.2330138549804688,0,0,0.0
0.828224725992186,0,0,1.5083470458984374,0,0,0.68796
0.8313323339971248,0,0,1.4221557861328125,0,0,1.07016
0.83443931399961,0,0,1.4508862060546874,0,0,0.7644
0.8375431080057751,0,0,1.2761094848632812,0,0,0.99372
0.8406491419882514,0,0,1.3527239379882812,0,0,1.1465999999999998
0.8437568249937613,0,0,1.4053963745117186,0,0,0.7644
0.8468623969820328,0,0,1.1444283935546875,0,0,0.99372
0.8499637829954736,0,0,1.4125789794921875,0,0,0.30576000000000003
0.8530677809903864,0,0,1.35990654296875,0,0,1.2994800000000002
0.8561730929941405,0,0,1.0917559570312498,0,0,0.53508
0.8593060910061467,0,0,1.3575123413085937,0,0,0.84084
0.8624136619910132,0,0,1.3000515014648437,0,0,1.37592
0.8655168819823302,0,0,1.4867992309570313,0,0,1.45236
0.8686240649840329,0,0,1.2473790649414063,0,0,0.3822
0.8721540200058371,0,0,1.2880804931640624,0,0,0.7644
0.8753104239876848,0,0,1.4820108276367188,0,0,1.2230400000000001
0.8784519769833423,0,0,1.4245499877929686,0,0,1.98744
0.8815544009848963,0,0,2.059013427734375,0,0,2.14032
0.8846565459971316,0,0,2.786850732421875,0,0,2.2167600000000003
0.8877761740004644,0,0,1.908178723144531,0,0,0.99372
0.8908956339873839,0,0,1.6041151123046875,0,0,-8.33196
0.8940145939996,0,0,1.62805712890625,0,0,1.83456
0.897131924983114,0,0,1.4508862060546874,0,0,1.45236
0.9002490339917131,0,0,1.9488801513671874,0,0,0.99372
0.9033799750031903,0,0,2.061407629394531,0,0,1.2230400000000001
0.9067385249945801,0,0,1.7453730102539062,0,0,1.2994800000000002
0.909866300993599,0,0,1.659181750488281,0,0,0.99372
0.912984927999787,0,0,1.7094599853515624,0,0,1.2230400000000001
0.916100906993961,0,0,1.9656395629882812,0,0,1.37592
0.9192150890012272,0,0,2.1260510742187497,0,0,1.37592
0.9225557690078858,0,0,1.7980454467773437,0,0,1.2230400000000001
0.9256872109835967,0,0,2.080561242675781,0,0,1.5288
0.9288065049913712,0,0,1.3048399047851562,0,0,0.84084
0.9319255389855243,0,0,1.8267758666992187,0,0,1.2994800000000002
0.9350444809824694,0,0,2.070984436035156,0,0,1.1465999999999998
0.9381884599861223,0,0,1.4221557861328125,0,0,1.07016
0.9413075129850768,0,0,1.8459294799804686,0,0,0.68796
0.9444239359872881,0,0,2.221819140625,0,0,1.1465999999999998
0.9475398779904936,0,0,1.946485949707031,0,0,0.84084
0.950656615983462,0,0,1.9297265380859374,0,0,0.84084
0.9537711140001193,0,0,1.6065093139648436,0,0,1.1465999999999998
0.95688875898486,0,0,1.2665326782226562,0,0,1.2994800000000002
0.9600091830070596,0,0,2.221819140625,0,0,2.2931999999999997
0.963127438997617,0,0,1.898601916503906,0,0,1.2230400000000001
0.9662426589929964,0,0,1.7669208251953124,0,0,1.5288
0.9697138000046834,0,0,1.8722656982421875,0,0,1.5288
0.9728344460017979,0,0,1.446097802734375,0,0,1.1465999999999998
0.975987295008963,0,0,1.9680337646484374,0,0,1.68168
0.9791071809886489,0,0,2.5737667846679684,0,0,1.83456
0.9822225300013088,0,0,1.2521674682617188,0,0,0.7644
0.9853393610101193,0,0,1.687912170410156,0,0,1.1465999999999998
0.9884574509924278,0,0,1.6472107421875,0,0,1.2994800000000002
0.9915732819936238,0,0,1.2282254516601563,0,0,2.14032
0.9946907609992195,0,0,2.099714855957031,0,0,1.75812
0.9978033879888244,0,0,1.6160861206054686,0,0,1.5288
1.00092877401039,0,0,1.7118541870117185,0,0,2.6754
1.004158417985309,0,0,1.0654197387695312,0,0,1.68168
1.0074160439835396,0,0,1.6927005737304686,0,0,1.5288
1.0116092310054228,0,0,2.518700146484375,0,0,1.60524
1.0148888929979876,0,0,1.5586252807617187,0,0,2.06388
1.0180937789846212,0,0,2.1308394775390624,0,0,2.06388
1.021381680999184,0,0,0.9720458740234375,0,0,0.53508
1.0246217329986393,0,0,2.118868469238281,0,0,2.2931999999999997
1.0277857669861987,0,0,2.7916391357421872,0,0,2.75184
1.0310124479874503,0,0,1.429338391113281,0,0,-9.09636
1.0342027779843193,0,0,1.1923124267578125,0,0,-0.53508
1.0373334419855382,0,0,1.9009961181640624,0,0,3.0576
1.0404724199906923,0,0,1.4053963745117186,0,0,1.07016
1.043591491994448,0,0,0.7924807495117187,0,0,-0.22932
1.0467393409926444,0,0,3.258508459472656,0,0,3.7455600000000002
1.049932041001739,0,0,1.687912170410156,0,0,-0.30576000000000003
1.0530600379861426,0,0,-0.0526724365234375,0,0,0.0
1.056224793981528,0,0,3.5146880371093747,0,0,3.21048
1.0619730360049289,0,0,0.023942016601562498,0,0,0.91728
1.0651310149987694,0,0,3.9815573608398434,0,0,2.36964
1.0683374560030643,0,0,2.1619640991210938,0,0,-9.32568
1.0714670270099305,0,0,0.7278373046875,0,0,0.7644
1.0747132079850417,0,0,2.6048914062499997,0,0,0.22932
1.078044609981589,0,0,-0.36631285400390623,0,0,0.15288000000000002
1.0813155689975247,0,0,1.1372457885742187,0,0,1.2230400000000001
1.0828020680055488,0,0,2.597708801269531,0,0,1.2230400000000001
1.0843333640077617,0,0,1.9680337646484374,0,0,0.84084
1.0858778249821626,0,0,0.7278373046875,0,0,1.2230400000000001
1.0873233629972674,0,0,0.2920926025390625,0,0,0.30576000000000003
1.088759788981406,0,0,2.1404162841796874,0,0,0.07644000000000001
1.0902524740085937,0,0,2.8467057739257813,0,0,1.68168
1.0916947329824325,0,0,2.446874096679687,0,0,1.1465999999999998
1.0931341410032474,0,0,1.4963760375976562,0,0,1.1465999999999998
1.09460080700228,0,0,-1.120486376953125,0,0,-1.07016
1.0960452889848966,0,0,-0.6464344482421874,0,0,0.15288000000000002
1.0974823260039557,0,0,2.29843359375,0,0,1.60524
1.098976011009654,0,0,3.1842882080078123,0,0,1.45236
1.1004446219885722,0,0,1.8124106567382812,0,0,1.1465999999999998
1.1019169919891283,0,0,0.5363011718749999,0,0,0.45864
1.1033863069897052,0,0,-0.6655880615234374,0,0,-0.15288000000000002
1.1047746969852597,0,0,1.4437036010742186,0,0,0.6115200000000001
1.1061663459986448,0,0,2.578555187988281,0,0,1.5288
1.1075472729862668,0,0,2.5761609863281247,0,0,1.68168
1.108926885004621,0,0,1.8626888916015625,0,0,1.60524
1.1103099409956485,0,0,-0.45010991210937495,0,0,-0.68796
1.11169116399833,0,0,-0.430956298828125,0,0,0.30576000000000003
1.113070664985571,0,0,1.4796166259765624,0,0,0.7644
1.1144515000050887,0,0,2.185906115722656,0,0,0.84084
1.1158309270103928,0,0,1.8171990600585937,0,0,0.7644
1.117210038995836,0,0,1.4796166259765624,0,0,0.99372
1.118589151010383,0,0,-0.22505495605468748,0,0,-0.30576000000000003
1.1199695960094687,0,0,0.05027823486328125,0,0,0.3822
1.1213486900087446,0,0,2.408566870117187,0,0,2.36964
1.122730709001189,0,0,3.019088293457031,0,0,1.60524
1.1241103769862093,0,0,2.43250888671875,0,0,0.99372
1.1254890449927188,0,0,0.8882488159179687,0,0,1.37592
1.1268692869925871,0,0,-0.11252747802734374,0,0,-0.68796
1.1282495470077265,0,0,0.2561795776367187,0,0,0.07644000000000001
1.1296280109963845,0,0,2.3032219970703123,0,0,1.911
1.1310218079888728,0,0,2.4444798950195312,0,0,20
1.1324022900080308,0,0,1.0797849487304687,0,0,0.3822
1.1337816799932625,0,0,0.33758243408203126,0,0,0.22932
1.1351654960017186,0,0,-0.7254431030273437,0,0,-0.68796
1.1365470160089899,0,0,1.2856862915039062,0,0,0.53508
1.1379264800052624,0,0,2.080561242675781,0,0,1.68168
1.1393071659840643,0,0,2.0566192260742184,0,0,2.14032
1.1406858149857726,0,0,1.7621324218749999,0,0,0.7644
1.1420648339844774,0,0,0.8978256225585937,0,0,0.30576000000000003
1.143457149999449,0,0,0.3064578125,0,0,0.22932
1.1448355769971386,0,0,1.7405846069335937,0,0,0.0
1.1462154109904077,0,0,2.3127988037109373,0,0,1.60524
1.147594301000936,0,0,2.540247961425781,0,0,0.91728
1.1489727470034268,0,0,1.9033903198242186,0,0,1.45236
1.1503535069932695,0,0,-0.2920926025390625,0,0,0.0
1.1517335079843178,0,0,-0.5339069702148437,0,0,0.0
1.1531149160000496,0,0,0.6344634399414062,0,0,0.6115200000000001
1.1545470829878468,0,0,2.080561242675781,0,0,0.6115200000000001
1.1559943979955278,0,0,1.8435352783203125,0,0,0.91728
1.1573840100027155,0,0,1.2737152832031249,0,0,1.98744
1.158773344999645,0,0,0.6081272216796875,0,0,0.22932
1.1601608080090955,0,0,0.19632453613281248,0,0,0.84084
1.161548086995026,0,0,1.879448303222656,0,0,2.06388
1.162943292001728,0,0,2.2026655273437497,0,0,1.45236
1.1643306440091692,0,0,1.9704279663085937,0,0,0.3822
1.1657175709842704,0,0,1.4796166259765624,0,0,1.60524
1.1670984060037881,0,0,0.6200982299804687,0,0,-0.22932
1.1684778509952594,0,0,1.4628572143554686,0,0,0.0
1.169858592998935,0,0,1.5059528442382812,0,0,20
1.1712485569878481,0,0,1.4987702392578124,0,0,0.68796
1.1726360199972987,0,0,1.2521674682617188,0,0,0.53508
1.174022966006305,0,0,0.7302315063476562,0,0,0.0
1.175410206982633,0,0,0.047884033203124995,0,0,-9.707880000000001
1.176797670981614,0,0,1.6112977172851561,0,0,1.5288
1.1782016530050896,0,0,2.501940734863281,0,0,1.75812
1.179589079983998,0,0,2.085349645996094,0,0,1.5288
1.1809763399942312,0,0,1.6065093139648436,0,0,2.2167600000000003
1.182361415005289,0,0,0.2561795776367187,0,0,-0.22932
1.1837403980025556,0,0,0.30885201416015623,0,0,0.99372
1.185118972993223,0,0,2.2744915771484373,0,0,1.37592
1.1865044370060787,0,0,2.0877438476562498,0,0,0.91728
1.1878911599924322,0,0,1.4413093994140624,0,0,0.15288000000000002
1.189277734985808,0,0,0.7565677246093749,0,0,0.91728
1.190681809996022,0,0,0.0909796630859375,0,0,-0.91728
1.1922344570048153,0,0,1.8219874633789062,0,0,9.24924
1.1936946979840286,0,0,1.8267758666992187,0,0,1.45236
1.1950841799844056,0,0,1.9225439331054686,0,0,0.99372
1.1964718099916354,0,0,0.7972691528320313,0,0,0.53508
1.1979451809893362,0,0,0.4836287353515625,0,0,0.99372
1.1993382560031023,0,0,0.5506663818359374,0,0,0.45864
1.2007262929982971,0,0,2.231395947265625,0,0,1.1465999999999998
1.2021202390023973,0,0,2.4947581298828125,0,0,1.98744
1.2035007209924515,0,0,1.4963760375976562,0,0,0.91728
1.2048803149955347,0,0,0.8355763793945312,0,0,0.15288000000000002
1.2062788709881715,0,0,0.6392518432617187,0,0,-0.53508
1.2076684089843184,0,0,0.8882488159179687,0,0,1.2230400000000001
1.2090646509896033,0,0,2.3032219970703123,0,0,1.83456
1.2104526890034322,0,0,1.9105729248046874,0,0,1.75812
1.2118398929887917,0,0,1.0654197387695312,0,0,0.68796
1.2132278379867785,0,0,0.22505495605468748,0,0,0.45864
1.2146161909913644,0,0,-0.17477672119140625,0,0,-0.99372
1.2160047290090006,0,0,0.6584054565429687,0,0,0.7644
1.2173915820021648,0,0,2.4684219116210935,0,0,2.2931999999999997
1.2187740269873757,0,0,2.849099975585937,0,0,1.45236
1.2201533429906704,0,0,1.0821791503906248,0,0,0.53508
1.2215319740062114,0,0,0.6536170532226562,0,0,0.84084
1.2229188269993756,0,0,-0.3950432739257812,0,0,-1.1465999999999998
1.2243067899835296,0,0,1.4820108276367188,0,0,0.30576000000000003
1.225693587999558,0,0,2.0542250244140625,0,0,1.5288
1.2270842739962973,0,0,3.153163586425781,0,0,1.1465999999999998
1.228469014982693,0,0,1.4149731811523436,0,0,0.91728
1.2298532020067796,0,0,0.8786720092773437,0,0,1.2230400000000001
1.2312540730054025,0,0,-0.10773907470703124,0,0,0.30576000000000003
1.232642240007408,0,0,1.608903515625,0,0,1.60524
1.2340296490001492,0,0,2.2768857788085937,0,0,1.911
1.2354110009910073,0,0,1.6711527587890624,0,0,1.1465999999999998
1.2367897619842552,0,0,1.2689268798828124,0,0,0.0
1.238189039984718,0,0,0.17956512451171874,0,0,-0.45864
1.2396045409841463,0,0,0.6464344482421874,0,0,1.1465999999999998
1.2409950599831063,0,0,2.114080065917969,0,0,1.2994800000000002
1.2423840049887076,0,0,2.24097275390625,0,0,0.6115200000000001
1.2437713769904803,0,0,1.3575123413085937,0,0,0.0
1.245157951983856,0,0,0.30885201416015623,0,0,0.0
1.2465454159828369,0,0,0.0526724365234375,0,0,-0.3822
1.2479332129878458,0,0,0.5698199951171875,0,0,0.22932
1.2493202509940602,0,0,2.887407202148437,0,0,2.2931999999999997
1.250703491998138,0,0,3.1794998046874996,0,0,1.98744
1.252082771010464,0,0,0.842758984375,0,0,1.2230400000000001
1.2534610870061442,0,0,0.02633621826171875,0,0,1.75812
1.2548480510013178,0,0,-0.7637503295898437,0,0,-0.7644
1.256237292982405,0,0,1.8124106567382812,0,0,0.53508
1.2576242559880484,0,0,3.0430303100585934,0,0,2.52252
1.2590117570071016,0,0,3.4524387939453125,0,0,2.2167600000000003
1.260399739985587,0,0,1.2569558715820313,0,0,1.45236
1.2617866479849909,0,0,0.35673604736328124,0,0,-8.943480000000001
1.2631744270038325,0,0,-0.5961562133789062,0,0,-0.3822
1.264562186988769,0,0,1.6328455322265625,0,0,-0.84084
1.2659500770096201,0,0,2.6862942626953124,0,0,2.06388
1.2673367070092354,0,0,2.7581203125,0,0,1.68168
1.2687159859924577,0,0,1.6208745239257811,0,0,1.1465999999999998
1.2700947280100081,0,0,-0.9720458740234375,0,0,0.07644000000000001
1.2714835430087987,0,0,-0.7422025146484375,0,0,0.15288000000000002
1.2728708219947293,0,0,0.9241618408203125,0,0,0.99372
1.274257323006168,0,0,3.3207577026367185,0,0,1.98744
1.275640804989962,0,0,2.3511060302734372,0,0,0.99372
1.277112935000332,0,0,0.9696516723632812,0,0,0.84084
1.2784955099923536,0,0,-0.277727392578125,0,0,-0.91728
1.2798781039891765,0,0,-0.17956512451171874,0,0,0.53508
1.2812584379862528,0,0,2.166752502441406,0,0,1.1465999999999998
1.2826388649991713,0,0,2.96881005859375,0,0,1.68168
1.2840181619976647,0,0,1.24498486328125,0,0,0.91728
1.285417311009951,0,0,0.8355763793945312,0,0,0.45864
1.286801274982281,0,0,-0.22026655273437498,0,0,0.0
1.2881818499881774,0,0,1.6256629272460936,0,0,0.0
1.289560443983646,0,0,2.422932080078125,0,0,2.14032
1.2909412590088323,0,0,3.3255461059570313,0,0,1.60524
1.2923202420060989,0,0,1.5897499023437498,0,0,1.37592
1.2936989839945454,0,0,0.4572925170898437,0,0,0.45864
1.2950811139889993,0,0,-0.9840168823242187,0,0,-0.84084
1.2964615229866467,0,0,0.9864110839843749,0,0,0.0
1.297840337996604,0,0,2.2194249389648437,0,0,1.98744
1.2992284880019724,0,0,2.9951462768554684,0,0,2.14032
1.3006149700086098,0,0,1.8914193115234375,0,0,2.4460800000000003
1.3020005259895697,0,0,-0.9361328491210937,0,0,1.5288
1.3033875830005854,0,0,-1.3287819213867187,0,0,0.3822
1.3047739730100147,0,0,0.37828386230468747,0,0,0.0
1.3061604920076206,0,0,3.7325603881835936,0,0,0.99372
1.3075467890012078,0,0,3.1411925781249996,0,0,1.2230400000000001
1.3089324010070413,0,0,2.6288334228515624,0,0,2.14032
1.3103187170054298,0,0,-0.46686932373046874,0,0,-0.15288000000000002
1.311704774008831,0,0,-0.8978256225585937,0,0,0.0
1.3130914229841437,0,0,1.37906015625,0,0,0.15288000000000002
1.314478052983759,0,0,2.5378537597656248,0,0,0.30576000000000003
1.3158638129825704,0,0,2.104503259277344,0,0,1.5288
1.3172505740076303,0,0,1.3383587280273437,0,0,1.60524
1.3186371299962047,0,0,0.05985504150390625,0,0,-0.6115200000000001
1.3200258160068188,0,0,1.0917559570312498,0,0,0.0
1.3214116129965987,0,0,1.9297265380859374,0,0,2.75184
1.3227974849869497,0,0,2.499546533203125,0,0,1.5288
1.3241833559877705,0,0,1.6256629272460936,0,0,1.2230400000000001
1.3255693749815691,0,0,0.8259995727539062,0,0,1.60524
1.3269546359952074,0,0,0.1484405029296875,0,0,-0.6115200000000001
1.3283411919837818,0,0,1.419761584472656,0,0,9.47856
1.329727340984391,0,0,2.5139117431640625,0,0,2.4460800000000003
1.3311898600077257,0,0,1.915361328125,0,0,1.45236
1.3325775089906529,0,0,1.5514426757812498,0,0,0.84084
1.333965231984621,0,0,-0.4572925170898437,0,0,0.0
1.3353532509936485,0,0,-0.6200982299804687,0,0,-0.53508
1.3367417709960137,0,0,0.7445967163085937,0,0,-0.84084
1.3381426419946365,0,0,2.7820623291015623,0,0,1.1465999999999998
1.3395304569858126,0,0,2.3630770385742186,0,0,1.98744
1.340916772984201,0,0,1.7166425903320313,0,0,2.2167600000000003
1.3423046259849798,0,0,0.32561142578124996,0,0,1.2230400000000001
1.3436904049885925,0,0,-0.6943184814453125,0,0,0.0
1.3450796830002218,0,0,1.1659762084960936,0,0,0.3822
1.3464673139969818,0,0,2.578555187988281,0,0,1.1465999999999998
1.3478596659842879,0,0,2.6982652709960937,0,0,1.5288
1.3492469080083538,0,0,2.2481553588867187,0,0,1.83456
1.3506357049918734,0,0,1.024718310546875,0,0,0.0
1.352021077007521,0,0,0.1484405029296875,0,0,-0.15288000000000002
1.3534082630067132,0,0,0.565031591796875,0,0,1.2230400000000001
1.3547952270018868,0,0,1.22583125,0,0,0.30576000000000003
1.3561819870083127,0,0,1.5466542724609373,0,0,0.7644
1.3575686539988965,0,0,1.3048399047851562,0,0,0.6115200000000001
1.3589557849918492,0,0,0.5458779785156249,0,0,0.45864
1.3603425640030764,0,0,1.8746598999023436,0,0,1.5288
1.3617293419956695,0,0,2.7198130859375,0,0,2.82828
1.3631168249994516,0,0,1.3168109130859373,0,0,1.75812
1.3645077139954083,0,0,0.8092401611328125,0,0,0.3822
1.3658943629998248,0,0,0.19393033447265623,0,0,0.22932
1.3672810870048124,0,0,0.26815058593749996,0,0,9.555
1.368667809991166,0,0,1.8459294799804686,0,0,0.53508
1.3700546250038315,0,0,3.4763808105468748,0,0,1.68168
1.371441588999005,0,0,2.5761609863281247,0,0,1.98744
1.3728288119891658,0,0,1.13006318359375,0,0,0.84084
1.3742171099875122,0,0,-0.5985504150390625,0,0,-0.22932
1.3756054069963284,0,0,-0.8595183959960937,0,0,0.15288000000000002
1.3769931859860662,0,0,1.8148048583984373,0,0,-0.22932
1.378381463990081,0,0,2.85388837890625,0,0,0.6115200000000001
1.3797677609836683,0,0,2.4875755249023435,0,0,1.98744
1.3811545589996967,0,0,1.8722656982421875,0,0,1.98744
1.3825418000051286,0,0,0.70868369140625,0,0,0.22932
1.3839277270017192,0,0,0.35673604736328124,0,0,0.0
1.385314876009943,0,0,1.4939818359375,0,0,0.68796
1.386701562005328,0,0,2.403778466796875,0,0,0.91728
1.3880883039964829,0,0,1.8339584716796873,0,0,1.5288
1.389475156989647,0,0,1.4341267944335936,0,0,1.68168
1.3908618610003032,0,0,0.354341845703125,0,0,-0.22932
1.392248844000278,0,0,1.1755530151367186,0,0,0.22932
1.393636010994669,0,0,1.429338391113281,0,0,1.911
1.3950226419838145,0,0,1.35990654296875,0,0,0.84084
1.3964090869994834,0,0,0.967257470703125,0,0,0.68796
1.3977960879856255,0,0,1.0582371337890624,0,0,1.07016
1.3991879590030294,0,0,0.8379705810546875,0,0,0.45864
1.400574441999197,0,0,1.8052280517578123,0,0,0.99372
1.4019610539835412,0,0,2.4660277099609376,0,0,2.36964
1.4033455919998232,0,0,1.1659762084960936,0,0,2.6754
1.4047374629881233,0,0,0.47884033203125,0,0,0.0
1.4061804259836208,0,0,0.5410895751953124,0,0,-0.15288000000000002
1.4076695179974195,0,0,0.40462008056640625,0,0,0.6115200000000001
1.409060148987919,0,0,2.5857377929687497,0,0,0.91728
1.4104516500083264,0,0,2.7724855224609373,0,0,-8.0262
1.411836613988271,0,0,0.9840168823242187,0,0,1.2230400000000001
1.4132242439955007,0,0,-0.06943184814453125,0,0,1.07016
1.4146148379950318,0,0,-0.7661445312499999,0,0,-0.68796
1.4160024870070629,0,0,1.4221557861328125,0,0,0.0
1.417390616988996,0,0,2.9448680419921875,0,0,1.911
1.41877322900109,0,0,3.0597897216796874,0,0,1.98744
1.4201520450005773,0,0,1.848323681640625,0,0,1.911
1.4215309720020741,0,0,0.45010991210937495,0,0,2.2167600000000003
1.4229184169962537,0,0,-0.7900865478515624,0,0,-0.53508
1.4243061220040545,0,0,0.6440402465820312,0,0,0.0
1.4256919010076672,0,0,2.023100402832031,0,0,1.5288
1.427077512984397,0,0,2.5617957763671875,0,0,1.2994800000000002
1.4284613659838215,0,0,1.659181750488281,0,0,0.0
1.429846996004926,0,0,0.3184288208007812,0,0,0.30576000000000003
1.4312461449881084,0,0,-0.1867477294921875,0,0,0.3822
1.4326351459894795,0,0,0.9409212524414062,0,0,1.2230400000000001
1.4340226099884603,0,0,2.612074011230469,0,0,1.45236
1.4354041479818989,0,0,2.138022082519531,0,0,1.45236
1.436783185985405,0,0,0.7924807495117187,0,0,0.53508
1.4381882419984322,0,0,-0.00239420166015625,0,0,0.22932
1.4395778540056199,0,0,0.2705447875976562,0,0,1.60524
1.4409641700040083,0,0,3.1747114013671873,0,0,1.98744
1.4423530409985688,0,0,3.0526071166992184,0,0,1.2994800000000002
1.443738542002393,0,0,0.7541735229492187,0,0,1.5288
1.4451248210098129,0,0,-0.277727392578125,0,0,0.30576000000000003
1.4465117660001852,0,0,-0.5051765502929687,0,0,-0.68796
1.4478983409935609,0,0,1.35990654296875,0,0,0.45864
1.44928454598994,0,0,2.6719290527343746,0,0,1.45236
1.4506714720046148,0,0,2.9496564453125,0,0,0.99372
1.4520566590072121,0,0,1.1563994018554686,0,0,0.99372
1.4534424000012223,0,0,0.26815058593749996,0,0,1.45236
1.4548284010088537,0,0,-0.7015010864257812,0,0,-1.1465999999999998
1.4563449929992203,0,0,1.2593500732421874,0,0,0.0
1.4577373460051604,0,0,3.749319799804687,0,0,2.4460800000000003
1.4591252359969076,0,0,2.987963671875,0,0,1.68168
1.46051260700915,0,0,1.8818425048828125,0,0,0.53508
1.4619013670017011,0,0,-0.48123453369140623,0,0,0.7644
1.4632903120073024,0,0,-1.0726023437499999,0,0,-0.30576000000000003
1.4646786089870147,0,0,0.9959878906249999,0,0,9.631440000000001
1.4660662210080773,0,0,3.1196447631835937,0,0,1.45236
1.4674473339982796,0,0,2.70065947265625,0,0,1.75812
1.468826056981925,0,0,0.7876923461914062,0,0,0.68796
1.4702177429862786,0,0,-0.3232172241210937,0,0,0.07644000000000001
1.471605503000319,0,0,-0.679953271484375,0,0,0.45864
1.4729922819824424,0,0,1.675941162109375,0,0,0.6115200000000001
1.4743784489983227,0,0,2.916137622070312,0,0,1.45236
1.4757615980051924,0,0,1.8076222534179687,0,0,1.2230400000000001
1.4773082269821316,0,0,1.2689268798828124,0,0,1.45236
1.4786945979867596,0,0,-0.32561142578124996,0,0,-0.30576000000000003
1.4800752289884258,0,0,0.7517793212890624,0,0,0.30576000000000003
1.4814536930061877,0,0,1.7166425903320313,0,0,1.45236
1.4828331939934287,0,0,2.3726538452148436,0,0,0.84084
1.4842118989909068,0,0,1.68551796875,0,0,0.53508
1.485777619003784,0,0,0.38786066894531246,0,0,1.5288
1.4871598059835378,0,0,-0.4165910888671875,0,0,0.15288000000000002
1.4885399919876363,0,0,0.5698199951171875,0,0,0.6115200000000001
1.4899185670074075,0,0,2.858676782226562,0,0,2.06388
1.4913053269847296,0,0,2.6408044311523438,0,0,2.06388
1.4926839580002706,0,0,1.0390835205078124,0,0,0.91728
1.4940628290059976,0,0,-0.603338818359375,0,0,0.0
1.4954431079968344,0,0,-1.0821791503906248,0,0,-0.30576000000000003
1.4968233869876713,0,0,1.7788918334960937,0,0,0.7644
1.4982048319943715,0,0,3.019088293457031,0,0,1.45236
1.4995915739855263,0,0,3.1172505615234374,0,0,1.5288
1.500977500982117,0,0,1.5682020874023437,0,0,1.911
1.5023639829887543,0,0,0.11731588134765625,0,0,-1.5288
1.5037510579859372,0,0,-0.5123591552734374,0,0,-0.6115200000000001
1.5051386510021985,0,0,2.1930887207031247,0,0,0.7644
1.506525448989123,0,0,3.8690298828125,0,0,2.2167600000000003
1.5106434329936747,0,0,-2.0829554443359375,0,0,-1.1465999999999998
1.5121988400060218,0,0,-0.8212111694335937,0,0,-0.7644
1.5135815069952514,0,0,0.9121908325195311,0,0,0.7644
1.5149634899862576,0,0,2.8945898071289062,0,0,0.99372
1.5163432499975897,0,0,2.7629087158203123,0,0,1.5288
1.517721898999298,0,0,1.0103531005859374,0,0,3.13404
1.5191067149862647,0,0,-0.7685387329101562,0,0,-0.30576000000000003
1.5204876420029905,0,0,-0.40940848388671874,0,0,0.0
1.5218671800103039,0,0,2.5641899780273434,0,0,1.60524
1.523268068995094,0,0,2.9568390502929685,0,0,1.60524
1.524647737009218,0,0,1.7190367919921874,0,0,0.91728
1.5260268859856296,0,0,0.97683427734375,0,0,0.3822
1.5274129429890309,0,0,-0.36391865234375,0,0,-0.22932
1.5287993880046997,0,0,1.6639701538085936,0,0,0.0
1.5302884620032273,0,0,2.583343591308594,0,0,0.6115200000000001
1.5316783149901312,0,0,1.6160861206054686,0,0,1.37592
1.5330662970081903,0,0,1.2425906616210938,0,0,1.2230400000000001
1.5344547239947133,0,0,0.38786066894531246,0,0,-1.2994800000000002
1.535841390985297,0,0,0.6200982299804687,0,0,0.84084
1.537228002998745,0,0,2.138022082519531,0,0,1.45236
1.5386131889827084,0,0,2.916137622070312,0,0,1.5288
1.5399915610032622,0,0,2.1260510742187497,0,0,1.75812
1.5413707289844751,0,0,1.6519991455078125,0,0,1.98744
1.5427578589878976,0,0,-0.8834604125976562,0,0,-1.1465999999999998
1.5441471379890572,0,0,0.08858546142578125,0,0,-0.7644
1.545533564989455,0,0,1.5466542724609373,0,0,1.75812
1.546919621003326,0,0,3.066972326660156,0,0,1.75812
1.5483055659860838,0,0,1.8507178833007811,0,0,1.07016
1.5496913639944978,0,0,0.3112462158203125,0,0,2.14032
1.551077901996905,0,0,-1.0749965454101562,0,0,-0.53508
1.5524747360032052,0,0,-0.36631285400390623,0,0,-0.68796
1.553861717984546,0,0,2.3487118286132813,0,0,1.37592
1.5552482010098174,0,0,3.028665100097656,0,0,1.911
1.5566337569907773,0,0,2.5163059448242184,0,0,1.37592
1.55801953599439,0,0,1.6615759521484375,0,0,2.36964
1.5594058329879772,0,0,0.00718260498046875,0,0,0.7644
1.560791222989792,0,0,0.7589619262695312,0,0,0.15288000000000002
1.5621897050004918,0,0,1.2473790649414063,0,0,0.0
1.5635764279868454,0,0,1.9728221679687499,0,0,0.53508
1.5650357429985888,0,0,2.3535002319335936,0,0,1.60524
1.5664241699851118,0,0,1.6424223388671875,0,0,0.07644000000000001
1.5678523000096902,0,0,0.6751648681640625,0,0,1.5288
1.569240003998857,0,0,1.1276689819335937,0,0,2.06388
1.5707210039836355,0,0,1.2473790649414063,0,0,0.7644
1.5721028939879034,0,0,0.7613561279296874,0,0,0.0
1.5734823950042482,0,0,1.1468225952148436,0,0,1.45236
1.5748646550055128,0,0,0.9337386474609375,0,0,-1.2994800000000002
1.5762454340001568,0,0,1.9776105712890624,0,0,0.84084
1.5776243239815813,0,0,2.8467057739257813,0,0,2.2931999999999997
1.5790045659814496,0,0,2.2936451904296873,0,0,1.83456
1.5803838630090468,0,0,1.1085153686523437,0,0,0.53508
1.5817790489818435,0,0,-0.18435352783203124,0,0,-9.01992
1.5831613460031804,0,0,-0.8307879760742187,0,0,-0.7644
1.584541846998036,0,0,2.408566870117187,0,0,0.0
1.585920237004757,0,0,3.0142998901367184,0,0,2.14032
1.5873087939980906,0,0,2.3391350219726563,0,0,2.14032
1.588696867984254,0,0,0.44053310546874996,0,0,0.91728
1.5900841100083198,0,0,-0.39983167724609375,0,0,0.07644000000000001
1.5914659810077865,0,0,-0.5865794067382812,0,0,0.45864
1.5928456489928067,0,0,2.674323254394531,0,0,0.07644000000000001
1.5942507419968024,0,0,3.1962592163085937,0,0,1.68168
1.595645780005725,0,0,1.7094599853515624,0,0,1.60524
1.59703252199688,0,0,1.0845733520507812,0,0,1.07016
1.598419207992265,0,0,0.23223756103515625,0,0,-0.3822
1.5998050610069185,0,0,0.6847416748046875,0,0,0.22932
1.6011914319824427,0,0,2.2601263671875,0,0,0.45864
1.602578063000692,0,0,2.308010400390625,0,0,0.91728
1.6039630819868762,0,0,1.1707646118164061,0,0,0.84084
1.6053490460035391,0,0,0.622492431640625,0,0,1.911
1.6067351399979088,0,0,-0.32561142578124996,0,0,-0.84084
1.6081221030035522,0,0,0.7996633544921875,0,0,0.7644
1.6095078449870925,0,0,2.693476867675781,0,0,1.83456
1.610894160985481,0,0,2.4061726684570313,0,0,1.68168
1.6122798470023554,0,0,1.2713210815429687,0,0,0.68796
1.6136654400033876,0,0,0.3112462158203125,0,0,1.07016
1.615051108004991,0,0,-0.1005564697265625,0,0,0.30576000000000003
1.6164379789843224,0,0,1.3311761230468748,0,0,0.22932
1.617823201988358,0,0,2.729389892578125,0,0,2.5989600000000004
1.6192090369877405,0,0,2.6886884643554687,0,0,1.60524
1.6205946299887728,0,0,0.5626373901367188,0,0,0.45864
1.6219801130064297,0,0,-0.6081272216796875,0,0,0.0
1.623366816987982,0,0,-1.2210428466796874,0,0,0.07644000000000001
1.6247527629893739,0,0,2.4396914916992185,0,0,0.0
1.626148707990069,0,0,3.375824340820312,0,0,2.4460800000000003
1.6275339499989059,0,0,1.6543933471679686,0,0,2.2167600000000003
1.6289183580083773,0,0,0.9433154541015625,0,0,1.98744
1.6303398580057546,0,0,-0.20350714111328125,0,0,-1.07016
1.6317293960019015,0,0,0.63206923828125,0,0,1.2230400000000001
1.6331155079824384,0,0,2.118868469238281,0,0,1.45236
1.6345020279986784,0,0,2.9496564453125,0,0,1.2994800000000002
1.635885880998103,0,0,1.7836802368164062,0,0,1.83456
1.6372888810001314,0,0,1.2378022583007813,0,0,1.07016
1.6386765860079322,0,0,-0.9983820922851562,0,0,-0.7644
1.6400833829829935,0,0,0.7900865478515624,0,0,0.91728
1.6414694580016658,0,0,3.0502129150390624,0,0,1.98744
1.6428549769916572,0,0,2.6408044311523438,0,0,1.1465999999999998
1.644241237983806,0,0,1.2018892333984375,0,0,0.15288000000000002
1.6456268499896396,0,0,-0.612915625,0,0,0.3822
1.6471772189834155,0,0,-0.6751648681640625,0,0,-0.7644
1.6485707749961875,0,0,2.6048914062499997,0,0,0.0
1.6499573689943645,0,0,3.584119885253906,0,0,2.2167600000000003
1.6513439810078125,0,0,3.23696064453125,0,0,2.36964
1.6527300929883495,0,0,0.8451531860351562,0,0,1.5288
1.6541163710062392,0,0,-0.6607996582031249,0,0,-9.707880000000001
1.6555058539961465,0,0,0.16759411621093748,0,0,0.0
1.6569445759814698,0,0,2.262520568847656,0,0,0.22932
1.6584347609896213,0,0,3.5865140869140624,0,0,0.7644
1.6598236319841817,0,0,2.389413256835937,0,0,1.45236
1.661210892983945,0,0,2.0278888061523435,0,0,2.4460800000000003
1.6625984300044365,0,0,-1.5370774658203123,0,0,-0.53508
1.6639889130019583,0,0,-0.7038952880859375,0,0,-0.30576000000000003
1.6653767839889042,0,0,1.2928688964843749,0,0,1.2994800000000002
1.6667618039937224,0,0,3.071760729980469,0,0,0.6115200000000001
1.668140878988197,0,0,2.0470424194335934,0,0,0.6115200000000001
1.6695200460089836,0,0,0.23702596435546874,0,0,1.68168
1.6709083619934972,0,0,-0.584185205078125,0,0,0.07644000000000001
1.6722952889977023,0,0,-0.2561795776367187,0,0,-0.22932
1.6736832160095219,0,0,2.3630770385742186,0,0,1.60524
1.6750685870065354,0,0,2.6288334228515624,0,0,0.53508
1.6764528659987263,0,0,2.01112939453125,0,0,0.53508
1.6779549210041296,0,0,0.8283937744140625,0,0,0.6115200000000001
1.6793375879933592,0,0,-0.29448680419921874,0,0,0.53508
1.6807189410028514,0,0,1.7238251953125,0,0,0.0
1.68209777600714,0,0,2.8706477905273435,0,0,1.68168
1.6834930359909777,0,0,1.3814543579101561,0,0,1.5288
1.6848719810077455,0,0,1.656787548828125,0,0,0.99372
1.6863137040054426,0,0,0.7541735229492187,0,0,-1.2994800000000002
1.687695556000108,0,0,0.15562310791015624,0,0,0.91728
1.6890746690041851,0,0,1.5466542724609373,0,0,0.7644
1.6904550949984696,0,0,2.722207287597656,0,0,1.1465999999999998
1.691834558994742,0,0,2.1356278808593747,0,0,1.45236
1.6932132829970215,0,0,2.2840683837890623,0,0,2.4460800000000003
1.694594116997905,0,0,-1.0199299072265624,0,0,-1.2994800000000002
1.6959750810055993,0,0,-0.4525041137695312,0,0,-0.6115200000000001
1.6973546929948498,0,0,2.942473840332031,0,0,1.68168
1.698753600998316,0,0,3.1076737548828124,0,0,0.68796
1.7001404729962815,0,0,2.437297290039062,0,0,1.75812
1.7015264549991116,0,0,0.469263525390625,0,0,2.2931999999999997
1.7029129559814464,0,0,-1.1156979736328125,0,0,-0.84084
1.7044077699829359,0,0,0.6272808349609375,0,0,-0.6115200000000001
1.705795974994544,0,0,2.2361843505859373,0,0,1.5288
1.70718403099454,0,0,3.1938650146484373,0,0,1.37592
1.7085715690045618,0,0,2.43250888671875,0,0,2.14032
1.7099581439979374,0,0,1.024718310546875,0,0,2.36964
1.7113456079969183,0,0,-0.6105214233398437,0,0,0.22932
1.71273290499812,0,0,1.120486376953125,0,0,-0.53508
1.7141204430081416,0,0,2.2960393920898436,0,0,1.37592
1.7155014809977729,0,0,2.7461493041992187,0,0,2.2167600000000003
1.7168803899839986,0,0,2.384624853515625,0,0,2.06388
1.7182695390074514,0,0,0.9504980590820312,0,0,0.3822
1.7196556690032594,0,0,-0.8283937744140625,0,0,-0.6115200000000001
1.7210426520032343,0,0,1.0414777221679687,0,0,0.15288000000000002
1.7224287450080737,0,0,3.2728736694335936,0,0,0.6115200000000001
1.7238148390024435,0,0,2.319981408691406,0,0,1.98744
1.7252005799964536,0,0,2.070984436035156,0,0,1.5288
1.7265857849852182,0,0,-0.5315127685546874,0,0,-0.68796
1.727980841009412,0,0,-1.0869675537109373,0,0,-0.30576000000000003
1.7293653420056216,0,0,2.0757728393554684,0,0,1.37592
1.7307680099911522,0,0,2.999934680175781,0,0,0.91728
1.7321478629892226,0,0,2.2074539306640624,0,0,1.68168
1.7335267149901483,0,0,0.9864110839843749,0,0,2.4460800000000003
1.734913364984095,0,0,-0.5291185668945312,0,0,8.63772
1.736300457996549,0,0,1.1947066284179686,0,0,-0.3822
1.7376867739949375,0,0,2.212242333984375,0,0,1.68168
1.739072848984506,0,0,2.6479870361328124,0,0,0.45864
1.7404583680036012,0,0,2.308010400390625,0,0,0.99372
1.7418444060022011,0,0,1.0199299072265624,0,0,1.2994800000000002
1.7432306109985802,0,0,-0.411802685546875,0,0,0.0
1.7446165010042023,0,0,1.0678139404296874,0,0,-1.1465999999999998
1.746002834988758,0,0,2.166752502441406,0,0,1.911
1.7473891319823451,0,0,1.9728221679687499,0,0,1.5288
1.7487744109821506,0,0,2.051830822753906,0,0,1.45236
1.7501646709861234,0,0,0.6584054565429687,0,0,-8.63772
1.7515512639947701,0,0,-0.7254431030273437,0,0,0.0
1.752937616984127,0,0,0.9002198242187499,0,0,0.0
1.7543245069973636,0,0,3.3590649291992185,0,0,1.45236
1.7557096380041912,0,0,2.482787121582031,0,0,2.82828
1.7571046380035114,0,0,2.3391350219726563,0,0,2.4460800000000003
1.7584911579906475,0,0,-0.277727392578125,0,0,0.0
1.7598767509916797,0,0,-1.0773907470703123,0,0,-0.3822
1.7612634369870648,0,0,1.8842367065429686,0,0,0.45864
1.7626498460012954,0,0,2.5474305664062498,0,0,-0.15288000000000002
1.7640355690091383,0,0,2.437297290039062,0,0,1.911
1.7654212180059403,0,0,1.1085153686523437,0,0,2.2167600000000003
1.7668074409884866,0,0,0.040701428222656245,0,0,0.0
1.7681931830011308,0,0,-0.7254431030273437,0,0,0.15288000000000002
1.7695798320055474,0,0,1.649604943847656,0,0,1.68168
1.7709723699954338,0,0,2.6503812377929687,0,0,0.68796
1.7723586299980525,0,0,2.2098481323242187,0,0,0.84084
1.7737445750099141,0,0,1.369483349609375,0,0,2.4460800000000003
1.7751307429862209,0,0,0.47644613037109373,0,0,9.40212
1.7765165960008744,0,0,1.5394716674804687,0,0,0.6115200000000001
1.777902614994673,0,0,2.090138049316406,0,0,2.14032
1.7792885419912636,0,0,1.4963760375976562,0,0,1.1465999999999998
1.7806741909880657,0,0,1.3239935180664062,0,0,0.07644000000000001
1.7820599330007099,0,0,0.5817910034179687,0,0,-0.3822
1.7834458409924991,0,0,-0.354341845703125,0,0,0.07644000000000001
1.7848327310057357,0,0,1.9536685546875,0,0,-0.15288000000000002
1.7862198610091582,0,0,2.6695348510742187,0,0,1.37592
1.7876051029888913,0,0,1.438915197753906,0,0,1.75812
1.7889909929945134,0,0,1.1468225952148436,0,0,1.2994800000000002
1.7903775309969205,0,0,-0.6416460449218749,0,0,-0.6115200000000001
1.7917637540085707,0,0,-0.27293898925781246,0,0,0.0
1.7931507359899115,0,0,1.9991583862304687,0,0,1.1465999999999998
1.7945382930047344,0,0,3.375824340820312,0,0,1.2994800000000002
1.7959234239824582,0,0,2.195482922363281,0,0,2.90472
1.7973096100031398,0,0,0.9983820922851562,0,0,2.52252
1.79869535099715,0,0,-0.28490999755859375,0,0,-0.45864
1.800082667003153,0,0,-0.7230489013671875,0,0,0.0
1.8014697979961056,0,0,2.4899697265625,0,0,0.91728
1.8028556689969264,0,0,2.901772412109375,0,0,0.0
1.8042416509997565,0,0,1.4149731811523436,0,0,0.7644
1.805629245005548,0,0,0.9816226806640624,0,0,2.6754
1.807016393984668,0,0,-0.05027823486328125,0,0,0.0
1.8084036349900998,0,0,1.1109095703125,0,0,0.3822
1.8097894699894823,0,0,1.8698714965820311,0,0,2.4460800000000003
1.8111754709971137,0,0,1.4532804077148436,0,0,0.30576000000000003
1.8125615269818809,0,0,1.707065783691406,0,0,0.0
1.8139474359923042,0,0,1.1037269653320312,0,0,1.07016
1.8153486399969552,0,0,0.59376201171875,0,0,0.22932
1.816738881985657,0,0,2.4684219116210935,0,0,0.6115200000000001
1.8181481409992557,0,0,2.920926025390625,0,0,2.06388
1.8195364759885706,0,0,1.3742717529296875,0,0,2.06388
1.820922643004451,0,0,0.9792284790039062,0,0,0.91728
1.8223101809853688,0,0,-1.209071838378906,0,0,-1.37592
1.8236977930064313,0,0,-0.43574470214843747,0,0,0.6115200000000001
1.825085071992362,0,0,2.300827795410156,0,0,0.84084
1.826471053995192,0,0,3.825934252929687,0,0,2.06388
1.8278549069946166,0,0,1.5969325073242187,0,0,2.2167600000000003
1.8292395010066684,0,0,-0.2609679809570312,0,0,1.98744
1.8306365390017163,0,0,-1.3958195678710936,0,0,-1.45236
1.8320259469910525,0,0,-1.4700398193359374,0,0,-0.45864
1.8334157619974576,0,0,3.6487633300781246,0,0,1.2994800000000002
1.8348023750004359,0,0,4.541800549316406,0,0,0.68796
1.8361899119918235,0,0,2.2768857788085937,0,0,2.4460800000000003
1.8375762469950132,0,0,0.28012159423828126,0,0,2.82828
1.8389632109901868,0,0,-1.5394716674804687,0,0,-1.37592
1.8403507490002085,0,0,0.5770026000976562,0,0,-1.07016
1.8417373789998237,0,0,3.2154128295898436,0,0,2.06388
1.843165953992866,0,0,2.81558115234375,0,0,1.75812
1.844553676986834,0,0,1.7669208251953124,0,0,0.45864
1.8459405659814365,0,0,0.16998831787109375,0,0,0.15288000000000002
1.8473269749956671,0,0,-1.149216796875,0,0,-0.45864
1.8487155869952403,0,0,0.9983820922851562,0,0,-0.22932
1.850102402997436,0,0,3.4356793823242184,0,0,1.60524
1.8514891809900291,0,0,2.224213342285156,0,0,2.4460800000000003
1.852875701006269,0,0,1.2497732666015624,0,0,1.2994800000000002
1.8542648869915865,0,0,-0.9145850341796874,0,0,0.0
1.855651127989404,0,0,-1.0678139404296874,0,0,0.0
1.8570383150072303,0,0,1.5729904907226562,0,0,0.22932
1.8584392409829888,0,0,4.563348364257812,0,0,1.68168
1.8598259270074777,0,0,3.3159692993164063,0,0,2.6754
1.861212076008087,0,0,0.0430956298828125,0,0,2.4460800000000003
1.862749205,0,0,-2.1308394775390624,0,0,-1.911
1.8641496129857842,0,0,0.4908113403320312,0,0,-1.60524
1.8655366509919986,0,0,3.2154128295898436,0,0,1.68168
1.8671060019987635,0,0,3.248931652832031,0,0,1.2994800000000002
1.8685441869893111,0,0,2.0446482177734375,0,0,0.84084
1.8699316139973234,0,0,0.430956298828125,0,0,3.36336
1.8713180960039608,0,0,-2.5857377929687497,0,0,-0.91728
1.872764281986747,0,0,-0.7302315063476562,0,0,-1.98744
1.8741696899814997,0,0,4.13718046875,0,0,1.75812
1.8755592280067503,0,0,3.450044592285156,0,0,2.06388
1.8769713210058399,0,0,2.4492682983398435,0,0,0.84084
1.8783563589968253,0,0,-0.5458779785156249,0,0,2.2167600000000003
1.8797377669834532,0,0,-2.233790148925781,0,0,0.0
1.8811174719885457,0,0,1.1228805786132812,0,0,-2.06388
1.882498121005483,0,0,2.779668127441406,0,0,0.99372
1.8838770480069797,0,0,2.39420166015625,0,0,0.68796
1.8852747149940114,0,0,0.7134720947265625,0,0,-0.91728
1.886658253002679,0,0,-0.9074024291992187,0,0,0.84084
1.888038625009358,0,0,-1.5155296508789062,0,0,-2.2167600000000003
1.889418606995605,0,0,1.1635820068359375,0,0,-1.2994800000000002
1.8907994419860188,0,0,1.9919757812499999,0,0,2.98116
1.8921780349919572,0,0,1.6472107421875,0,0,0.22932
1.8935570729954634,0,0,1.5083470458984374,0,0,2.52252
1.894937667006161,0,0,0.086191259765625,0,0,3.0576
1.8963167229958344,0,0,-0.9911994873046874,0,0,6.95604
1.8976964649918955,0,0,-0.33518823242187495,0,0,1.2994800000000002
1.8990776700084098,0,0,3.418919970703125,0,0,-0.7644
1.9004571340046823,0,0,3.9887399658203124,0,0,1.911
1.901835801982088,0,0,1.936909143066406,0,0,1.2994800000000002
1.9032357280084398,0,0,-1.0390835205078124,0,0,-0.99372
1.9046230250096414,0,0,-2.4899697265625,0,0,-0.6115200000000001
1.9060099519847427,0,0,-1.216254443359375,0,0,-4.2042
1.9074458779941779,0,0,1.8914193115234375,0,0,0.7644
1.9088797679869458,0,0,2.8514941772460936,0,0,1.5288
1.9102743429830298,0,0,1.917755529785156,0,0,2.14032
1.9116671950032469,0,0,-0.0718260498046875,0,0,2.06388
1.9130557519965805,0,0,-1.3359645263671873,0,0,-0.22932
1.9144458079827018,0,0,-1.407790576171875,0,0,1.07016
1.9158334200037643,0,0,-0.2825157958984375,0,0,6.95604
1.9172211249824613,0,0,4.455609289550781,0,0,2.75184
1.9186059409985319,0,0,4.00310517578125,0,0,0.07644000000000001
1.9199841079826,0,0,2.123656872558594,0,0,4.66284
1.9213630349840969,0,0,-0.59376201171875,0,0,-0.3822
1.9227514429949224,0,0,-1.209071838378906,0,0,1.1465999999999998
1.9241387959918939,0,0,-1.7429788085937499,0,0,6.879600000000001
1.9255259819910862,0,0,0.59376201171875,0,0,-1.98744
1.9269121309916954,0,0,1.0797849487304687,0,0,-1.45236
1.9282974840025418,0,0,2.6240450195312497,0,0,1.75812
1.929681873996742,0,0,1.9488801513671874,0,0,1.60524
1.9312615020025987,0,0,-0.5961562133789062,0,0,1.60524
1.932689279987244,0,0,-1.5849614990234373,0,0,-0.22932
1.9340786889952142,0,0,0.143652099609375,0,0,-0.3822
1.9354606529814191,0,0,1.1468225952148436,0,0,-0.84084
1.9368399869999848,0,0,2.2074539306640624,0,0,0.45864
1.9382580060046166,0,0,2.1021090576171875,0,0,0.53508
1.9396455810056068,0,0,1.6615759521484375,0,0,1.37592
1.9410321559989825,0,0,0.3016694091796875,0,0,0.0
1.9424191009893548,0,0,-0.29448680419921874,0,0,0.53508
1.9438050099997781,0,0,-0.40222587890625,0,0,-0.68796
1.9451925290049985,0,0,0.3902548706054687,0,0,0.0
1.9466279369953554,0,0,1.0582371337890624,0,0,-9.555
1.9481540650012903,0,0,1.0103531005859374,0,0,0.68796
1.9495421219908167,0,0,0.5674257934570313,0,0,0.84084
1.9509286230022553,0,0,0.3806780639648437,0,0,0.6115200000000001
1.9523177160008345,0,0,0.6703764648437499,0,0,0.99372
1.953714180010138,0,0,1.3718775512695311,0,0,1.2230400000000001
1.9551021619990934,0,0,1.4149731811523436,0,0,1.07016
1.9564895149960648,0,0,1.1659762084960936,0,0,0.6115200000000001
1.9578769610088784,0,0,0.6823474731445313,0,0,-0.15288000000000002
1.9592655909946188,0,0,0.076614453125,0,0,-1.07016
1.9606538139923941,0,0,0.8978256225585937,0,0,-0.91728
1.9620437969861086,0,0,1.2952630981445312,0,0,-0.30576000000000003
1.9634251490060706,0,0,0.9265560424804687,0,0,0.30576000000000003
1.9648038540035486,0,0,0.6727706665039062,0,0,0.07644000000000001
1.9662226509826723,0,0,-0.2154781494140625,0,0,-8.943480000000001
1.9676125959958881,0,0,-0.5315127685546874,0,0,0.30576000000000003
1.9690004859876353,0,0,0.9864110839843749,0,0,0.30576000000000003
1.970397116994718,0,0,0.9720458740234375,0,0,0.6115200000000001
1.9717836729832925,0,0,1.7764976318359373,0,0,0.0
1.9731703959987499,0,0,1.678335363769531,0,0,1.75812
1.974558433983475,0,0,1.209071838378906,0,0,0.99372
1.9759446200041566,0,0,0.7493851196289062,0,0,0.30576000000000003
1.9773315099882893,0,0,0.7805097412109374,0,0,0.53508
1.9787145479931496,0,0,0.3806780639648437,0,0,-1.98744
1.9800938639964443,0,0,0.5961562133789062,0,0,-0.30576000000000003
1.9814753649989143,0,0,1.3527239379882812,0,0,9.09636
1.9828630139818415,0,0,1.5083470458984374,0,0,0.30576000000000003
1.9842496069904882,0,0,0.24181436767578124,0,0,0.45864
1.9856355899828486,0,0,0.8475473876953125,0,0,0.53508
1.9870224240003154,0,0,0.3327940307617187,0,0,1.07016
1.9884084619989153,0,0,0.1580173095703125,0,0,-0.68796
1.9897949069854803,0,0,0.7254431030273437,0,0,0.91728
1.9912043520016596,0,0,1.4915876342773438,0,0,0.30576000000000003
1.9925912790058646,0,0,1.438915197753906,0,0,0.53508
1.993977595004253,0,0,0.8283937744140625,0,0,0.99372
1.995364095986588,0,0,0.7637503295898437,0,0,0.0
1.996750152000459,0,0,0.5195417602539062,0,0,0.15288000000000002
1.9981473379884847,0,0,0.22505495605468748,0,0,-0.3822
1.9995352099940646,0,0,0.41419688720703124,0,0,0.0
2.0009214699966833,0,0,1.2617442749023438,0,0,9.631440000000001
2.002308136987267,0,0,1.35990654296875,0,0,1.07016
2.0036930269852746,0,0,0.6081272216796875,0,0,0.22932
2.0050791579997167,0,0,0.28969840087890625,0,0,0.22932
2.0064658070041332,0,0,0.7757213378906249,0,0,0.22932
2.007851344998926,0,0,1.2617442749023438,0,0,0.45864
2.0092371979844756,0,0,1.0845733520507812,0,0,0.6115200000000001
2.0106240320019424,0,0,0.86191259765625,0,0,0.7644
2.0120091440039687,0,0,1.0319009155273438,0,0,0.53508
2.013395551999565,0,0,1.2856862915039062,0,0,0.0
2.0147820900019724,0,0,1.2234370483398436,0,0,1.1465999999999998
2.0161677209835034,0,0,0.49320554199218747,0,0,0.07644000000000001
2.017555258993525,0,0,0.33039982910156246,0,0,0.15288000000000002
2.0189415740023833,0,0,0.430956298828125,0,0,0.0
2.0203290570061654,0,0,0.8571241943359375,0,0,-0.30576000000000003
2.0217160019965377,0,0,1.1420341918945311,0,0,0.07644000000000001
2.0231028179987334,0,0,1.0821791503906248,0,0,0.53508
2.024488762981491,0,0,0.22026655273437498,0,0,0.22932
2.0258753380039707,0,0,-0.20350714111328125,0,0,-0.3822
2.0272616909933276,0,0,0.5291185668945312,0,0,-0.22932
2.028646247985307,0,0,0.9313444458007812,0,0,0.15288000000000002
2.030030525987968,0,0,1.5682020874023437,0,0,0.30576000000000003
2.0314305829815567,0,0,1.139639990234375,0,0,0.91728
2.0328239719965495,0,0,0.5770026000976562,0,0,0.68796
2.034225435985718,0,0,0.1771709228515625,0,0,-0.30576000000000003
2.035612510982901,0,0,0.28730419921875,0,0,-0.22932
2.036998641997343,0,0,1.4796166259765624,0,0,0.45864
2.038385253981687,0,0,1.7166425903320313,0,0,0.91728
2.0397729399846867,0,0,1.4939818359375,0,0,1.07016
2.0411588849965483,0,0,0.5889736083984375,0,0,0.45864
2.0425452750059776,0,0,0.12449848632812499,0,0,0.0
2.0439303309831303,0,0,0.29448680419921874,0,0,-0.15288000000000002
2.0453168879903387,0,0,0.6679822631835937,0,0,0.0
2.046702795982128,0,0,1.2042834350585936,0,0,0.6115200000000001
2.048088352981722,0,0,1.0630255371093749,0,0,0.53508
2.049481575988466,0,0,0.8092401611328125,0,0,0.6115200000000001
2.0508675029850565,0,0,0.39264907226562495,0,0,-9.707880000000001
2.0522541890095454,0,0,0.40940848388671874,0,0,0.0
2.053639633988496,0,0,0.48123453369140623,0,0,0.30576000000000003
2.0550253200053703,0,0,1.1228805786132812,0,0,0.22932
2.0564112099818885,0,0,0.9241618408203125,0,0,0.22932
2.057796432985924,0,0,1.0271125122070313,0,0,0.7644
2.059182063996559,0,0,0.7876923461914062,0,0,0.0
2.060568101995159,0,0,0.6488286499023437,0,0,1.07016
2.061953269003425,0,0,0.7637503295898437,0,0,0.53508
2.063338770007249,0,0,0.8858546142578124,0,0,0.22932
2.0647244380088523,0,0,0.8906430175781249,0,0,0.15288000000000002
2.0661093649978284,0,0,0.4955997436523437,0,0,0.22932
2.0674946249928325,0,0,1.0127473022460938,0,0,1.1465999999999998
2.0688804039964452,0,0,0.9816226806640624,0,0,0.22932
2.0702664050040767,0,0,0.507570751953125,0,0,0.53508
2.0716514799860306,0,0,0.55545478515625,0,0,-0.45864
2.0730375359999016,0,0,0.9744400756835937,0,0,0.30576000000000003
2.074423148005735,0,0,1.37906015625,0,0,0.6115200000000001
2.075806131004356,0,0,1.5298948608398437,0,0,0.6115200000000001
2.077400165988365,0,0,1.5275006591796874,0,0,1.07016
2.0788052039861213,0,0,0.9935936889648437,0,0,1.1465999999999998
2.080184667982394,0,0,0.7541735229492187,0,0,0.45864
2.081562742998358,0,0,0.948103857421875,0,0,0.68796
2.083988526981557,0,0,1.7788918334960937,0,0,-0.07644000000000001
2.0853890090074856,0,0,1.889025109863281,0,0,1.07016
2.086771342990687,0,0,1.1420341918945311,0,0,1.07016
2.0881499919923954,0,0,0.948103857421875,0,0,0.53508
2.089528326992877,0,0,1.0366893188476562,0,0,0.53508
2.090908160986146,0,0,1.2497732666015624,0,0,0.15288000000000002
2.092286476981826,0,0,1.4101847778320311,0,0,0.0
2.0936641820007935,0,0,1.5346832641601562,0,0,0.99372
2.095044201007113,0,0,1.5346832641601562,0,0,0.91728
2.09642259098473,0,0,1.455674609375,0,0,0.99372
2.097800647985423,0,0,1.2138602416992186,0,0,1.2230400000000001
2.0991873150051106,0,0,1.1659762084960936,0,0,0.84084
2.100573000992881,0,0,1.1923124267578125,0,0,0.6115200000000001
2.1019584839814343,0,0,1.3024457031249999,0,0,0.22932
2.1036059629986994,0,0,1.4915876342773438,0,0,0.6115200000000001
2.1050413149932865,0,0,1.4125789794921875,0,0,0.53508
2.106481962982798,0,0,1.5610194824218748,0,0,0.30576000000000003
2.1079266300075687,0,0,1.2569558715820313,0,0,1.07016
2.109378166991519,0,0,1.1731588134765625,0,0,0.68796
2.1108244819915853,0,0,0.928950244140625,0,0,0.53508
2.112306926981546,0,0,1.0414777221679687,0,0,0.22932
2.114491120999446,0,0,1.668758557128906,0,0,0.91728
2.1163196720008273,0,0,1.8363526733398436,0,0,0.68796
2.118435755983228,0,0,1.369483349609375,0,0,1.07016
2.1206796350015793,0,0,1.1420341918945311,0,0,0.84084
2.122836792987073,0,0,1.2737152832031249,0,0,0.84084
2.124240570992697,0,0,1.5322890624999999,0,0,0.6115200000000001
2.125621997984126,0,0,1.5490484741210937,0,0,0.45864
2.1270354059815872,0,0,1.5825672973632812,0,0,0.84084
2.1284158889902756,0,0,1.2713210815429687,0,0,0.91728
2.129794890002813,0,0,0.8954314208984374,0,0,0.53508
2.131174706009915,0,0,0.8954314208984374,0,0,0.6115200000000001
2.132553336006822,0,0,1.197100830078125,0,0,0.3822
2.1339320779952686,0,0,1.5753846923828123,0,0,0.0
2.1353128379851114,0,0,1.637633935546875,0,0,0.84084
2.136692136002239,0,0,1.5538368774414062,0,0,0.91728
2.1380764700006694,0,0,1.2832920898437499,0,0,0.84084
2.1394607670081314,0,0,1.3431471313476562,0,0,0.99372
2.1408400640066247,0,0,1.139639990234375,0,0,0.68796
2.1422203429974616,0,0,1.1563994018554686,0,0,0.53508
2.143599714996526,0,0,1.1755530151367186,0,0,1.1465999999999998
2.1449808639881667,0,0,1.5059528442382812,0,0,0.7644
2.1463599389826413,0,0,1.429338391113281,0,0,0.84084
2.1477382729935925,0,0,1.4891934326171874,0,0,1.07016
2.1491165889892727,0,0,1.3359645263671873,0,0,0.99372
2.150497219990939,0,0,1.1276689819335937,0,0,0.7644
2.1518786840024404,0,0,0.9840168823242187,0,0,0.45864
2.153256888006581,0,0,1.2018892333984375,0,0,0.3822
2.1546404999971855,0,0,1.5155296508789062,0,0,0.0
2.1560183159890585,0,0,1.4030021728515625,0,0,0.91728
2.1574294279853348,0,0,1.426944189453125,0,0,1.07016
2.159227775002364,0,0,1.1755530151367186,0,0,0.84084
2.160610942984931,0,0,1.1061211669921875,0,0,0.6115200000000001
2.1619904070103075,0,0,1.197100830078125,0,0,0.6115200000000001
2.163372463983251,0,0,1.209071838378906,0,0,0.22932
2.1647512239869684,0,0,1.419761584472656,0,0,0.07644000000000001
2.166142353991745,0,0,1.3239935180664062,0,0,0.6115200000000001
2.1677032980078366,0,0,1.4820108276367188,0,0,0.68796
2.169083168992074,0,0,1.177947216796875,0,0,0.99372
2.17046515099355,0,0,1.3575123413085937,0,0,0.91728
2.1718686149979476,0,0,1.2138602416992186,0,0,0.99372
2.173247022990836,0,0,1.0726023437499999,0,0,0.6115200000000001
2.1746272099844646,0,0,1.350329736328125,0,0,0.91728
2.1760054329934064,0,0,1.4245499877929686,0,0,0.91728
2.1773836379870772,0,0,1.218648645019531,0,0,0.6115200000000001
2.17877236098866,0,0,1.407790576171875,0,0,0.68796
2.1801599169848487,0,0,1.3072341064453123,0,0,0.84084
2.1815465109830257,0,0,1.3239935180664062,0,0,0.91728
2.1829337340022903,0,0,1.1947066284179686,0,0,0.7644
2.1843205129844137,0,0,1.2378022583007813,0,0,0.84084
2.1857071059930604,0,0,1.3192051147460937,0,0,0.15288000000000002
2.1871010699833278,0,0,1.3048399047851562,0,0,0.68796
2.1884798299870454,0,0,1.3910311645507811,0,0,1.2994800000000002
2.1898583309957758,0,0,1.3024457031249999,0,0,0.84084
2.191245591006009,0,0,1.3575123413085937,0,0,0.91728
2.192631629004609,0,0,1.1037269653320312,0,0,0.53508
2.1941902579856105,0,0,1.1875240234375,0,0,0.53508
2.195579944003839,0,0,1.3958195678710936,0,0,0.0
2.1969706479867455,0,0,1.419761584472656,0,0,0.45864
2.1983820379828103,0,0,1.2641384765625,0,0,0.53508
2.1998133159941062,0,0,1.3072341064453123,0,0,0.45864
2.2012035390071105,0,0,1.0821791503906248,0,0,0.84084
2.2025993919814937,0,0,1.2761094848632812,0,0,0.7644
2.2039784110093024,0,0,1.1061211669921875,0,0,0.68796
2.205356911988929,0,0,1.1372457885742187,0,0,1.07016
2.20674456100096,0,0,1.3287819213867187,0,0,0.84084
2.2081318580021616,0,0,1.3168109130859373,0,0,0.68796
2.209519025986083,0,0,1.484405029296875,0,0,0.84084
2.2109011379943695,0,0,1.177947216796875,0,0,1.07016
2.21227939799428,0,0,1.2282254516601563,0,0,0.84084
2.213657473999774,0,0,1.22583125,0,0,0.3822
2.215059473994188,0,0,1.13006318359375,0,0,0.22932
2.2164460310013965,0,0,1.3048399047851562,0,0,0.07644000000000001
2.217832364985952,0,0,1.3479355346679687,0,0,0.6115200000000001
2.219218235986773,0,0,1.467645617675781,0,0,0.84084
2.2206041449971963,0,0,1.4173673828125,0,0,0.6115200000000001
2.22198975700303,0,0,1.3742717529296875,0,0,0.7644
2.2233758500078693,0,0,1.0726023437499999,0,0,0.84084
2.2247614070074633,0,0,1.0893617553710937,0,0,0.84084
2.2261473149992526,0,0,1.20667763671875,0,0,0.99372
2.227526297996519,0,0,1.2952630981445312,0,0,0.7644
2.228904465009691,0,0,1.350329736328125,0,0,0.7644
2.2303887979942374,0,0,1.5801730957031248,0,0,0.99372
2.231768761994317,0,0,1.0893617553710937,0,0,0.84084
2.233147393009858,0,0,0.948103857421875,0,0,0.53508
2.2345711159869097,0,0,1.1372457885742187,0,0,0.6115200000000001
2.235960208985489,0,0,1.20667763671875,0,0,0.84084
2.2373474139894824,0,0,1.4532804077148436,0,0,0.3822
2.2387353029916994,0,0,1.216254443359375,0,0,0.7644
2.2401219900057185,0,0,1.4030021728515625,0,0,0.68796
2.24150880498928,0,0,1.5275006591796874,0,0,0.84084
2.2428956019866746,0,0,1.1755530151367186,0,0,0.53508
2.2442824179888703,0,0,1.158793603515625,0,0,0.3822
2.245668992982246,0,0,1.1276689819335937,0,0,0.84084
2.247054956998909,0,0,1.3263877197265623,0,0,1.2230400000000001
2.248435440007597,0,0,1.2952630981445312,0,0,0.99372
2.249813589005498,0,0,1.3766659545898436,0,0,0.45864
2.2512029409990646,0,0,1.5682020874023437,0,0,0.7644
2.252589887008071,0,0,1.3910311645507811,0,0,1.1465999999999998
2.2539764249813743,0,0,1.216254443359375,0,0,1.1465999999999998
2.255363500007661,0,0,1.0726023437499999,0,0,0.68796
2.256750166998245,0,0,1.1611878051757811,0,0,0.68796
2.2581500569940545,0,0,1.254561669921875,0,0,0.15288000000000002
2.2595698350050952,0,0,1.4125789794921875,0,0,0.84084
2.2609562810102943,0,0,1.7741034301757812,0,0,0.91728
2.2623403189936653,0,0,1.4772224243164063,0,0,0.84084
2.263717967987759,0,0,1.1923124267578125,0,0,0.7644
2.2650966359942686,0,0,1.1133037719726562,0,0,0.6115200000000001
2.266480877005961,0,0,1.0869675537109373,0,0,0.6115200000000001
2.2678670449822675,0,0,1.3215993164062498,0,0,0.84084
2.2692534899979364,0,0,1.5059528442382812,0,0,0.84084
2.2706402690091636,0,0,1.4820108276367188,0,0,0.6115200000000001
2.272025621990906,0,0,1.426944189453125,0,0,0.99372
2.273411289002979,0,0,1.1635820068359375,0,0,1.2230400000000001
2.274796585988952,0,0,1.1540052001953125,0,0,0.84084
2.276180810004007,0,0,1.1707646118164061,0,0,0.84084
2.277724641986424,0,0,1.24498486328125,0,0,1.1465999999999998
2.279139883001335,0,0,1.350329736328125,0,0,0.53508
2.2805187919875607,0,0,1.4245499877929686,0,0,0.84084
2.281897292996291,0,0,1.5849614990234373,0,0,0.91728
2.2832761269819457,0,0,1.4963760375976562,0,0,0.84084
2.2847994600015227,0,0,1.218648645019531,0,0,0.68796
2.2862301639979705,0,0,1.1324573852539062,0,0,0.68796
2.287609775987221,0,0,1.158793603515625,0,0,0.30576000000000003
2.28900229500141,0,0,1.3575123413085937,0,0,0.3822
2.2903824810055085,0,0,1.407790576171875,0,0,0.53508
2.29176076001022,0,0,1.707065783691406,0,0,1.2230400000000001
2.293139223998878,0,0,1.2282254516601563,0,0,0.91728
2.2945185769931413,0,0,1.2330138549804688,0,0,0.91728
2.2958969669998623,0,0,1.0965443603515623,0,0,0.99372
2.2972747269959655,0,0,1.1348515869140625,0,0,0.84084
2.298660264990758,0,0,1.3455413330078123,0,0,1.2994800000000002
2.3000466550001875,0,0,1.407790576171875,0,0,0.7644
2.3014326189877465,0,0,1.5634136840820312,0,0,0.45864
2.3028260080027394,0,0,1.5370774658203123,0,0,0.84084
2.3042119909950998,0,0,1.218648645019531,0,0,0.99372
2.305597733007744,0,0,1.0965443603515623,0,0,0.7644
2.3069843080011196,0,0,1.1731588134765625,0,0,0.91728
2.3083699569979217,0,0,1.3718775512695311,0,0,0.30576000000000003
2.309756012982689,0,0,1.458068811035156,0,0,0.0
2.311142624996137,0,0,1.4125789794921875,0,0,0.68796
2.3125283480039798,0,0,1.6448165405273436,0,0,0.91728
2.3139141830033623,0,0,1.2952630981445312,0,0,0.30576000000000003
2.3153011089889333,0,0,1.2425906616210938,0,0,0.84084
2.3166868329863064,0,0,1.197100830078125,0,0,0.84084
2.318073184986133,0,0,1.1444283935546875,0,0,0.91728
2.3194594829983544,0,0,1.3239935180664062,0,0,0.7644
2.320845039008418,0,0,1.4700398193359374,0,0,0.7644
2.3222417249926366,0,0,1.3551181396484375,0,0,0.68796
2.3236275039962493,0,0,1.62805712890625,0,0,1.07016
2.325012579007307,0,0,1.0797849487304687,0,0,1.1465999999999998
2.3263979129842483,0,0,1.1372457885742187,0,0,0.7644
2.3277819700015243,0,0,1.0965443603515623,0,0,0.6115200000000001
2.3291656189830974,0,0,1.005564697265625,0,0,0.07644000000000001
2.330563692987198,0,0,1.3838485595703125,0,0,-0.22932
2.3319527310086414,0,0,1.4125789794921875,0,0,0.53508
2.333339824981522,0,0,1.4724340209960938,0,0,0.84084
2.3347256220004056,0,0,1.199495031738281,0,0,0.84084
2.3361145119997673,0,0,1.2976572998046874,0,0,0.84084
2.33752788300626,0,0,1.1133037719726562,0,0,0.7644
2.3389161250088364,0,0,1.0869675537109373,0,0,0.53508
2.3404235309862997,0,0,1.369483349609375,0,0,0.45864
2.3418399579823017,0,0,1.458068811035156,0,0,0.6115200000000001
2.3432329219940584,0,0,1.5059528442382812,0,0,0.84084
2.3446202740014996,0,0,1.3263877197265623,0,0,0.53508
2.3460092569875997,0,0,1.1635820068359375,0,0,0.7644
2.347423350001918,0,0,1.1659762084960936,0,0,0.91728
2.348810720985057,0,0,1.0726023437499999,0,0,0.68796
2.350197425985243,0,0,1.2042834350585936,0,0,1.07016
2.3515763159957714,0,0,1.5059528442382812,0,0,0.91728
2.3529544089979026,0,0,1.455674609375,0,0,0.7644
2.35433935499168,0,0,1.5753846923828123,0,0,1.07016
2.355726429988863,0,0,1.177947216796875,0,0,0.84084
2.3571136340033263,0,0,1.0845733520507812,0,0,0.7644
2.3585011909890454,0,0,1.1013327636718748,0,0,0.30576000000000003
2.359887692000484,0,0,1.20667763671875,0,0,0.3822
2.3612740999960806,0,0,1.2713210815429687,0,0,0.0
2.3626750450057443,0,0,1.3814543579101561,0,0,0.6115200000000001
2.364061601983849,0,0,1.35990654296875,0,0,0.45864
2.3654482690035366,0,0,1.1731588134765625,0,0,0.84084
2.3668312520021573,0,0,1.2497732666015624,0,0,0.91728
2.368209623004077,0,0,1.1013327636718748,0,0,0.7644
2.3695875499979593,0,0,1.0654197387695312,0,0,0.84084
2.370974846999161,0,0,1.3623007446289062,0,0,0.99372
2.3723610699817073,0,0,1.3862427612304686,0,0,0.68796
2.373746627010405,0,0,1.3000515014648437,0,0,0.91728
2.3751330910017714,0,0,1.5562310791015623,0,0,0.99372
2.376518609991763,0,0,1.1875240234375,0,0,0.84084
2.377904296008637,0,0,1.1444283935546875,0,0,0.84084
2.3792902790009975,0,0,1.1875240234375,0,0,0.53508
2.3806754279939923,0,0,1.2042834350585936,0,0,0.53508
2.382061354990583,0,0,1.3239935180664062,0,0,0.30576000000000003
2.3834478369972203,0,0,1.3120225097656248,0,0,0.91728
2.3848339679825585,0,0,1.4341267944335936,0,0,0.84084
2.3862206719932146,0,0,1.5275006591796874,0,0,0.68796
2.3876082290080376,0,0,1.2737152832031249,0,0,1.07016
2.389002267009346,0,0,1.180341418457031,0,0,0.7644
2.3904027119860984,0,0,1.209071838378906,0,0,0.68796
2.3917929900053423,0,0,1.3048399047851562,0,0,0.84084
2.393178936006734,0,0,1.426944189453125,0,0,0.7644
2.394565769995097,0,0,1.3766659545898436,0,0,0.91728
2.395950826990884,0,0,1.6160861206054686,0,0,0.99372
2.3973367899889126,0,0,1.2306196533203124,0,0,0.84084
2.3987227359903045,0,0,1.149216796875,0,0,0.68796
2.4001082369941287,0,0,1.2114660400390624,0,0,0.84084
2.4014943490037695,0,0,1.1851298217773436,0,0,0.6115200000000001
2.402880812995136,0,0,1.3048399047851562,0,0,0.53508
2.4042668509937357,0,0,1.5251064575195312,0,0,0.53508
2.4056628700054716,0,0,1.5897499023437498,0,0,0.84084
2.407049166999059,0,0,1.0965443603515623,0,0,0.84084
2.408479426987469,0,0,1.218648645019531,0,0,0.91728
2.409953686001245,0,0,1.3359645263671873,0,0,0.53508
2.4113842049846426,0,0,1.1109095703125,0,0,0.53508
2.412796760996571,0,0,1.3383587280273437,0,0,0.53508
2.4142075209820177,0,0,1.39821376953125,0,0,0.84084
2.4155943549994845,0,0,1.5586252807617187,0,0,0.7644
2.4169833000050858,0,0,1.4772224243164063,0,0,0.6115200000000001
2.4183716349944007,0,0,1.235408056640625,0,0,0.91728
2.4197571169934236,0,0,1.1420341918945311,0,0,0.91728
2.4211434699827805,0,0,1.209071838378906,0,0,0.99372
2.422528044990031,0,0,1.2665326782226562,0,0,0.99372
2.423905804986134,0,0,1.5179238525390624,0,0,0.99372
2.425283379998291,0,0,1.3048399047851562,0,0,0.91728
2.4266955470084213,0,0,1.5705962890624998,0,0,1.1465999999999998
2.428079492994584,0,0,1.197100830078125,0,0,0.6115200000000001
2.4294638090068474,0,0,1.0797849487304687,0,0,0.6115200000000001
2.4308646979916375,0,0,1.1348515869140625,0,0,0.45864
2.432252550992416,0,0,1.0773907470703123,0,0,0.45864
2.433640256000217,0,0,1.426944189453125,0,0,0.15288000000000002
2.4350471640063915,0,0,1.4413093994140624,0,0,0.68796
2.436434201983502,0,0,1.6304513305664061,0,0,0.6115200000000001
2.4378208509879187,0,0,1.3934253662109375,0,0,0.53508
2.439201166998828,0,0,1.20667763671875,0,0,0.53508
2.4405878339894116,0,0,1.1827356201171875,0,0,1.07016
2.441966020007385,0,0,1.1707646118164061,0,0,0.91728
2.443353965994902,0,0,1.350329736328125,0,0,1.45236
2.4447401149955112,0,0,1.4413093994140624,0,0,1.07016
2.446125282003777,0,0,1.4915876342773438,0,0,0.84084
2.4475196540006436,0,0,1.5370774658203123,0,0,0.91728
2.4489051919954363,0,0,1.0893617553710937,0,0,1.07016
2.450291766988812,0,0,1.0917559570312498,0,0,0.6115200000000001
2.4516770819900557,0,0,1.235408056640625,0,0,0.3822
2.4530624719918706,0,0,0.9648632690429687,0,0,0.0
2.45444862099248,0,0,1.5586252807617187,0,0,0.0
2.4558340109942947,0,0,1.3958195678710936,0,0,0.7644
2.45721904898528,0,0,1.3072341064453123,0,0,0.91728
2.4586050309881102,0,0,1.3335703247070312,0,0,0.84084
2.459990347007988,0,0,1.2785036865234374,0,0,0.68796
2.461375921993749,0,0,1.1444283935546875,0,0,0.7644
2.4627615709905513,0,0,1.0965443603515623,0,0,0.6115200000000001
2.4641660719935317,0,0,1.1085153686523437,0,0,1.37592
2.4655934429902118,0,0,1.5059528442382812,0,0,1.07016
2.4669817769899964,0,0,1.24498486328125,0,0,0.7644
2.4683737409941386,0,0,1.39821376953125,0,0,0.91728
2.4697597229969688,0,0,1.235408056640625,0,0,1.2230400000000001
2.4711460389953572,0,0,1.3192051147460937,0,0,0.68796
2.4725321320001967,0,0,1.1348515869140625,0,0,0.7644
2.473917725990759,0,0,1.1444283935546875,0,0,0.3822
2.475298022996867,0,0,1.43652099609375,0,0,0.0
2.4766762829967774,0,0,1.3335703247070312,0,0,0.6115200000000001
2.4783608919824474,0,0,1.5322890624999999,0,0,0.68796
2.479765984986443,0,0,1.2330138549804688,0,0,0.68796
2.4811446710082237,0,0,1.3431471313476562,0,0,0.84084
2.482524838997051,0,0,1.1156979736328125,0,0,0.45864
2.4839033400057815,0,0,1.2210428466796874,0,0,0.45864
2.485422413010383,0,0,1.4221557861328125,0,0,0.0
2.486803339998005,0,0,1.3934253662109375,0,0,0.68796
2.488182378001511,0,0,1.7381904052734374,0,0,0.84084
2.4895606380014215,0,0,1.3670891479492187,0,0,0.91728
2.4909413990098983,0,0,1.2569558715820313,0,0,1.2230400000000001
2.492320085002575,0,0,1.1923124267578125,0,0,0.91728
2.493698770995252,0,0,1.235408056640625,0,0,0.91728
2.4950800130027346,0,0,1.0749965454101562,0,0,1.2230400000000001
2.496458181005437,0,0,1.5370774658203123,0,0,0.7644
2.497836588998325,0,0,1.5275006591796874,0,0,0.6115200000000001
2.4992157199885696,0,0,1.455674609375,0,0,0.6115200000000001
2.5005940170085523,0,0,1.199495031738281,0,0,0.7644
2.501972925005248,0,0,1.3455413330078123,0,0,0.68796
2.5033594999986235,0,0,1.1731588134765625,0,0,0.6115200000000001
2.504747019993374,0,0,1.2210428466796874,0,0,0.3822
2.506144927989226,0,0,1.3766659545898436,0,0,-0.15288000000000002
2.5075335770088714,0,0,1.4724340209960938,0,0,0.84084
2.5090796309814323,0,0,1.5011644409179687,0,0,1.07016
2.510568630998023,0,0,1.177947216796875,0,0,1.1465999999999998
2.5128246399981435,0,0,1.180341418457031,0,0,0.7644
2.5143362680100836,0,0,1.1180921752929687,0,0,0.68796
2.5158290459949058,0,0,1.189918225097656,0,0,0.99372
2.5173436749901157,0,0,1.465251416015625,0,0,0.7644
2.5188370079849847,0,0,1.3024457031249999,0,0,0.7644
2.5203616360086016,0,0,1.2761094848632812,0,0,-9.172799999999999
2.5218862839974463,0,0,1.1851298217773436,0,0,1.1465999999999998
2.523433283000486,0,0,1.0893617553710937,0,0,0.68796
2.52491983800428,0,0,1.005564697265625,0,0,0.6115200000000001
2.526366820005933,0,0,1.4125789794921875,0,0,0.53508
2.5277614500082564,0,0,1.43652099609375,0,0,0.91728
2.529145562002668,0,0,1.608903515625,0,0,0.53508
2.5305309889954515,0,0,1.4173673828125,0,0,0.84084
2.5319145639950875,0,0,1.0917559570312498,0,0,1.07016
2.5332976389909163,0,0,1.177947216796875,0,0,0.91728
2.5346813249925617,0,0,1.177947216796875,0,0,0.68796
2.536069455993129,0,0,1.149216796875,0,0,0.6115200000000001
2.53745238299598,0,0,1.4772224243164063,0,0,0.6115200000000001
2.538835494982777,0,0,1.426944189453125,0,0,0.53508
2.540240754984552,0,0,1.5610194824218748,0,0,1.1465999999999998
2.5416267919936217,0,0,1.2282254516601563,0,0,0.7644
2.5430103490070906,0,0,1.2210428466796874,0,0,0.84084
2.544394202006515,0,0,1.1563994018554686,0,0,0.6115200000000001
2.5457774619862903,0,0,1.197100830078125,0,0,0.53508
2.547174573992379,0,0,1.4101847778320311,0,0,0.15288000000000002
2.5485605190042406,0,0,1.4939818359375,0,0,0.84084
2.54994378000265,0,0,1.2425906616210938,0,0,0.6115200000000001
2.5513266880006995,0,0,1.3551181396484375,0,0,0.99372
2.552714836987434,0,0,1.0726023437499999,0,0,1.1465999999999998
2.554097226995509,0,0,1.3215993164062498,0,0,0.91728
2.5554810799949337,0,0,1.1156979736328125,0,0,0.7644
2.556870098982472,0,0,1.13006318359375,0,0,1.37592
2.5582503780024126,0,0,1.455674609375,0,0,0.45864
2.5596240459999535,0,0,1.216254443359375,0,0,0.84084
2.560997936001513,0,0,1.5131354492187499,0,0,0.91728
2.562393714004429,0,0,1.16837041015625,0,0,0.68796
2.5637769369932357,0,0,1.139639990234375,0,0,0.6115200000000001
2.5651595119852573,0,0,1.1468225952148436,0,0,0.53508
2.5665425499901175,0,0,1.1276689819335937,0,0,0.7644
2.5679445329878945,0,0,1.3623007446289062,0,0,0.30576000000000003
2.569328237004811,0,0,1.4700398193359374,0,0,0.99372
2.5707138309953734,0,0,1.3862427612304686,0,0,0.7644
2.572096108982805,0,0,1.22583125,0,0,0.99372
2.573478092002915,0,0,1.35990654296875,0,0,1.1465999999999998
2.574861000000965,0,0,1.2856862915039062,0,0,0.99372
2.5762430379982106,0,0,1.1013327636718748,0,0,0.53508
2.5776289280038327,0,0,1.1635820068359375,0,0,0.91728
2.5790115220006555,0,0,1.3048399047851562,0,0,0.68796
2.5803938749886584,0,0,1.3335703247070312,0,0,0.53508
2.581776226987131,0,0,1.5705962890624998,0,0,1.2230400000000001
2.583166986994911,0,0,1.1851298217773436,0,0,0.99372
2.5845498029957525,0,0,1.1037269653320312,0,0,0.91728
2.5859325820056256,0,0,0.9241618408203125,0,0,0.68796
2.5873169350088574,0,0,1.2114660400390624,0,0,0.3822
2.588699916988844,0,0,1.3359645263671873,0,0,-0.3822
2.5900843440031167,0,0,1.3766659545898436,0,0,0.6115200000000001
2.591467603982892,0,0,1.5562310791015623,0,0,0.6115200000000001
2.5928509020013735,0,0,1.458068811035156,0,0,0.99372
2.594250624999404,0,0,1.189918225097656,0,0,1.07016
2.5956337369862013,0,0,1.216254443359375,0,0,0.84084
2.59701681198203,0,0,1.2138602416992186,0,0,-9.24924
2.5984013679844793,0,0,1.3431471313476562,0,0,0.99372
2.5997832769935485,0,0,1.4628572143554686,0,0,0.7644
2.601166573993396,0,0,1.3910311645507811,0,0,0.91728
2.6025491670006886,0,0,1.5035586425781249,0,0,0.91728
2.603931724006543,0,0,1.1563994018554686,0,0,0.84084
2.605314576998353,0,0,1.2282254516601563,0,0,0.68796
2.606697448005434,0,0,1.1133037719726562,0,0,0.68796
2.608079726982396,0,0,1.2761094848632812,0,0,0.22932
2.6094626169942785,0,0,1.4915876342773438,0,0,0.0
2.610845451010391,0,0,1.4700398193359374,0,0,0.68796
2.6122354329854716,0,0,1.6256629272460936,0,0,0.99372
2.6136178789893165,0,0,1.3814543579101561,0,0,0.6115200000000001
2.6150006389943883,0,0,1.2856862915039062,0,0,1.07016
2.6163833439932205,0,0,1.0390835205078124,0,0,0.84084
2.6177655670035165,0,0,1.1947066284179686,0,0,0.7644
2.6191486050083768,0,0,1.3479355346679687,0,0,0.84084
2.62053114300943,0,0,1.5275006591796874,0,0,0.6115200000000001
2.621913440001663,0,0,1.448492004394531,0,0,0.68796
2.623296534002293,0,0,1.465251416015625,0,0,0.84084
2.624679145985283,0,0,1.1013327636718748,0,0,1.07016
2.6260613320046104,0,0,1.149216796875,0,0,0.84084
2.6274446850002278,0,0,1.0558429321289062,0,0,0.91728
2.6288274260004982,0,0,1.2042834350585936,0,0,0.53508
2.6302106310031377,0,0,1.4820108276367188,0,0,0.15288000000000002
2.6315938729967456,0,0,1.5179238525390624,0,0,0.45864
2.6329760029911995,0,0,1.3623007446289062,0,0,0.53508
2.634359374991618,0,0,1.1611878051757811,0,0,0.53508
2.6357415239908732,0,0,1.0773907470703123,0,0,0.99372
2.637123488006182,0,0,1.0390835205078124,0,0,0.7644
2.6385070070100483,0,0,1.1516109985351561,0,0,0.53508
2.639888970996253,0,0,1.2425906616210938,0,0,0.84084
2.6412787679873873,0,0,1.388636962890625,0,0,0.91728
2.642674676986644,0,0,1.3168109130859373,0,0,0.91728
2.644058011006564,0,0,1.4125789794921875,0,0,0.99372
2.645440455991775,0,0,1.1875240234375,0,0,1.1465999999999998
2.6468233829946257,0,0,1.2210428466796874,0,0,0.7644
2.648206329002278,0,0,1.2378022583007813,0,0,0.84084
2.6495886819902807,0,0,1.2282254516601563,0,0,0.45864
2.6509711270045955,0,0,1.5155296508789062,0,0,0.53508
2.6523537949833553,0,0,1.24498486328125,0,0,0.7644
2.6537364439864177,0,0,1.4891934326171874,0,0,0.91728
2.655125871009659,0,0,1.1156979736328125,0,0,0.53508
2.65650855700369,0,0,1.0989385620117187,0,0,0.7644
2.6579012610018253,0,0,0.9409212524414062,0,0,0.45864
2.659337205986958,0,0,1.1276689819335937,0,0,0.7644
2.660782521008514,0,0,1.2330138549804688,0,0,0.53508
2.662172707001446,0,0,1.43652099609375,0,0,0.91728
2.663555651990464,0,0,1.2401964599609374,0,0,0.91728
2.664938486996107,0,0,1.5442600708007812,0,0,0.7644
2.6663222099887207,0,0,1.199495031738281,0,0,1.1465999999999998
2.6677049889985938,0,0,1.0797849487304687,0,0,0.68796
2.6690878229856025,0,0,1.1372457885742187,0,0,0.84084
2.6704746019968297,0,0,1.2880804931640624,0,0,0.99372
2.671857806009939,0,0,1.43652099609375,0,0,0.6115200000000001
2.6732403810019605,0,0,1.24498486328125,0,0,0.53508
2.674624067993136,0,0,1.6615759521484375,0,0,0.91728
2.676006919995416,0,0,1.1827356201171875,0,0,0.91728
2.67738929198822,0,0,1.2330138549804688,0,0,0.7644
2.678779089008458,0,0,1.177947216796875,0,0,0.45864
2.680162422999274,0,0,1.2306196533203124,0,0,0.53508
2.6815451830043457,0,0,1.5155296508789062,0,0,0.3822
2.6829294619965367,0,0,1.39821376953125,0,0,0.68796
2.6843118149845395,0,0,1.5251064575195312,0,0,0.7644
2.6857016120047774,0,0,1.4700398193359374,0,0,0.91728
2.687104206008371,0,0,1.1731588134765625,0,0,0.84084
2.688487465988146,0,0,1.120486376953125,0,0,0.7644
2.689870967005845,0,0,1.1180921752929687,0,0,0.6115200000000001
2.69125606000307,0,0,1.2617442749023438,0,0,1.2230400000000001
2.6926393949834164,0,0,1.3000515014648437,0,0,0.84084
2.694022395007778,0,0,1.4030021728515625,0,0,0.7644
2.6954058219853323,0,0,1.618480322265625,0,0,0.7644
2.6967889899970032,0,0,1.2306196533203124,0,0,0.91728
2.6981732129934244,0,0,1.1707646118164061,0,0,0.45864
2.6995743250008672,0,0,1.1659762084960936,0,0,0.45864
2.7009577699936926,0,0,1.2904746948242187,0,0,0.6115200000000001
2.7023414009890985,0,0,1.3646949462890625,0,0,0.0
2.703724753984716,0,0,1.419761584472656,0,0,0.68796
2.7051084589911625,0,0,1.5945383056640625,0,0,1.07016
2.7064914969960228,0,0,1.4772224243164063,0,0,0.68796
2.707873831008328,0,0,1.0726023437499999,0,0,1.1465999999999998
2.7092570359818637,0,0,1.1324573852539062,0,0,0.91728
2.7106412959983572,0,0,1.1659762084960936,0,0,0.91728
2.712030592985684,0,0,1.369483349609375,0,0,1.2994800000000002
2.713414389989339,0,0,1.5059528442382812,0,0,0.6115200000000001
2.7147974469990004,0,0,1.2401964599609374,0,0,0.68796
2.716179965995252,0,0,1.369483349609375,0,0,0.7644
2.7175631150021218,0,0,1.0749965454101562,0,0,0.91728
2.718946061009774,0,0,1.2018892333984375,0,0,0.91728
2.7203289690078236,0,0,1.197100830078125,0,0,0.6115200000000001
2.721712266007671,0,0,1.0773907470703123,0,0,0.45864
2.723095027002273,0,0,1.4173673828125,0,0,0.0
2.7244774909922853,0,0,1.5179238525390624,0,0,-9.32568
2.725862416991731,0,0,1.2904746948242187,0,0,1.07016
2.72724549198756,0,0,1.22583125,0,0,0.91728
2.728628345008474,0,0,1.2785036865234374,0,0,1.2994800000000002
2.730011050007306,0,0,1.1516109985351561,0,0,1.1465999999999998
2.731394236005144,0,0,1.1109095703125,0,0,0.68796
2.732776441000169,0,0,1.158793603515625,0,0,0.99372
2.7341600710060447,0,0,1.5011644409179687,0,0,0.6115200000000001
2.7355426650028676,0,0,1.3239935180664062,0,0,1.07016
2.7369258510007057,0,0,1.3096283081054687,0,0,0.68796
2.738309834006941,0,0,1.158793603515625,0,0,1.2230400000000001
2.739691594004398,0,0,1.0893617553710937,0,0,0.91728
2.7410743350046687,0,0,1.180341418457031,0,0,0.3822
2.742465262010228,0,0,1.216254443359375,0,0,0.45864
2.743838855996728,0,0,1.3192051147460937,0,0,0.22932
2.745211745990673,0,0,1.2593500732421874,0,0,0.7644
2.74659196898574,0,0,1.426944189453125,0,0,1.1465999999999998
2.747974989004433,0,0,1.1156979736328125,0,0,0.45864
2.7493572300008964,0,0,1.235408056640625,0,0,0.6115200000000001
2.7507396760047413,0,0,1.2138602416992186,0,0,0.68796
2.752122047008015,0,0,1.16837041015625,0,0,0.68796
2.753503288986394,0,0,1.2282254516601563,0,0,0.99372
2.754885956994258,0,0,1.4317325927734375,0,0,0.53508
2.7562683830037713,0,0,1.3527239379882812,0,0,0.91728
2.7576572920079343,0,0,1.6472107421875,0,0,0.6115200000000001
2.7590403299836908,0,0,1.3359645263671873,0,0,0.99372
2.7604223859962076,0,0,1.218648645019531,0,0,0.53508
2.7618045719864313,0,0,1.0702081420898437,0,0,0.68796
2.7631872220081277,0,0,1.158793603515625,0,0,0.6115200000000001
2.7645689449855126,0,0,1.455674609375,0,0,0.07644000000000001
2.765951334993588,0,0,1.3192051147460937,0,0,0.68796
2.76734324300196,0,0,1.5753846923828123,0,0,1.2994800000000002
2.7687260590028018,0,0,1.369483349609375,0,0,0.91728
2.7701082449930254,0,0,1.20667763671875,0,0,0.99372
2.7714909490023274,0,0,1.2928688964843749,0,0,0.84084
2.7728781169862486,0,0,1.0989385620117187,0,0,0.7644
2.7742616739997175,0,0,1.3120225097656248,0,0,0.84084
2.7756431190064177,0,0,1.5155296508789062,0,0,0.6115200000000001
2.7770251570036635,0,0,1.467645617675781,0,0,0.91728
2.7784084730083123,0,0,1.5059528442382812,0,0,0.68796
2.779789528984111,0,0,1.1563994018554686,0,0,1.1465999999999998
2.7811712530092336,0,0,1.1109095703125,0,0,0.99372
2.7825545870000497,0,0,1.0821791503906248,0,0,0.53508
2.7839357549964916,0,0,1.1516109985351561,0,0,0.84084
2.7853174959891476,0,0,1.3718775512695311,0,0,0.22932
2.7867109600047115,0,0,1.4030021728515625,0,0,0.7644
2.7880933129927143,0,0,1.5921441040039062,0,0,0.84084
2.7894752029969823,0,0,1.3407529296874998,0,0,0.99372
2.790857869986212,0,0,1.1563994018554686,0,0,0.7644
2.792239631002303,0,0,1.120486376953125,0,0,0.53508
2.7936213909997605,0,0,1.2138602416992186,0,0,0.45864
2.795003651001025,0,0,1.4341267944335936,0,0,0.91728
2.7963862259930465,0,0,1.6519991455078125,0,0,0.91728
2.797768338001333,0,0,1.3000515014648437,0,0,0.68796
2.799150838982314,0,0,1.4724340209960938,0,0,0.84084
2.800532766006654,0,0,1.1013327636718748,0,0,1.07016
2.8019150260079186,0,0,1.1923124267578125,0,0,0.6115200000000001
2.8032976760005113,0,0,1.1444283935546875,0,0,-9.172799999999999
2.804680825007381,0,0,1.1180921752929687,0,0,0.7644
2.8060631770058535,0,0,1.4891934326171874,0,0,0.30576000000000003
2.8074454379966483,0,0,1.4245499877929686,0,0,0.53508
2.8088279390067328,0,0,1.4915876342773438,0,0,0.84084
2.8102113289933186,0,0,1.180341418457031,0,0,0.68796
2.811593329999596,0,0,1.13006318359375,0,0,0.6115200000000001
2.8129754599940497,0,0,1.2018892333984375,0,0,0.53508
2.8143584429926705,0,0,1.0797849487304687,0,0,0.84084
2.8157464060059283,0,0,1.2497732666015624,0,0,0.45864
2.817129000002751,0,0,1.37906015625,0,0,0.7644
2.8185121679853182,0,0,1.2785036865234374,0,0,0.7644
2.8198952979873866,0,0,1.2689268798828124,0,0,0.7644
2.8212777809822,0,0,1.0797849487304687,0,0,0.84084
2.8226758370001335,0,0,1.3192051147460937,0,0,0.7644
2.8240579859993886,0,0,1.216254443359375,0,0,0.7644
2.8254400239966344,0,0,1.350329736328125,0,0,0.84084
2.8268244699866045,0,0,1.3766659545898436,0,0,0.53508
2.828210637002485,0,0,1.2952630981445312,0,0,0.84084
2.8296030269993935,0,0,1.6472107421875,0,0,0.99372
2.830986176006263,0,0,1.1180921752929687,0,0,0.68796
2.832368139992468,0,0,1.1013327636718748,0,0,0.91728
2.8337501589849126,0,0,1.1085153686523437,0,0,0.53508
2.8351325489929877,0,0,1.22583125,0,0,0.30576000000000003
2.836514475988224,0,0,1.2306196533203124,0,0,0.3822
2.8378961810085457,0,0,1.455674609375,0,0,0.53508
2.839279348991113,0,0,1.350329736328125,0,0,0.84084
2.840661035006633,0,0,1.5562310791015623,0,0,0.68796
2.842042628006311,0,0,1.197100830078125,0,0,1.2230400000000001
2.843425684986869,0,0,1.1659762084960936,0,0,0.84084
2.84480383398477,0,0,1.1947066284179686,0,0,0.91728
2.8462028529902454,0,0,1.2425906616210938,0,0,1.37592
2.8476000579830725,0,0,1.3144167114257812,0,0,0.45864
2.8489829849859234,0,0,1.2138602416992186,0,0,0.84084
2.850366929982556,0,0,1.5346832641601562,0,0,1.2230400000000001
2.85174794998602,0,0,1.1611878051757811,0,0,0.7644
2.8531300429895055,0,0,1.1707646118164061,0,0,0.68796
2.8545135259919334,0,0,1.120486376953125,0,0,0.53508
2.8558960820082575,0,0,1.2593500732421874,0,0,0.30576000000000003
2.8572780280082952,0,0,1.3670891479492187,0,0,-0.15288000000000002
2.858673768991139,0,0,1.4724340209960938,0,0,0.68796
2.8600567700050306,0,0,1.455674609375,0,0,0.68796
2.861440140986815,0,0,1.4101847778320311,0,0,0.91728
2.862822678987868,0,0,1.199495031738281,0,0,1.2230400000000001
2.864205346995732,0,0,1.13006318359375,0,0,0.84084
2.8655869780050125,0,0,1.0773907470703123,0,0,0.53508
2.8669695339922328,0,0,1.3742717529296875,0,0,0.91728
2.8683520169870462,0,0,1.5011644409179687,0,0,0.84084
2.8697340179933235,0,0,1.4245499877929686,0,0,0.84084
2.871115166984964,0,0,1.62805712890625,0,0,0.68796
2.8730400129861664,0,0,1.2785036865234374,0,0,0.6115200000000001
2.874478457000805,0,0,1.1228805786132812,0,0,0.7644
2.875860828993609,0,0,1.1372457885742187,0,0,0.68796
2.8772412189864554,0,0,1.3168109130859373,0,0,1.2230400000000001
2.878626293997513,0,0,1.4245499877929686,0,0,0.91728
2.880006997991586,0,0,1.4341267944335936,0,0,0.68796
2.881386018008925,0,0,1.5394716674804687,0,0,1.1465999999999998
2.882767425995553,0,0,1.1659762084960936,0,0,0.91728
2.8841470750048757,0,0,1.2282254516601563,0,0,0.68796
2.885528762009926,0,0,1.3096283081054687,0,0,0.3822
2.8869093919929583,0,0,1.2114660400390624,0,0,0.3822
2.888288133981405,0,0,1.3527239379882812,0,0,0.15288000000000002
2.8896668390079867,0,0,1.3958195678710936,0,0,0.6115200000000001
2.8910480059857946,0,0,1.5442600708007812,0,0,0.7644
2.8924268409900833,0,0,1.5251064575195312,0,0,0.53508
2.893806156993378,0,0,1.197100830078125,0,0,0.84084
2.8951869719894603,0,0,1.1875240234375,0,0,0.99372
2.8965656959917396,0,0,0.9241618408203125,0,0,0.99372
2.8979443819844164,0,0,1.2234370483398436,0,0,1.07016
2.899333271983778,0,0,1.3862427612304686,0,0,0.6115200000000001
2.900720364996232,0,0,1.438915197753906,0,0,0.7644
2.9021069220034406,0,0,1.5227122558593749,0,0,0.84084
2.903493810998043,0,0,1.1109095703125,0,0,0.84084
2.904880146001233,0,0,1.1348515869140625,0,0,0.84084
2.9062664799857885,0,0,1.1635820068359375,0,0,0.53508
2.907652795984177,0,0,0.9816226806640624,0,0,0.53508
2.9090798149991315,0,0,1.5035586425781249,0,0,0.30576000000000003
2.910517056006938,0,0,1.6424223388671875,0,0,0.7644
2.9120176849828567,0,0,1.5203180541992187,0,0,0.91728
2.9134069819992874,0,0,1.2282254516601563,0,0,0.91728
2.914856593008153,0,0,1.2473790649414063,0,0,1.07016
2.916244778985856,0,0,1.3239935180664062,0,0,0.7644
2.917651391006075,0,0,1.2593500732421874,0,0,0.7644
2.919038650987204,0,0,1.3407529296874998,0,0,0.7644
2.92042541099363,0,0,1.649604943847656,0,0,0.68796
2.9218117269920185,0,0,1.4939818359375,0,0,0.68796
2.9231988760002423,0,0,1.458068811035156,0,0,0.68796
2.9245856549823657,0,0,0.9265560424804687,0,0,1.07016
2.925971674005268,0,0,1.120486376953125,0,0,0.91728
2.9273582309833728,0,0,1.1109095703125,0,0,0.7644
2.928745084005641,0,0,1.3215993164062498,0,0,0.91728
2.9301539360021707,0,0,1.4532804077148436,0,0,0.3822
2.931542881007772,0,0,1.4508862060546874,0,0,0.91728
2.932939363992773,0,0,1.5658078857421873,0,0,0.99372
2.9343269570090342,0,0,1.1875240234375,0,0,0.7644
2.9357126989925746,0,0,1.1659762084960936,0,0,0.6115200000000001
2.937099162983941,0,0,1.216254443359375,0,0,0.30576000000000003
2.938486181985354,0,0,1.1013327636718748,0,0,0.6115200000000001
2.939872404997004,0,0,1.5275006591796874,0,0,0.84084
2.9412589249841403,0,0,1.438915197753906,0,0,0.68796
2.942646073992364,0,0,1.5777788940429687,0,0,0.99372
2.94403148200945,0,0,1.3742717529296875,0,0,0.91728
2.9454172239929903,0,0,1.1348515869140625,0,0,0.91728
2.9468037059996277,0,0,1.1156979736328125,0,0,0.7644
2.948190021998016,0,0,1.0079588989257813,0,0,0.7644
2.9495770229841582,0,0,1.1540052001953125,0,0,0.91728
2.950963838986354,0,0,1.4724340209960938,0,0,0.99372
2.952350061998004,0,0,1.3239935180664062,0,0,0.84084
2.953736341005424,0,0,1.5562310791015623,0,0,0.84084
2.9551233039819635,0,0,1.197100830078125,0,0,0.68796
2.9565096019941848,0,0,1.369483349609375,0,0,0.84084
2.9578957140038256,0,0,1.0462661254882812,0,0,0.3822
2.9592901959840674,0,0,1.2042834350585936,0,0,0.68796
2.9606797519954853,0,0,1.5322890624999999,0,0,0.0
2.9620743639825378,0,0,1.3479355346679687,0,0,0.68796
2.963461865001591,0,0,1.3407529296874998,0,0,0.91728
2.9648484220087994,0,0,1.2234370483398436,0,0,1.5288
2.9662496079981793,0,0,1.3024457031249999,0,0,0.91728
2.9676364609913435,0,0,1.0893617553710937,0,0,0.7644
2.9690226099919528,0,0,1.13006318359375,0,0,0.68796
2.9704100549861323,0,0,1.199495031738281,0,0,0.99372
2.971795833989745,0,0,1.4101847778320311,0,0,0.84084
2.973181723005837,0,0,1.2665326782226562,0,0,0.84084
2.9745677610044368,0,0,1.6639701538085936,0,0,1.1465999999999998
2.975954522000393,0,0,1.1444283935546875,0,0,0.84084
2.9773402260034345,0,0,1.120486376953125,0,0,0.53508
2.9787267269857693,0,0,1.197100830078125,0,0,0.6115200000000001
2.980112913006451,0,0,1.2497732666015624,0,0,0.6115200000000001
2.9814986920100637,0,0,1.3215993164062498,0,0,0.22932
2.982885062985588,0,0,1.3096283081054687,0,0,0.7644
2.9842717119900044,0,0,1.4796166259765624,0,0,0.91728
2.985658065008465,0,0,1.2018892333984375,0,0,0.68796
2.9870443620020524,0,0,1.2282254516601563,0,0,0.99372
2.988430530007463,0,0,1.0797849487304687,0,0,0.6115200000000001
2.98981688299682,0,0,1.0726023437499999,0,0,0.84084
2.9912112909951247,0,0,1.0893617553710937,0,0,0.91728
2.9925975329824723,0,0,1.3766659545898436,0,0,0.68796
2.99398420000216,0,0,1.3383587280273437,0,0,0.91728
2.9953704419895075,0,0,1.66636435546875,0,0,0.6115200000000001
2.9967568689899053,0,0,1.189918225097656,0,0,0.84084
2.9981446659949142,0,0,1.16837041015625,0,0,0.68796
2.999530519009568,0,0,1.3144167114257812,0,0,0.84084
3.000916889985092,0,0,1.1827356201171875,0,0,0.91728
3.0023039279913064,0,0,1.369483349609375,0,0,0.07644000000000001
3.0036897439858876,0,0,1.3215993164062498,0,0,0.68796
3.0050821710028686,0,0,1.5658078857421873,0,0,2.36964
3.0064694859902374,0,0,1.4030021728515625,0,0,0.68796
3.007855801988626,0,0,1.2282254516601563,0,0,0.68796
3.009241783991456,0,0,1.1851298217773436,0,0,0.84084
3.010629414988216,0,0,1.2665326782226562,0,0,0.7644
3.012014731008094,0,0,1.3814543579101561,0,0,0.68796
3.013400694995653,0,0,1.4891934326171874,0,0,0.91728
3.014787066000281,0,0,1.4915876342773438,0,0,0.53508
3.01617297399207,0,0,1.618480322265625,0,0,0.3822
3.0175586600089446,0,0,1.2018892333984375,0,0,0.99372
3.018944734998513,0,0,1.1085153686523437,0,0,0.91728
3.020330958010163,0,0,1.158793603515625,0,0,0.91728
3.0217172369884793,0,0,1.2569558715820313,0,0,1.07016
3.023104071005946,0,0,1.4915876342773438,0,0,0.07644000000000001
3.0244897390075494,0,0,1.5011644409179687,0,0,0.68796
3.0258756469993386,0,0,1.5897499023437498,0,0,1.2230400000000001
3.027262277988484,0,0,1.3623007446289062,0,0,0.68796
3.0286497969937045,0,0,1.2138602416992186,0,0,1.1465999999999998
3.0300360579858534,0,0,1.1444283935546875,0,0,0.68796
3.0314235030091368,0,0,1.1731588134765625,0,0,0.6115200000000001
3.032809466996696,0,0,1.3862427612304686,0,0,0.84084
3.0341970789886545,0,0,1.43652099609375,0,0,0.53508
3.0355828019964974,0,0,1.5131354492187499,0,0,0.91728
3.036968803004129,0,0,1.35990654296875,0,0,0.45864
3.0383556739834603,0,0,1.1659762084960936,0,0,1.45236
3.0397408599965274,0,0,1.16837041015625,0,0,0.7644
3.041126861004159,0,0,1.1037269653320312,0,0,0.6115200000000001
3.042513566004345,0,0,1.3359645263671873,0,0,1.07016
3.0438989739923272,0,0,1.4939818359375,0,0,0.53508
3.045285086001968,0,0,1.4006079711914061,0,0,20
3.046672642987687,0,0,1.5107412475585937,0,0,0.0
3.0480585510085803,0,0,1.1540052001953125,0,0,0.53508
3.049460440990515,0,0,1.1348515869140625,0,0,0.84084
3.0508469789929222,0,0,1.2713210815429687,0,0,0.68796
3.052233238995541,0,0,1.0726023437499999,0,0,0.3822
3.053619776997948,0,0,1.3862427612304686,0,0,0.3822
3.055005814996548,0,0,1.4628572143554686,0,0,0.45864
3.0563916859973688,0,0,1.3048399047851562,0,0,0.53508
3.057778538990533,0,0,1.197100830078125,0,0,0.68796
3.0591650400019716,0,0,1.0965443603515623,0,0,1.1465999999999998
3.06055111499154,0,0,1.177947216796875,0,0,0.84084
3.0619377449911553,0,0,1.0989385620117187,0,0,0.84084
3.063324246002594,0,0,1.2234370483398436,0,0,1.07016
3.064710192003986,0,0,1.429338391113281,0,0,0.45864
3.066096969996579,0,0,1.2234370483398436,0,0,1.07016
3.0674894530093297,0,0,1.4772224243164063,0,0,0.91728
3.068875842000125,0,0,1.209071838378906,0,0,0.84084
3.070263417001115,0,0,1.2904746948242187,0,0,0.6115200000000001
3.0716490850027185,0,0,1.199495031738281,0,0,0.3822
3.0730347159842495,0,0,1.2138602416992186,0,0,0.3822
3.0744220679916907,0,0,1.419761584472656,0,0,0.07644000000000001
3.0758073100005277,0,0,1.2737152832031249,0,0,1.2230400000000001
3.0771932739880867,0,0,1.3072341064453123,0,0,0.91728
3.0785801640013233,0,0,1.139639990234375,0,0,0.6115200000000001
3.0799714979948476,0,0,1.2018892333984375,0,0,1.1465999999999998
3.081357832008507,0,0,1.149216796875,0,0,0.6115200000000001
3.082744499988621,0,0,1.1228805786132812,0,0,0.91728
3.0841305009962525,0,0,1.0941501586914062,0,0,1.5288
3.085518982989015,0,0,1.465251416015625,0,0,0.7644
3.086906390992226,0,0,1.2473790649414063,0,0,0.7644
3.088292743981583,0,0,1.5729904907226562,0,0,0.84084
3.089678966993233,0,0,1.2928688964843749,0,0,0.84084
3.0910657460044604,0,0,1.3263877197265623,0,0,0.68796
3.092463951004902,0,0,1.2114660400390624,0,0,0.53508
3.093850470002508,0,0,1.2497732666015624,0,0,0.30576000000000003
3.095236303983256,0,0,1.4532804077148436,0,0,0.15288000000000002
3.096622897981433,0,0,1.4125789794921875,0,0,0.91728
3.0980090649973135,0,0,1.6256629272460936,0,0,0.84084
3.0993952520075254,0,0,1.429338391113281,0,0,0.53508
3.10078156698728,0,0,1.2569558715820313,0,0,0.7644
3.1021678459946997,0,0,1.177947216796875,0,0,0.7644
3.103555568988668,0,0,1.120486376953125,0,0,0.6115200000000001
3.1049419959890656,0,0,1.2832920898437499,0,0,1.2230400000000001
3.106330959999468,0,0,1.3862427612304686,0,0,0.7644
3.107729590003146,0,0,1.35990654296875,0,0,0.7644
3.1091169430001173,0,0,1.5777788940429687,0,0,0.91728
3.110504610987846,0,0,1.2018892333984375,0,0,1.2994800000000002
3.111890351981856,0,0,1.0917559570312498,0,0,0.91728
3.1132770749973133,0,0,1.216254443359375,0,0,0.45864
3.1146889090014156,0,0,1.3623007446289062,0,0,0.53508
3.1160752440046053,0,0,1.4245499877929686,0,0,0.3822
3.1174621149839368,0,0,1.2880804931640624,0,0,0.84084
3.118848596990574,0,0,1.6424223388671875,0,0,1.1465999999999998
3.1202347649959847,0,0,1.3623007446289062,0,0,0.99372
3.121620672987774,0,0,1.1252747802734375,0,0,0.6115200000000001
3.1230073219921906,0,0,1.1516109985351561,0,0,0.45864
3.1243930269847624,0,0,1.216254443359375,0,0,0.84084
3.1257787689974066,0,0,1.3263877197265623,0,0,0.6115200000000001
3.127164770005038,0,0,1.5251064575195312,0,0,0.53508
3.1285505479900166,0,0,1.5466542724609373,0,0,0.6115200000000001
3.129936363984598,0,0,1.467645617675781,0,0,0.91728
3.1313236609857995,0,0,1.1947066284179686,0,0,0.99372
3.132709661993431,0,0,1.0869675537109373,0,0,0.68796
3.134095310990233,0,0,1.1444283935546875,0,0,0.6115200000000001
3.1354813119978644,0,0,1.3263877197265623,0,0,0.53508
3.136875442985911,0,0,1.6065093139648436,0,0,0.68796
3.138261999003589,0,0,1.4245499877929686,0,0,0.91728
3.1396476849913597,0,0,1.6208745239257811,0,0,-8.71416
3.14103550100117,0,0,1.3407529296874998,0,0,1.07016
3.14242289098911,0,0,1.1516109985351561,0,0,0.45864
3.143808224995155,0,0,1.1252747802734375,0,0,0.45864
3.1451940959959757,0,0,1.2210428466796874,0,0,0.3822
3.1465805229963735,0,0,1.5155296508789062,0,0,0.3822
3.147972209000727,0,0,1.4317325927734375,0,0,0.6115200000000001
3.1493578770023305,0,0,1.22583125,0,0,0.68796
3.150744099984877,0,0,1.3120225097656248,0,0,0.45864
3.1521301190077793,0,0,1.177947216796875,0,0,0.84084
3.153516213002149,0,0,1.1420341918945311,0,0,0.84084
3.154902103007771,0,0,1.2234370483398436,0,0,0.7644
3.156288141006371,0,0,1.2114660400390624,0,0,0.91728
3.157673882000381,0,0,1.4341267944335936,0,0,0.45864
3.1590602720098104,0,0,1.4963760375976562,0,0,0.91728
3.1604962539859116,0,0,1.5107412475585937,0,0,0.91728
3.1619240319996607,0,0,1.2234370483398436,0,0,0.84084
3.1633166630053893,0,0,1.1324573852539062,0,0,0.91728
3.1647031079919543,0,0,1.1420341918945311,0,0,0.53508
3.1661091269925237,0,0,1.2210428466796874,0,0,0.3822
3.1674956280039623,0,0,1.5083470458984374,0,0,0.07644000000000001
3.16888181399554,0,0,1.4030021728515625,0,0,0.7644
3.170268426008988,0,0,1.484405029296875,0,0,1.07016
3.1716539269837085,0,0,1.1635820068359375,0,0,0.7644
3.1730410209856927,0,0,1.1013327636718748,0,0,1.1465999999999998
3.1744268729817122,0,0,1.218648645019531,0,0,0.84084
3.1758127819921356,0,0,1.2138602416992186,0,0,0.84084
3.177198874996975,0,0,1.2617442749023438,0,0,1.1465999999999998
3.178585321002174,0,0,1.47482822265625,0,0,0.68796
3.17997767298948,0,0,1.3838485595703125,0,0,0.6115200000000001
3.181364340998698,0,0,1.2880804931640624,0,0,0.99372
3.1827506010013167,0,0,1.2306196533203124,0,0,0.7644
3.184136194991879,0,0,1.369483349609375,0,0,0.91728
3.185522454994498,0,0,1.1516109985351561,0,0,0.68796
3.186908436997328,0,0,1.177947216796875,0,0,0.53508
3.1882945119868964,0,0,1.3383587280273437,0,0,0.15288000000000002
3.189680865005357,0,0,1.2210428466796874,0,0,0.91728
3.1910669959906954,0,0,1.465251416015625,0,0,0.91728
3.192452922987286,0,0,1.1061211669921875,0,0,0.7644
3.1938387569971383,0,0,1.1755530151367186,0,0,0.7644
3.1952252019837033,0,0,1.0845733520507812,0,0,0.45864
3.196611313993344,0,0,1.1563994018554686,0,0,0.91728
3.197997092996957,0,0,1.3431471313476562,0,0,1.07016
3.199420593009563,0,0,1.4604630126953124,0,0,0.84084
3.200809334986843,0,0,1.37906015625,0,0,0.68796
3.2022021320008207,0,0,1.5370774658203123,0,0,0.91728
3.2035889480030164,0,0,1.2497732666015624,0,0,1.68168
3.2049754860054236,0,0,1.1348515869140625,0,0,0.91728
3.2063612650090363,0,0,1.1635820068359375,0,0,0.3822
3.2077471730008256,0,0,1.3192051147460937,0,0,0.45864
3.2091328219976276,0,0,1.458068811035156,0,0,0.53508
3.210518970998237,0,0,1.3383587280273437,0,0,0.84084
3.2119095459929667,0,0,1.5586252807617187,0,0,1.1465999999999998
3.2132974909909535,0,0,1.20667763671875,0,0,0.7644
3.2146837699983735,0,0,1.2018892333984375,0,0,0.6115200000000001
3.2160699189989828,0,0,1.1707646118164061,0,0,0.30576000000000003
3.2174557159887627,0,0,1.1468225952148436,0,0,0.53508
3.2188419770100154,0,0,1.3239935180664062,0,0,0.68796
3.2202283660008106,0,0,1.4724340209960938,0,0,1.07016
3.2216142189863604,0,0,1.419761584472656,0,0,0.91728
3.223000164987752,0,0,1.4317325927734375,0,0,1.07016
3.2244224429887254,0,0,1.2856862915039062,0,0,1.07016
3.225809110008413,0,0,1.1540052001953125,0,0,0.7644
3.2271957409975585,0,0,1.1563994018554686,0,0,0.91728
3.2285815569921397,0,0,1.2378022583007813,0,0,0.84084
3.2299671869841404,0,0,1.4437036010742186,0,0,0.3822
3.231354002986336,0,0,1.3024457031249999,0,0,0.91728
3.2327396149921697,0,0,1.5538368774414062,0,0,0.99372
3.2341253380000126,0,0,1.1348515869140625,0,0,1.45236
3.2355383390095085,0,0,1.2306196533203124,0,0,0.3822
3.236924116994487,0,0,1.149216796875,0,0,0.45864
3.2383108040085062,0,0,1.254561669921875,0,0,0.45864
3.2396956559969112,0,0,1.4508862060546874,0,0,0.07644000000000001
3.241081416985253,0,0,1.4030021728515625,0,0,0.68796
3.2424673060013447,0,0,1.4891934326171874,0,0,0.6115200000000001
3.24385282600997,0,0,1.3263877197265623,0,0,0.84084
3.2452384189818986,0,0,1.2593500732421874,0,0,0.99372
3.2466251610021573,0,0,1.0917559570312498,0,0,0.84084
3.2480153100041207,0,0,1.3718775512695311,0,0,0.6115200000000001
3.249401051987661,0,0,1.3814543579101561,0,0,1.07016
3.250787108001532,0,0,1.3814543579101561,0,0,0.6115200000000001
3.2521724049875047,0,0,1.5011644409179687,0,0,0.84084
3.2535578509850893,0,0,1.5203180541992187,0,0,0.99372
3.254943943989929,0,0,1.1133037719726562,0,0,0.99372
3.256329111987725,0,0,1.2138602416992186,0,0,0.7644
3.2577143170055933,0,0,1.2928688964843749,0,0,-9.172799999999999
3.259102576994337,0,0,1.139639990234375,0,0,0.45864
3.26048805899336,0,0,1.5083470458984374,0,0,0.0
3.2618734299903736,0,0,1.419761584472656,0,0,0.53508
3.2632595610048156,0,0,1.5753846923828123,0,0,0.68796
3.264645229006419,0,0,1.3168109130859373,0,0,0.6115200000000001
3.266030469996622,0,0,1.1037269653320312,0,0,1.07016
3.2674262860091403,0,0,1.1611878051757811,0,0,0.7644
3.2688126569846645,0,0,1.1659762084960936,0,0,0.68796
3.27019947298686,0,0,1.3958195678710936,0,0,1.07016
3.271585584996501,0,0,1.4628572143554686,0,0,0.7644
3.272971086000325,0,0,1.3120225097656248,0,0,0.91728
3.2743572909967043,0,0,1.467645617675781,0,0,0.7644
3.27574221699615,0,0,1.16837041015625,0,0,1.1465999999999998
3.277127532986924,0,0,1.3144167114257812,0,0,0.7644
3.2785162380023394,0,0,1.2282254516601563,0,0,0.22932
3.279904627997894,0,0,1.158793603515625,0,0,0.3822
3.2812903139856644,0,0,1.4628572143554686,0,0,0.0
3.282693313987693,0,0,1.4221557861328125,0,0,0.84084
3.2840796299860813,0,0,1.43652099609375,0,0,1.07016
3.2854681870085187,0,0,1.2042834350585936,0,0,0.68796
3.2868561880022753,0,0,1.0917559570312498,0,0,0.91728
3.2882413000043016,0,0,1.16837041015625,0,0,0.91728
3.289626966987271,0,0,1.177947216796875,0,0,0.91728
3.291012450004928,0,0,1.0869675537109373,0,0,0.99372
3.2923978389881086,0,0,1.4125789794921875,0,0,0.99372
3.293783450993942,0,0,1.2282254516601563,0,0,0.68796
3.2951691930065863,0,0,1.3287819213867187,0,0,0.7644
3.2965546759951394,0,0,1.0941501586914062,0,0,0.91728
3.2979405100049917,0,0,1.1013327636718748,0,0,0.7644
3.299326918000588,0,0,1.20667763671875,0,0,0.6115200000000001
3.3007124190044124,0,0,1.2593500732421874,0,0,0.3822
3.302098012994975,0,0,1.4532804077148436,0,0,-0.22932
3.3034850689873565,0,0,1.3934253662109375,0,0,0.68796
3.3048707919951994,0,0,1.5466542724609373,0,0,0.91728
3.3062591640045866,0,0,1.1659762084960936,0,0,0.53508
3.307644682994578,0,0,1.2641384765625,0,0,0.91728
3.3090304619981907,0,0,0.9816226806640624,0,0,0.30576000000000003
3.3104166109988,0,0,1.1827356201171875,0,0,0.53508
3.311812297004508,0,0,1.3287819213867187,0,0,1.1465999999999998
3.313197963987477,0,0,1.4508862060546874,0,0,0.91728
3.314585132000502,0,0,1.3383587280273437,0,0,0.91728
3.3159819479915313,0,0,1.649604943847656,0,0,0.99372
3.317367893003393,0,0,1.1755530151367186,0,0,1.07016
3.318758023000555,0,0,1.149216796875,0,0,0.6115200000000001
3.3201794129854534,0,0,1.13006318359375,0,0,0.6115200000000001
3.321567431994481,0,0,1.1875240234375,0,0,0.53508
3.322953784983838,0,0,1.3910311645507811,0,0,9.47856
3.324340082006529,0,0,1.2378022583007813,0,0,0.91728
3.3257261569960974,0,0,1.637633935546875,0,0,0.84084
3.327139380009612,0,0,1.158793603515625,0,0,0.53508
3.3285281769931316,0,0,1.235408056640625,0,0,0.53508
3.329915289010387,0,0,1.1013327636718748,0,0,0.6115200000000001
3.3313221230055206,0,0,1.1420341918945311,0,0,0.84084
3.3327079759910703,0,0,1.3311761230468748,0,0,0.22932
3.3341029949951917,0,0,1.4317325927734375,0,0,0.6115200000000001
3.3354916810058057,0,0,1.455674609375,0,0,0.53508
3.336878442001762,0,0,1.5059528442382812,0,0,0.84084
3.338265442987904,0,0,1.3072341064453123,0,0,0.91728
3.339651813992532,0,0,1.1516109985351561,0,0,1.1465999999999998
3.3410584070079494,0,0,1.3551181396484375,0,0,0.68796
3.3424460559908766,0,0,1.3742717529296875,0,0,1.60524
3.34383190900553,0,0,1.4125789794921875,0,0,0.6115200000000001
3.3452182059991173,0,0,1.2306196533203124,0,0,0.91728
3.346605355007341,0,0,1.6136919189453125,0,0,0.91728
3.34799107798608,0,0,1.3527239379882812,0,0,0.68796
3.349377487000311,0,0,1.1444283935546875,0,0,0.45864
3.3507756539911497,0,0,1.1085153686523437,0,0,0.07644000000000001
3.352161802991759,0,0,1.2952630981445312,0,0,0.22932
3.353547767008422,0,0,1.4173673828125,0,0,0.22932
3.354941249010153,0,0,1.4891934326171874,0,0,0.68796
3.356327510002302,0,0,1.5682020874023437,0,0,0.45864
3.3577145480085164,0,0,1.426944189453125,0,0,0.84084
3.3591015489946585,0,0,1.3192051147460937,0,0,0.99372
3.3604879940103274,0,0,1.1563994018554686,0,0,1.2230400000000001
3.361874310008716,0,0,1.0773907470703123,0,0,0.91728
3.363259254983859,0,0,1.3814543579101561,0,0,1.2994800000000002
3.364643237000564,0,0,1.39821376953125,0,0,0.84084
3.3660380899964366,0,0,1.407790576171875,0,0,0.68796
3.367531200987287,0,0,1.4628572143554686,0,0,0.7644
3.3689238679944538,0,0,1.2401964599609374,0,0,0.84084
3.370327387994621,0,0,1.1516109985351561,0,0,0.68796
3.371711851999862,0,0,1.1420341918945311,0,0,0.6115200000000001
3.3731027779867873,0,0,1.2497732666015624,0,0,0.7644
3.374491352995392,0,0,1.4173673828125,0,0,0.0
3.375899649981875,0,0,1.484405029296875,0,0,0.7644
3.3772892440028954,0,0,1.5897499023437498,0,0,0.99372
3.3786763929820154,0,0,1.3479355346679687,0,0,0.68796
3.380062431009719,0,0,1.2330138549804688,0,0,0.84084
3.3814483580063097,0,0,1.1875240234375,0,0,0.45864
3.3828352839918807,0,0,1.1037269653320312,0,0,0.6115200000000001
3.384221358981449,0,0,1.3718775512695311,0,0,1.07016
3.38560771199991,0,0,1.4221557861328125,0,0,0.84084
3.386994564993074,0,0,1.2306196533203124,0,0,0.68796
3.388380435993895,0,0,1.3766659545898436,0,0,0.84084
3.389766973996302,0,0,1.189918225097656,0,0,1.07016
3.3911536789964885,0,0,1.0797849487304687,0,0,0.84084
3.392539235006552,0,0,1.16837041015625,0,0,0.7644
3.3939251989941113,0,0,1.3000515014648437,0,0,0.99372
3.395311384985689,0,0,1.5227122558593749,0,0,0.84084
3.396697646006942,0,0,1.4772224243164063,0,0,0.99372
3.398083368985681,0,0,1.4700398193359374,0,0,0.91728
3.3994946659950074,0,0,1.1851298217773436,0,0,0.7644
3.4008816109853797,0,0,1.2785036865234374,0,0,0.68796
3.4022689450066537,0,0,1.1947066284179686,0,0,0.53508
3.4036540199886076,0,0,1.1540052001953125,0,0,0.22932
3.4050400579872075,0,0,1.5107412475585937,0,0,0.45864
3.4064268739894032,0,0,1.455674609375,0,0,0.68796
3.4078127820102964,0,0,1.3120225097656248,0,0,0.6115200000000001
3.409198930981802,0,0,1.3383587280273437,0,0,0.7644
3.410624153999379,0,0,1.3144167114257812,0,0,0.91728
3.412064598989673,0,0,1.139639990234375,0,0,0.7644
3.413454711000668,0,0,1.1180921752929687,0,0,0.91728
3.4148466190090403,0,0,1.2210428466796874,0,0,1.2230400000000001
3.416233249998186,0,0,1.407790576171875,0,0,0.68796
3.417619638988981,0,0,1.2641384765625,0,0,0.99372
3.4190056399966124,0,0,1.3311761230468748,0,0,0.84084
3.420393788983347,0,0,1.1611878051757811,0,0,0.84084
3.421780178992776,0,0,1.1252747802734375,0,0,0.53508
3.4231667910062242,0,0,1.199495031738281,0,0,0.3822
3.424552829004824,0,0,1.1659762084960936,0,0,0.6115200000000001
3.425938773987582,0,0,1.2952630981445312,0,0,0.30576000000000003
3.4273254419968,0,0,1.446097802734375,0,0,0.84084
3.4287111650046427,0,0,1.407790576171875,0,0,0.99372
3.4300973330100533,0,0,1.1755530151367186,0,0,0.91728
3.431483833992388,0,0,1.1947066284179686,0,0,0.91728
3.4328698529861867,0,0,1.0271125122070313,0,0,0.99372
3.4342568540014327,0,0,1.1252747802734375,0,0,0.68796
3.435641874006251,0,0,1.3024457031249999,0,0,1.5288
3.437028004002059,0,0,1.5586252807617187,0,0,1.07016
3.4384179310000036,0,0,1.3263877197265623,0,0,0.84084
3.439803616987774,0,0,1.6065093139648436,0,0,0.91728
3.4411895619996358,0,0,1.1324573852539062,0,0,0.84084
3.442591730010463,0,0,1.120486376953125,0,0,0.68796
3.443978897004854,0,0,1.1563994018554686,0,0,0.6115200000000001
3.445364786981372,0,0,1.2617442749023438,0,0,0.22932
3.4467513249837793,0,0,1.467645617675781,0,0,0.0
3.4482097330037504,0,0,1.3000515014648437,0,0,1.07016
3.449597881990485,0,0,1.3958195678710936,0,0,0.99372
3.4509845309949014,0,0,1.1180921752929687,0,0,0.68796
3.4523707169864792,0,0,1.2138602416992186,0,0,0.91728
3.4537571249820758,0,0,1.0630255371093749,0,0,0.22932
3.455143756000325,0,0,1.1372457885742187,0,0,0.6115200000000001
3.456529941991903,0,0,1.2497732666015624,0,0,1.5288
3.457929961004993,0,0,1.3814543579101561,0,0,0.84084
3.459316572989337,0,0,1.3335703247070312,0,0,0.84084
3.460707240999909,0,0,1.6136919189453125,0,0,0.68796
3.4620939639862627,0,0,1.3096283081054687,0,0,0.7644
3.46348074299749,0,0,1.2569558715820313,0,0,0.68796
3.464866577007342,0,0,1.1348515869140625,0,0,0.7644
3.466252929996699,0,0,1.3551181396484375,0,0,0.53508
3.4676383929909207,0,0,1.4317325927734375,0,0,0.45864
3.4690275239991024,0,0,1.158793603515625,0,0,0.99372
3.4704141359834466,0,0,1.5394716674804687,0,0,1.07016
3.47179980398505,0,0,1.235408056640625,0,0,0.68796
3.47318578598788,0,0,1.1635820068359375,0,0,0.6115200000000001
3.4745719539932907,0,0,1.149216796875,0,0,0.53508
3.475958269002149,0,0,1.0869675537109373,0,0,0.68796
3.4773444370075595,0,0,1.3718775512695311,0,0,0.7644
3.478730992996134,0,0,1.5634136840820312,0,0,0.7644
3.480121845990652,0,0,1.3862427612304686,0,0,0.7644
3.4815080509870313,0,0,1.5298948608398437,0,0,0.84084
3.482897515001241,0,0,1.3311761230468748,0,0,0.99372
3.4842837379837874,0,0,1.1707646118164061,0,0,0.91728
3.485673035000218,0,0,1.197100830078125,0,0,0.68796
3.4870713319978677,0,0,1.2880804931640624,0,0,0.53508
3.488457406987436,0,0,1.4724340209960938,0,0,0.68796
3.4898438149830326,0,0,1.5083470458984374,0,0,1.1465999999999998
3.491231093998067,0,0,1.5275006591796874,0,0,1.1465999999999998
3.492616501986049,0,0,1.1228805786132812,0,0,0.7644
3.494002633000491,0,0,1.1947066284179686,0,0,0.53508
3.495388966985047,0,0,1.216254443359375,0,0,0.7644
3.4967748939816374,0,0,1.1348515869140625,0,0,-9.09636
3.4981630429974757,0,0,1.4413093994140624,0,0,0.15288000000000002
3.4995495259936433,0,0,1.4724340209960938,0,0,0.6115200000000001
3.500935488991672,0,0,1.6136919189453125,0,0,0.7644
3.502322304993868,0,0,1.2641384765625,0,0,0.6115200000000001
3.5037088799872436,0,0,1.005564697265625,0,0,0.99372
3.5050950110016856,0,0,1.1252747802734375,0,0,0.91728
3.506481251999503,0,0,1.2234370483398436,0,0,0.91728
3.5078668459900655,0,0,1.3814543579101561,0,0,0.84084
3.510890436999034,0,0,1.4628572143554686,0,0,0.7644
3.512349603988696,0,0,1.4796166259765624,0,0,0.84084
3.513840344006894,0,0,1.1731588134765625,0,0,0.99372
3.5152342520013917,0,0,1.0797849487304687,0,0,0.91728
3.516622364986688,0,0,1.1348515869140625,0,0,0.84084
3.5180298470077105,0,0,1.2880804931640624,0,0,1.2230400000000001
3.519411385001149,0,0,1.484405029296875,0,0,0.30576000000000003
3.520790570997633,0,0,1.4628572143554686,0,0,0.68796
3.522175719990628,0,0,1.637633935546875,0,0,0.99372
3.5235573689860757,0,0,1.1611878051757811,0,0,0.7644
3.5249368519871496,0,0,1.139639990234375,0,0,0.7644
3.526320703997044,0,0,1.1563994018554686,0,0,0.45864
3.5277052609890234,0,0,1.1276689819335937,0,0,0.53508
3.5290887620067224,0,0,1.3838485595703125,0,0,0.6115200000000001
3.530482595990179,0,0,1.448492004394531,0,0,0.7644
3.5318819299864117,0,0,1.5897499023437498,0,0,0.53508
3.533262190001551,0,0,1.2976572998046874,0,0,0.6115200000000001
3.5346484140027314,0,0,1.0797849487304687,0,0,1.07016
3.536035525990883,0,0,1.0845733520507812,0,0,0.84084
3.53742206399329,0,0,0.9241618408203125,0,0,0.91728
3.538804120005807,0,0,1.3383587280273437,0,0,0.91728
3.5401823249994777,0,0,1.458068811035156,0,0,0.6115200000000001
3.541560918005416,0,0,1.2713210815429687,0,0,0.84084
3.542947715992341,0,0,1.4796166259765624,0,0,1.1465999999999998
3.5443335869931616,0,0,1.1468225952148436,0,0,0.91728
3.5457192359899636,0,0,1.369483349609375,0,0,0.68796
3.547103569988394,0,0,1.2952630981445312,0,0,0.3822
3.5484874229878187,0,0,1.149216796875,0,0,0.45864
3.549888478999492,0,0,1.4700398193359374,0,0,0.53508
3.5512755539966747,0,0,1.3455413330078123,0,0,0.91728
3.552661758993054,0,0,1.3862427612304686,0,0,0.84084
3.5540474820008967,0,0,1.1659762084960936,0,0,0.84084
3.5554319089860655,0,0,1.1635820068359375,0,0,0.91728
3.55684353900142,0,0,1.1540052001953125,0,0,0.99372
3.5582627989933826,0,0,1.1635820068359375,0,0,0.84084
3.559659096004907,0,0,1.2761094848632812,0,0,1.45236
