Time,AccelX1,AccelY1,AccelZ1,AccelX2,AccelY2,AccelZ2
4.870002157986164e-06,0,0,1.4867992309570313,0,0,0.91728
0.0036440269905142486,0,0,1.4724340209960938,0,0,0.99372
0.007272516988450661,0,0,1.0797849487304687,0,0,0.6115200000000001
0.010875414998736233,0,0,1.3335703247070312,0,0,0.84084
0.014398703002370894,0,0,1.3455413330078123,0,0,0.53508
0.01792375001241453,0,0,1.2306196533203124,0,0,1.2994800000000002
0.021442222991026938,0,0,1.446097802734375,0,0,0.7644
0.02496080700075254,0,0,1.1109095703125,0,0,0.7644
0.02876188699156046,0,0,1.2665326782226562,0,0,1.2230400000000001
0.0324106740008574,0,0,1.2761094848632812,0,0,0.15288000000000002
0.035948590986663476,0,0,1.189918225097656,0,0,0.99372
0.03946434200042859,0,0,1.2569558715820313,0,0,0.3822
0.042967407003743574,0,0,1.3383587280273437,0,0,0.91728
0.046487732004607096,0,0,1.0749965454101562,0,0,0.68796
0.05000464999466203,0,0,1.2952630981445312,0,0,0.68796
0.05352391899214126,0,0,1.4221557861328125,0,0,0.68796
0.05702733699581586,0,0,1.189918225097656,0,0,0.99372
0.06054160601343028,0,0,1.3311761230468748,0,0,0.68796
0.0640611719863955,0,0,1.1516109985351561,0,0,1.07016
0.06757508899318054,0,0,1.0965443603515623,0,0,1.2230400000000001
0.07133385600172915,0,0,1.3646949462890625,0,0,0.91728
0.07515382498968393,0,0,1.2761094848632812,0,0,0.68796
0.07867640900076367,0,0,1.3407529296874998,0,0,0.6115200000000001
0.08219149301294237,0,0,1.2282254516601563,0,0,1.07016
0.08569576300214976,0,0,1.1611878051757811,0,0,0.84084
0.08921456898679025,0,0,1.235408056640625,0,0,0.7644
0.09275635599624366,0,0,1.2665326782226562,0,0,0.84084
0.09627706999890506,0,0,1.4532804077148436,0,0,0.3822
0.09989057900384068,0,0,1.0749965454101562,0,0,0.84084
0.10333992299274541,0,0,1.2641384765625,0,0,1.2230400000000001
0.10646099399309605,0,0,1.1324573852539062,0,0,1.2230400000000001
0.10956245398847386,0,0,1.2306196533203124,0,0,0.6115200000000001
0.11267213599057868,0,0,1.2378022583007813,0,0,0.6115200000000001
0.11592194600962102,0,0,1.2210428466796874,0,0,0.7644
0.11910007099504583,0,0,1.1468225952148436,0,0,0.68796
0.12221877201227471,0,0,1.254561669921875,0,0,1.07016
0.12534269399475306,0,0,1.446097802734375,0,0,1.2994800000000002
0.1285320789902471,0,0,1.5825672973632812,0,0,0.84084
0.13167909398907796,0,0,1.1372457885742187,0,0,0.7644
0.13479875700431876,0,0,1.3958195678710936,0,0,0.99372
0.1379152910085395,0,0,1.3838485595703125,0,0,0.84084
0.14104606601176783,0,0,1.2808978881835937,0,0,0.6115200000000001
0.14417137700365856,0,0,1.24498486328125,0,0,0.45864
0.1472917810024228,0,0,1.2928688964843749,0,0,1.07016
0.15039233400602825,0,0,1.1180921752929687,0,0,0.6115200000000001
0.15350881198537536,0,0,1.2497732666015624,0,0,1.2230400000000001
0.15662512299604714,0,0,1.3431471313476562,0,0,1.2230400000000001
0.15974149099201895,0,0,1.5059528442382812,0,0,1.1465999999999998
0.16286811701138504,0,0,1.2976572998046874,0,0,0.7644
0.16598555800737813,0,0,1.2761094848632812,0,0,0.68796
0.16921175699098967,0,0,1.484405029296875,0,0,0.68796
0.1723549939924851,0,0,1.3646949462890625,0,0,0.6115200000000001
0.17547182401176542,0,0,1.3048399047851562,0,0,0.68796
0.1785911539918743,0,0,1.4006079711914061,0,0,0.68796
0.18170622500474565,0,0,1.2593500732421874,0,0,1.2230400000000001
0.18481796298874542,0,0,1.2785036865234374,0,0,0.7644
0.18793486698996276,0,0,1.5035586425781249,0,0,0.99372
0.19104382701334544,0,0,1.2928688964843749,0,0,1.1465999999999998
0.19415908301016316,0,0,1.0893617553710937,0,0,0.99372
0.19729280099272728,0,0,1.2856862915039062,0,0,0.7644
0.20043822401203215,0,0,1.2569558715820313,0,0,0.53508
0.20355551698594354,0,0,1.1420341918945311,0,0,0.30576000000000003
0.20666803201311268,0,0,1.2832920898437499,0,0,0.45864
0.20977988099912181,0,0,1.2138602416992186,0,0,0.91728
0.21289017400704324,0,0,1.2521674682617188,0,0,0.53508
0.21603404099005274,0,0,1.2689268798828124,0,0,1.5288
0.21915200000512414,0,0,1.3838485595703125,0,0,0.84084
0.22228082999936305,0,0,1.446097802734375,0,0,1.07016
0.22540371600189246,0,0,1.2018892333984375,0,0,0.84084
0.2285202869970817,0,0,1.3359645263671873,0,0,0.99372
0.23167498700786382,0,0,1.5514426757812498,0,0,0.3822
0.2347908169904258,0,0,1.197100830078125,0,0,0.6115200000000001
0.2379051279858686,0,0,1.3192051147460937,0,0,0.22932
0.24102108800434507,0,0,1.13006318359375,0,0,2.6754
0.2441384739940986,0,0,1.2401964599609374,0,0,0.91728
0.2472963400068693,0,0,1.2761094848632812,0,0,1.45236
0.2504140780074522,0,0,1.3910311645507811,0,0,1.1465999999999998
0.2536641840124503,0,0,1.2425906616210938,0,0,0.99372
0.2567937170097139,0,0,1.2114660400390624,0,0,0.68796
0.25991178798722103,0,0,1.5035586425781249,0,0,0.7644
0.26302556300652213,0,0,1.5275006591796874,0,0,0.7644
0.26614167098887265,0,0,1.2785036865234374,0,0,0.6115200000000001
0.2692569080099929,0,0,1.3168109130859373,0,0,0.91728
0.2723956269910559,0,0,1.3239935180664062,0,0,0.84084
0.2755307529878337,0,0,1.3263877197265623,0,0,0.7644
0.278645582991885,0,0,1.2665326782226562,0,0,1.5288
0.2817593019863125,0,0,1.5418658691406248,0,0,1.1465999999999998
0.2848714659921825,0,0,1.3479355346679687,0,0,0.99372
0.2879852589976508,0,0,1.254561669921875,0,0,0.68796
0.29109786701155826,0,0,1.2928688964843749,0,0,0.7644
0.29421086300862953,0,0,1.24498486328125,0,0,0.7644
0.2973248790076468,0,0,1.2330138549804688,0,0,0.45864
0.3004383569932543,0,0,1.3120225097656248,0,0,0.45864
0.3035870940075256,0,0,1.2378022583007813,0,0,0.99372
0.30669977600337006,0,0,1.0749965454101562,0,0,1.1465999999999998
0.3098125690012239,0,0,1.350329736328125,0,0,1.2230400000000001
0.3130049349856563,0,0,1.4772224243164063,0,0,0.68796
0.3161498949921224,0,0,1.3742717529296875,0,0,0.91728
0.31926716899033636,0,0,1.1372457885742187,0,0,0.7644
0.3223850179929286,0,0,1.2473790649414063,0,0,0.7644
0.3254981260106433,0,0,1.3718775512695311,0,0,0.7644
0.3286381220095791,0,0,1.1156979736328125,0,0,0.91728
0.3317531739885453,0,0,1.2952630981445312,0,0,0.7644
0.33487954101292416,0,0,1.2042834350585936,0,0,1.37592
0.3379940380109474,0,0,1.2761094848632812,0,0,0.84084
0.3411066650005523,0,0,1.3407529296874998,0,0,1.45236
0.3442243470053654,0,0,1.458068811035156,0,0,0.99372
0.34734065798693337,0,0,1.5203180541992187,0,0,1.1465999999999998
0.3504569510114379,0,0,1.1923124267578125,0,0,-0.30576000000000003
0.3535765220003668,0,0,1.3455413330078123,0,0,0.91728
0.35669077798957005,0,0,1.4915876342773438,0,0,0.7644
0.3598046269908082,0,0,1.3239935180664062,0,0,0.91728
0.3629165489983279,0,0,1.3192051147460937,0,0,0.3822
0.3661095639981795,0,0,1.2378022583007813,0,0,0.7644
0.36931615200592205,0,0,1.0773907470703123,0,0,0.84084
0.3724384820088744,0,0,1.3263877197265623,0,0,1.5288
0.37554986801114865,0,0,1.3814543579101561,0,0,0.84084
0.3786618270096369,0,0,1.199495031738281,0,0,1.2230400000000001
0.3817731949966401,0,0,1.2785036865234374,0,0,0.6115200000000001
0.3850640220043715,0,0,1.3646949462890625,0,0,1.2230400000000001
0.3883239429851528,0,0,1.5107412475585937,0,0,0.91728
0.39156458599609323,0,0,1.3575123413085937,0,0,1.07016
0.39468884200323373,0,0,1.3096283081054687,0,0,0.91728
0.39780265401350334,0,0,1.2880804931640624,0,0,0.7644
0.4009157060063444,0,0,1.2928688964843749,0,0,0.99372
0.40406514701317064,0,0,1.2641384765625,0,0,0.0
0.40717832901282236,0,0,1.419761584472656,0,0,0.7644
0.4102907699998468,0,0,1.3646949462890625,0,0,0.91728
0.4133950450050179,0,0,1.1109095703125,0,0,0.6115200000000001
0.4165349300019443,0,0,1.429338391113281,0,0,1.07016
0.41965398300089873,0,0,1.2737152832031249,0,0,1.1465999999999998
0.4227670349937398,0,0,1.120486376953125,0,0,1.07016
0.42588049499318004,0,0,1.22583125,0,0,0.84084
0.42899358400609344,0,0,1.1228805786132812,0,0,1.07016
0.43210493298829533,0,0,1.35990654296875,0,0,0.84084
0.4352563919965178,0,0,1.2904746948242187,0,0,0.15288000000000002
0.4383707960078027,0,0,1.4939818359375,0,0,0.84084
0.44148505199700594,0,0,1.0845733520507812,0,0,0.53508
0.4446015300054569,0,0,1.467645617675781,0,0,0.3822
0.4477189159952104,0,0,1.4006079711914061,0,0,0.91728
0.4508344680070877,0,0,1.649604943847656,0,0,1.1465999999999998
0.4539466690039262,0,0,1.0797849487304687,0,0,0.99372
0.4570597579877358,0,0,1.2378022583007813,0,0,0.91728
0.4602304029976949,0,0,1.1947066284179686,0,0,0.7644
0.4633411770046223,0,0,1.3575123413085937,0,0,-9.24924
0.4664586739963852,0,0,1.3144167114257812,0,0,0.22932
0.4695899479847867,0,0,1.2114660400390624,0,0,1.07016
0.4727035189862363,0,0,1.1156979736328125,0,0,0.6115200000000001
0.47581720098969527,0,0,1.2641384765625,0,0,1.2230400000000001
0.47893016098532826,0,0,1.3910311645507811,0,0,1.07016
0.4820441390038468,0,0,1.5203180541992187,0,0,0.7644
0.48517035800614394,0,0,1.3215993164062498,0,0,0.7644
0.4882837990007829,0,0,1.3120225097656248,0,0,0.99372
0.49139838898554444,0,0,1.678335363769531,0,0,0.84084
0.49451099600992166,0,0,1.1731588134765625,0,0,0.84084
0.49762475199531764,0,0,1.2856862915039062,0,0,0.30576000000000003
0.5007383050106,0,0,1.3407529296874998,0,0,0.7644
0.5133544199925382,0,0,1.3024457031249999,0,0,1.07016
0.5169453920098022,0,0,1.1109095703125,0,0,1.07016
0.5200843699858524,0,0,1.3120225097656248,0,0,0.84084
0.5231824590009637,0,0,1.22583125,0,0,0.7644
0.5262776039890014,0,0,1.209071838378906,0,0,0.91728
0.5293769529962447,0,0,1.4915876342773438,0,0,0.68796
0.5325938189926092,0,0,1.1348515869140625,0,0,0.7644
0.5359083499934059,0,0,1.1851298217773436,0,0,0.6115200000000001
0.5390266989998054,0,0,1.1659762084960936,0,0,1.07016
0.5421452510054223,0,0,1.4341267944335936,0,0,1.1465999999999998
0.5452619889983907,0,0,1.180341418457031,0,0,0.7644
0.5483776699984446,0,0,1.2665326782226562,0,0,0.53508
0.5515272959892172,0,0,1.4173673828125,0,0,0.91728
0.5546822370088194,0,0,1.6735469604492186,0,0,0.84084
0.5578050490003079,0,0,1.13006318359375,0,0,0.99372
0.560911083011888,0,0,1.235408056640625,0,0,0.68796
0.5640229870041367,0,0,1.180341418457031,0,0,-8.63772
0.5671404839958996,0,0,1.1133037719726562,0,0,0.91728
0.5702566099935211,0,0,1.4149731811523436,0,0,1.1465999999999998
0.5733715330134146,0,0,1.2401964599609374,0,0,0.84084
0.5765154729888309,0,0,1.1468225952148436,0,0,0.45864
0.5797081729979254,0,0,1.2282254516601563,0,0,1.2994800000000002
0.5832839790091384,0,0,1.5275006591796874,0,0,0.99372
0.5866375280020293,0,0,1.3215993164062498,0,0,1.07016
0.5897590619861148,0,0,1.22583125,0,0,0.91728
0.5928755580098368,0,0,1.4006079711914061,0,0,0.99372
0.5959858330024872,0,0,1.5179238525390624,0,0,0.84084
0.5990797370031942,0,0,1.2114660400390624,0,0,0.53508
0.6022286970110144,0,0,1.465251416015625,0,0,0.7644
0.6054378219996579,0,0,1.2856862915039062,0,0,1.07016
0.6082887479860801,0,0,1.2282254516601563,0,0,1.07016
0.6110823409981094,0,0,1.2928688964843749,0,0,0.6115200000000001
0.6138686019985471,0,0,1.2425906616210938,0,0,0.91728
0.6168367119971663,0,0,1.6328455322265625,0,0,0.68796
0.619862783991266,0,0,1.1540052001953125,0,0,0.7644
0.6226825990015641,0,0,1.5275006591796874,0,0,0.30576000000000003
0.6254849520046264,0,0,1.369483349609375,0,0,0.91728
0.6283146739879157,0,0,1.1875240234375,0,0,0.7644
0.6311088970105629,0,0,1.2330138549804688,0,0,0.7644
0.633892323996406,0,0,1.350329736328125,0,0,0.15288000000000002
0.6367013439885341,0,0,1.3120225097656248,0,0,-8.71416
0.6395182150008623,0,0,1.0869675537109373,0,0,0.99372
0.6425582680094521,0,0,1.2665326782226562,0,0,0.84084
0.6453685649903491,0,0,1.458068811035156,0,0,0.91728
0.6481688070052769,0,0,1.3718775512695311,0,0,0.6115200000000001
0.6509602330042981,0,0,1.24498486328125,0,0,0.6115200000000001
0.6537528079934418,0,0,1.3072341064453123,0,0,0.45864
0.6565434389922302,0,0,1.2952630981445312,0,0,0.99372
0.6593335329962429,0,0,1.2689268798828124,0,0,1.2230400000000001
0.6621288849855773,0,0,1.2832920898437499,0,0,0.91728
0.6649214790086262,0,0,1.1827356201171875,0,0,0.6115200000000001
0.6677147760055959,0,0,1.3263877197265623,0,0,1.2230400000000001
0.6705350179981906,0,0,1.1180921752929687,0,0,0.91728
0.6733329439884983,0,0,1.2928688964843749,0,0,0.53508
0.6761285930115264,0,0,1.43652099609375,0,0,0.99372
0.678916353994282,0,0,1.2042834350585936,0,0,0.6115200000000001
0.681707687996095,0,0,1.2737152832031249,0,0,0.91728
0.6844987999938894,0,0,1.1372457885742187,0,0,1.60524
0.6872884309850633,0,0,1.4987702392578124,0,0,1.07016
0.6900834499974735,0,0,1.2306196533203124,0,0,3.0576
0.6928746729972772,0,0,1.2234370483398436,0,0,0.99372
0.6956663960008882,0,0,1.3407529296874998,0,0,0.6115200000000001
0.6984544529987033,0,0,1.1947066284179686,0,0,0.91728
0.7012355469923932,0,0,1.20667763671875,0,0,0.7644
0.7040264550014399,0,0,1.3407529296874998,0,0,0.84084
0.7069311210070737,0,0,1.2808978881835937,0,0,0.7644
0.7100420809874777,0,0,1.5466542724609373,0,0,0.7644
0.7131510220060591,0,0,1.2689268798828124,0,0,0.99372
0.7162585009937175,0,0,1.3239935180664062,0,0,0.45864
0.7194009789964184,0,0,1.1156979736328125,0,0,1.1465999999999998
0.7225344380130991,0,0,1.2042834350585936,0,0,0.45864
0.7256447869876865,0,0,1.2928688964843749,0,0,1.68168
0.7287528759916313,0,0,1.4700398193359374,0,0,0.7644
0.7318598919955548,0,0,1.429338391113281,0,0,1.37592
0.7349661850021221,0,0,1.3263877197265623,0,0,0.53508
0.7380749779986218,0,0,1.4628572143554686,0,0,0.6115200000000001
0.7411861970031168,0,0,1.39821376953125,0,0,0.68796
0.7442974899895489,0,0,1.3527239379882812,0,0,0.7644
0.74741237598937,0,0,1.3311761230468748,0,0,0.45864
0.7505197429854888,0,0,1.2569558715820313,0,0,1.07016
0.7536274809972383,0,0,1.2210428466796874,0,0,0.99372
0.7567358849919401,0,0,1.2401964599609374,0,0,1.68168
0.7598432890081313,0,0,1.407790576171875,0,0,0.99372
0.762969064002391,0,0,1.2282254516601563,0,0,1.2230400000000001
0.7660773939860519,0,0,1.2785036865234374,0,0,0.99372
0.7691844280052464,0,0,1.3455413330078123,0,0,0.7644
0.7722941469983198,0,0,1.66636435546875,0,0,0.91728
0.7754006810137071,0,0,1.3718775512695311,0,0,-9.01992
0.778511084994534,0,0,1.2761094848632812,0,0,0.30576000000000003
0.7816205820126925,0,0,1.2306196533203124,0,0,0.91728
0.7847791890089866,0,0,1.0941501586914062,0,0,0.84084
0.7878906679979991,0,0,1.3144167114257812,0,0,1.2230400000000001
0.7909994979854673,0,0,1.429338391113281,0,0,1.1465999999999998
0.7941505869966932,0,0,1.3192051147460937,0,0,0.91728
0.7984279759984929,0,0,1.3431471313476562,0,0,1.68168
0.8015813610109035,0,0,1.5155296508789062,0,0,0.84084
0.8046918390027713,0,0,1.350329736328125,0,0,1.45236
0.8078046510054264,0,0,1.1851298217773436,0,0,0.53508
0.8109101289883256,0,0,1.4915876342773438,0,0,2.2167600000000003
0.8140176080050878,0,0,1.5083470458984374,0,0,0.99372
0.817126437992556,0,0,1.1085153686523437,0,0,0.84084
0.8202359529968817,0,0,1.35990654296875,0,0,0.7644
0.8233403390040621,0,0,1.1228805786132812,0,0,1.37592
0.8264509100117721,0,0,1.158793603515625,0,0,0.68796
0.8295584990119096,0,0,1.2976572998046874,0,0,1.2994800000000002
0.8326675890129991,0,0,1.5107412475585937,0,0,0.68796
0.8357770490110852,0,0,1.5251064575195312,0,0,0.99372
0.8388809709867928,0,0,1.2569558715820313,0,0,0.6115200000000001
0.8419888200005516,0,0,1.465251416015625,0,0,0.84084
0.8451106869906653,0,0,1.448492004394531,0,0,0.3822
0.8482349060068373,0,0,1.3623007446289062,0,0,0.68796
0.8513389769941568,0,0,1.3024457031249999,0,0,0.3822
0.8550632990081795,0,0,1.254561669921875,0,0,0.53508
0.8581865000014659,0,0,1.3742717529296875,0,0,1.07016
0.8612958109879401,0,0,1.2856862915039062,0,0,0.30576000000000003
0.8644058819918428,0,0,1.3144167114257812,0,0,0.7644
0.8675408420094755,0,0,1.3479355346679687,0,0,0.6115200000000001
0.8707228190032765,0,0,1.20667763671875,0,0,1.1465999999999998
0.8738365010067355,0,0,1.6735469604492186,0,0,1.911
0.8769476279849187,0,0,1.8602946899414061,0,0,2.5989600000000004
0.8800683100125752,0,0,1.9033903198242186,0,0,2.06388
0.8831740099994931,0,0,2.6336218261718747,0,0,1.5288
0.8862813400046434,0,0,1.6927005737304686,0,0,0.68796
0.8893913739884738,0,0,1.4173673828125,0,0,1.2230400000000001
0.8924997790018097,0,0,1.37906015625,0,0,0.99372
0.8956403310003225,0,0,1.8004396484374998,0,0,2.06388
0.8987486980040558,0,0,2.212242333984375,0,0,1.68168
0.9018595459929202,0,0,1.927332336425781,0,0,1.60524
0.9050063210015651,0,0,1.898601916503906,0,0,1.45236
0.9081160030036699,0,0,1.956062756347656,0,0,1.5288
0.9112206659920048,0,0,1.5442600708007812,0,0,1.2230400000000001
0.9143345890042838,0,0,1.89620771484375,0,0,1.5288
0.9174432340078056,0,0,1.9823989746093749,0,0,1.1465999999999998
0.9205533050117083,0,0,1.6831237670898436,0,0,-8.33196
0.9236764310044236,0,0,2.085349645996094,0,0,1.1465999999999998
0.9267842429981101,0,0,1.3479355346679687,0,0,0.68796
0.9298926659976132,0,0,1.8076222534179687,0,0,0.68796
0.9330002919887193,0,0,1.7884686401367187,0,0,1.07016
0.9361598810064606,0,0,1.8243816650390623,0,0,1.83456
0.9392698220035527,0,0,2.166752502441406,0,0,1.75812
0.9423798189964145,0,0,2.195482922363281,0,0,1.83456
0.9455000380112324,0,0,1.8602946899414061,0,0,1.07016
0.9486179049999919,0,0,1.9943699829101562,0,0,0.99372
0.9517515309853479,0,0,1.455674609375,0,0,0.68796
0.9548587320023216,0,0,1.3431471313476562,0,0,1.60524
0.9579756550083403,0,0,2.4157494750976563,0,0,2.14032
0.9610856139915995,0,0,1.7334020019531249,0,0,1.07016
0.9641958890133537,0,0,1.7573440185546874,0,0,1.83456
0.9672993859858252,0,0,2.50912333984375,0,0,1.60524
0.9704060679941904,0,0,1.4604630126953124,0,0,0.53508
0.9735170280036982,0,0,1.2713210815429687,0,0,1.45236
0.976626227988163,0,0,2.231395947265625,0,0,2.14032
0.9797393360058777,0,0,1.5634136840820312,0,0,1.45236
0.9828457219991833,0,0,2.4971523315429685,0,0,1.75812
0.9859532190021127,0,0,0.6392518432617187,0,0,0.3822
0.9890614009927958,0,0,1.5658078857421873,0,0,2.14032
0.9921705829910934,0,0,1.924938134765625,0,0,1.75812
0.9952753020043019,0,0,1.8722656982421875,0,0,1.1465999999999998
0.998382688005222,0,0,2.2936451904296873,0,0,1.68168
1.0015395729860757,0,0,1.6112977172851561,0,0,2.2931999999999997
1.0048011229955591,0,0,1.3048399047851562,0,0,1.75812
1.0080442109901924,0,0,2.0063409912109376,0,0,0.53508
1.01125757698901,0,0,1.5298948608398437,0,0,0.68796
1.0144737579976209,0,0,2.2361843505859373,0,0,0.91728
1.0177270300046075,0,0,1.3120225097656248,0,0,1.2994800000000002
1.0209860620088875,0,0,1.6208745239257811,0,0,1.45236
1.0241974469972774,0,0,2.104503259277344,0,0,2.06388
1.0274256269913167,0,0,1.9201497314453124,0,0,2.36964
1.0306079199945088,0,0,1.2880804931640624,0,0,2.2167600000000003
1.0337638419878203,0,0,1.599326708984375,0,0,1.83456
1.0368912089907099,0,0,1.5227122558593749,0,0,0.68796
1.0400162609876134,0,0,1.3192051147460937,0,0,1.1465999999999998
1.0431348870042711,0,0,2.540247961425781,0,0,2.98116
1.0462601619947236,0,0,2.6671406494140624,0,0,1.45236
1.049382177006919,0,0,0.28490999755859375,0,0,-0.3822
1.0525297469866928,0,0,1.5083470458984374,0,0,2.36964
1.0557057989935856,0,0,2.346317626953125,0,0,1.60524
1.058828832989093,0,0,-0.3232172241210937,0,0,-0.99372
1.0619863469910342,0,0,4.019864587402344,0,0,3.0576
1.0651114369975403,0,0,2.5522189697265625,0,0,0.53508
1.068241452012444,0,0,-0.612915625,0,0,-0.6115200000000001
1.071450799005106,0,0,2.8323405639648436,0,0,1.75812
1.074654775991803,0,0,-0.17956512451171874,0,0,-0.15288000000000002
1.077867049985798,0,0,0.7637503295898437,0,0,1.37592
1.0811237480083946,0,0,2.5426421630859375,0,0,1.45236
1.084327910997672,0,0,-0.11013327636718749,0,0,1.45236
1.0878220880113076,0,0,3.0406361083984375,0,0,0.6115200000000001
1.0910166199901141,0,0,0.36391865234375,0,0,-0.84084
1.0942062090034597,0,0,1.20667763671875,0,0,1.37592
1.0975050179986283,0,0,1.7980454467773437,0,0,0.22932
1.1007531610084698,0,0,-0.6153098266601562,0,0,0.6115200000000001
1.1040090270107612,0,0,3.277662072753906,0,0,1.2230400000000001
1.1072624470107257,0,0,0.7733271362304687,0,0,0.0
1.1091768860060256,0,0,-0.9959878906249999,0,0,-0.3822
1.110639552003704,0,0,1.3096283081054687,0,0,0.68796
1.11211510701105,0,0,2.2744915771484373,0,0,0.68796
1.1135972730116919,0,0,1.9608511596679685,0,0,1.2230400000000001
1.1150004960072692,0,0,0.718260498046875,0,0,1.1465999999999998
1.1163887369912118,0,0,0.13168109130859373,0,0,0.07644000000000001
1.11777688600705,0,0,1.2593500732421874,0,0,1.68168
1.12003093099338,0,0,2.7174188842773437,0,0,1.75812
1.1214121720113326,0,0,2.4444798950195312,0,0,1.07016
1.122788042994216,0,0,1.2042834350585936,0,0,1.07016
1.1241683590051252,0,0,0.4572925170898437,0,0,-0.68796
1.1255448409938253,0,0,2.1499930908203124,0,0,0.22932
1.1269600999949034,0,0,2.205059729003906,0,0,1.68168
1.1283479339908808,0,0,2.1404162841796874,0,0,1.60524
1.1297228980110958,0,0,1.0342951171875,0,0,0.3822
1.1310971019847784,0,0,0.2609679809570312,0,0,0.15288000000000002
1.132476658996893,0,0,-0.4213794921875,0,0,-0.7644
1.1338543070014566,0,0,1.1947066284179686,0,0,9.32568
1.1352288640046027,0,0,2.4205378784179685,0,0,2.4460800000000003
1.1366031240031589,0,0,2.43250888671875,0,0,2.5989600000000004
1.13797673600493,0,0,1.7022773803710936,0,0,1.37592
1.1393502920109313,0,0,0.8092401611328125,0,0,1.2994800000000002
1.1407261450076476,0,0,-0.411802685546875,0,0,-0.30576000000000003
1.142101386009017,0,0,1.3072341064453123,0,0,-0.3822
1.1434876830026042,0,0,3.299209887695312,0,0,1.07016
1.144869090989232,0,0,3.2130186279296873,0,0,1.911
1.1462461469927803,0,0,2.185906115722656,0,0,1.2994800000000002
1.1476230550033506,0,0,-0.19393033447265623,0,0,0.22932
1.1490046120015904,0,0,-1.1635820068359375,0,0,0.07644000000000001
1.1503784639935475,0,0,-0.076614453125,0,0,0.0
1.1517618540092371,0,0,1.8219874633789062,0,0,0.45864
1.15314709499944,0,0,2.0254946044921875,0,0,1.75812
1.1548039439949207,0,0,1.5059528442382812,0,0,1.911
1.156207907013595,0,0,0.7924807495117187,0,0,0.30576000000000003
1.1575915559951682,0,0,1.5753846923828123,0,0,0.68796
1.158974630990997,0,0,1.6448165405273436,0,0,1.75812
1.1603581869858317,0,0,1.9895815795898437,0,0,0.91728
1.1617407989979256,0,0,1.7453730102539062,0,0,0.07644000000000001
1.1631227630132344,0,0,1.4772224243164063,0,0,0.53508
1.1645057080022525,0,0,0.36631285400390623,0,0,-1.07016
1.1658889859972987,0,0,1.5322890624999999,0,0,0.0
1.1672715049935505,0,0,1.8219874633789062,0,0,1.1465999999999998
1.16865894998773,0,0,1.4796166259765624,0,0,1.37592
1.1700538950099144,0,0,0.9457096557617187,0,0,0.45864
1.17151528398972,0,0,-0.08858546142578125,0,0,-0.45864
1.1729119140072726,0,0,-0.34237083740234375,0,0,0.53508
1.174296006996883,0,0,1.4628572143554686,0,0,1.45236
1.1756811189989094,0,0,2.7078420776367187,0,0,1.07016
1.1770626940124203,0,0,2.43250888671875,0,0,1.68168
1.1784464159864,0,0,1.4820108276367188,0,0,1.45236
1.1798301580129191,0,0,0.430956298828125,0,0,0.22932
1.1812146579904947,0,0,-0.04548983154296875,0,0,0.6115200000000001
1.1825981590081938,0,0,1.8770541015625,0,0,1.07016
1.1839810489909723,0,0,1.9416975463867185,0,0,0.15288000000000002
1.1853633639984764,0,0,1.6400281372070311,0,0,0.07644000000000001
1.1867456609907094,0,0,1.0917559570312498,0,0,0.84084
1.1881294019985944,0,0,0.7278373046875,0,0,-0.3822
1.1895129769982304,0,0,1.3144167114257812,0,0,0.6115200000000001
1.1908955149992835,0,0,1.5705962890624998,0,0,1.68168
1.192278497008374,0,0,1.66636435546875,0,0,1.1465999999999998
1.1936607380048372,0,0,0.8020575561523438,0,0,0.53508
1.1950437389896251,0,0,0.7781155395507812,0,0,1.911
1.1964262950059492,0,0,0.8738836059570312,0,0,0.0
1.1978087589959614,0,0,2.384624853515625,0,0,1.37592
1.1991913889942225,0,0,3.0621839233398433,0,0,2.36964
1.2005743159970734,0,0,1.5729904907226562,0,0,1.45236
1.2019564459915273,0,0,0.622492431640625,0,0,9.555
1.2033391130098607,0,0,0.5123591552734374,0,0,-0.22932
1.2047235399950296,0,0,0.5913678100585937,0,0,-0.22932
1.2061065770103596,0,0,2.29843359375,0,0,0.07644000000000001
1.2074905220069923,0,0,2.3511060302734372,0,0,2.36964
1.2088719680032227,0,0,1.5514426757812498,0,0,1.37592
1.2102540789928753,0,0,0.59376201171875,0,0,0.45864
1.211663469002815,0,0,-0.5195417602539062,0,0,-0.6115200000000001
1.2130496359895915,0,0,-0.055066638183593745,0,0,0.99372
1.2144338029902428,0,0,2.5522189697265625,0,0,0.99372
1.2158169519971125,0,0,3.0502129150390624,0,0,2.90472
1.21719889700762,0,0,2.4588451049804685,0,0,1.45236
1.2185812309908215,0,0,1.0582371337890624,0,0,1.5288
1.2199642320047133,0,0,0.28012159423828126,0,0,-0.30576000000000003
1.2213475659955293,0,0,-0.3902548706054687,0,0,0.91728
1.2227309739973862,0,0,1.5897499023437498,0,0,1.37592
1.2241136409866158,0,0,2.4349030883789062,0,0,1.2994800000000002
1.2254959380079526,0,0,1.3407529296874998,0,0,0.3822
1.2268784200132359,0,0,0.9169792358398436,0,0,0.45864
1.2282607539964374,0,0,0.19871873779296872,0,0,-0.53508
1.2296436069882475,0,0,1.8171990600585937,0,0,1.07016
1.231052607006859,0,0,2.070984436035156,0,0,1.98744
1.2324375699972734,0,0,1.9728221679687499,0,0,1.37592
1.2338209970039316,0,0,1.1635820068359375,0,0,0.15288000000000002
1.2354444949887693,0,0,0.3184288208007812,0,0,0.53508
1.2368296800123062,0,0,0.5626373901367188,0,0,0.91728
1.2382139590044972,0,0,2.2960393920898436,0,0,0.84084
1.2395982560119592,0,0,2.480392919921875,0,0,2.06388
1.2409812010009773,0,0,1.9728221679687499,0,0,1.07016
1.24236355299945,0,0,0.0047884033203125,0,0,0.6115200000000001
1.243747850006912,0,0,-0.6440402465820312,0,0,-0.84084
1.2451337579987012,0,0,0.1005564697265625,0,0,0.22932
1.246517722000135,0,0,2.829946362304687,0,0,1.60524
1.2479125930112787,0,0,3.4859576171874997,0,0,1.75812
1.2492963160038926,0,0,2.375048046875,0,0,1.5288
1.2506800199917052,0,0,0.411802685546875,0,0,0.99372
1.252063260995783,0,0,-0.8930372192382812,0,0,-1.2994800000000002
1.2534472800034564,0,0,1.5083470458984374,0,0,0.45864
1.2548302809882443,0,0,2.461239306640625,0,0,1.37592
1.256213429995114,0,0,3.4428619873046875,0,0,1.60524
1.2575962269911543,0,0,1.6903063720703124,0,0,1.60524
1.2589815240062308,0,0,0.8307879760742187,0,0,1.68168
1.2603648949880153,0,0,-0.7278373046875,0,0,-1.07016
1.2617492470017169,0,0,1.0989385620117187,0,0,9.555
1.2631323219975457,0,0,1.956062756347656,0,0,1.98744
1.2645159889943898,0,0,2.6815058593749996,0,0,1.911
1.2658987680042628,0,0,1.8291700683593748,0,0,1.45236
1.2672807310009375,0,0,0.5506663818359374,0,0,0.45864
1.2686643239867408,0,0,-0.6584054565429687,0,0,0.0
1.270047603000421,0,0,1.1611878051757811,0,0,0.30576000000000003
1.2714309000002686,0,0,3.229778039550781,0,0,1.75812
1.2728138260135893,0,0,2.607285607910156,0,0,1.07016
1.27419608598575,0,0,1.6903063720703124,0,0,1.1465999999999998
1.2755804019980133,0,0,-0.19393033447265623,0,0,0.15288000000000002
1.2769676060124766,0,0,-0.3399766357421875,0,0,0.30576000000000003
1.2784930120105855,0,0,2.0925322509765625,0,0,1.2994800000000002
1.279885160998674,0,0,3.0789433349609374,0,0,1.5288
1.28127303198562,0,0,2.4133552734375,0,0,0.99372
1.2826613659854047,0,0,0.9457096557617187,0,0,1.2994800000000002
1.2840494219854008,0,0,-0.7350199096679687,0,0,-0.7644
1.2854390520078596,0,0,0.814028564453125,0,0,0.22932
1.2868270709877834,0,0,1.924938134765625,0,0,1.68168
1.2882146640040446,0,0,3.124433166503906,0,0,1.911
1.2896019800100476,0,0,2.032677209472656,0,0,1.60524
1.2909902769897599,0,0,0.9361328491210937,0,0,1.45236
1.2923770920024253,0,0,-1.0749965454101562,0,0,-0.84084
1.2937649259984028,0,0,0.4070142822265625,0,0,-0.6115200000000001
1.295152186008636,0,0,1.8267758666992187,0,0,1.45236
1.2965393899939954,0,0,3.2321722412109373,0,0,1.75812
1.2979265390022192,0,0,2.5546131713867184,0,0,2.14032
1.299313928000629,0,0,-0.411802685546875,0,0,1.68168
1.3007015220064204,0,0,-1.2808978881835937,0,0,0.0
1.3020887630118523,0,0,0.00239420166015625,0,0,-0.45864
1.3034961149969604,0,0,3.1842882080078123,0,0,1.68168
1.3048841900017578,0,0,3.114856359863281,0,0,1.911
1.306271450011991,0,0,1.7693150268554687,0,0,1.911
1.3076587280083913,0,0,-0.20350714111328125,0,0,0.22932
1.309057431994006,0,0,-1.0630255371093749,0,0,0.15288000000000002
1.3104458769958,0,0,1.3646949462890625,0,0,0.84084
1.3118338409985881,0,0,2.3870190551757813,0,0,0.91728
1.313220693002222,0,0,2.5665841796874997,0,0,1.75812
1.3146077859855723,0,0,1.3359645263671873,0,0,1.2230400000000001
1.3159963979851454,0,0,0.055066638183593745,0,0,-0.45864
1.3173843800032046,0,0,0.6919242797851562,0,0,0.22932
1.3187716029933654,0,0,1.599326708984375,0,0,1.60524
1.3201589369855355,0,0,2.5953145996093747,0,0,1.75812
1.3215458449849393,0,0,2.1547814941406247,0,0,1.37592
1.322932753013447,0,0,1.5275006591796874,0,0,0.91728
1.3243332899874076,0,0,-0.3064578125,0,0,9.24924
1.3257215319899842,0,0,0.97683427734375,0,0,0.22932
1.327108439989388,0,0,1.9033903198242186,0,0,2.06388
1.3284954219998326,0,0,2.2026655273437497,0,0,1.45236
1.3298821260104887,0,0,1.5322890624999999,0,0,1.2230400000000001
1.3312687010038644,0,0,0.062249243164062495,0,0,0.91728
1.3326554230006877,0,0,-0.430956298828125,0,0,-0.45864
1.3340435909922235,0,0,1.01514150390625,0,0,0.0
1.3354455909866374,0,0,2.3918074584960936,0,0,1.60524
1.3368327399948612,0,0,2.3965958618164063,0,0,1.83456
1.3382203509972896,0,0,1.668758557128906,0,0,1.60524
1.3396077590005007,0,0,0.3112462158203125,0,0,0.7644
1.3409932790091261,0,0,-0.45489831542968745,0,0,-0.6115200000000001
1.3423814639972989,0,0,1.3359645263671873,0,0,-0.45864
1.3437828540045302,0,0,2.5761609863281247,0,0,0.6115200000000001
1.345183650002582,0,0,3.019088293457031,0,0,1.2994800000000002
1.3465800030098762,0,0,2.0542250244140625,0,0,1.911
1.3479651699890383,0,0,0.39264907226562495,0,0,0.15288000000000002
1.3493449669913389,0,0,-0.3447650390625,0,0,0.07644000000000001
1.3507263190113008,0,0,0.49799394531249996,0,0,0.84084
1.3521072829898912,0,0,1.6519991455078125,0,0,0.6115200000000001
1.3534864129906055,0,0,2.068590234375,0,0,0.91728
1.3548655989870895,0,0,2.0159177978515626,0,0,1.1465999999999998
1.3562462110130582,0,0,0.33518823242187495,0,0,0.0
1.3576251560007222,0,0,1.0295067138671874,0,0,0.99372
1.3590040089911781,0,0,1.9033903198242186,0,0,2.2167600000000003
1.3603931200050283,0,0,1.5059528442382812,0,0,1.45236
1.3617815100005828,0,0,1.0271125122070313,0,0,0.07644000000000001
1.3631691219925415,0,0,0.93852705078125,0,0,0.53508
1.3645506039902102,0,0,0.3854664672851562,0,0,-1.2994800000000002
1.3659303640015423,0,0,1.7429788085937499,0,0,0.07644000000000001
1.3673093830002472,0,0,2.722207287597656,0,0,1.60524
1.3696300009905826,0,0,1.2928688964843749,0,0,0.84084
1.3712103510042652,0,0,-0.622492431640625,0,0,0.45864
1.3726012400002219,0,0,-0.7278373046875,0,0,-1.1465999999999998
1.3739998519886285,0,0,0.718260498046875,0,0,9.40212
1.3753891859960277,0,0,3.327940307617187,0,0,2.14032
1.3767770009872038,0,0,2.887407202148437,0,0,1.83456
1.3781644830014557,0,0,1.4508862060546874,0,0,1.68168
1.379552614002023,0,0,0.34715924072265625,0,0,0.3822
1.380938985006651,0,0,-0.49320554199218747,0,0,0.0
1.382326874008868,0,0,1.5514426757812498,0,0,0.0
1.3837138380040415,0,0,2.645592834472656,0,0,1.98744
1.3851497450086754,0,0,2.0733786376953125,0,0,1.2994800000000002
1.38667728099972,0,0,1.438915197753906,0,0,1.45236
1.388149558013538,0,0,-0.11731588134765625,0,0,0.15288000000000002
1.3898798690061085,0,0,0.3806780639648437,0,0,0.15288000000000002
1.391417515987996,0,0,1.7717092285156248,0,0,1.37592
1.3929103479895275,0,0,1.8124106567382812,0,0,1.1465999999999998
1.3944347359938547,0,0,1.43652099609375,0,0,1.45236
1.3960237709979992,0,0,0.9337386474609375,0,0,0.91728
1.3975605290033855,0,0,1.6304513305664061,0,0,1.07016
1.3991841189854313,0,0,1.9584569580078124,0,0,1.5288
1.4007101359893568,0,0,1.2856862915039062,0,0,0.53508
1.4022581719909795,0,0,0.47884033203125,0,0,-0.15288000000000002
1.4037634670094121,0,0,0.5482721801757812,0,0,-1.07016
1.4051837819861248,0,0,1.649604943847656,0,0,1.1465999999999998
1.4065667639952153,0,0,2.7581203125,0,0,1.75812
1.407950710010482,0,0,2.597708801269531,0,0,1.75812
1.4093306179856881,0,0,0.8212111694335937,0,0,1.75812
1.410710691998247,0,0,-0.062249243164062495,0,0,0.84084
1.4120934150123503,0,0,-0.6919242797851562,0,0,-1.07016
1.4134742309979629,0,0,1.3838485595703125,0,0,0.99372
1.414872583001852,0,0,3.1842882080078123,0,0,1.83456
1.4162621019931976,0,0,3.526659045410156,0,0,1.98744
1.4176414179964922,0,0,2.319981408691406,0,0,1.911
1.4190304370131344,0,0,0.689530078125,0,0,1.5288
1.4204127340053674,0,0,-1.4149731811523436,0,0,-0.99372
1.421795956994174,0,0,0.296881005859375,0,0,-0.15288000000000002
1.423177716002101,0,0,2.8131869506835936,0,0,1.37592
1.4245668099902105,0,0,2.829946362304687,0,0,0.3822
1.425954347010702,0,0,2.0542250244140625,0,0,0.53508
1.427341754984809,0,0,0.36631285400390623,0,0,0.91728
1.4287298109848052,0,0,-0.34715924072265625,0,0,0.3822
1.4301177930028643,0,0,1.4700398193359374,0,0,0.68796
1.431505331012886,0,0,2.2170307373046874,0,0,1.07016
1.4329008499917109,0,0,2.003946789550781,0,0,1.2994800000000002
1.434288351010764,0,0,1.158793603515625,0,0,0.7644
1.435677498986479,0,0,0.47165772705078124,0,0,0.6115200000000001
1.437064277997706,0,0,0.3447650390625,0,0,1.60524
1.4384509079973213,0,0,2.959233251953125,0,0,1.75812
1.4398389639973175,0,0,2.616862414550781,0,0,1.83456
1.4412247609870974,0,0,0.8403647827148437,0,0,1.37592
1.4426117250113748,0,0,-0.19871873779296872,0,0,0.0
1.444000262010377,0,0,-0.9169792358398436,0,0,-1.60524
1.4453885589900892,0,0,1.4149731811523436,0,0,9.631440000000001
1.4467749669856858,0,0,3.047818713378906,0,0,1.911
1.448162171000149,0,0,2.920926025390625,0,0,1.60524
1.4495494129951112,0,0,1.2425906616210938,0,0,1.98744
1.4509381729876623,0,0,-0.00239420166015625,0,0,0.91728
1.4523420619952958,0,0,-1.01514150390625,0,0,-0.7644
1.4537305069970898,0,0,0.8834604125976562,0,0,0.45864
1.4551311180111952,0,0,3.9935283691406247,0,0,2.5989600000000004
1.4565180820063688,0,0,3.7205893798828122,0,0,2.4460800000000003
1.4579055639915168,0,0,2.3511060302734372,0,0,1.45236
1.4592930829967372,0,0,-0.5410895751953124,0,0,1.5288
1.4606807499949355,0,0,-1.5083470458984374,0,0,0.0
1.4620685839909129,0,0,2.0446482177734375,0,0,0.07644000000000001
1.4634562509891111,0,0,3.0502129150390624,0,0,1.68168
1.4648428449872881,0,0,2.9735984619140625,0,0,1.1465999999999998
1.466230012010783,0,0,1.0175357055664063,0,0,0.07644000000000001
1.4676177719957195,0,0,-0.16280571289062498,0,0,-0.15288000000000002
1.4690047909971327,0,0,-0.9169792358398436,0,0,0.91728
1.4703925880021416,0,0,1.4101847778320311,0,0,0.07644000000000001
1.4717803479870781,0,0,2.5450363647460934,0,0,1.2230400000000001
1.4731667189917061,0,0,1.8602946899414061,0,0,1.5288
1.4745535900001414,0,0,1.4125789794921875,0,0,1.37592
1.475940422998974,0,0,0.48123453369140623,0,0,-0.6115200000000001
1.4773272940074094,0,0,0.8259995727539062,0,0,0.99372
1.4787146100134123,0,0,1.7908628417968748,0,0,1.1465999999999998
1.4801013880060054,0,0,2.5234885498046875,0,0,0.99372
1.4814882040082011,0,0,1.8770541015625,0,0,0.84084
1.4828755749913398,0,0,1.24498486328125,0,0,1.1465999999999998
1.4842626680037938,0,0,-0.4525041137695312,0,0,-1.2994800000000002
1.485651278984733,0,0,0.4213794921875,0,0,0.45864
1.4870385579997674,0,0,3.009511486816406,0,0,1.68168
1.4884258919919375,0,0,3.0238766967773434,0,0,1.45236
1.4898124290048145,0,0,2.032677209472656,0,0,1.37592
1.4911989110114519,0,0,-0.6536170532226562,0,0,0.30576000000000003
1.4925866159901489,0,0,-1.668758557128906,0,0,-1.1465999999999998
1.4939739500114229,0,0,-0.1867477294921875,0,0,0.0
1.495373727986589,0,0,2.7724855224609373,0,0,1.68168
1.4967619880044367,0,0,3.423708374023437,0,0,2.36964
1.4981487659970298,0,0,2.0374656127929685,0,0,1.98744
1.4995362669869792,0,0,0.37828386230468747,0,0,1.45236
1.5009222119988408,0,0,-0.9313444458007812,0,0,0.0
1.5023093970085029,0,0,1.70467158203125,0,0,0.07644000000000001
1.5036970649962313,0,0,3.399766357421875,0,0,1.37592
1.5050832130073104,0,0,2.750937707519531,0,0,1.83456
1.506469935993664,0,0,1.5514426757812498,0,0,1.45236
1.5078572150086984,0,0,-0.25139117431640623,0,0,-1.1465999999999998
1.5092455119884107,0,0,-0.8020575561523438,0,0,-0.15288000000000002
1.5106331419956405,0,0,0.8475473876953125,0,0,0.0
1.512020030990243,0,0,2.5163059448242184,0,0,0.84084
1.5134074760135263,0,0,2.549824768066406,0,0,1.5288
1.5147941620089114,0,0,2.2290017456054687,0,0,2.2931999999999997
1.5161816260078922,0,0,-0.5865794067382812,0,0,-0.6115200000000001
1.517569663003087,0,0,-0.19632453613281248,0,0,0.45864
1.5189568120113108,0,0,1.5825672973632812,0,0,2.14032
1.520343442010926,0,0,2.9089550170898435,0,0,1.07016
1.5217303319950588,0,0,2.5234885498046875,0,0,1.2994800000000002
1.523116720985854,0,0,0.70868369140625,0,0,1.45236
1.52450348099228,0,0,-0.4525041137695312,0,0,-0.7644
1.5258915929880459,0,0,0.00718260498046875,0,0,-0.15288000000000002
1.5272790750022978,0,0,2.370259643554687,0,0,1.2994800000000002
1.5286660570127424,0,0,2.5378537597656248,0,0,1.07016
1.5300533910049126,0,0,1.3072341064453123,0,0,0.6115200000000001
1.531441002007341,0,0,0.5267243652343749,0,0,0.30576000000000003
1.5328274480125401,0,0,-0.6631938598632812,0,0,0.0
1.5342150589858647,0,0,1.5155296508789062,0,0,0.45864
1.5356392069952562,0,0,2.1978771240234374,0,0,1.37592
1.537024838005891,0,0,2.1715409057617188,0,0,1.911
1.5384119680093136,0,0,1.7118541870117185,0,0,1.911
1.5398173390130978,0,0,0.5243301635742187,0,0,-0.15288000000000002
1.5412048950092867,0,0,0.076614453125,0,0,0.0
1.5425917659886181,0,0,1.8722656982421875,0,0,0.91728
1.5439781740133185,0,0,2.9975404785156248,0,0,1.75812
1.5453833779902197,0,0,2.080561242675781,0,0,1.68168
1.5467746930080466,0,0,1.4891934326171874,0,0,1.911
1.548162212013267,0,0,-1.0510545288085937,0,0,-1.07016
1.549552398006199,0,0,-0.2609679809570312,0,0,-0.6115200000000001
1.55094115799875,0,0,2.1164742675781247,0,0,0.68796
1.5523301209905185,0,0,3.2441432495117186,0,0,1.37592
1.5537168440059759,0,0,2.5330653564453125,0,0,1.83456
1.5551071779918857,0,0,1.1516109985351561,0,0,2.52252
1.55649403098505,0,0,-0.20350714111328125,0,0,0.15288000000000002
1.5578815870103426,0,0,-0.32082302246093747,0,0,-0.3822
1.5592691430065315,0,0,1.43652099609375,0,0,0.91728
1.5606556429993361,0,0,2.1930887207031247,0,0,0.68796
1.5620429959963076,0,0,2.4779987182617185,0,0,0.45864
1.5634311450121459,0,0,1.675941162109375,0,0,1.45236
1.5648174789967015,0,0,0.1580173095703125,0,0,0.68796
1.566203811991727,0,0,1.0797849487304687,0,0,1.07016
1.5675909979909193,0,0,1.139639990234375,0,0,1.37592
1.5689772400073707,0,0,1.0342951171875,0,0,1.2994800000000002
1.5703635920071974,0,0,1.3934253662109375,0,0,0.99372
1.571750241011614,0,0,1.2378022583007813,0,0,-0.53508
1.5731364079983905,0,0,1.6256629272460936,0,0,1.2994800000000002
1.574532872007694,0,0,2.442085693359375,0,0,1.2994800000000002
1.5759190389944706,0,0,2.288856787109375,0,0,1.68168
1.5773057249898557,0,0,1.455674609375,0,0,1.2230400000000001
1.5786917069926858,0,0,0.5267243652343749,0,0,0.84084
1.5800785410101525,0,0,-0.7685387329101562,0,0,7.18536
1.581465986004332,0,0,0.7422025146484375,0,0,0.0
1.5828527830017265,0,0,2.3582886352539063,0,0,1.2230400000000001
1.5842395419895183,0,0,2.616862414550781,0,0,1.37592
1.5856255429971498,0,0,1.2138602416992186,0,0,1.2230400000000001
1.5870117289887276,0,0,-0.0526724365234375,0,0,1.75812
1.5883997110067867,0,0,-0.39264907226562495,0,0,-0.53508
1.5897878409887198,0,0,0.8738836059570312,0,0,0.45864
1.5911746750061866,0,0,2.73896669921875,0,0,1.68168
1.5925553609849885,0,0,2.6336218261718747,0,0,1.2994800000000002
1.5939340099866968,0,0,1.2904746948242187,0,0,1.37592
1.595312583987834,0,0,0.21787235107421873,0,0,1.37592
1.596701584989205,0,0,-0.239420166015625,0,0,0.22932
1.598096900008386,0,0,2.1260510742187497,0,0,0.0
1.5994850679999217,0,0,2.3247698120117186,0,0,1.37592
1.6008712720067706,0,0,2.5378537597656248,0,0,0.68796
1.6022579020063858,0,0,0.9457096557617187,0,0,0.45864
1.6036461059993599,0,0,0.14604630126953125,0,0,-0.30576000000000003
1.6050319770001806,0,0,0.7230489013671875,0,0,1.07016
1.6064186450093985,0,0,2.104503259277344,0,0,1.60524
1.6078061269945465,0,0,2.4133552734375,0,0,1.98744
1.6091919419995975,0,0,1.350329736328125,0,0,1.68168
1.610578257997986,0,0,0.814028564453125,0,0,2.06388
1.6119649989996105,0,0,-0.1149216796875,0,0,-1.37592
1.6133530180086382,0,0,1.1252747802734375,0,0,0.53508
1.6147398889879696,0,0,2.767697119140625,0,0,1.2994800000000002
1.6161273710022215,0,0,2.6719290527343746,0,0,1.5288
1.6175285750068724,0,0,1.5131354492187499,0,0,1.2230400000000001
1.618934834987158,0,0,-0.7541735229492187,0,0,-1.45236
1.6218697779986542,0,0,2.5163059448242184,0,0,-0.53508
1.6232612789899576,0,0,3.208230224609375,0,0,2.06388
1.6246500200068112,0,0,3.227383837890625,0,0,1.68168
1.6260370580130257,0,0,0.9959878906249999,0,0,1.1465999999999998
1.6274699470086489,0,0,-0.29927520751953124,0,0,0.0
1.6288581689877901,0,0,0.2609679809570312,0,0,0.3822
1.630244836997008,0,0,1.7693150268554687,0,0,0.30576000000000003
1.6316320599871688,0,0,2.8036101440429686,0,0,1.98744
1.6330180790100712,0,0,2.0470424194335934,0,0,1.911
1.6344046349986456,0,0,1.3215993164062498,0,0,0.68796
1.6357942649920005,0,0,0.009576806640625,0,0,-0.3822
1.637179562007077,0,0,0.47884033203125,0,0,1.98744
1.6385653220058884,0,0,2.4396914916992185,0,0,1.5288
1.6399518969992641,0,0,2.4349030883789062,0,0,1.45236
1.6413383049948607,0,0,1.0582371337890624,0,0,0.99372
1.6427245830127504,0,0,0.469263525390625,0,0,0.68796
1.6441105089907069,0,0,-0.5506663818359374,0,0,-0.99372
1.6454984360025264,0,0,1.1468225952148436,0,0,0.91728
1.646884862013394,0,0,3.0885201416015624,0,0,1.75812
1.648270659003174,0,0,3.1387983764648437,0,0,1.68168
1.6496571410098113,0,0,1.7262193969726563,0,0,1.68168
1.651042993995361,0,0,-0.7326257080078125,0,0,1.37592
1.652430476009613,0,0,-1.3551181396484375,0,0,-0.22932
1.6538178279879503,0,0,2.5905261962890624,0,0,-0.3822
1.6552042549883481,0,0,3.450044592285156,0,0,1.98744
1.6565904410090297,0,0,3.778050219726562,0,0,1.68168
1.657997978007188,0,0,1.6831237670898436,0,0,1.5288
1.6593853489903267,0,0,-0.28730419921875,0,0,0.68796
1.6607724239875097,0,0,-1.6328455322265625,0,0,0.0
1.6621594800089952,0,0,1.6112977172851561,0,0,-0.30576000000000003
1.6635537399852183,0,0,2.9759926635742184,0,0,0.53508
1.6649415919964667,0,0,2.1835119140624997,0,0,1.911
1.6663282410008833,0,0,1.8243816650390623,0,0,0.91728
1.66771483400953,0,0,-0.04548983154296875,0,0,-0.91728
1.6691013159870636,0,0,-0.45489831542968745,0,0,0.84084
1.670488595002098,0,0,1.0534487304687499,0,0,0.0
1.671875447005732,0,0,2.887407202148437,0,0,0.99372
1.673261096002534,0,0,2.2194249389648437,0,0,2.2167600000000003
1.6746472819941118,0,0,2.4061726684570313,0,0,2.06388
1.6760332080011722,0,0,-0.51714755859375,0,0,0.0
1.677419968007598,0,0,0.39743747558593745,0,0,0.45864
1.6788068760070018,0,0,2.5737667846679684,0,0,1.83456
1.6801937469863333,0,0,2.798821740722656,0,0,0.7644
1.6815797849849332,0,0,1.9105729248046874,0,0,1.1465999999999998
1.6829664150136523,0,0,0.6057330200195312,0,0,1.2230400000000001
1.6843526379961986,0,0,-0.6488286499023437,0,0,-1.1465999999999998
1.6857418050058186,0,0,-0.14604630126953125,0,0,-0.84084
1.6871292309951968,0,0,2.578555187988281,0,0,2.6754
1.6885163059923798,0,0,2.89219560546875,0,0,0.84084
1.6899022700090427,0,0,2.042254016113281,0,0,1.37592
1.6912884550110903,0,0,0.35194764404296874,0,0,1.60524
1.6926751410064753,0,0,-1.1037269653320312,0,0,0.0
1.694061715999851,0,0,1.2808978881835937,0,0,-0.53508
1.695449365011882,0,0,2.849099975585937,0,0,1.5288
1.6968362540064845,0,0,2.8802245971679685,0,0,1.60524
1.6982228289998602,0,0,2.4899697265625,0,0,1.911
1.6996098849922419,0,0,0.15322890625,0,0,0.0
1.7009953490050975,0,0,-1.4101847778320311,0,0,-0.68796
1.7023825900105294,0,0,0.9074024291992187,0,0,0.15288000000000002
1.7037692200101446,0,0,3.3159692993164063,0,0,0.68796
1.705154720984865,0,0,2.868253588867187,0,0,1.68168
1.706548368994845,0,0,2.568978381347656,0,0,1.75812
1.7079349260020535,0,0,-0.430956298828125,0,0,-0.68796
1.7093220189854037,0,0,-0.9959878906249999,0,0,0.0
1.7107085929892492,0,0,0.7685387329101562,0,0,0.53508
1.7120948160008993,0,0,3.0621839233398433,0,0,1.1465999999999998
1.713480834994698,0,0,2.683900061035156,0,0,1.60524
1.7148673539923038,0,0,1.1707646118164061,0,0,2.4460800000000003
1.7162612619868014,0,0,-0.1388636962890625,0,0,-0.91728
1.7176491330028512,0,0,-0.7900865478515624,0,0,-0.7644
1.7190359859960154,0,0,2.070984436035156,0,0,1.911
1.7204224489978515,0,0,2.9664158569335934,0,0,1.1465999999999998
1.7218087280052714,0,0,2.365471240234375,0,0,1.911
1.7231949320121203,0,0,0.7757213378906249,0,0,1.45236
1.7245805069978815,0,0,-0.63206923828125,0,0,0.0
1.7259672670043074,0,0,0.86191259765625,0,0,-1.5288
1.7273539339948911,0,0,1.8267758666992187,0,0,1.37592
1.7287425090034958,0,0,2.6216508178710938,0,0,1.68168
1.730129212985048,0,0,2.35589443359375,0,0,1.1465999999999998
1.7315157690027263,0,0,1.1611878051757811,0,0,0.7644
1.732900844013784,0,0,-0.32561142578124996,0,0,0.7644
1.7342875849863049,0,0,0.9361328491210937,0,0,0.0
1.7356738820089959,0,0,1.8746598999023436,0,0,1.45236
1.7370593269879464,0,0,2.2170307373046874,0,0,2.06388
1.7384454570128582,0,0,2.422932080078125,0,0,1.45236
1.7398324949899688,0,0,-0.2825157958984375,0,0,-0.68796
1.7412190320028458,0,0,-0.5746083984375,0,0,0.53508
1.7426058290002402,0,0,0.833182177734375,0,0,0.99372
1.7439917369920295,0,0,2.583343591308594,0,0,0.68796
1.7453958860132843,0,0,2.039859814453125,0,0,2.2931999999999997
1.7469354220083915,0,0,1.005564697265625,0,0,1.911
1.7483608289912809,0,0,-0.28012159423828126,0,0,-0.6115200000000001
1.7497427189955488,0,0,1.0175357055664063,0,0,-0.53508
1.7511341639910825,0,0,2.1212626708984375,0,0,2.2931999999999997
1.7525156640040223,0,0,3.347093920898437,0,0,0.84084
1.7538952020113356,0,0,2.767697119140625,0,0,1.60524
1.7553007020032965,0,0,0.9504980590820312,0,0,1.37592
1.756691332993796,0,0,-0.7972691528320313,0,0,-0.68796
1.7580731670022942,0,0,0.6655880615234374,0,0,-1.2230400000000001
1.759453537990339,0,0,1.599326708984375,0,0,0.99372
1.7608334090036806,0,0,2.1811177124023438,0,0,1.60524
1.7622128170041833,0,0,2.291250988769531,0,0,1.1465999999999998
1.7635935579892248,0,0,0.9241618408203125,0,0,1.2230400000000001
1.7649728739925195,0,0,-0.565031591796875,0,0,0.6115200000000001
1.7663528560078703,0,0,1.0510545288085937,0,0,0.45864
1.767738394002663,0,0,2.559401574707031,0,0,0.91728
1.7691255979880225,0,0,2.023100402832031,0,0,2.14032
1.7705272829916794,0,0,2.3295582153320313,0,0,2.36964
1.7719140799890738,0,0,0.181959326171875,0,0,-0.99372
1.773300859000301,0,0,-0.15083470458984374,0,0,0.6115200000000001
1.774699692003196,0,0,2.109291662597656,0,0,0.53508
1.776084693003213,0,0,2.6048914062499997,0,0,0.30576000000000003
1.7776267289882526,0,0,1.7884686401367187,0,0,1.2994800000000002
1.7790164329926483,0,0,0.3232172241210937,0,0,1.911
1.7805135429953225,0,0,-0.5817910034179687,0,0,8.56128
1.781908172997646,0,0,1.5514426757812498,0,0,-0.30576000000000003
1.7833003039995674,0,0,2.4109610717773435,0,0,2.2931999999999997
1.784749507001834,0,0,1.5370774658203123,0,0,1.75812
1.7861307109997142,0,0,1.2138602416992186,0,0,0.99372
1.7875209900084883,0,0,0.22266075439453123,0,0,0.6115200000000001
1.7889019529975485,0,0,-0.02633621826171875,0,0,0.15288000000000002
1.7902827869984321,0,0,1.9800047729492187,0,0,0.0
1.7916630289983004,0,0,3.27526787109375,0,0,1.83456
1.793042826000601,0,0,2.1308394775390624,0,0,2.2931999999999997
1.794432788999984,0,0,1.915361328125,0,0,1.75812
1.7958148460020311,0,0,-0.49799394531249996,0,0,-0.45864
1.797197067993693,0,0,-0.8978256225585937,0,0,0.0
1.7985769769875333,0,0,1.3192051147460937,0,0,-0.30576000000000003
1.799963736004429,0,0,2.7940333374023436,0,0,0.0
1.8013504589907825,0,0,1.93451494140625,0,0,1.60524
1.8027364969893824,0,0,0.6081272216796875,0,0,2.2931999999999997
1.8041224229964428,0,0,-0.20350714111328125,0,0,-0.84084
1.8055094429873861,0,0,-0.6967126831054687,0,0,0.68796
1.8068969059968367,0,0,1.7621324218749999,0,0,1.68168
1.8082832029904239,0,0,2.3391350219726563,0,0,0.6115200000000001
1.809669111011317,0,0,1.9752163696289062,0,0,1.1465999999999998
1.8110554449958727,0,0,1.0893617553710937,0,0,1.68168
1.81244057501317,0,0,0.565031591796875,0,0,9.09636
1.8140646840038244,0,0,2.3247698120117186,0,0,0.0
1.815454055002192,0,0,2.8514941772460936,0,0,2.75184
1.8168392590014264,0,0,1.2617442749023438,0,0,1.1465999999999998
1.8182228340010624,0,0,0.7829039428710937,0,0,1.68168
1.8196196120115928,0,0,-1.20667763671875,0,0,-1.60524
1.8210058349941391,0,0,-0.5003881469726562,0,0,0.07644000000000001
1.8223901870078407,0,0,2.375048046875,0,0,0.0
1.8237751690030564,0,0,3.2800562744140622,0,0,1.1465999999999998
1.8251598000060767,0,0,1.9416975463867185,0,0,1.98744
1.826542597002117,0,0,1.3670891479492187,0,0,1.83456
1.8279257270041853,0,0,-1.3000515014648437,0,0,-1.911
1.8293095419940073,0,0,-1.2234370483398436,0,0,0.22932
1.8306926540099084,0,0,3.356670727539062,0,0,0.91728
1.83207547001075,0,0,4.151545678710937,0,0,0.91728
1.8334723029984161,0,0,3.076549133300781,0,0,1.98744
1.834896785003366,0,0,0.22026655273437498,0,0,2.98116
1.8362817669985816,0,0,-1.4245499877929686,0,0,-1.98744
1.8376667120028287,0,0,0.7230489013671875,0,0,-0.99372
1.839063619991066,0,0,3.0214824951171875,0,0,1.60524
1.8404471579997335,0,0,4.180276098632812,0,0,0.3822
1.841830307006603,0,0,1.714248388671875,0,0,1.75812
1.843212918000063,0,0,0.4285620971679687,0,0,2.4460800000000003
1.8445958819938824,0,0,-1.5945383056640625,0,0,-1.5288
1.8459800120035652,0,0,0.7302315063476562,0,0,-0.45864
1.8473802529915702,0,0,2.741360900878906,0,0,2.14032
1.848763902002247,0,0,2.703053674316406,0,0,2.06388
1.8501469400071073,0,0,1.9895815795898437,0,0,0.99372
1.8515640510013327,0,0,-1.0007762939453124,0,0,1.98744
1.8529491999943275,0,0,-1.0079588989257813,0,0,0.3822
1.8543324040074367,0,0,1.6448165405273436,0,0,20
1.855717108992394,0,0,4.319139794921875,0,0,2.4460800000000003
1.8570986280101351,0,0,3.143586779785156,0,0,2.14032
1.8584811839973554,0,0,1.956062756347656,0,0,2.06388
1.8598647399921902,0,0,-1.9393033447265624,0,0,-0.99372
1.8612472779932432,0,0,-2.0733786376953125,0,0,-1.07016
1.8626306490041316,0,0,3.1100679565429687,0,0,1.07016
1.8640135749883484,0,0,4.623203405761719,0,0,1.1465999999999998
1.8653957800124772,0,0,3.3542765258789062,0,0,2.75184
1.866778224997688,0,0,0.28012159423828126,0,0,2.4460800000000003
1.8681784110085573,0,0,-1.7764976318359373,0,0,-1.83456
1.8695911329996306,0,0,-0.8020575561523438,0,0,-2.14032
1.8710449110076297,0,0,2.231395947265625,0,0,9.631440000000001
1.8724392259900924,0,0,4.5322237426757805,0,0,0.15288000000000002
1.8738226520072203,0,0,2.91134921875,0,0,1.68168
1.8752059309917968,0,0,0.7493851196289062,0,0,2.14032
1.8765892460069153,0,0,-2.5570073730468748,0,0,-2.2167600000000003
1.877973413997097,0,0,-1.5107412475585937,0,0,-1.83456
1.8793568029941525,0,0,0.7062894897460937,0,0,0.3822
1.880773599987151,0,0,2.7940333374023436,0,0,0.15288000000000002
1.882173137011705,0,0,2.212242333984375,0,0,0.91728
1.883556712011341,0,0,-0.6392518432617187,0,0,1.5288
1.884940508985892,0,0,-1.675941162109375,0,0,-2.4460800000000003
1.8863244719977956,0,0,-1.8459294799804686,0,0,0.0
1.8877088429871947,0,0,1.6160861206054686,0,0,0.6115200000000001
1.8890907510067336,0,0,3.366247534179687,0,0,0.30576000000000003
1.8904732149967458,0,0,1.7525556152343749,0,0,2.90472
1.8918571049871389,0,0,0.296881005859375,0,0,-0.6115200000000001
1.8932479009963572,0,0,-0.7829039428710937,0,0,1.2994800000000002
1.894631531991763,0,0,-0.17477672119140625,0,0,-1.2994800000000002
1.8960155319946352,0,0,2.6001030029296874,0,0,-0.7644
1.8973987369972747,0,0,3.0310593017578125,0,0,3.21048
1.8987812369887251,0,0,2.0063409912109376,0,0,-1.1465999999999998
1.9001665159885306,0,0,0.9361328491210937,0,0,2.52252
1.901548941998044,0,0,-2.683900061035156,0,0,8.48484
1.9029330360062886,0,0,-2.020706201171875,0,0,-20
1.90431831398746,0,0,-1.4963760375976562,0,0,-0.3822
1.9057012780103832,0,0,2.674323254394531,0,0,-0.53508
1.9070846299873665,0,0,2.31758720703125,0,0,4.2042
1.9084679830120876,0,0,0.26336218261718747,0,0,-0.45864
1.90985039100633,0,0,0.3232172241210937,0,0,3.822
1.911233799008187,0,0,-1.1516109985351561,0,0,-2.4460800000000003
1.9126173729891889,0,0,-0.02633621826171875,0,0,-1.68168
1.9140168919984717,0,0,0.7733271362304687,0,0,-0.30576000000000003
1.9154001339920796,0,0,4.007893579101562,0,0,1.83456
1.9167824489995837,0,0,2.952050646972656,0,0,1.45236
1.9181643759948201,0,0,2.272097375488281,0,0,0.68796
1.9195476729946677,0,0,-0.7876923461914062,0,0,2.2931999999999997
1.9209289329883177,0,0,-1.7764976318359373,0,0,7.03248
1.9223114520136733,0,0,-1.8243816650390623,0,0,0.30576000000000003
1.9236951190105174,0,0,1.1755530151367186,0,0,-2.36964
1.9250774900137912,0,0,2.4396914916992185,0,0,1.60524
1.9264694350131322,0,0,1.8076222534179687,0,0,1.2994800000000002
1.9278520839870907,0,0,0.6871358764648438,0,0,2.6754
1.92923393601086,0,0,-0.4213794921875,0,0,0.45864
1.9306166220048908,0,0,-0.7541735229492187,0,0,-0.22932
1.9319996039848775,0,0,0.105344873046875,0,0,-1.2994800000000002
1.933381771988934,0,0,1.0319009155273438,0,0,-0.99372
1.934763920988189,0,0,2.375048046875,0,0,0.84084
1.9361465690017212,0,0,2.427720483398437,0,0,0.15288000000000002
1.9375285519927274,0,0,0.9361328491210937,0,0,1.5288
1.9389102369896136,0,0,0.14125789794921875,0,0,0.0
1.94029240499367,0,0,-0.5147533569335937,0,0,0.07644000000000001
1.9416753679979593,0,0,-0.11252747802734374,0,0,-1.2230400000000001
1.9430584989895578,0,0,0.6847416748046875,0,0,0.3822
1.9444412959855981,0,0,1.2234370483398436,0,0,0.0
1.9458300739934202,0,0,0.6607996582031249,0,0,-9.555
1.947325240005739,0,0,0.6081272216796875,0,0,0.68796
1.9487083890126087,0,0,0.5482721801757812,0,0,0.3822
1.9502154620131478,0,0,1.1420341918945311,0,0,1.37592
1.9516187949921004,0,0,1.369483349609375,0,0,1.37592
1.9530009999871254,0,0,1.149216796875,0,0,0.45864
1.9543833149946295,0,0,0.9983820922851562,0,0,0.0
1.9557656859979033,0,0,0.6177040283203125,0,0,0.15288000000000002
1.9571476310084108,0,0,0.4477157104492187,0,0,-0.45864
1.958530428004451,0,0,1.1061211669921875,0,0,-0.68796
1.959912872989662,0,0,1.1061211669921875,0,0,-9.784320000000001
1.9612964300031308,0,0,0.4644751220703125,0,0,0.53508
1.9626786150038242,0,0,0.4908113403320312,0,0,0.45864
1.96406089400989,0,0,0.22026655273437498,0,0,0.68796
1.965443097986281,0,0,0.24181436767578124,0,0,0.53508
1.966825079987757,0,0,0.4860229370117187,0,0,0.45864
1.9682073589938227,0,0,0.9911994873046874,0,0,0.3822
1.969636099995114,0,0,1.426944189453125,0,0,0.6115200000000001
1.9710199339897372,0,0,1.956062756347656,0,0,0.91728
1.9724062489985954,0,0,1.197100830078125,0,0,0.91728
1.973787805007305,0,0,0.7709329345703124,0,0,0.22932
1.9751694170117844,0,0,0.5147533569335937,0,0,0.0
1.9765519360080361,0,0,-0.316034619140625,0,0,-1.2994800000000002
1.977935733011691,0,0,0.6440402465820312,0,0,0.0
1.979317788995104,0,0,1.5275006591796874,0,0,-0.30576000000000003
1.980708234012127,0,0,1.0821791503906248,0,0,0.0
1.9820908829860855,0,0,0.17956512451171874,0,0,0.45864
1.983494049985893,0,0,0.22505495605468748,0,0,-0.3822
1.9848771620017942,0,0,0.35194764404296874,0,0,1.5288
1.9862661249935627,0,0,0.39743747558593745,0,0,0.0
1.9876493480114732,0,0,1.7764976318359373,0,0,0.91728
1.9890304600121453,0,0,2.0302830078125,0,0,1.1465999999999998
1.9904125159955584,0,0,0.8834604125976562,0,0,0.7644
1.9917954429984093,0,0,0.4477157104492187,0,0,0.6115200000000001
1.993176924996078,0,0,0.40462008056640625,0,0,-0.7644
1.9945594999880996,0,0,0.4908113403320312,0,0,0.0
1.9959418149956036,0,0,0.6153098266601562,0,0,-0.99372
1.9973249459872022,0,0,0.928950244140625,0,0,0.0
1.9987069650087506,0,0,1.5873557006835937,0,0,0.3822
2.0000892620009836,0,0,1.1228805786132812,0,0,0.6115200000000001
2.001471688010497,0,0,-0.33758243408203126,0,0,0.15288000000000002
2.0028547259862535,0,0,-0.1388636962890625,0,0,-0.15288000000000002
2.0042375230113976,0,0,0.5793968017578125,0,0,0.30576000000000003
2.0056196530058514,0,0,1.5753846923828123,0,0,0.84084
2.007001449994277,0,0,1.37906015625,0,0,0.99372
2.008383654989302,0,0,0.59376201171875,0,0,0.84084
2.009775932994671,0,0,0.8379705810546875,0,0,0.53508
2.0111578409851063,0,0,0.6751648681640625,0,0,0.3822
2.0125402669946197,0,0,1.16837041015625,0,0,0.45864
2.0139288239879534,0,0,0.8355763793945312,0,0,0.0
2.015315027994802,0,0,0.47884033203125,0,0,-0.30576000000000003
2.016698121005902,0,0,0.6464344482421874,0,0,-0.3822
2.0180806030111853,0,0,0.8379705810546875,0,0,0.0
2.019479937007418,0,0,1.350329736328125,0,0,0.22932
2.0208621039928403,0,0,0.9241618408203125,0,0,0.22932
2.0222440309880767,0,0,0.38786066894531246,0,0,0.0
2.0236273650079966,0,0,-0.105344873046875,0,0,-0.45864
2.025010014011059,0,0,0.19153613281249998,0,0,0.22932
2.0263922740123235,0,0,1.43652099609375,0,0,0.91728
2.0277753669943195,0,0,1.5849614990234373,0,0,0.68796
2.0291568860120606,0,0,1.2761094848632812,0,0,1.07016
2.030538757011527,0,0,0.7733271362304687,0,0,0.68796
2.0319202019891236,0,0,0.2825157958984375,0,0,0.0
2.0333021660044324,0,0,0.612915625,0,0,-0.22932
2.0346981849870645,0,0,1.0702081420898437,0,0,0.0
2.0360809080011677,0,0,1.2330138549804688,0,0,0.3822
2.037462907988811,0,0,1.2665326782226562,0,0,0.3822
2.038844667986268,0,0,0.7996633544921875,0,0,0.22932
2.0402272249921225,0,0,0.3495534423828125,0,0,-0.15288000000000002
2.041609484003857,0,0,0.1388636962890625,0,0,-0.3822
2.0429919669986703,0,0,0.46686932373046874,0,0,0.0
2.0443744669901207,0,0,1.2138602416992186,0,0,0.22932
2.045756653009448,0,0,1.1540052001953125,0,0,0.3822
2.047138635010924,0,0,0.9959878906249999,0,0,0.68796
2.0485216729866806,0,0,0.5913678100585937,0,0,0.15288000000000002
2.0499035069951788,0,0,0.36631285400390623,0,0,0.30576000000000003
2.0512883409974165,0,0,0.97683427734375,0,0,0.3822
2.0526708599936683,0,0,0.9935936889648437,0,0,0.45864
2.054052193998359,0,0,1.189918225097656,0,0,0.45864
2.055457045993535,0,0,0.8547299926757812,0,0,0.45864
2.0568549539893866,0,0,0.699106884765625,0,0,0.30576000000000003
2.058237529010512,0,0,0.7900865478515624,0,0,-0.68796
2.0596330290136393,0,0,0.8188169677734375,0,0,0.15288000000000002
2.06101417800528,0,0,0.7733271362304687,0,0,0.30576000000000003
2.0623957900097594,0,0,0.43574470214843747,0,0,0.0
2.0637784390128218,0,0,0.5386953735351562,0,0,0.15288000000000002
2.0651594949886203,0,0,0.8068459594726562,0,0,0.91728
2.066541309992317,0,0,0.9504980590820312,0,0,0.6115200000000001
2.0679309589904733,0,0,0.7445967163085937,0,0,0.84084
2.069312775012804,0,0,0.7326257080078125,0,0,0.22932
2.070694719994208,0,0,1.0223241088867188,0,0,0.30576000000000003
2.072077016986441,0,0,1.429338391113281,0,0,1.07016
2.073458480008412,0,0,1.3575123413085937,0,0,1.1465999999999998
2.0748402400058694,0,0,1.3623007446289062,0,0,1.2994800000000002
2.0762217970041092,0,0,1.0295067138671874,0,0,0.99372
2.0776035379967652,0,0,0.8954314208984374,0,0,0.3822
2.0789845199906267,0,0,1.3096283081054687,0,0,0.22932
2.08036676098709,0,0,1.7022773803710936,0,0,0.84084
2.081748355005402,0,0,1.956062756347656,0,0,0.6115200000000001
2.0831291890062857,0,0,1.695094775390625,0,0,0.91728
2.08451126300497,0,0,1.1156979736328125,0,0,0.84084
2.0858926530054305,0,0,0.7685387329101562,0,0,0.7644
2.087274913006695,0,0,1.1635820068359375,0,0,0.30576000000000003
2.0886570799921174,0,0,1.37906015625,0,0,0.91728
2.0900388399895746,0,0,1.6256629272460936,0,0,0.91728
2.091433617984876,0,0,1.4053963745117186,0,0,0.84084
2.0928155639849138,0,0,1.448492004394531,0,0,1.07016
2.0941971199936233,0,0,1.1420341918945311,0,0,0.7644
2.095579971995903,0,0,1.189918225097656,0,0,0.84084
2.0969605470017996,0,0,1.3144167114257812,0,0,0.45864
2.098343899997417,0,0,1.2689268798828124,0,0,0.68796
2.0997268820065074,0,0,1.2856862915039062,0,0,1.1465999999999998
2.1011150119884405,0,0,1.3192051147460937,0,0,0.53508
2.102496956998948,0,0,1.5251064575195312,0,0,0.53508
2.1038796239881776,0,0,1.3263877197265623,0,0,0.6115200000000001
2.1052613469946664,0,0,1.2138602416992186,0,0,0.6115200000000001
2.106642828992335,0,0,1.0582371337890624,0,0,0.6115200000000001
2.1080290520039853,0,0,1.216254443359375,0,0,0.7644
2.109410775010474,0,0,1.1851298217773436,0,0,0.91728
2.110792591003701,0,0,1.4053963745117186,0,0,0.99372
2.1121732580068056,0,0,1.438915197753906,0,0,0.6115200000000001
2.1135538879898377,0,0,1.637633935546875,0,0,1.2230400000000001
2.1149942770134658,0,0,1.3072341064453123,0,0,0.99372
2.1164367210003547,0,0,1.2018892333984375,0,0,0.7644
2.1178730730025563,0,0,1.3192051147460937,0,0,0.68796
2.119299795012921,0,0,1.1156979736328125,0,0,0.45864
2.121737467998173,0,0,1.4796166259765624,0,0,0.68796
2.1232018189912196,0,0,1.419761584472656,0,0,0.91728
2.1247100589971524,0,0,1.1875240234375,0,0,0.53508
2.126175224984763,0,0,1.2234370483398436,0,0,0.68796
2.128101718990365,0,0,1.2473790649414063,0,0,0.6115200000000001
2.129558143991744,0,0,1.2425906616210938,0,0,0.6115200000000001
2.131002348003676,0,0,1.2282254516601563,0,0,0.15288000000000002
2.132462403009413,0,0,1.2713210815429687,0,0,0.6115200000000001
2.133928958006436,0,0,1.4772224243164063,0,0,1.2230400000000001
2.1354033650131896,0,0,1.1827356201171875,0,0,0.7644
2.136788644012995,0,0,1.3575123413085937,0,0,0.68796
2.1381683289946523,0,0,1.3192051147460937,0,0,0.91728
2.139550441002939,0,0,1.3192051147460937,0,0,0.84084
2.1409293680044357,0,0,1.5131354492187499,0,0,0.91728
2.142308109003352,0,0,1.3646949462890625,0,0,1.07016
2.1436907399911433,0,0,1.1707646118164061,0,0,0.53508
2.145073499006685,0,0,1.5035586425781249,0,0,0.7644
2.146465944009833,0,0,1.2473790649414063,0,0,0.7644
2.1478479639918078,0,0,1.3048399047851562,0,0,0.99372
2.1492265939887147,0,0,1.3263877197265623,0,0,0.91728
2.1506054470082745,0,0,1.2737152832031249,0,0,0.45864
2.1520015579881147,0,0,1.254561669921875,0,0,0.3822
2.153381114010699,0,0,1.218648645019531,0,0,0.68796
2.15475931900437,0,0,1.6519991455078125,0,0,0.53508
2.156140356004471,0,0,1.3263877197265623,0,0,0.45864
2.1575186910049524,0,0,1.3814543579101561,0,0,0.84084
2.1588965250120964,0,0,1.0726023437499999,0,0,0.84084
2.1602792099874932,0,0,1.0702081420898437,0,0,0.45864
2.161658007011283,0,0,1.2665326782226562,0,0,0.99372
2.163036026991904,0,0,1.4796166259765624,0,0,0.6115200000000001
2.1644157679984346,0,0,1.3287819213867187,0,0,0.7644
2.165910434006946,0,0,1.675941162109375,0,0,0.6115200000000001
2.167303397000069,0,0,1.1516109985351561,0,0,0.99372
2.168694324005628,0,0,1.2114660400390624,0,0,0.7644
2.17008132499177,0,0,1.0965443603515623,0,0,0.6115200000000001
2.171484140009852,0,0,1.1923124267578125,0,0,0.99372
2.172871640010271,0,0,1.2808978881835937,0,0,0.15288000000000002
2.174258307990385,0,0,1.2234370483398436,0,0,0.84084
2.175643160007894,0,0,1.5610194824218748,0,0,0.99372
2.1770212900009938,0,0,1.388636962890625,0,0,0.68796
2.178399272990646,0,0,1.2473790649414063,0,0,0.91728
2.179784050997114,0,0,0.9911994873046874,0,0,0.84084
2.1811710330075584,0,0,1.1563994018554686,0,0,0.53508
2.182557941006962,0,0,1.2761094848632812,0,0,0.7644
2.183944922988303,0,0,1.4437036010742186,0,0,0.68796
2.185331535001751,0,0,1.3862427612304686,0,0,0.7644
2.1867309430090245,0,0,1.5179238525390624,0,0,0.7644
2.1881176279857755,0,0,1.2282254516601563,0,0,0.91728
2.189504370006034,0,0,1.1659762084960936,0,0,0.84084
2.190898295986699,0,0,1.0797849487304687,0,0,0.68796
2.192280518996995,0,0,1.1468225952148436,0,0,0.84084
2.193659001000924,0,0,1.350329736328125,0,0,0.22932
2.195037149998825,0,0,1.3814543579101561,0,0,0.53508
2.196424558002036,0,0,1.5753846923828123,0,0,0.99372
2.1978107999893837,0,0,1.3575123413085937,0,0,0.68796
2.199196558998665,0,0,1.2018892333984375,0,0,0.45864
2.200582466990454,0,0,1.1827356201171875,0,0,0.6115200000000001
2.2019686900021043,0,0,1.180341418457031,0,0,0.6115200000000001
2.2033541910059284,0,0,1.3311761230468748,0,0,0.99372
2.2047411169914994,0,0,1.2665326782226562,0,0,0.91728
2.206127117999131,0,0,1.5538368774414062,0,0,0.84084
2.2075138590007555,0,0,1.5251064575195312,0,0,0.91728
2.2088987669849303,0,0,1.22583125,0,0,1.1465999999999998
2.210284324013628,0,0,1.1252747802734375,0,0,0.99372
2.211670119984774,0,0,1.20667763671875,0,0,0.99372
2.213053546991432,0,0,1.3096283081054687,0,0,0.91728
2.2144614919961896,0,0,1.3623007446289062,0,0,0.0
2.2158599740068894,0,0,1.2378022583007813,0,0,0.84084
2.2172473079990596,0,0,1.7238251953125,0,0,1.07016
2.2186332900018897,0,0,1.2713210815429687,0,0,0.53508
2.2200192350137513,0,0,1.2330138549804688,0,0,0.84084
2.221404549985891,0,0,1.209071838378906,0,0,0.3822
2.2227901619917247,0,0,1.1372457885742187,0,0,0.6115200000000001
2.224175996001577,0,0,1.3383587280273437,0,0,1.2994800000000002
2.2255634219909552,0,0,1.448492004394531,0,0,0.7644
2.2269484600110445,0,0,1.3287819213867187,0,0,0.6115200000000001
2.2283340159920044,0,0,1.3670891479492187,0,0,0.7644
2.2297194240090903,0,0,1.209071838378906,0,0,0.7644
2.2311046659888234,0,0,1.13006318359375,0,0,0.68796
2.2324907399888616,0,0,1.1061211669921875,0,0,0.53508
2.2338877959991805,0,0,1.1611878051757811,0,0,0.53508
2.2352739080088213,0,0,1.4604630126953124,0,0,0.07644000000000001
2.2366598900116514,0,0,1.3575123413085937,0,0,0.99372
2.2380452979996335,0,0,1.608903515625,0,0,0.91728
2.2394316509889904,0,0,1.3072341064453123,0,0,0.7644
2.240816948004067,0,0,1.3383587280273437,0,0,0.91728
2.2422023369872477,0,0,1.235408056640625,0,0,0.6115200000000001
2.24358811500133,0,0,1.189918225097656,0,0,0.7644
2.244980763993226,0,0,1.1659762084960936,0,0,1.07016
2.246366504987236,0,0,1.407790576171875,0,0,0.84084
2.247752950992435,0,0,1.5298948608398437,0,0,0.7644
2.2491374330129474,0,0,1.465251416015625,0,0,0.84084
2.2505227479850873,0,0,1.24498486328125,0,0,1.07016
2.2519084149971604,0,0,1.120486376953125,0,0,0.84084
2.2532938229851425,0,0,1.1468225952148436,0,0,0.91728
2.254679342993768,0,0,1.180341418457031,0,0,0.53508
2.2560649540100712,0,0,1.4915876342773438,0,0,0.30576000000000003
2.2574502330098767,0,0,1.3766659545898436,0,0,0.7644
2.258835918008117,0,0,1.4101847778320311,0,0,0.84084
2.2602213450009003,0,0,1.1611878051757811,0,0,0.68796
2.2616065490001347,0,0,1.20667763671875,0,0,0.91728
2.26299182799994,0,0,1.218648645019531,0,0,0.45864
2.264377162005985,0,0,1.1324573852539062,0,0,0.7644
2.2657626250002068,0,0,1.1037269653320312,0,0,1.07016
2.267147904000012,0,0,1.3359645263671873,0,0,0.68796
2.268533552007284,0,0,1.3215993164062498,0,0,0.53508
2.2699186640093103,0,0,1.6041151123046875,0,0,0.6115200000000001
2.2713041650131345,0,0,1.3024457031249999,0,0,1.07016
2.2726888690085616,0,0,1.1659762084960936,0,0,0.99372
2.2740741099987645,0,0,1.1875240234375,0,0,0.84084
2.275461240991717,0,0,1.24498486328125,0,0,0.53508
2.27684696399956,0,0,1.3000515014648437,0,0,0.53508
2.278239464008948,0,0,1.3120225097656248,0,0,0.7644
2.279625686991494,0,0,1.5658078857421873,0,0,1.07016
2.281009983998956,0,0,1.20667763671875,0,0,0.53508
2.2823952439939603,0,0,1.158793603515625,0,0,0.68796
2.283780225989176,0,0,1.2737152832031249,0,0,0.84084
2.285163338005077,0,0,1.1563994018554686,0,0,0.91728
2.286546819988871,0,0,1.2713210815429687,0,0,0.6115200000000001
2.288263205002295,0,0,1.4221557861328125,0,0,0.68796
2.2897479080129415,0,0,1.2713210815429687,0,0,0.68796
2.2911345199972857,0,0,1.209071838378906,0,0,0.45864
2.2925165939959697,0,0,1.2689268798828124,0,0,1.07016
2.293895651004277,0,0,1.1324573852539062,0,0,1.07016
2.295274484989932,0,0,1.13006318359375,0,0,0.84084
2.296654411009513,0,0,1.1180921752929687,0,0,0.84084
2.2980329300044104,0,0,1.5107412475585937,0,0,0.45864
2.29943600500701,0,0,1.4245499877929686,0,0,1.1465999999999998
2.300814708985854,0,0,1.637633935546875,0,0,0.84084
2.3021930060058367,0,0,1.1013327636718748,0,0,0.84084
2.3035953959915787,0,0,1.0869675537109373,0,0,0.68796
2.3049817479914054,0,0,1.1540052001953125,0,0,0.45864
2.306367304001469,0,0,1.22583125,0,0,0.3822
2.307752952998271,0,0,1.4915876342773438,0,0,0.22932
2.309138417011127,0,0,1.3742717529296875,0,0,0.7644
2.3105232510133646,0,0,1.5251064575195312,0,0,0.45864
2.3119071219989564,0,0,1.4317325927734375,0,0,0.7644
2.3133084370056167,0,0,1.2330138549804688,0,0,1.07016
2.3146918079874013,0,0,1.1085153686523437,0,0,0.68796
2.316083326993976,0,0,1.1180921752929687,0,0,0.7644
2.317462531005731,0,0,1.199495031738281,0,0,1.2230400000000001
2.318840938998619,0,0,1.4820108276367188,0,0,0.84084
2.3202270879992284,0,0,1.3024457031249999,0,0,0.99372
2.3216231259866618,0,0,1.6424223388671875,0,0,1.07016
2.3230090709985234,0,0,1.1540052001953125,0,0,0.6115200000000001
2.324394589988515,0,0,1.1516109985351561,0,0,0.84084
2.3257803680025972,0,0,1.1923124267578125,0,0,0.53508
2.3271658690064214,0,0,1.2234370483398436,0,0,0.45864
2.3285516100004315,0,0,1.5251064575195312,0,0,0.0
2.3299366110004485,0,0,1.3168109130859373,0,0,0.6115200000000001
2.3313222040014807,0,0,1.5753846923828123,0,0,0.91728
2.332707944995491,0,0,1.3718775512695311,0,0,0.53508
2.334093371988274,0,0,1.2234370483398436,0,0,0.99372
2.3354916500102263,0,0,1.2042834350585936,0,0,0.68796
2.336877094989177,0,0,1.1755530151367186,0,0,0.68796
2.3382625769881997,0,0,1.3263877197265623,0,0,1.2994800000000002
2.339648966997629,0,0,1.4245499877929686,0,0,0.45864
2.341256927989889,0,0,1.3263877197265623,0,0,0.68796
2.34264770601294,0,0,1.6160861206054686,0,0,1.07016
2.344034946989268,0,0,1.2713210815429687,0,0,0.91728
2.345423855003901,0,0,1.2569558715820313,0,0,0.68796
2.346813096984988,0,0,1.1228805786132812,0,0,0.53508
2.3482003750104923,0,0,1.1540052001953125,0,0,0.68796
2.3495865979930386,0,0,1.5011644409179687,0,0,0.3822
2.350973097985843,0,0,1.2401964599609374,0,0,0.91728
2.352353155001765,0,0,1.5610194824218748,0,0,0.68796
2.3537315629946534,0,0,1.4437036010742186,0,0,0.6115200000000001
2.3551205080002546,0,0,1.2569558715820313,0,0,1.07016
2.3565092489880044,0,0,1.209071838378906,0,0,0.6115200000000001
2.357895508990623,0,0,1.1611878051757811,0,0,0.53508
2.359281546989223,0,0,1.3096283081054687,0,0,0.91728
2.3606693990004715,0,0,1.37906015625,0,0,0.84084
2.362071343988646,0,0,1.3646949462890625,0,0,0.68796
2.363458362990059,0,0,1.6424223388671875,0,0,0.6115200000000001
2.3648439930111635,0,0,1.180341418457031,0,0,1.1465999999999998
2.366236920002848,0,0,1.120486376953125,0,0,0.84084
2.367619956989074,0,0,1.139639990234375,0,0,0.6115200000000001
2.369012236013077,0,0,1.3000515014648437,0,0,0.91728
2.3703997549891938,0,0,1.4604630126953124,0,0,0.30576000000000003
2.371842718013795,0,0,1.3359645263671873,0,0,0.84084
2.3733035509940237,0,0,1.5658078857421873,0,0,1.07016
2.3746914959920105,0,0,1.2737152832031249,0,0,0.84084
2.3760837739973795,0,0,1.2569558715820313,0,0,1.07016
2.377470329985954,0,0,1.209071838378906,0,0,0.53508
2.3788570530014113,0,0,1.2234370483398436,0,0,0.6115200000000001
2.380244256986771,0,0,1.4700398193359374,0,0,0.7644
2.3816306839871686,0,0,1.5083470458984374,0,0,0.84084
2.3830171290028375,0,0,1.5155296508789062,0,0,0.6115200000000001
2.3843975180061534,0,0,1.407790576171875,0,0,0.45864
2.3880918590002693,0,0,1.2713210815429687,0,0,0.68796
2.390602826984832,0,0,1.2785036865234374,0,0,0.99372
2.391991439013509,0,0,1.3910311645507811,0,0,0.84084
2.3933738649939187,0,0,1.3048399047851562,0,0,0.6115200000000001
2.3947534959879704,0,0,1.6208745239257811,0,0,0.99372
2.396143736987142,0,0,1.1851298217773436,0,0,-9.01992
2.397533793002367,0,0,1.1851298217773436,0,0,0.84084
2.398921904998133,0,0,1.1563994018554686,0,0,0.99372
2.4003052760090213,0,0,1.2593500732421874,0,0,0.45864
2.401684053998906,0,0,1.2785036865234374,0,0,0.30576000000000003
2.4030632030044217,0,0,1.2737152832031249,0,0,0.68796
2.404451926006004,0,0,1.6232687255859375,0,0,1.1465999999999998
2.405838834005408,0,0,1.158793603515625,0,0,0.91728
2.4072260200046003,0,0,1.1420341918945311,0,0,0.99372
2.408614112995565,0,0,1.1563994018554686,0,0,0.53508
2.4100010579859372,0,0,1.120486376953125,0,0,0.68796
2.411388946988154,0,0,1.3048399047851562,0,0,1.07016
2.412795559008373,0,0,1.3287819213867187,0,0,0.68796
2.4141836519993376,0,0,1.3335703247070312,0,0,0.68796
2.415571485995315,0,0,1.4772224243164063,0,0,0.7644
2.416958652989706,0,0,1.2617442749023438,0,0,1.07016
2.4183461909997277,0,0,1.209071838378906,0,0,0.53508
2.4197348770103417,0,0,1.139639990234375,0,0,1.07016
2.421121191990096,0,0,1.3096283081054687,0,0,0.68796
2.4225084699864965,0,0,1.4867992309570313,0,0,0.6115200000000001
2.4239203039905988,0,0,1.2808978881835937,0,0,0.84084
2.425308044999838,0,0,1.5682020874023437,0,0,0.99372
2.4266957310028374,0,0,1.3335703247070312,0,0,0.99372
2.4280836019897833,0,0,1.254561669921875,0,0,0.7644
2.4294706950022373,0,0,1.218648645019531,0,0,0.45864
2.430858306994196,0,0,1.1731588134765625,0,0,0.7644
2.4322454929933883,0,0,1.4508862060546874,0,0,0.68796
2.433636567002395,0,0,1.5394716674804687,0,0,0.84084
2.4350354569905903,0,0,1.35990654296875,0,0,0.6115200000000001
2.436441346013453,0,0,1.5155296508789062,0,0,0.7644
2.437828180001816,0,0,1.2282254516601563,0,0,1.1465999999999998
2.439216088008834,0,0,1.1827356201171875,0,0,0.7644
2.440603255003225,0,0,1.2497732666015624,0,0,0.91728
2.4419899779895786,0,0,1.2521674682617188,0,0,0.6115200000000001
2.443378589989152,0,0,1.388636962890625,0,0,0.45864
2.444766108994372,0,0,1.3000515014648437,0,0,0.6115200000000001
2.4461533309950028,0,0,1.4532804077148436,0,0,0.99372
2.44754116499098,0,0,1.1348515869140625,0,0,0.68796
2.448927610006649,0,0,1.1923124267578125,0,0,0.84084
2.4503147219948005,0,0,1.1109095703125,0,0,-8.943480000000001
2.4517037039913703,0,0,1.13006318359375,0,0,0.45864
2.453090519993566,0,0,1.3479355346679687,0,0,0.53508
2.454477630992187,0,0,1.4963760375976562,0,0,0.68796
2.455865669006016,0,0,1.3670891479492187,0,0,0.68796
2.4572654659859836,0,0,1.3623007446289062,0,0,1.07016
2.4586526509956457,0,0,1.1635820068359375,0,0,0.84084
2.460041170998011,0,0,1.120486376953125,0,0,0.84084
2.461428523005452,0,0,1.1252747802734375,0,0,1.07016
2.462815931008663,0,0,1.3431471313476562,0,0,0.68796
2.4642031909897923,0,0,1.4413093994140624,0,0,0.30576000000000003
2.465590173000237,0,0,1.3239935180664062,0,0,0.68796
2.466977728996426,0,0,1.5586252807617187,0,0,1.1465999999999998
2.4683659329894,0,0,1.3144167114257812,0,0,0.7644
2.4697533040016424,0,0,1.2641384765625,0,0,1.07016
2.4711408230068628,0,0,1.2138602416992186,0,0,0.6115200000000001
2.4725278049882036,0,0,1.13006318359375,0,0,0.6115200000000001
2.4739150649984367,0,0,1.3910311645507811,0,0,0.45864
2.475302398990607,0,0,1.4867992309570313,0,0,0.91728
2.476689825998619,0,0,1.6232687255859375,0,0,0.7644
2.478076975006843,0,0,1.3239935180664062,0,0,0.6115200000000001
2.4794752529996913,0,0,1.2785036865234374,0,0,0.91728
2.480854346009437,0,0,1.1516109985351561,0,0,1.07016
2.482242142985342,0,0,1.1947066284179686,0,0,0.84084
2.4836272920074407,0,0,1.0917559570312498,0,0,0.68796
2.4850221069937106,0,0,1.5131354492187499,0,0,-9.555
2.486411051999312,0,0,1.3431471313476562,0,0,0.99372
2.487798793008551,0,0,1.4341267944335936,0,0,0.99372
2.489186127000721,0,0,1.1085153686523437,0,0,0.6115200000000001
2.4905731460021343,0,0,1.2737152832031249,0,0,0.91728
2.4919553879881278,0,0,1.197100830078125,0,0,0.45864
2.4933339809940662,0,0,1.1276689819335937,0,0,0.68796
2.494715851993533,0,0,1.369483349609375,0,0,0.68796
2.496102778997738,0,0,1.4939818359375,0,0,0.84084
2.4974899830122013,0,0,1.24498486328125,0,0,0.68796
2.498876817000564,0,0,1.3958195678710936,0,0,0.45864
2.500274076999631,0,0,1.0845733520507812,0,0,0.84084
2.501660948008066,0,0,1.216254443359375,0,0,0.91728
2.5030477629916277,0,0,1.2114660400390624,0,0,0.45864
2.504434003989445,0,0,1.197100830078125,0,0,0.45864
2.5058202639920637,0,0,1.4437036010742186,0,0,0.07644000000000001
2.5072068389854394,0,0,1.3144167114257812,0,0,0.7644
2.5086125239904504,0,0,1.3814543579101561,0,0,1.1465999999999998
2.5099999879894312,0,0,1.189918225097656,0,0,-9.47856
2.5113887850020546,0,0,1.0773907470703123,0,0,0.45864
2.512775971001247,0,0,1.1659762084960936,0,0,0.45864
2.5141624709940515,0,0,1.1563994018554686,0,0,0.6115200000000001
2.515549750009086,0,0,1.3024457031249999,0,0,0.91728
2.5169360839936417,0,0,1.4820108276367188,0,0,0.53508
2.518321824987652,0,0,1.3958195678710936,0,0,0.7644
2.5197083259990904,0,0,1.2641384765625,0,0,0.99372
2.521094344992889,0,0,1.218648645019531,0,0,0.7644
2.5224806040059775,0,0,1.1037269653320312,0,0,0.6115200000000001
2.5238677349989302,0,0,1.1516109985351561,0,0,0.91728
2.5252536429907195,0,0,1.2306196533203124,0,0,0.45864
2.526639588002581,0,0,1.35990654296875,0,0,0.84084
2.5280256439873483,0,0,1.1947066284179686,0,0,0.91728
2.5294171999848913,0,0,1.5179238525390624,0,0,0.91728
2.5308030899905134,0,0,1.1013327636718748,0,0,0.84084
2.53218944199034,0,0,1.1348515869140625,0,0,0.68796
2.5335758319997694,0,0,1.1061211669921875,0,0,0.45864
2.5349618880136404,0,0,1.1013327636718748,0,0,0.7644
2.5363479439984076,0,0,1.3239935180664062,0,0,0.6115200000000001
2.537734278012067,0,0,1.4221557861328125,0,0,0.84084
2.5391203709878027,0,0,1.3934253662109375,0,0,0.84084
2.5405170200101566,0,0,1.6831237670898436,0,0,0.6115200000000001
2.541902705008397,0,0,1.1827356201171875,0,0,1.07016
2.543307908985298,0,0,1.0917559570312498,0,0,0.99372
2.5447007800103165,0,0,1.1947066284179686,0,0,0.6115200000000001
2.5462444639997557,0,0,1.2114660400390624,0,0,0.91728
2.5476292980019934,0,0,1.4125789794921875,0,0,0.3822
2.549008947011316,0,0,1.2425906616210938,0,0,0.7644
2.5503882069897372,0,0,1.3814543579101561,0,0,0.84084
2.551768595993053,0,0,1.1061211669921875,0,0,0.7644
2.5531473929877393,0,0,1.0965443603515623,0,0,0.68796
2.554526652995264,0,0,1.2976572998046874,0,0,0.6115200000000001
2.5559288949880283,0,0,1.2521674682617188,0,0,0.68796
2.5573074689891655,0,0,1.2641384765625,0,0,0.30576000000000003
2.5586861920019146,0,0,1.369483349609375,0,0,0.99372
2.5600723779934924,0,0,1.4963760375976562,0,0,0.68796
2.5614590639888775,0,0,1.6519991455078125,0,0,0.7644
2.562845545995515,0,0,1.235408056640625,0,0,1.07016
2.5642302320047747,0,0,1.1276689819335937,0,0,0.99372
2.565634269005386,0,0,1.1707646118164061,0,0,0.7644
2.5670221030013636,0,0,1.2856862915039062,0,0,1.07016
2.5684090110007674,0,0,1.429338391113281,0,0,0.45864
2.5697952340124175,0,0,1.2306196533203124,0,0,0.7644
2.5711814939859323,0,0,1.4604630126953124,0,0,1.1465999999999998
2.5725683649943676,0,0,1.218648645019531,0,0,0.7644
2.5739544210082386,0,0,1.177947216796875,0,0,0.6115200000000001
2.575341051007854,0,0,1.2018892333984375,0,0,0.30576000000000003
2.576727737003239,0,0,1.2785036865234374,0,0,0.68796
2.578113775001839,0,0,1.446097802734375,0,0,0.30576000000000003
2.5795007570122834,0,0,1.5083470458984374,0,0,0.99372
2.580886276002275,0,0,1.5035586425781249,0,0,0.84084
2.5822723869932815,0,0,1.4772224243164063,0,0,0.53508
2.583659333002288,0,0,1.254561669921875,0,0,0.99372
2.5850452779850457,0,0,1.0845733520507812,0,0,0.91728
2.5864329999894835,0,0,1.2210428466796874,0,0,0.91728
2.587832501012599,0,0,1.218648645019531,0,0,0.7644
2.589219335000962,0,0,1.4317325927734375,0,0,0.84084
2.5906054840015713,0,0,1.3287819213867187,0,0,0.91728
2.591991761990357,0,0,1.5107412475585937,0,0,1.07016
2.593377873999998,0,0,1.197100830078125,0,0,0.7644
2.594764078006847,0,0,1.0965443603515623,0,0,0.53508
2.596150208002655,0,0,1.0726023437499999,0,0,0.53508
2.5975435609871056,0,0,1.1851298217773436,0,0,0.3822
2.5989382090047,0,0,1.35990654296875,0,0,0.45864
2.6003428580006585,0,0,1.4221557861328125,0,0,0.84084
2.601730229012901,0,0,1.5921441040039062,0,0,0.6115200000000001
2.603116599988425,0,0,1.4173673828125,0,0,0.68796
2.6045023039914668,0,0,1.2737152832031249,0,0,0.84084
2.605888471007347,0,0,1.20667763671875,0,0,0.84084
2.6072756010107696,0,0,1.1420341918945311,0,0,0.91728
2.6086623430019245,0,0,1.3168109130859373,0,0,1.1465999999999998
2.610048769012792,0,0,1.5203180541992187,0,0,0.7644
2.6114354740129784,0,0,1.3623007446289062,0,0,1.07016
2.6128216960059945,0,0,1.5083470458984374,0,0,0.91728
2.6142079189885408,0,0,1.0893617553710937,0,0,0.91728
2.615594715985935,0,0,1.1156979736328125,0,0,0.6115200000000001
2.6169804759847466,0,0,1.1755530151367186,0,0,0.22932
2.6183668469893746,0,0,1.1563994018554686,0,0,0.68796
2.619752680999227,0,0,1.4030021728515625,0,0,1.07016
2.6220546700060368,0,0,1.3742717529296875,0,0,0.7644
2.623560075997375,0,0,1.2976572998046874,0,0,0.7644
2.624949632008793,0,0,1.209071838378906,0,0,1.07016
2.6263371520035435,0,0,1.1635820068359375,0,0,0.6115200000000001
2.62772196700098,0,0,1.0989385620117187,0,0,0.7644
2.6291009490087163,0,0,1.0773907470703123,0,0,0.68796
2.6304797650082037,0,0,1.5634136840820312,0,0,0.22932
2.631864802009659,0,0,1.4173673828125,0,0,0.99372
2.6332697840116452,0,0,1.465251416015625,0,0,1.1465999999999998
2.634655489004217,0,0,1.1659762084960936,0,0,0.7644
2.636041914985981,0,0,1.3048399047851562,0,0,0.99372
2.6374282489996403,0,0,1.2330138549804688,0,0,0.68796
2.6388140830094926,0,0,1.1707646118164061,0,0,0.84084
2.6401998979854397,0,0,1.3742717529296875,0,0,1.07016
2.6415857510000933,0,0,1.3766659545898436,0,0,0.6115200000000001
2.642971436987864,0,0,1.2306196533203124,0,0,0.68796
2.644356956006959,0,0,1.656787548828125,0,0,0.84084
2.64574253000319,0,0,1.1755530151367186,0,0,0.99372
2.647127993986942,0,0,1.3144167114257812,0,0,0.84084
2.6485131979861762,0,0,1.1827356201171875,0,0,0.45864
2.6498991799890064,0,0,1.2306196533203124,0,0,0.7644
2.6512871629965957,0,0,1.4221557861328125,0,0,0.3822
2.6526732190104667,0,0,1.4030021728515625,0,0,0.91728
2.6540593119862024,0,0,1.438915197753906,0,0,0.91728
2.6554551089939196,0,0,1.0845733520507812,0,0,0.7644
2.6568410719919484,0,0,1.1324573852539062,0,0,0.7644
2.658239295007661,0,0,1.1013327636718748,0,0,0.53508
2.6596259250072762,0,0,1.2282254516601563,0,0,0.7644
2.6610118329990655,0,0,1.2306196533203124,0,0,0.7644
2.6623975560069084,0,0,1.3287819213867187,0,0,0.6115200000000001
2.663783797004726,0,0,1.254561669921875,0,0,0.91728
2.665168890991481,0,0,1.39821376953125,0,0,0.3822
2.6665547250013333,0,0,1.2210428466796874,0,0,0.99372
2.667940502986312,0,0,1.199495031738281,0,0,0.91728
2.6693263550114352,0,0,1.2976572998046874,0,0,0.84084
2.6707123189989943,0,0,1.20667763671875,0,0,0.6115200000000001
2.6720982090046164,0,0,1.4317325927734375,0,0,0.53508
2.6734834680100903,0,0,1.3215993164062498,0,0,1.1465999999999998
2.674869006004883,0,0,1.5658078857421873,0,0,0.84084
2.6762650620075874,0,0,1.3144167114257812,0,0,0.68796
2.677650747995358,0,0,1.1444283935546875,0,0,0.6115200000000001
2.6790364340122323,0,0,1.1875240234375,0,0,0.45864
2.6804224899969995,0,0,1.2713210815429687,0,0,0.53508
2.681808341993019,0,0,1.4125789794921875,0,0,0.68796
2.6831939360126853,0,0,1.448492004394531,0,0,1.07016
2.684579788008705,0,0,1.3742717529296875,0,0,0.84084
2.6859647700039204,0,0,1.4891934326171874,0,0,0.53508
2.6873500299989246,0,0,1.0749965454101562,0,0,0.99372
2.688737790012965,0,0,1.1109095703125,0,0,0.7644
2.690123289998155,0,0,1.3048399047851562,0,0,0.91728
2.6915095869917423,0,0,1.3072341064453123,0,0,0.7644
2.6928951070003677,0,0,1.4604630126953124,0,0,0.0
2.6942807550076395,0,0,1.4628572143554686,0,0,0.7644
2.69566803399357,0,0,1.6017209106445311,0,0,0.99372
2.6970533310086466,0,0,1.2880804931640624,0,0,0.6115200000000001
2.698439164989395,0,0,1.1085153686523437,0,0,0.6115200000000001
2.699826110008871,0,0,1.2713210815429687,0,0,0.53508
2.701211203006096,0,0,1.2378022583007813,0,0,0.6115200000000001
2.702597314986633,0,0,1.3958195678710936,0,0,0.99372
2.703983351995703,0,0,1.3910311645507811,0,0,0.91728
2.705369259987492,0,0,1.4963760375976562,0,0,0.6115200000000001
2.7067553529923316,0,0,1.3383587280273437,0,0,0.6115200000000001
2.7081417799927294,0,0,1.0773907470703123,0,0,0.99372
2.70952789200237,0,0,1.2138602416992186,0,0,1.07016
2.710913521994371,0,0,1.0989385620117187,0,0,0.6115200000000001
2.7122997079859488,0,0,1.2952630981445312,0,0,0.84084
2.71368570800405,0,0,1.4006079711914061,0,0,0.15288000000000002
2.7150717269978486,0,0,1.4173673828125,0,0,0.7644
2.7164675609965343,0,0,1.4724340209960938,0,0,1.1465999999999998
2.7178541730099823,0,0,1.2210428466796874,0,0,0.53508
2.7192406179965474,0,0,1.3263877197265623,0,0,0.53508
2.7206427110068034,0,0,1.2569558715820313,0,0,0.3822
2.722029193013441,0,0,1.1372457885742187,0,0,0.68796
2.7234315820096526,0,0,1.5059528442382812,0,0,1.07016
2.7248181760078296,0,0,1.446097802734375,0,0,0.53508
2.7262043060036376,0,0,1.3072341064453123,0,0,0.6115200000000001
2.727591658011079,0,0,1.4700398193359374,0,0,0.84084
2.72897723299684,0,0,1.199495031738281,0,0,1.2230400000000001
2.7303629369998816,0,0,1.1085153686523437,0,0,0.53508
2.7317498449992854,0,0,1.1875240234375,0,0,0.6115200000000001
2.73313529000734,0,0,1.2593500732421874,0,0,0.53508
2.734536920004757,0,0,1.4245499877929686,0,0,0.91728
2.735923606000142,0,0,1.2425906616210938,0,0,0.84084
2.7373092740017455,0,0,1.5298948608398437,0,0,1.07016
2.738695367006585,0,0,1.1420341918945311,0,0,0.7644
2.7400813860003836,0,0,1.2521674682617188,0,0,0.68796
2.7414672749873716,0,0,1.2617442749023438,0,0,0.3822
2.7428531830082648,0,0,1.209071838378906,0,0,0.84084
2.7442388880008366,0,0,1.2952630981445312,0,0,0.6115200000000001
2.7458431819977704,0,0,1.3646949462890625,0,0,0.91728
2.7472261269867886,0,0,1.3287819213867187,0,0,1.1465999999999998
2.748607182991691,0,0,1.3287819213867187,0,0,0.53508
2.7499862579861656,0,0,1.2114660400390624,0,0,1.1465999999999998
2.751379055000143,0,0,1.1635820068359375,0,0,0.7644
2.7527597779990174,0,0,1.2330138549804688,0,0,0.91728
2.7541386669909116,0,0,1.3096283081054687,0,0,1.45236
2.7555196679895744,0,0,1.5418658691406248,0,0,0.3822
2.7568988539860584,0,0,1.3168109130859373,0,0,0.68796
2.758277779998025,0,0,1.3814543579101561,0,0,0.84084
2.759661187999882,0,0,1.1540052001953125,0,0,0.68796
2.761046281986637,0,0,1.2593500732421874,0,0,0.84084
2.7624524669954553,0,0,1.189918225097656,0,0,0.45864
2.763859559985576,0,0,1.1420341918945311,0,0,0.6115200000000001
2.7652524129953235,0,0,1.4820108276367188,0,0,0.3822
2.7666384500043932,0,0,1.4437036010742186,0,0,0.91728
2.7680256539897528,0,0,1.3263877197265623,0,0,0.6115200000000001
2.769412691995967,0,0,1.2042834350585936,0,0,0.7644
2.770798896002816,0,0,1.20667763671875,0,0,1.07016
2.7721852299873717,0,0,1.1324573852539062,0,0,0.91728
2.7735718979965895,0,0,1.1659762084960936,0,0,0.91728
2.7749671199999284,0,0,1.1037269653320312,0,0,0.99372
2.7763539539882913,0,0,1.37906015625,0,0,0.84084
2.7777409550035372,0,0,1.2425906616210938,0,0,0.91728
2.7791268810105976,0,0,1.6519991455078125,0,0,1.1465999999999998
2.7805134929949418,0,0,1.2521674682617188,0,0,0.99372
2.7819001599855255,0,0,1.3623007446289062,0,0,0.7644
2.7832858829933684,0,0,1.3575123413085937,0,0,0.45864
2.784710345993517,0,0,1.2832920898437499,0,0,0.53508
2.786111549998168,0,0,1.2976572998046874,0,0,0.07644000000000001
2.7875212549988646,0,0,1.3287819213867187,0,0,0.84084
2.7889091249962803,0,0,1.5298948608398437,0,0,0.6115200000000001
2.7902960520004854,0,0,1.2306196533203124,0,0,0.6115200000000001
2.7916805160057265,0,0,1.3527239379882812,0,0,1.07016
2.793060386989964,0,0,1.189918225097656,0,0,1.2230400000000001
2.7944393130019307,0,0,1.20667763671875,0,0,0.91728
2.795825536013581,0,0,1.3455413330078123,0,0,1.07016
2.797212370001944,0,0,1.5370774658203123,0,0,1.1465999999999998
2.7985989630105905,0,0,1.3024457031249999,0,0,0.68796
2.799985908000963,0,0,1.5514426757812498,0,0,1.2994800000000002
2.8013725010096096,0,0,1.1180921752929687,0,0,0.91728
2.8027587980031967,0,0,1.1372457885742187,0,0,0.6115200000000001
2.8041455209895503,0,0,1.3215993164062498,0,0,0.6115200000000001
2.805533465987537,0,0,1.2401964599609374,0,0,0.3822
2.8069200959871523,0,0,1.438915197753906,0,0,0.07644000000000001
2.80834018898895,0,0,1.3096283081054687,0,0,0.68796
2.8097271530132275,0,0,1.4963760375976562,0,0,0.84084
2.8111136159859598,0,0,1.5083470458984374,0,0,0.84084
2.812500153988367,0,0,1.2737152832031249,0,0,0.84084
2.8138861549959984,0,0,1.350329736328125,0,0,0.84084
2.815272117994027,0,0,1.158793603515625,0,0,0.7644
2.816657360002864,0,0,1.3239935180664062,0,0,0.7644
2.8180420820135623,0,0,1.3862427612304686,0,0,0.91728
2.8195596740115434,0,0,1.5083470458984374,0,0,0.6115200000000001
2.820963470992865,0,0,1.5346832641601562,0,0,0.91728
2.822351192997303,0,0,1.20667763671875,0,0,0.91728
2.8237357870093547,0,0,1.1875240234375,0,0,0.91728
2.825114657985978,0,0,1.1611878051757811,0,0,0.84084
2.826493455009768,0,0,1.2928688964843749,0,0,0.3822
2.8278890479996335,0,0,1.43652099609375,0,0,0.22932
2.829276734002633,0,0,1.235408056640625,0,0,0.91728
2.830663438013289,0,0,1.4724340209960938,0,0,0.91728
2.8320459020033013,0,0,1.3335703247070312,0,0,0.7644
2.8334399579907767,0,0,1.149216796875,0,0,0.68796
2.8348189030075446,0,0,1.0726023437499999,0,0,0.45864
2.8362062179949135,0,0,1.1875240234375,0,0,0.6115200000000001
2.8375960149860475,0,0,1.3383587280273437,0,0,-8.943480000000001
2.838985793001484,0,0,1.66636435546875,0,0,0.84084
2.840373498009285,0,0,1.5203180541992187,0,0,0.68796
2.8417608689924236,0,0,1.458068811035156,0,0,0.91728
2.8431482769956347,0,0,1.2210428466796874,0,0,1.2230400000000001
2.844535481010098,0,0,1.1228805786132812,0,0,0.91728
2.8459229069994763,0,0,1.149216796875,0,0,0.84084
2.847310223005479,0,0,1.3120225097656248,0,0,0.45864
2.8486974269908387,0,0,1.4532804077148436,0,0,0.3822
2.8500845200032927,0,0,1.419761584472656,0,0,0.84084
2.8514930389937945,0,0,1.5514426757812498,0,0,0.84084
2.8528811509895604,0,0,1.1444283935546875,0,0,0.7644
2.8542679109959863,0,0,1.1659762084960936,0,0,0.53508
2.855655596998986,0,0,1.158793603515625,0,0,0.84084
2.8570420049945824,0,0,1.1755530151367186,0,0,0.84084
2.8584294310130645,0,0,1.2976572998046874,0,0,0.68796
2.859814154013293,0,0,1.3814543579101561,0,0,0.7644
2.8611924140132032,0,0,1.5275006591796874,0,0,0.6115200000000001
2.862573821999831,0,0,1.37906015625,0,0,0.91728
2.86396002600668,0,0,1.1133037719726562,0,0,1.1465999999999998
2.8653468969860114,0,0,1.189918225097656,0,0,1.07016
2.866733064991422,0,0,1.3718775512695311,0,0,0.68796
2.868118323996896,0,0,1.3359645263671873,0,0,0.53508
2.8695029180089477,0,0,1.4149731811523436,0,0,0.99372
2.8716033909877297,0,0,1.2976572998046874,0,0,0.91728
2.8731236860039644,0,0,1.1947066284179686,0,0,0.7644
2.8745200200064573,0,0,1.189918225097656,0,0,1.37592
2.8759120019967668,0,0,1.0869675537109373,0,0,0.84084
2.877299595013028,0,0,1.235408056640625,0,0,0.68796
2.8786870210024063,0,0,1.3718775512695311,0,0,0.68796
2.8800741510058288,0,0,1.2689268798828124,0,0,0.3822
2.8814609110122547,0,0,1.2761094848632812,0,0,0.91728
2.882848429988371,0,0,1.4030021728515625,0,0,0.91728
2.8842356899986044,0,0,1.0989385620117187,0,0,0.68796
2.8856223949987907,0,0,1.1037269653320312,0,0,0.91728
2.8870090619893745,0,0,1.1827356201171875,0,0,0.53508
2.8883963029948063,0,0,1.1635820068359375,0,0,0.53508
2.8897830999922007,0,0,1.3455413330078123,0,0,0.6115200000000001
2.891169656009879,0,0,1.4724340209960938,0,0,0.6115200000000001
2.89257650799118,0,0,1.4532804077148436,0,0,0.68796
2.8939634719863534,0,0,1.4149731811523436,0,0,0.7644
2.8953502319927793,0,0,1.177947216796875,0,0,1.2994800000000002
2.896746621001512,0,0,1.0175357055664063,0,0,1.07016
2.89813410298666,0,0,1.1324573852539062,0,0,0.84084
2.8995219740027096,0,0,1.2856862915039062,0,0,0.91728
2.9009078269882593,0,0,1.3838485595703125,0,0,0.53508
2.9022943270101678,0,0,1.2856862915039062,0,0,0.6115200000000001
2.9036839210020844,0,0,1.47482822265625,0,0,1.2994800000000002
2.905070031993091,0,0,1.2306196533203124,0,0,0.84084
2.906456606986467,0,0,1.177947216796875,0,0,0.68796
2.907844181987457,0,0,1.3287819213867187,0,0,0.6115200000000001
2.9092296269955114,0,0,1.1276689819335937,0,0,0.22932
2.9106164239929058,0,0,1.3263877197265623,0,0,-9.40212
2.9120052389916964,0,0,1.3838485595703125,0,0,0.91728
2.9133919249870814,0,0,1.68551796875,0,0,0.99372
2.914778444013791,0,0,1.4317325927734375,0,0,0.84084
2.916166315000737,0,0,1.2521674682617188,0,0,0.91728
2.9175530560023617,0,0,1.1659762084960936,0,0,0.84084
2.918939260998741,0,0,1.3335703247070312,0,0,0.7644
2.9203392420022283,0,0,1.4221557861328125,0,0,0.91728
2.9217299470037688,0,0,1.5418658691406248,0,0,0.6115200000000001
2.923116335994564,0,0,1.4173673828125,0,0,0.7644
2.924503410991747,0,0,1.4724340209960938,0,0,0.99372
2.9258906889881473,0,0,1.1659762084960936,0,0,0.84084
2.927276856993558,0,0,1.1611878051757811,0,0,0.68796
2.928663634986151,0,0,1.2306196533203124,0,0,0.53508
2.93020467099268,0,0,1.3096283081054687,0,0,0.45864
2.931596097012516,0,0,1.429338391113281,0,0,0.07644000000000001
2.932982430997072,0,0,1.4245499877929686,0,0,0.7644
2.934368579997681,0,0,1.5131354492187499,0,0,1.1465999999999998
2.9357560249918606,0,0,1.2497732666015624,0,0,0.91728
2.937141655012965,0,0,1.1611878051757811,0,0,0.84084
2.9385274699889123,0,0,1.1516109985351561,0,0,0.53508
2.9399348039878532,0,0,1.3551181396484375,0,0,0.6115200000000001
2.9413225640018936,0,0,1.3766659545898436,0,0,0.99372
2.94270873098867,0,0,1.4820108276367188,0,0,0.68796
2.9440948989940807,0,0,1.3742717529296875,0,0,0.6115200000000001
2.945481455011759,0,0,1.467645617675781,0,0,0.99372
2.9468736030103173,0,0,1.0749965454101562,0,0,0.7644
2.9482602709904313,0,0,1.1516109985351561,0,0,0.99372
2.949646363995271,0,0,1.3287819213867187,0,0,0.6115200000000001
2.951043198001571,0,0,1.2880804931640624,0,0,0.84084
2.9524295500013977,0,0,1.3910311645507811,0,0,0.53508
2.9538154210022185,0,0,1.4796166259765624,0,0,0.68796
2.955212976987241,0,0,1.5131354492187499,0,0,0.7644
2.9566011439892463,0,0,1.2018892333984375,0,0,0.6115200000000001
2.9579872929898556,0,0,1.197100830078125,0,0,0.53508
2.959375848993659,0,0,1.1755530151367186,0,0,0.91728
2.960762517002877,0,0,1.3718775512695311,0,0,0.68796
2.9621491649886593,0,0,1.4317325927734375,0,0,-8.7906
2.9635373879864346,0,0,1.5801730957031248,0,0,0.68796
2.96492444400792,0,0,1.369483349609375,0,0,0.45864
2.966310871008318,0,0,1.3742717529296875,0,0,0.7644
2.967697390005924,0,0,1.2641384765625,0,0,1.07016
2.969083704985678,0,0,1.13006318359375,0,0,0.7644
2.970470131986076,0,0,1.197100830078125,0,0,0.68796
2.9718567990057636,0,0,1.0797849487304687,0,0,0.6115200000000001
2.973243188986089,0,0,1.5658078857421873,0,0,0.53508
2.974629170988919,0,0,1.47482822265625,0,0,0.91728
2.976016078988323,0,0,1.4772224243164063,0,0,0.91728
2.9774021719931625,0,0,1.1731588134765625,0,0,0.91728
2.978788431995781,0,0,1.3527239379882812,0,0,0.3822
2.9801750619953964,0,0,1.16837041015625,0,0,0.53508
2.981561247986974,0,0,1.1013327636718748,0,0,0.6115200000000001
2.9829478600004222,0,0,1.4341267944335936,0,0,0.53508
2.984346342011122,0,0,1.4437036010742186,0,0,0.84084
2.9857333980035037,0,0,1.2904746948242187,0,0,0.30576000000000003
2.9871199910121504,0,0,1.3263877197265623,0,0,0.91728
2.988506658002734,0,0,1.1180921752929687,0,0,1.1465999999999998
2.989892937010154,0,0,1.3168109130859373,0,0,0.84084
2.9912789190129843,0,0,1.1755530151367186,0,0,0.45864
2.9926652160065714,0,0,1.0797849487304687,0,0,0.68796
2.994051087007392,0,0,1.5275006591796874,0,0,0.45864
2.995438234996982,0,0,1.3239935180664062,0,0,0.84084
2.9968243099865504,0,0,1.4006079711914061,0,0,0.91728
2.99821040299139,0,0,1.1180921752929687,0,0,0.84084
2.9995974590128753,0,0,1.2330138549804688,0,0,0.45864
3.0009829599875957,0,0,1.1228805786132812,0,0,0.6115200000000001
3.00236975698499,0,0,1.1827356201171875,0,0,-9.09636
3.0037604800018016,0,0,1.2521674682617188,0,0,0.84084
3.0051485360017978,0,0,1.5322890624999999,0,0,0.68796
3.0065353509853594,0,0,1.2282254516601563,0,0,0.68796
3.007922185002826,0,0,1.1947066284179686,0,0,0.68796
3.0093179259856697,0,0,1.1276689819335937,0,0,0.99372
3.0107049079961143,0,0,1.1156979736328125,0,0,0.99372
3.0120909090037458,0,0,1.1755530151367186,0,0,0.45864
3.0134773360041436,0,0,1.350329736328125,0,0,0.7644
3.014863910007989,0,0,1.2641384765625,0,0,0.53508
3.0162507070053834,0,0,1.2497732666015624,0,0,0.6115200000000001
3.017637189012021,0,0,1.4963760375976562,0,0,1.07016
3.0190236160124186,0,0,1.0558429321289062,0,0,0.7644
3.020410338998772,0,0,1.2737152832031249,0,0,0.53508
3.021796838991577,0,0,1.2018892333984375,0,0,0.53508
3.023191913991468,0,0,1.158793603515625,0,0,0.30576000000000003
3.0245787109888624,0,0,1.5035586425781249,0,0,0.68796
3.025964562984882,0,0,1.4341267944335936,0,0,0.84084
3.0273576749896165,0,0,1.3718775512695311,0,0,0.6115200000000001
3.0288067490037065,0,0,1.438915197753906,0,0,0.45864
3.0301936010073405,0,0,1.180341418457031,0,0,0.84084
3.0315811570035294,0,0,1.2497732666015624,0,0,0.91728
3.0329665649915114,0,0,1.2210428466796874,0,0,0.84084
3.0343632510048337,0,0,1.3263877197265623,0,0,0.91728
3.0357516960066278,0,0,1.5155296508789062,0,0,0.30576000000000003
3.037136956001632,0,0,1.2689268798828124,0,0,1.2230400000000001
3.038523419003468,0,0,1.599326708984375,0,0,1.1465999999999998
3.0399094760068692,0,0,1.1468225952148436,0,0,0.91728
3.0412958840024658,0,0,1.1707646118164061,0,0,0.6115200000000001
3.042681883991463,0,0,1.1444283935546875,0,0,0.30576000000000003
3.0440686070069205,0,0,1.2928688964843749,0,0,0.3822
3.0454546450055204,0,0,1.3311761230468748,0,0,0.45864
3.046840478986269,0,0,1.37906015625,0,0,0.7644
3.0482269240019377,0,0,1.47482822265625,0,0,0.53508
3.0496133689885028,0,0,1.4125789794921875,0,0,0.84084
3.0509994800086133,0,0,1.1755530151367186,0,0,1.1465999999999998
3.052385666000191,0,0,1.0797849487304687,0,0,0.6115200000000001
3.0537719629937783,0,0,1.1540052001953125,0,0,0.6115200000000001
3.0551580380124506,0,0,1.3335703247070312,0,0,0.84084
3.0565443900122773,0,0,1.5011644409179687,0,0,0.3822
3.0579308540036436,0,0,1.2569558715820313,0,0,0.91728
3.0593162619916257,0,0,1.5849614990234373,0,0,1.1465999999999998
3.0607026510115247,0,0,1.3287819213867187,0,0,0.91728
3.062088800012134,0,0,1.139639990234375,0,0,0.7644
3.0634867819899227,0,0,1.3239935180664062,0,0,0.30576000000000003
3.0648732089903206,0,0,1.2018892333984375,0,0,0.6115200000000001
3.066259635001188,0,0,1.4413093994140624,0,0,0.53508
3.0676956349925604,0,0,1.5873557006835937,0,0,0.68796
3.0690811169915833,0,0,1.5538368774414062,0,0,0.7644
3.0704676730092615,0,0,1.465251416015625,0,0,0.53508
3.071860858995933,0,0,1.3168109130859373,0,0,0.68796
3.073246971005574,0,0,1.1755530151367186,0,0,0.84084
3.074633267999161,0,0,1.1013327636718748,0,0,0.7644
3.0760154720046557,0,0,1.3431471313476562,0,0,1.07016
3.077393973013386,0,0,1.35990654296875,0,0,0.91728
3.078772195993224,0,0,1.3383587280273437,0,0,0.99372
3.08015871499083,0,0,1.4939818359375,0,0,1.1465999999999998
3.0815449010115117,0,0,1.0797849487304687,0,0,0.68796
3.0829309200053103,0,0,1.0773907470703123,0,0,0.53508
3.0843177170027047,0,0,1.1563994018554686,0,0,0.53508
3.0857039770053234,0,0,1.3144167114257812,0,0,0.6115200000000001
3.0870906070049386,0,0,1.419761584472656,0,0,0.30576000000000003
3.088477089011576,0,0,1.3910311645507811,0,0,0.7644
3.0898627009883057,0,0,1.5275006591796874,0,0,0.68796
3.0912487570021767,0,0,1.3000515014648437,0,0,0.7644
3.092634850007016,0,0,1.0917559570312498,0,0,1.2230400000000001
3.094020961987553,0,0,1.1109095703125,0,0,0.84084
3.0954079070070293,0,0,1.2378022583007813,0,0,0.53508
3.0967947960016318,0,0,1.3838485595703125,0,0,0.99372
3.0981810560042504,0,0,1.5203180541992187,0,0,0.99372
3.099568037985591,0,0,1.254561669921875,0,0,0.6115200000000001
3.1009541309904307,0,0,1.429338391113281,0,0,0.84084
3.102340114011895,0,0,1.2210428466796874,0,0,1.07016
3.1037273360125255,0,0,1.139639990234375,0,0,0.3822
3.1051134850131348,0,0,1.197100830078125,0,0,0.6115200000000001
3.1064996519999113,0,0,1.1013327636718748,0,0,0.30576000000000003
3.107886374986265,0,0,1.5346832641601562,0,0,0.15288000000000002
3.109272264991887,0,0,1.4987702392578124,0,0,0.84084
3.110658338991925,0,0,1.2569558715820313,0,0,0.53508
3.1120445810083766,0,0,1.2138602416992186,0,0,0.99372
3.113430433004396,0,0,1.3575123413085937,0,0,0.91728
3.1148232120031025,0,0,1.2856862915039062,0,0,0.84084
3.1162099160137586,0,0,1.3144167114257812,0,0,0.6115200000000001
3.1175967500021216,0,0,1.2569558715820313,0,0,1.1465999999999998
3.11898301000474,0,0,1.5107412475585937,0,0,0.45864
3.1203691030095797,0,0,1.3335703247070312,0,0,1.07016
3.1217579370131716,0,0,1.3407529296874998,0,0,0.84084
3.123610209004255,0,0,1.0366893188476562,0,0,0.91728
3.1250773200008553,0,0,1.1420341918945311,0,0,0.68796
3.126487283007009,0,0,1.1635820068359375,0,0,0.91728
3.12790676500299,0,0,1.3168109130859373,0,0,1.1465999999999998
3.1293086539953947,0,0,1.388636962890625,0,0,0.68796
3.130696636013454,0,0,1.4532804077148436,0,0,1.07016
3.1320851919881534,0,0,1.5586252807617187,0,0,0.91728
3.133473044988932,0,0,1.1851298217773436,0,0,1.07016
3.1348605820094235,0,0,1.0989385620117187,0,0,0.30576000000000003
3.13624380499823,0,0,1.2018892333984375,0,0,0.3822
3.1376226950087585,0,0,1.1013327636718748,0,0,0.3822
3.1390013069903944,0,0,1.4604630126953124,0,0,0.0
3.140390529006254,0,0,1.5682020874023437,0,0,0.84084
3.1417773260036483,0,0,1.5227122558593749,0,0,0.68796
3.143163586006267,0,0,1.3000515014648437,0,0,0.7644
3.1445492159982678,0,0,1.2234370483398436,0,0,0.7644
3.145949883997673,0,0,1.1875240234375,0,0,0.91728
3.1473439399851486,0,0,1.1468225952148436,0,0,0.6115200000000001
3.148730513988994,0,0,1.3551181396484375,0,0,1.2994800000000002
3.150116089003859,0,0,1.4125789794921875,0,0,0.99372
3.151498922990868,0,0,1.254561669921875,0,0,0.91728
3.1528775350016076,0,0,1.5538368774414062,0,0,1.1465999999999998
3.154256423993502,0,0,1.1755530151367186,0,0,1.07016
3.155652702989755,0,0,1.2641384765625,0,0,0.3822
3.1570617030083667,0,0,1.218648645019531,0,0,0.6115200000000001
3.1584498329903,0,0,1.1109095703125,0,0,0.6115200000000001
3.159852092998335,0,0,1.4508862060546874,0,0,0.45864
3.1612390560039785,0,0,1.388636962890625,0,0,0.7644
3.162625446013408,0,0,1.455674609375,0,0,0.53508
3.164012076013023,0,0,1.218648645019531,0,0,0.6115200000000001
3.1653976689849515,0,0,1.149216796875,0,0,0.91728
3.1667842809983995,0,0,1.2210428466796874,0,0,0.7644
3.168170374003239,0,0,1.2569558715820313,0,0,0.68796
3.1695560039952397,0,0,1.2306196533203124,0,0,1.1465999999999998
3.170941690012114,0,0,1.4796166259765624,0,0,0.6115200000000001
3.1723291910020635,0,0,1.3263877197265623,0,0,0.91728
3.1737148399988655,0,0,1.426944189453125,0,0,0.91728
3.1751514690113254,0,0,1.1563994018554686,0,0,0.91728
3.176570840005297,0,0,1.1348515869140625,0,0,0.7644
3.177958376996685,0,0,1.2521674682617188,0,0,0.6115200000000001
3.179345562995877,0,0,1.1635820068359375,0,0,0.45864
3.180732081993483,0,0,1.4245499877929686,0,0,0.45864
3.18211837898707,0,0,1.446097802734375,0,0,0.6115200000000001
3.183503158012172,0,0,1.4125789794921875,0,0,0.6115200000000001
3.184891732002143,0,0,1.2378022583007813,0,0,0.53508
3.1862701030040625,0,0,1.2042834350585936,0,0,0.84084
3.1876560850068927,0,0,1.2832920898437499,0,0,0.45864
3.189042604994029,0,0,1.2832920898437499,0,0,0.91728
3.190429550013505,0,0,1.235408056640625,0,0,0.91728
3.1918176430044696,0,0,1.407790576171875,0,0,0.84084
3.1932039030070882,0,0,1.2761094848632812,0,0,0.6115200000000001
3.1945903110026848,0,0,1.6472107421875,0,0,0.99372
3.1959780709876213,0,0,1.1276689819335937,0,0,0.91728
3.1973649419960566,0,0,1.0821791503906248,0,0,0.7644
3.198776145989541,0,0,1.2497732666015624,0,0,0.53508
3.20016099800705,0,0,1.2401964599609374,0,0,0.22932
3.201539480010979,0,0,1.3263877197265623,0,0,0.45864
3.202930480998475,0,0,1.2928688964843749,0,0,0.6115200000000001
3.2043184069916606,0,0,1.2497732666015624,0,0,0.91728
3.2057046669942793,0,0,1.1156979736328125,0,0,0.30576000000000003
3.2070904090069234,0,0,1.2832920898437499,0,0,0.84084
3.2084763910097536,0,0,1.209071838378906,0,0,0.68796
3.20986279900535,0,0,1.1061211669921875,0,0,0.91728
3.2112485769903287,0,0,1.2473790649414063,0,0,0.99372
3.212633059010841,0,0,1.455674609375,0,0,0.91728
3.2140172260114923,0,0,1.3215993164062498,0,0,0.84084
3.2154400600120425,0,0,1.5969325073242187,0,0,1.2994800000000002
3.2168303939979523,0,0,1.0917559570312498,0,0,1.1465999999999998
3.2182167650025804,0,0,1.2138602416992186,0,0,0.84084
3.2196037840039935,0,0,1.2306196533203124,0,0,0.7644
3.2209885620104615,0,0,1.2737152832031249,0,0,0.45864
3.2223742849892005,0,0,1.3814543579101561,0,0,0.30576000000000003
3.2237601559900213,0,0,1.3958195678710936,0,0,0.84084
3.2251454899960663,0,0,1.465251416015625,0,0,0.68796
3.2265313240059186,0,0,1.4508862060546874,0,0,0.68796
3.2279180100013036,0,0,1.2042834350585936,0,0,0.91728
3.229302972991718,0,0,1.0917559570312498,0,0,0.53508
3.2306891409971286,0,0,1.2761094848632812,0,0,0.6115200000000001
3.23207490099594,0,0,1.369483349609375,0,0,0.6115200000000001
3.233460401010234,0,0,1.3910311645507811,0,0,0.7644
3.234845975995995,0,0,1.4006079711914061,0,0,0.68796
3.236231605987996,0,0,1.66636435546875,0,0,-8.63772
3.237618865998229,0,0,1.2378022583007813,0,0,0.99372
3.2390051069960464,0,0,1.1252747802734375,0,0,0.53508
3.240390977996867,0,0,1.3646949462890625,0,0,0.53508
3.2417769790044986,0,0,1.218648645019531,0,0,0.3822
3.243170961010037,0,0,1.5011644409179687,0,0,0.22932
3.244557147001615,0,0,1.3934253662109375,0,0,0.99372
3.2459430180024356,0,0,1.5873557006835937,0,0,0.91728
3.2473358520073816,0,0,1.1516109985351561,0,0,0.7644
3.2487317220075056,0,0,1.2617442749023438,0,0,0.6115200000000001
3.2501174270000774,0,0,1.1755530151367186,0,0,0.6115200000000001
3.251503834995674,0,0,1.235408056640625,0,0,0.99372
3.2528888910019305,0,0,1.2641384765625,0,0,1.07016
3.2542806139972527,0,0,1.4939818359375,0,0,0.91728
3.255672503000824,0,0,1.455674609375,0,0,0.84084
3.257057910988806,0,0,1.4221557861328125,0,0,0.3822
3.258443430007901,0,0,1.189918225097656,0,0,0.99372
3.25982939399546,0,0,1.158793603515625,0,0,0.7644
3.2612145059974864,0,0,1.2138602416992186,0,0,0.45864
3.2626000799937174,0,0,1.3263877197265623,0,0,0.6115200000000001
3.2639860440103803,0,0,1.4700398193359374,0,0,0.15288000000000002
3.2653725070122164,0,0,1.6543933471679686,0,0,0.6115200000000001
3.266757970995968,0,0,1.5945383056640625,0,0,0.6115200000000001
3.268143935012631,0,0,1.3072341064453123,0,0,0.7644
3.2695300829946063,0,0,1.0773907470703123,0,0,0.7644
3.2709153989853803,0,0,1.2689268798828124,0,0,0.53508
3.2723012329952326,0,0,1.2713210815429687,0,0,0.68796
3.273687140987022,0,0,1.438915197753906,0,0,0.91728
3.275072512013139,0,0,1.5298948608398437,0,0,1.07016
3.2764579379872885,0,0,1.2378022583007813,0,0,0.91728
3.277846031996887,0,0,1.448492004394531,0,0,0.7644
3.279272771993419,0,0,1.3766659545898436,0,0,0.84084
3.2806634950102307,0,0,1.1324573852539062,0,0,0.91728
3.2824731940054335,0,0,1.0821791503906248,0,0,0.68796
3.284245134011144,0,0,1.2593500732421874,0,0,0.68796
3.285637171997223,0,0,1.3958195678710936,0,0,0.84084
3.287024671997642,0,0,1.3766659545898436,0,0,0.68796
3.2884123580006417,0,0,1.6328455322265625,0,0,0.99372
3.289799173013307,0,0,1.1707646118164061,0,0,1.07016
3.291204748005839,0,0,1.2018892333984375,0,0,0.7644
3.2925932299986016,0,0,1.1947066284179686,0,0,0.6115200000000001
3.2939801379980054,0,0,1.3287819213867187,0,0,0.91728
3.295380138006294,0,0,1.455674609375,0,0,0.45864
3.2967602130083833,0,0,1.3383587280273437,0,0,0.7644
3.2981383620062843,0,0,1.4700398193359374,0,0,1.1465999999999998
3.299524362984812,0,0,1.1109095703125,0,0,1.37592
3.30091043698485,0,0,1.1109095703125,0,0,0.84084
3.302305179007817,0,0,1.0845733520507812,0,0,0.30576000000000003
3.3036920489976183,0,0,1.2425906616210938,0,0,0.68796
3.3050773460126948,0,0,1.2617442749023438,0,0,0.68796
3.3064630139851943,0,0,1.3934253662109375,0,0,0.7644
3.3078497179958504,0,0,1.4221557861328125,0,0,0.99372
3.3092351999948733,0,0,1.426944189453125,0,0,0.7644
3.3106207750097383,0,0,1.218648645019531,0,0,1.07016
3.312002182996366,0,0,1.0869675537109373,0,0,0.7644
3.3133804429962765,0,0,1.2042834350585936,0,0,0.53508
3.3147590550070163,0,0,1.2617442749023438,0,0,1.37592
3.3161582589964382,0,0,1.4867992309570313,0,0,0.68796
3.3175445740052965,0,0,1.2569558715820313,0,0,0.84084
3.3189308530127164,0,0,1.5466542724609373,0,0,0.84084
3.320318242011126,0,0,1.3766659545898436,0,0,0.7644
3.3217067059886176,0,0,1.1540052001953125,0,0,0.7644
3.323092779988656,0,0,1.3455413330078123,0,0,0.68796
3.324478911003098,0,0,1.189918225097656,0,0,0.30576000000000003
3.3258642079890706,0,0,1.3407529296874998,0,0,0.45864
3.327249838010175,0,0,1.5011644409179687,0,0,0.6115200000000001
3.3286350239941385,0,0,1.4413093994140624,0,0,0.84084
3.3300205240084324,0,0,1.3910311645507811,0,0,0.84084
3.331407340010628,0,0,1.0749965454101562,0,0,0.99372
3.332792895991588,0,0,1.2114660400390624,0,0,0.53508
3.3341784889926203,0,0,1.0869675537109373,0,0,0.7644
3.3355929339886643,0,0,1.2282254516601563,0,0,0.91728
3.3369760449859314,0,0,1.458068811035156,0,0,0.84084
3.338361823989544,0,0,1.455674609375,0,0,0.91728
3.339748602011241,0,0,1.4915876342773438,0,0,1.07016
3.341133620997425,0,0,1.3335703247070312,0,0,1.07016
3.3425192889990285,0,0,1.0989385620117187,0,0,0.6115200000000001
3.3439067710132804,0,0,1.1156979736328125,0,0,0.53508
3.3452924189914484,0,0,1.2042834350585936,0,0,0.3822
3.3466783830081113,0,0,1.35990654296875,0,0,0.68796
3.3480714760080446,0,0,1.5155296508789062,0,0,0.99372
3.349457550997613,0,0,1.5179238525390624,0,0,0.6115200000000001
3.3508430139918346,0,0,1.4030021728515625,0,0,0.68796
3.352229014999466,0,0,0.9624690673828125,0,0,1.1465999999999998
3.3536145339894574,0,0,1.1947066284179686,0,0,0.91728
3.3550001269904897,0,0,1.2401964599609374,0,0,0.91728
3.356386516999919,0,0,1.2234370483398436,0,0,1.1465999999999998
3.357771998998942,0,0,1.5586252807617187,0,0,0.3822
3.359157981001772,0,0,1.4173673828125,0,0,0.84084
3.360554315004265,0,0,1.448492004394531,0,0,0.68796
3.3619405009958427,0,0,1.2425906616210938,0,0,0.91728
3.3633261309878435,0,0,1.2832920898437499,0,0,0.6115200000000001
3.3647307610081043,0,0,1.177947216796875,0,0,0.68796
3.3661187250108924,0,0,1.1755530151367186,0,0,0.30576000000000003
3.3675060399982613,0,0,1.4341267944335936,0,0,1.1465999999999998
3.3688909109914675,0,0,1.5179238525390624,0,0,0.91728
3.3702771890093572,0,0,1.3407529296874998,0,0,0.68796
3.371663041994907,0,0,1.3479355346679687,0,0,0.68796
3.37306250500842,0,0,1.2138602416992186,0,0,0.99372
3.3745106529968325,0,0,1.1755530151367186,0,0,0.45864
3.376295519003179,0,0,1.1731588134765625,0,0,0.7644
3.377692890004255,0,0,1.2928688964843749,0,0,1.2230400000000001
3.3791014830057975,0,0,1.4963760375976562,0,0,0.84084
3.380490612995345,0,0,1.4604630126953124,0,0,0.99372
3.381878873013193,0,0,1.3646949462890625,0,0,0.68796
3.3832662620116025,0,0,1.1037269653320312,0,0,0.91728
3.384647873986978,0,0,1.1851298217773436,0,0,0.68796
3.38809077400947,0,0,1.2521674682617188,0,0,0.6115200000000001
3.3905408720020205,0,0,1.3814543579101561,0,0,1.1465999999999998
3.3919405759952497,0,0,1.5322890624999999,0,0,1.07016
3.3933236509910785,0,0,1.3718775512695311,0,0,0.68796
3.394703595986357,0,0,1.177947216796875,0,0,0.53508
3.3960848930000793,0,0,1.1635820068359375,0,0,0.6115200000000001
3.397463986009825,0,0,1.2330138549804688,0,0,0.45864
3.398842783004511,0,0,1.3455413330078123,0,0,0.3822
3.4002243950089905,0,0,1.5682020874023437,0,0,0.7644
3.401603303005686,0,0,1.5729904907226562,0,0,0.7644
3.402981988998363,0,0,1.2617442749023438,0,0,0.68796
3.404361193010118,0,0,1.216254443359375,0,0,0.68796
3.4057400829915423,0,0,1.1875240234375,0,0,0.53508
3.4071187129884493,0,0,1.2401964599609374,0,0,0.84084
3.408508658001665,0,0,1.2713210815429687,0,0,2.2931999999999997
3.4098963259893935,0,0,1.458068811035156,0,0,0.7644
3.4112842890026513,0,0,1.2665326782226562,0,0,1.07016
3.4126715309976134,0,0,1.5131354492187499,0,0,1.07016
3.414058919996023,0,0,1.2234370483398436,0,0,0.91728
3.4154533649852965,0,0,1.1540052001953125,0,0,0.84084
3.4168412539875135,0,0,1.197100830078125,0,0,0.6115200000000001
3.4182287369912956,0,0,1.0797849487304687,0,0,0.68796
3.4196168479975313,0,0,1.6112977172851561,0,0,0.45864
3.421003274997929,0,0,1.5586252807617187,0,0,0.84084
3.4224102569860406,0,0,1.5705962890624998,0,0,-8.7906
3.4238010350090917,0,0,1.2689268798828124,0,0,0.7644
3.425188369001262,0,0,1.1851298217773436,0,0,0.91728
3.4265826659975573,0,0,1.197100830078125,0,0,0.84084
3.4279708880058024,0,0,1.1085153686523437,0,0,0.91728
3.429357926012017,0,0,1.4867992309570313,0,0,0.99372
3.4307450010091998,0,0,1.467645617675781,0,0,0.91728
3.4321326120116282,0,0,1.2952630981445312,0,0,0.6115200000000001
3.4335217979969457,0,0,1.438915197753906,0,0,0.99372
3.434909225004958,0,0,1.0893617553710937,0,0,0.91728
3.4362969289941248,0,0,1.2713210815429687,0,0,0.68796
3.437684206990525,0,0,1.2042834350585936,0,0,0.53508
3.439071264001541,0,0,1.1468225952148436,0,0,0.45864
3.4404586350137834,0,0,1.458068811035156,0,0,0.30576000000000003
3.441845394001575,0,0,1.467645617675781,0,0,0.7644
3.4432346539979335,0,0,1.2425906616210938,0,0,0.7644
3.4446225249848794,0,0,1.209071838378906,0,0,0.6115200000000001
3.4460097110131755,0,0,1.1755530151367186,0,0,1.2230400000000001
3.4473976560111623,0,0,1.1851298217773436,0,0,0.84084
3.4487853230093606,0,0,1.1659762084960936,0,0,0.91728
3.4501728049945086,0,0,1.1085153686523437,0,0,1.2230400000000001
3.4515605840133503,0,0,1.47482822265625,0,0,0.91728
3.4529470289999153,0,0,1.2641384765625,0,0,1.1465999999999998
3.4543337890063412,0,0,1.4101847778320311,0,0,0.99372
3.4557216970133595,0,0,1.120486376953125,0,0,0.53508
3.4571083080081735,0,0,1.3215993164062498,0,0,0.68796
3.4584952529985458,0,0,1.1827356201171875,0,0,0.45864
3.459883142990293,0,0,1.1133037719726562,0,0,0.53508
3.461269440012984,0,0,1.3455413330078123,0,0,0.45864
3.4626567919913214,0,0,1.4915876342773438,0,0,0.7644
3.4640435710025486,0,0,1.3024457031249999,0,0,0.7644
3.4654302379931323,0,0,1.2785036865234374,0,0,0.6115200000000001
3.4668172759993467,0,0,1.2018892333984375,0,0,0.99372
3.4682045909867156,0,0,1.0845733520507812,0,0,0.68796
3.469598961994052,0,0,1.1923124267578125,0,0,0.68796
3.4709867399942596,0,0,1.2880804931640624,0,0,1.1465999999999998
3.4723736850137357,0,0,1.5514426757812498,0,0,0.53508
3.4737603710091207,0,0,1.2689268798828124,0,0,0.84084
3.4751473529904615,0,0,1.426944189453125,0,0,0.7644
3.4765343540057074,0,0,1.1731588134765625,0,0,0.7644
3.4779212989960797,0,0,1.2138602416992186,0,0,0.99372
3.479308651003521,0,0,1.0965443603515623,0,0,0.53508
3.4807036700076424,0,0,1.2234370483398436,0,0,0.30576000000000003
3.4820907450048253,0,0,1.3670891479492187,0,0,0.7644
3.4834944299946073,0,0,1.429338391113281,0,0,0.84084
3.4848741159948986,0,0,1.3551181396484375,0,0,0.6115200000000001
3.486252950009657,0,0,1.158793603515625,0,0,0.7644
3.487638357997639,0,0,1.1348515869140625,0,0,0.91728
3.489024710986996,0,0,1.177947216796875,0,0,0.7644
3.4904113409866113,0,0,1.1611878051757811,0,0,1.1465999999999998
3.4917988420056645,0,0,1.3215993164062498,0,0,0.91728
3.493184287013719,0,0,1.4772224243164063,0,0,0.7644
3.4945705469872337,0,0,1.197100830078125,0,0,0.91728
3.4959573069936596,0,0,1.5179238525390624,0,0,0.99372
3.4973433440027293,0,0,1.0869675537109373,0,0,0.7644
3.49872945601237,0,0,1.1851298217773436,0,0,0.6115200000000001
3.5001158640079666,0,0,1.3551181396484375,0,0,0.45864
3.5015023089945316,0,0,1.254561669921875,0,0,0.68796
3.5028885130013805,0,0,1.3814543579101561,0,0,0.91728
3.504274681006791,0,0,1.3287819213867187,0,0,0.45864
3.5056608660088386,0,0,1.3048399047851562,0,0,0.45864
3.5070470339851454,0,0,1.4700398193359374,0,0,0.7644
3.508433218987193,0,0,1.2114660400390624,0,0,1.07016
3.509819108992815,0,0,1.3551181396484375,0,0,0.53508
3.511204776004888,0,0,1.1947066284179686,0,0,0.84084
3.5125907030014787,0,0,1.20667763671875,0,0,0.84084
3.513984202989377,0,0,1.5275006591796874,0,0,0.99372
3.515384758997243,0,0,1.3239935180664062,0,0,0.68796
3.5167722970072646,0,0,1.448492004394531,0,0,1.07016
3.5181585009850096,0,0,1.120486376953125,0,0,0.84084
3.519545390998246,0,0,1.189918225097656,0,0,0.84084
3.5209309099882375,0,0,1.1851298217773436,0,0,0.68796
3.522317002993077,0,0,1.1755530151367186,0,0,0.68796
3.52370378098567,0,0,1.3742717529296875,0,0,0.30576000000000003
3.5250891339965165,0,0,1.39821376953125,0,0,0.68796
3.526475468010176,0,0,1.4221557861328125,0,0,0.68796
3.527861450013006,0,0,1.4939818359375,0,0,0.45864
3.5292467279941775,0,0,1.3096283081054687,0,0,0.7644
3.530633062007837,0,0,1.2330138549804688,0,0,0.7644
3.532019359001424,0,0,1.1228805786132812,0,0,0.6115200000000001
3.533405155991204,0,0,1.2856862915039062,0,0,1.1465999999999998
3.5347913969890215,0,0,1.4053963745117186,0,0,0.6115200000000001
3.5361776940117124,0,0,1.4820108276367188,0,0,0.91728
3.5375638990080915,0,0,1.6112977172851561,0,0,0.99372
3.5389574359869584,0,0,1.1037269653320312,0,0,0.84084
3.5403437890054192,0,0,1.180341418457031,0,0,0.68796
3.541729825985385,0,0,1.2569558715820313,0,0,0.45864
3.5431157530110795,0,0,1.2785036865234374,0,0,0.30576000000000003
3.5445019390026573,0,0,1.446097802734375,0,0,0.7644
3.545888124004705,0,0,1.6831237670898436,0,0,0.68796
3.547274403012125,0,0,1.5107412475585937,0,0,0.99372
3.548722920997534,0,0,1.37906015625,0,0,0.6115200000000001
3.5501029219885822,0,0,1.0845733520507812,0,0,1.07016
3.551500903995475,0,0,1.0821791503906248,0,0,0.53508
3.5528797380102333,0,0,1.2234370483398436,0,0,0.7644
3.55425977599225,0,0,1.419761584472656,0,0,1.07016
3.555648684006883,0,0,1.5634136840820312,0,0,0.3822
3.557041610009037,0,0,1.458068811035156,0,0,0.7644
3.5584209070075303,0,0,1.5179238525390624,0,0,0.99372
3.559800944989547,0,0,1.1228805786132812,0,0,0.91728
3.561179481999716,0,0,1.01514150390625,0,0,0.84084
3.562558205012465,0,0,1.2282254516601563,0,0,0.3822
3.5639446869899984,0,0,1.1372457885742187,0,0,0.3822
3.5653312990034465,0,0,1.4437036010742186,0,0,0.3822
3.5667177439900115,0,0,1.5275006591796874,0,0,0.84084
3.56810400399263,0,0,1.3144167114257812,0,0,0.7644
3.569491153000854,0,0,1.2737152832031249,0,0,0.53508
3.5708768570038956,0,0,1.1540052001953125,0,0,0.99372
3.572262950008735,0,0,1.1635820068359375,0,0,0.84084
3.5736495809978805,0,0,1.2617442749023438,0,0,0.91728
3.5750356919888873,0,0,1.2976572998046874,0,0,0.99372
3.5764227109903004,0,0,1.4125789794921875,0,0,0.68796
3.5778089899977203,0,0,1.4772224243164063,0,0,0.84084
3.579195416008588,0,0,1.4820108276367188,0,0,1.1465999999999998
