Time,AccelX1,AccelY1,AccelZ1,AccelX2,AccelY2,AccelZ2
2.1481973817571998e-05,0,0,1.1372457885742187,0,0,1.2994800000000002
0.0036833490012213588,0,0,1.2785036865234374,0,0,1.1465999999999998
0.008130022994009778,0,0,1.3742717529296875,0,0,0.6115200000000001
0.011790296994149685,0,0,1.3263877197265623,0,0,0.07644000000000001
0.01531172197428532,0,0,1.2832920898437499,0,0,1.37592
0.018828978994861245,0,0,1.1947066284179686,0,0,0.99372
0.022343051998177543,0,0,1.3431471313476562,0,0,1.2994800000000002
0.025856772990664467,0,0,1.3383587280273437,0,0,0.3822
0.02937469698372297,0,0,1.1156979736328125,0,0,0.99372
0.03304421197390184,0,0,1.2521674682617188,0,0,0.68796
0.03675056097563356,0,0,1.5275006591796874,0,0,0.84084
0.040441575984004885,0,0,1.4915876342773438,0,0,1.5288
0.043983406998449937,0,0,1.35990654296875,0,0,0.68796
0.04749692400218919,0,0,1.2785036865234374,0,0,0.99372
0.05105005198856816,0,0,1.2282254516601563,0,0,-0.22932
0.05435070098610595,0,0,1.22583125,0,0,0.30576000000000003
0.057481166993966326,0,0,1.0917559570312498,0,0,0.45864
0.06059605898917653,0,0,1.2593500732421874,0,0,0.6115200000000001
0.06370976497419178,0,0,1.4125789794921875,0,0,0.68796
0.06682634199387394,0,0,1.3646949462890625,0,0,0.91728
0.07016395399114117,0,0,1.158793603515625,0,0,1.1465999999999998
0.07338367798365653,0,0,1.4987702392578124,0,0,0.7644
0.07650418099365197,0,0,1.2785036865234374,0,0,0.15288000000000002
0.07967910898150876,0,0,1.1516109985351561,0,0,0.7644
0.08278338998206891,0,0,1.2569558715820313,0,0,1.07016
0.0859785949869547,0,0,1.6831237670898436,0,0,1.2230400000000001
0.08909009798662737,0,0,1.0845733520507812,0,0,1.07016
0.09218936099205166,0,0,1.2593500732421874,0,0,0.6115200000000001
0.09529014097643085,0,0,1.6112977172851561,0,0,0.45864
0.0983920149737969,0,0,1.0965443603515623,0,0,0.6115200000000001
0.10151431398116983,0,0,1.3120225097656248,0,0,1.2994800000000002
0.10466546498355456,0,0,1.4341267944335936,0,0,0.68796
0.10779485598322935,0,0,1.369483349609375,0,0,0.45864
0.11105382099049166,0,0,1.2856862915039062,0,0,0.91728
0.11417524897842668,0,0,1.180341418457031,0,0,0.45864
0.11729180798283778,0,0,1.2785036865234374,0,0,0.84084
0.12040760699892417,0,0,1.2832920898437499,0,0,0.45864
0.12350764698931016,0,0,1.3335703247070312,0,0,1.1465999999999998
0.12662563097546808,0,0,1.180341418457031,0,0,0.99372
0.1297472819860559,0,0,1.3718775512695311,0,0,0.68796
0.1328644519962836,0,0,1.5011644409179687,0,0,0.53508
0.13598189898766577,0,0,1.2785036865234374,0,0,0.30576000000000003
0.13908199497382157,0,0,1.2521674682617188,0,0,1.911
0.1421990899834782,0,0,1.3670891479492187,0,0,1.2230400000000001
0.14548316498985514,0,0,1.35990654296875,0,0,0.30576000000000003
0.14883575798012316,0,0,1.1109095703125,0,0,0.99372
0.1519910759816412,0,0,1.5083470458984374,0,0,1.2230400000000001
0.15510970799368806,0,0,1.419761584472656,0,0,1.07016
0.1582456179894507,0,0,1.3239935180664062,0,0,0.84084
0.16135958398808725,0,0,1.2617442749023438,0,0,1.2230400000000001
0.16447588297887705,0,0,1.4891934326171874,0,0,0.91728
0.16759216398349963,0,0,1.1444283935546875,0,0,1.2230400000000001
0.1707083889923524,0,0,1.3718775512695311,0,0,0.07644000000000001
0.1738140029774513,0,0,1.5394716674804687,0,0,0.3822
0.17692915399675258,0,0,1.2904746948242187,0,0,0.53508
0.18004541599657387,0,0,1.2330138549804688,0,0,1.2230400000000001
0.18316069699358195,0,0,1.5801730957031248,0,0,0.84084
0.18627555199782364,0,0,1.1228805786132812,0,0,0.6115200000000001
0.18939318400225602,0,0,1.3168109130859373,0,0,0.7644
0.19255444599548355,0,0,1.3623007446289062,0,0,0.99372
0.19567530098720454,0,0,1.1180921752929687,0,0,1.1465999999999998
0.1987916739890352,0,0,1.3670891479492187,0,0,-9.707880000000001
0.20191191698540933,0,0,1.4221557861328125,0,0,0.53508
0.20504088298184797,0,0,1.3407529296874998,0,0,0.30576000000000003
0.20815818198025227,0,0,1.2880804931640624,0,0,1.45236
0.21127831499325112,0,0,1.3455413330078123,0,0,0.3822
0.2143956699874252,0,0,1.3670891479492187,0,0,0.68796
0.21751448698341846,0,0,1.2306196533203124,0,0,1.2230400000000001
0.2206580079800915,0,0,1.4987702392578124,0,0,1.2994800000000002
0.22377486299956217,0,0,1.4101847778320311,0,0,1.45236
0.22694571697502397,0,0,0.9504980590820312,0,0,0.6115200000000001
0.23006640499806963,0,0,1.2306196533203124,0,0,0.6115200000000001
0.2331844820000697,0,0,1.3623007446289062,0,0,0.6115200000000001
0.23629989198525436,0,0,1.0989385620117187,0,0,1.1465999999999998
0.23941663597361185,0,0,1.3766659545898436,0,0,0.99372
0.24253243498969823,0,0,1.5322890624999999,0,0,0.30576000000000003
0.2456505489826668,0,0,1.2569558715820313,0,0,0.68796
0.24881279197870754,0,0,1.3096283081054687,0,0,1.2994800000000002
0.2519610359740909,0,0,1.0797849487304687,0,0,0.99372
0.2550774459959939,0,0,1.177947216796875,0,0,0.53508
0.2582225779769942,0,0,1.2952630981445312,0,0,0.15288000000000002
0.2613396739761811,0,0,1.235408056640625,0,0,1.45236
0.2644551019766368,0,0,1.3766659545898436,0,0,0.99372
0.267570956988493,0,0,1.3575123413085937,0,0,0.0
0.2707125519809779,0,0,1.3407529296874998,0,0,1.07016
0.27382818498881534,0,0,1.1851298217773436,0,0,0.30576000000000003
0.27694742899620906,0,0,1.3168109130859373,0,0,0.91728
0.2800614679872524,0,0,1.3287819213867187,0,0,0.7644
0.28317876797518693,0,0,1.0941501586914062,0,0,0.7644
0.2863004929968156,0,0,1.446097802734375,0,0,1.2230400000000001
0.28941958799259737,0,0,1.4221557861328125,0,0,1.07016
0.29255770199233666,0,0,1.4413093994140624,0,0,1.1465999999999998
0.29567533399676904,0,0,1.1324573852539062,0,0,0.3822
0.2987938559963368,0,0,1.2737152832031249,0,0,0.6115200000000001
0.30195182099123485,0,0,1.5466542724609373,0,0,1.37592
0.305194174987264,0,0,1.209071838378906,0,0,1.07016
0.30832269598613493,0,0,1.2641384765625,0,0,0.84084
0.3114511059829965,0,0,1.4030021728515625,0,0,0.53508
0.31455303498660214,0,0,1.3335703247070312,0,0,0.91728
0.31766788999084383,0,0,1.3000515014648437,0,0,1.45236
0.32080876297550276,0,0,1.2856862915039062,0,0,0.91728
0.32395711698336527,0,0,1.2737152832031249,0,0,0.53508
0.3270746379857883,0,0,1.2330138549804688,0,0,0.53508
0.3301790299883578,0,0,1.24498486328125,0,0,1.45236
0.3332900329842232,0,0,1.2761094848632812,0,0,1.07016
0.3364045729977079,0,0,1.3646949462890625,0,0,0.0
0.33951961298589595,0,0,1.3431471313476562,0,0,1.2230400000000001
0.34263885699328966,0,0,1.2976572998046874,0,0,0.6115200000000001
0.3457571739854757,0,0,1.2904746948242187,0,0,1.45236
0.34897428698604926,0,0,1.2282254516601563,0,0,0.68796
0.35236917599104345,0,0,1.1611878051757811,0,0,-9.40212
0.3555574189813342,0,0,1.3096283081054687,0,0,1.2994800000000002
0.3587217729946133,0,0,1.4173673828125,0,0,0.6115200000000001
0.36183997997432016,0,0,1.5083470458984374,0,0,0.68796
0.36495861198636703,0,0,1.2689268798828124,0,0,1.45236
0.36807783698895946,0,0,1.350329736328125,0,0,0.91728
0.37119439599337056,0,0,1.4317325927734375,0,0,1.2230400000000001
0.3743123799795285,0,0,1.1851298217773436,0,0,0.6115200000000001
0.37742797599639744,0,0,1.2425906616210938,0,0,0.6115200000000001
0.38063508897903375,0,0,1.5705962890624998,0,0,1.37592
0.383914329984691,0,0,1.2904746948242187,0,0,1.07016
0.3871487579890527,0,0,1.4604630126953124,0,0,0.7644
0.39056888699997216,0,0,1.6017209106445311,0,0,1.5288
0.39368638998712413,0,0,1.1851298217773436,0,0,1.1465999999999998
0.3967997449799441,0,0,1.3096283081054687,0,0,0.3822
0.39991324799484573,0,0,1.4245499877929686,0,0,0.30576000000000003
0.403027916996507,0,0,1.2234370483398436,0,0,0.68796
0.4061507349833846,0,0,1.2880804931640624,0,0,1.45236
0.409264774993062,0,0,1.3958195678710936,0,0,1.1465999999999998
0.41238016699207947,0,0,1.2473790649414063,0,0,0.68796
0.41549365100217983,0,0,1.139639990234375,0,0,1.60524
0.41860885798814707,0,0,1.1468225952148436,0,0,1.5288
0.42183602598379366,0,0,1.0797849487304687,0,0,1.2994800000000002
0.4249512329988647,0,0,1.2569558715820313,0,0,0.22932
0.42806316100177355,0,0,1.1540052001953125,0,0,0.84084
0.43117790497490205,0,0,1.2785036865234374,0,0,0.91728
0.4342934819869697,0,0,1.2401964599609374,0,0,1.5288
0.4374096149986144,0,0,1.3383587280273437,0,0,0.30576000000000003
0.44056146897492,0,0,1.24498486328125,0,0,0.45864
0.4436750639870297,0,0,1.1372457885742187,0,0,0.84084
0.44678840099368244,0,0,1.2378022583007813,0,0,0.84084
0.4499037179921288,0,0,1.3024457031249999,0,0,0.68796
0.4530532019853126,0,0,1.3144167114257812,0,0,0.7644
0.45622825997998007,0,0,1.2976572998046874,0,0,0.68796
0.4593426149804145,0,0,1.5227122558593749,0,0,2.98116
0.46245767298387364,0,0,0.9600748657226562,0,0,1.07016
0.4655718609865289,0,0,1.35990654296875,0,0,0.91728
0.4688340110005811,0,0,1.5131354492187499,0,0,1.2230400000000001
0.4719690689817071,0,0,1.1707646118164061,0,0,0.91728
0.4750881279760506,0,0,1.3670891479492187,0,0,0.84084
0.47820281598251313,0,0,1.4317325927734375,0,0,0.84084
0.48131863298476674,0,0,1.2976572998046874,0,0,0.6115200000000001
0.48443619199679233,0,0,1.3335703247070312,0,0,1.68168
0.48754902798100375,0,0,1.2761094848632812,0,0,1.07016
0.4906698459817562,0,0,1.1755530151367186,0,0,0.84084
0.49378821899881586,0,0,1.3215993164062498,0,0,0.0
0.4969039809948299,0,0,1.254561669921875,0,0,1.2230400000000001
0.5000223909737542,0,0,1.2976572998046874,0,0,1.37592
0.5122032949875575,0,0,1.0869675537109373,0,0,1.2230400000000001
0.5154673149809241,0,0,1.5251064575195312,0,0,1.07016
0.5185788729868364,0,0,1.6352397338867186,0,0,1.2994800000000002
0.5216874499747064,0,0,0.9792284790039062,0,0,0.84084
0.5248503779876046,0,0,1.4030021728515625,0,0,0.53508
0.5279468079970684,0,0,1.6807295654296874,0,0,1.07016
0.5310487179958727,0,0,0.9217676391601562,0,0,0.91728
0.5341698129777797,0,0,1.3455413330078123,0,0,0.84084
0.5372794459981378,0,0,1.5083470458984374,0,0,0.22932
0.5403746159863658,0,0,1.3239935180664062,0,0,-9.172799999999999
0.5434987299959175,0,0,1.180341418457031,0,0,1.5288
0.5466050289978739,0,0,1.3646949462890625,0,0,1.5288
0.5497253649809863,0,0,1.1731588134765625,0,0,1.2994800000000002
0.5528829789836891,0,0,1.2689268798828124,0,0,2.6754
0.5569951739744283,0,0,1.6328455322265625,0,0,0.68796
0.5601619919762015,0,0,1.1875240234375,0,0,0.45864
0.5633287349774037,0,0,1.2689268798828124,0,0,1.37592
0.5664498299884144,0,0,1.0965443603515623,0,0,0.91728
0.569568665989209,0,0,1.2593500732421874,0,0,0.7644
0.572691835986916,0,0,1.2761094848632812,0,0,0.45864
0.575809115980519,0,0,1.3623007446289062,0,0,1.1465999999999998
0.5789251749811228,0,0,1.254561669921875,0,0,1.07016
0.5820406219863798,0,0,1.2473790649414063,0,0,0.22932
0.5852607159758918,0,0,1.2856862915039062,0,0,2.82828
0.5884642179880757,0,0,1.3766659545898436,0,0,0.45864
0.591588202980347,0,0,1.2521674682617188,0,0,0.84084
0.5947063170024194,0,0,1.1516109985351561,0,0,0.68796
0.5978579489747062,0,0,1.1133037719726562,0,0,0.45864
0.6009754149999935,0,0,1.2904746948242187,0,0,1.2230400000000001
0.6040904359833803,0,0,1.5298948608398437,0,0,1.2994800000000002
0.6072050869988743,0,0,1.5155296508789062,0,0,0.99372
0.6103196639742237,0,0,1.01514150390625,0,0,1.1465999999999998
0.6149232619791292,0,0,1.0893617553710937,0,0,1.2994800000000002
0.6180936899909284,0,0,1.0845733520507812,0,0,0.68796
0.6212279329774901,0,0,1.5059528442382812,0,0,0.68796
0.6243498440016992,0,0,1.350329736328125,0,0,0.68796
0.6274589209933765,0,0,1.2737152832031249,0,0,0.68796
0.6305846640025266,0,0,1.218648645019531,0,0,1.60524
0.6337034449970815,0,0,1.3527239379882812,0,0,0.99372
0.636817650985904,0,0,1.2904746948242187,0,0,1.1465999999999998
0.6399295989831444,0,0,1.3192051147460937,0,0,1.07016
0.643044138996629,0,0,1.2306196533203124,0,0,0.6115200000000001
0.6461671229917556,0,0,1.659181750488281,0,0,0.84084
0.6493335699778982,0,0,1.0917559570312498,0,0,0.68796
0.6524904239922762,0,0,1.3407529296874998,0,0,0.30576000000000003
0.6556125200004317,0,0,1.4341267944335936,0,0,0.45864
0.6587310219765641,0,0,1.0510545288085937,0,0,1.07016
0.6618484880018514,0,0,1.2569558715820313,0,0,1.2994800000000002
0.6649981939990539,0,0,1.5298948608398437,0,0,0.3822
0.6681126419862267,0,0,1.3670891479492187,0,0,0.68796
0.6712293109740131,0,0,1.3479355346679687,0,0,0.91728
0.6743460739962757,0,0,1.1851298217773436,0,0,1.45236
0.6774642059754115,0,0,1.3287819213867187,0,0,0.99372
0.6805804679752328,0,0,1.2593500732421874,0,0,0.0
0.6836969149881043,0,0,1.2138602416992186,0,0,0.07644000000000001
0.6868146039778367,0,0,1.3383587280273437,0,0,0.53508
0.6899302179808728,0,0,1.3431471313476562,0,0,0.6115200000000001
0.6930478499853052,0,0,1.438915197753906,0,0,0.91728
0.696162000996992,0,0,1.2306196533203124,0,0,0.53508
0.6992956519825384,0,0,1.0821791503906248,0,0,1.45236
0.7024161359877326,0,0,1.3120225097656248,0,0,1.2994800000000002
0.7055367869907059,0,0,1.2928688964843749,0,0,1.45236
0.7086970859963913,0,0,1.3192051147460937,0,0,0.99372
0.7118173849885352,0,0,1.4604630126953124,0,0,0.7644
0.7149334059795365,0,0,1.5801730957031248,0,0,1.37592
0.7180505579744931,0,0,1.1947066284179686,0,0,0.91728
0.7211601529852487,0,0,1.2282254516601563,0,0,0.53508
0.7242550819937605,0,0,1.4867992309570313,0,0,0.6115200000000001
0.7305171990010422,0,0,1.2330138549804688,0,0,1.2994800000000002
0.733668442000635,0,0,1.446097802734375,0,0,1.68168
0.7368199809861835,0,0,1.3407529296874998,0,0,0.84084
0.7399798539991025,0,0,1.2856862915039062,0,0,0.68796
0.743099949992029,0,0,1.0917559570312498,0,0,0.68796
0.7462111380009446,0,0,1.0773907470703123,0,0,0.99372
0.7493532329972368,0,0,1.3766659545898436,0,0,-0.3822
0.7525495869922452,0,0,1.3407529296874998,0,0,0.15288000000000002
0.7556169979798142,0,0,1.0797849487304687,0,0,0.84084
0.7584189669869374,0,0,1.2473790649414063,0,0,0.6115200000000001
0.7612264179915655,0,0,1.3168109130859373,0,0,0.22932
0.7640724609955214,0,0,1.4891934326171874,0,0,0.22932
0.7668585039791651,0,0,1.197100830078125,0,0,0.6115200000000001
0.7696603989752475,0,0,1.3144167114257812,0,0,0.0
0.7724580539797898,0,0,1.2425906616210938,0,0,0.53508
0.7752629489987157,0,0,1.1085153686523437,0,0,0.30576000000000003
0.7780605849984568,0,0,1.2665326782226562,0,0,0.6115200000000001
0.7808604059973732,0,0,1.369483349609375,0,0,0.53508
0.783656578976661,0,0,1.5658078857421873,0,0,0.30576000000000003
0.7864821589901112,0,0,1.20667763671875,0,0,0.7644
0.7892809810000472,0,0,1.1420341918945311,0,0,0.0
0.7920756909879856,0,0,1.4413093994140624,0,0,0.30576000000000003
0.7948719559935853,0,0,1.0821791503906248,0,0,0.7644
0.7976596849912312,0,0,1.2282254516601563,0,0,1.37592
0.8004387099936139,0,0,1.4508862060546874,0,0,0.68796
0.8055359139980283,0,0,1.218648645019531,0,0,1.45236
0.8084358999913093,0,0,1.1755530151367186,0,0,1.1465999999999998
0.8112392959883437,0,0,1.22583125,0,0,1.83456
0.8140390429762192,0,0,1.5131354492187499,0,0,1.60524
0.8168394749809522,0,0,1.177947216796875,0,0,0.68796
0.8196357959823217,0,0,1.2856862915039062,0,0,1.83456
0.8224371359974612,0,0,1.5107412475585937,0,0,1.5288
0.8252370869740844,0,0,1.1013327636718748,0,0,0.6115200000000001
0.8280331669957377,0,0,1.3335703247070312,0,0,1.5288
0.8308300809876528,0,0,1.407790576171875,0,0,1.45236
0.833627902000444,0,0,1.2497732666015624,0,0,1.2230400000000001
0.836424982000608,0,0,1.158793603515625,0,0,0.7644
0.839222618000349,0,0,1.3646949462890625,0,0,2.98116
0.8420210879994556,0,0,1.2761094848632812,0,0,1.37592
0.844818575977115,0,0,1.1468225952148436,0,0,0.68796
0.847612877987558,0,0,1.2761094848632812,0,0,0.91728
0.8504232739796862,0,0,1.4700398193359374,0,0,1.2994800000000002
0.8533200749952812,0,0,1.3431471313476562,0,0,0.91728
0.8562115429958794,0,0,1.189918225097656,0,0,0.7644
0.8593285279930569,0,0,1.254561669921875,0,0,0.68796
0.8624406229937449,0,0,1.5227122558593749,0,0,0.30576000000000003
0.8655978479946498,0,0,1.3192051147460937,0,0,0.30576000000000003
0.868724146974273,0,0,1.350329736328125,0,0,1.2230400000000001
0.8718420569784939,0,0,1.1923124267578125,0,0,1.45236
0.874957818974508,0,0,1.3742717529296875,0,0,2.14032
0.8780717109912075,0,0,1.9201497314453124,0,0,0.99372
0.8811882139998488,0,0,2.2290017456054687,0,0,2.52252
0.884306457999628,0,0,2.5953145996093747,0,0,0.7644
0.8874314979766496,0,0,1.3383587280273437,0,0,0.53508
0.8905482409754768,0,0,1.5825672973632812,0,0,1.5288
0.8936641519831028,0,0,1.4867992309570313,0,0,0.91728
0.8968112649745308,0,0,1.7381904052734374,0,0,2.14032
0.8999418229795992,0,0,2.549824768066406,0,0,2.2931999999999997
0.9030624929873738,0,0,2.003946789550781,0,0,1.60524
0.9061842369847,0,0,1.5849614990234373,0,0,1.45236
0.9092992949881591,0,0,1.697488977050781,0,0,1.1465999999999998
0.9124119829793926,0,0,1.7860744384765623,0,0,2.06388
0.9155285039742012,0,0,1.89620771484375,0,0,1.45236
0.9186440439953003,0,0,1.8076222534179687,0,0,1.07016
0.9217582699784543,0,0,2.068590234375,0,0,1.1465999999999998
0.924873531999765,0,0,2.020706201171875,0,0,1.37592
0.9279866459837649,0,0,1.2330138549804688,0,0,1.68168
0.9311001669848338,0,0,2.01112939453125,0,0,1.83456
0.9342149109870661,0,0,1.158793603515625,0,0,1.911
0.9373299689905252,0,0,1.7405846069335937,0,0,1.1465999999999998
0.9404416759789456,0,0,1.8052280517578123,0,0,1.60524
0.9435553639777936,0,0,2.090138049316406,0,0,1.2230400000000001
0.9467095519939903,0,0,1.6735469604492186,0,0,1.5288
0.9498236289946362,0,0,1.7621324218749999,0,0,1.07016
0.952939612994669,0,0,1.446097802734375,0,0,0.3822
0.9560887639818247,0,0,1.3479355346679687,0,0,2.2167600000000003
0.9592073779786006,0,0,2.085349645996094,0,0,2.4460800000000003
0.9623221029760316,0,0,1.3934253662109375,0,0,1.45236
0.965438531973632,0,0,2.492363928222656,0,0,1.75812
0.9685536269971635,0,0,1.7597382202148437,0,0,0.53508
0.9716685929743107,0,0,1.199495031738281,0,0,1.1465999999999998
0.9747823179932311,0,0,2.291250988769531,0,0,1.911
0.9778964319848455,0,0,1.5586252807617187,0,0,1.07016
0.9810129349934869,0,0,2.0781670410156248,0,0,1.2230400000000001
0.9841246229771059,0,0,1.6256629272460936,0,0,0.6115200000000001
0.9872381819877774,0,0,1.197100830078125,0,0,0.68796
0.9903522029926535,0,0,2.5809493896484375,0,0,2.14032
0.9934703359904233,0,0,1.6136919189453125,0,0,0.7644
0.996584152977448,0,0,2.446874096679687,0,0,0.0
0.9996988599887118,0,0,1.9776105712890624,0,0,0.84084
1.0029225279868115,0,0,2.2744915771484373,0,0,1.37592
1.0061446039762814,0,0,1.9632453613281249,0,0,2.06388
1.0094142529997043,0,0,1.9512743530273435,0,0,0.91728
1.0126192919851746,0,0,1.3766659545898436,0,0,2.06388
1.015851626987569,0,0,1.4867992309570313,0,0,0.0
1.0197504730022047,0,0,2.1116858642578125,0,0,1.5288
1.0234189329785295,0,0,1.9297265380859374,0,0,1.83456
1.0266052129736636,0,0,1.9225439331054686,0,0,-0.53508
1.0298291409853846,0,0,1.8124106567382812,0,0,2.5989600000000004
1.0329928099818062,0,0,2.1356278808593747,0,0,3.51624
1.0360956829972565,0,0,1.4963760375976562,0,0,0.07644000000000001
1.0392044639738742,0,0,1.3144167114257812,0,0,0.0
1.0423140039783902,0,0,2.142810485839844,0,0,3.4398000000000004
1.0454225619905628,0,0,2.8945898071289062,0,0,1.68168
1.0485392510017846,0,0,0.6871358764648438,0,0,0.99372
1.0516469389840495,0,0,1.3479355346679687,0,0,2.36964
1.0550728639937006,0,0,2.760514514160156,0,0,2.98116
1.0580993490002584,0,0,0.0143652099609375,0,0,1.37592
1.0604268239985686,0,0,1.3383587280273437,0,0,1.68168
1.0628097049775533,0,0,4.110844250488281,0,0,2.4460800000000003
1.06515023499378,0,0,1.697488977050781,0,0,0.7644
1.0675661719869822,0,0,-0.74699091796875,0,0,-0.30576000000000003
1.0699995149916504,0,0,1.5610194824218748,0,0,0.3822
1.0724098039790988,0,0,2.1547814941406247,0,0,0.68796
1.0748135919857305,0,0,0.09816226806640624,0,0,-0.68796
1.0772272689791862,0,0,0.59376201171875,0,0,0.22932
1.079608168976847,0,0,2.748543505859375,0,0,2.06388
1.0820620309968945,0,0,1.1252747802734375,0,0,1.83456
1.0845390039903577,0,0,-0.40222587890625,0,0,0.30576000000000003
1.0870646799739916,0,0,2.779668127441406,0,0,1.07016
1.089704576996155,0,0,2.0973206542968748,0,0,0.45864
1.092153346980922,0,0,-0.9840168823242187,0,0,0.84084
1.094557893986348,0,0,1.5442600708007812,0,0,1.37592
1.0970341450010892,0,0,2.2744915771484373,0,0,1.37592
1.0995010619808454,0,0,-0.2825157958984375,0,0,-0.15288000000000002
1.1019261649926193,0,0,1.2306196533203124,0,0,2.52252
1.1047221350017935,0,0,2.6982652709960937,0,0,0.7644
1.1071506819862407,0,0,-0.3064578125,0,0,-0.84084
1.1095118229859509,0,0,1.0438719238281249,0,0,1.07016
1.111819760990329,0,0,2.3774422485351563,0,0,1.98744
1.1141481059894431,0,0,0.5817910034179687,0,0,1.07016
1.1164539140008856,0,0,-0.3280056274414062,0,0,0.99372
1.1187686850025784,0,0,2.7533319091796873,0,0,2.14032
1.1210771039768588,0,0,2.0566192260742184,0,0,0.91728
1.1233812639839016,0,0,-0.25139117431640623,0,0,9.32568
1.125689460983267,0,0,1.2306196533203124,0,0,1.60524
1.1279943429981358,0,0,2.3918074584960936,0,0,0.6115200000000001
1.1302997989987489,0,0,0.7589619262695312,0,0,0.30576000000000003
1.132626384991454,0,0,-0.5674257934570313,0,0,0.07644000000000001
1.1349316559790168,0,0,2.2577321655273437,0,0,2.14032
1.1372394639765844,0,0,2.080561242675781,0,0,1.75812
1.1395439569896553,0,0,0.07900865478515624,0,0,-0.3822
1.141851708991453,0,0,1.139639990234375,0,0,1.68168
1.1441554429766256,0,0,2.7724855224609373,0,0,1.75812
1.146477824979229,0,0,1.4724340209960938,0,0,-0.99372
1.1487994849740062,0,0,-0.6081272216796875,0,0,-0.15288000000000002
1.1511206079740077,0,0,1.8291700683593748,0,0,0.53508
1.153441396978451,0,0,2.0087351928710935,0,0,1.75812
1.1558366489771288,0,0,0.6943184814453125,0,0,1.68168
1.158270954998443,0,0,1.714248388671875,0,0,1.07016
1.1608057239791378,0,0,2.2936451904296873,0,0,0.6115200000000001
1.1633386779867578,0,0,0.7924807495117187,0,0,0.68796
1.1658730199851561,0,0,1.2880804931640624,0,0,1.75812
1.1684066409943625,0,0,1.8339584716796873,0,0,0.68796
1.1709399649989791,0,0,0.36152445068359373,0,0,-0.53508
1.1734788259782363,0,0,1.1133037719726562,0,0,2.06388
1.1760122979758307,0,0,2.327164013671875,0,0,1.60524
1.1785480849794112,0,0,1.618480322265625,0,0,0.22932
1.181084612995619,0,0,1.6543933471679686,0,0,0.84084
1.1836161409737542,0,0,2.0159177978515626,0,0,-9.40212
1.1863954809959978,0,0,0.9002198242187499,0,0,-1.37592
1.1889510819746647,0,0,1.2234370483398436,0,0,0.68796
1.191494201979367,0,0,1.656787548828125,0,0,1.75812
1.1940463409991935,0,0,0.7996633544921875,0,0,0.15288000000000002
1.1965890169958584,0,0,0.4381389038085937,0,0,0.91728
1.1991310629819054,0,0,2.6982652709960937,0,0,1.07016
1.2016717020014767,0,0,1.1827356201171875,0,0,0.91728
1.204212007985916,0,0,0.354341845703125,0,0,0.7644
1.2067528499756008,0,0,2.427720483398437,0,0,1.45236
1.2093855989805888,0,0,0.6823474731445313,0,0,0.91728
1.2119407189893536,0,0,-0.27293898925781246,0,0,0.68796
1.2144898579863366,0,0,2.5522189697265625,0,0,1.5288
1.2170381819887552,0,0,1.6543933471679686,0,0,2.14032
1.2195802279748023,0,0,-0.6105214233398437,0,0,0.22932
1.2221290149900597,0,0,1.687912170410156,0,0,1.45236
1.2246760799898766,0,0,2.655169641113281,0,0,0.53508
1.2272174779791385,0,0,0.055066638183593745,0,0,1.1465999999999998
1.229761727998266,0,0,1.4963760375976562,0,0,2.4460800000000003
1.232304569974076,0,0,2.1643583007812497,0,0,0.0
1.2348485050024465,0,0,-0.21308394775390624,0,0,9.24924
1.237394422001671,0,0,2.094926452636719,0,0,1.98744
1.2399359859991819,0,0,2.214636535644531,0,0,1.37592
1.2424782919988502,0,0,0.0526724365234375,0,0,-1.60524
1.24502320800093,0,0,1.9800047729492187,0,0,1.68168
1.247565494995797,0,0,3.2800562744140622,0,0,1.37592
1.250110078981379,0,0,0.3495534423828125,0,0,-9.784320000000001
1.2526554399810266,0,0,-0.852335791015625,0,0,1.2230400000000001
1.255287039995892,0,0,3.294421484375,0,0,2.36964
1.2581651379878167,0,0,0.7733271362304687,0,0,8.71416
1.2616879519773647,0,0,0.9840168823242187,0,0,1.60524
1.2652043759881053,0,0,1.8602946899414061,0,0,-1.2994800000000002
1.2687242629763205,0,0,-1.0486603271484374,0,0,2.2931999999999997
1.2722420029749628,0,0,2.645592834472656,0,0,1.5288
1.2757577979937196,0,0,-0.584185205078125,0,0,0.07644000000000001
1.2792732219968457,0,0,2.971204260253906,0,0,1.5288
1.2827892569766846,0,0,-0.17956512451171874,0,0,0.0
1.2863073489861563,0,0,1.8818425048828125,0,0,1.75812
1.2898248469864484,0,0,1.438915197753906,0,0,-1.2994800000000002
1.2933421969937626,0,0,0.28490999755859375,0,0,1.68168
1.2968581769964658,0,0,2.2553379638671873,0,0,1.37592
1.3003756759862881,0,0,-0.7876923461914062,0,0,1.98744
1.303923692990793,0,0,2.81558115234375,0,0,1.75812
1.3075210980023257,0,0,0.29927520751953124,0,0,0.3822
1.311149964982178,0,0,2.6001030029296874,0,0,1.2994800000000002
1.3146563899936154,0,0,1.1037269653320312,0,0,0.3822
1.3181536659831181,0,0,1.9225439331054686,0,0,1.1465999999999998
1.3216662939812522,0,0,2.2266075439453124,0,0,-0.30576000000000003
1.3251885889912955,0,0,0.42377369384765623,0,0,0.6115200000000001
1.3287071799859405,0,0,2.0183119995117185,0,0,1.2230400000000001
1.3322258269763552,0,0,-0.584185205078125,0,0,0.99372
1.3357257329917047,0,0,2.4851813232421875,0,0,0.6115200000000001
1.3392438979935832,0,0,0.5434837768554687,0,0,0.0
1.3427592669904698,0,0,2.0542250244140625,0,0,1.1465999999999998
1.346274062001612,0,0,2.1811177124023438,0,0,-0.07644000000000001
1.3497896709886845,0,0,1.0773907470703123,0,0,9.47856
1.3533060959889553,0,0,1.89620771484375,0,0,0.07644000000000001
1.3569259269861504,0,0,0.5698199951171875,0,0,2.14032
1.3602441859839018,0,0,2.1164742675781247,0,0,0.30576000000000003
1.3637003519979771,0,0,0.086191259765625,0,0,0.0
1.3668245769804344,0,0,2.521094348144531,0,0,1.98744
1.3699438579787966,0,0,0.9935936889648437,0,0,-0.3822
1.373056527983863,0,0,0.507570751953125,0,0,1.1465999999999998
1.37615315997391,0,0,2.4396914916992185,0,0,0.45864
1.3792733669979498,0,0,0.8092401611328125,0,0,1.2230400000000001
1.3823960549780168,0,0,1.3120225097656248,0,0,1.2994800000000002
1.3856888149748556,0,0,1.5131354492187499,0,0,-0.22932
1.3889596499793697,0,0,0.9097966308593749,0,0,2.14032
1.3921637070016004,0,0,1.446097802734375,0,0,0.3822
1.3952686169941444,0,0,0.7948749511718749,0,0,2.14032
1.3983885829802603,0,0,2.2577321655273437,0,0,0.0
1.401495937985601,0,0,1.0390835205078124,0,0,-0.53508
1.4048181789985392,0,0,1.4987702392578124,0,0,2.4460800000000003
1.4079497380007524,0,0,2.032677209472656,0,0,0.53508
1.4110707779764198,0,0,-0.1292868896484375,0,0,1.37592
1.4141924839932472,0,0,2.4061726684570313,0,0,1.5288
1.4173033940023743,0,0,2.1883003173828124,0,0,-9.24924
1.4203996199939866,0,0,-0.9504980590820312,0,0,0.3822
1.4235222339921165,0,0,2.825157958984375,0,0,0.6115200000000001
1.4266371999983676,0,0,-0.14604630126953125,0,0,0.30576000000000003
1.429756498982897,0,0,2.0638018310546875,0,0,0.84084
1.4328737419855315,0,0,1.6903063720703124,0,0,1.68168
1.4359869489853736,0,0,-0.4333505004882812,0,0,0.45864
1.43910434099962,0,0,2.9041666137695312,0,0,1.60524
1.442243231984321,0,0,0.23223756103515625,0,0,8.25552
1.4453651979856659,0,0,0.8810662109374999,0,0,1.5288
1.44848095998168,0,0,2.8898014038085935,0,0,0.53508
1.451582833979046,0,0,-1.158793603515625,0,0,-9.631440000000001
1.4548118349921424,0,0,3.4955344238281247,0,0,2.14032
1.4579701149777975,0,0,1.4987702392578124,0,0,-0.99372
1.461091969977133,0,0,0.1005564697265625,0,0,2.06388
1.464207639975939,0,0,3.347093920898437,0,0,1.45236
1.46732077197521,0,0,-0.17238251953125,0,0,0.0
1.470886751980288,0,0,2.5234885498046875,0,0,1.75812
1.4740066249796655,0,0,1.8842367065429686,0,0,0.15288000000000002
1.4771183319971897,0,0,0.21308394775390624,0,0,1.60524
1.4802345569769386,0,0,2.8371289672851563,0,0,0.45864
1.4833487259747926,0,0,0.5147533569335937,0,0,-9.631440000000001
1.486614486988401,0,0,2.602497204589844,0,0,2.2931999999999997
1.489761044998886,0,0,1.4987702392578124,0,0,-1.07016
1.4929110289958771,0,0,-0.4261678955078125,0,0,1.60524
1.4960311429749709,0,0,3.3327287109375,0,0,1.5288
1.4991810339852236,0,0,0.6943184814453125,0,0,-0.15288000000000002
1.5023066669818945,0,0,1.5035586425781249,0,0,0.7644
1.5054198360012379,0,0,2.935291235351562,0,0,0.0
1.5086112459830474,0,0,-1.4915876342773438,0,0,0.53508
1.5117383969773073,0,0,2.7150246826171873,0,0,1.68168
1.5148396399745252,0,0,1.429338391113281,0,0,0.07644000000000001
1.5179558099771384,0,0,1.0965443603515623,0,0,1.5288
1.521069793991046,0,0,3.0406361083984375,0,0,2.2167600000000003
1.5241845010023098,0,0,-0.5746083984375,0,0,0.0
1.5273007259820588,0,0,2.157175695800781,0,0,1.45236
1.5304146919806954,0,0,0.5722141967773438,0,0,-1.07016
1.5335333609837107,0,0,1.1420341918945311,0,0,0.7644
1.5366850489808712,0,0,2.5857377929687497,0,0,2.36964
1.5397997369873337,0,0,-0.39264907226562495,0,0,-0.22932
1.5429164809756912,0,0,2.0087351928710935,0,0,1.98744
1.546031668985961,0,0,1.649604943847656,0,0,-1.68168
1.5491468199761584,0,0,-0.35194764404296874,0,0,1.5288
1.5522663409938104,0,0,2.7437551025390623,0,0,1.911
1.5554162509797607,0,0,0.28969840087890625,0,0,-9.01992
1.5586616229848005,0,0,1.4915876342773438,0,0,0.6115200000000001
1.5617836259771138,0,0,1.8698714965820311,0,0,-0.7644
1.5649032029905356,0,0,0.28730419921875,0,0,1.68168
1.5680192799773067,0,0,1.6424223388671875,0,0,0.7644
1.5711190789879765,0,0,1.177947216796875,0,0,1.68168
1.5742362669843715,0,0,2.7246014892578123,0,0,2.14032
1.5773557889915537,0,0,0.8786720092773437,0,0,-1.1465999999999998
1.5804714399855584,0,0,0.4261678955078125,0,0,9.555
1.583588053996209,0,0,2.887407202148437,0,0,0.53508
1.5866885009745602,0,0,-0.22266075439453123,0,0,0.0
1.589809429977322,0,0,2.2768857788085937,0,0,1.5288
1.5929259699769318,0,0,1.915361328125,0,0,2.2167600000000003
1.5960386579972692,0,0,-0.49799394531249996,0,0,8.71416
1.5991559199756011,0,0,2.5043349365234375,0,0,1.5288
1.6022703670023475,0,0,0.9888052856445312,0,0,8.7906
1.6053898149984889,0,0,1.8770541015625,0,0,1.75812
1.6085022069746628,0,0,1.7812860351562498,0,0,1.2994800000000002
1.6116497280017938,0,0,-0.040701428222656245,0,0,1.1465999999999998
1.6149166359973606,0,0,2.3726538452148436,0,0,1.60524
1.618229525978677,0,0,1.024718310546875,0,0,-0.99372
1.621351676993072,0,0,2.3343466186523436,0,0,2.6754
1.6244672350003384,0,0,1.7501614135742187,0,0,2.06388
1.627568441996118,0,0,-1.0438719238281249,0,0,0.15288000000000002
1.6307241850008722,0,0,3.0933085449218747,0,0,1.60524
1.6338396509818267,0,0,1.3215993164062498,0,0,-1.5288
1.6369613579881843,0,0,-0.22266075439453123,0,0,2.4460800000000003
1.6400787859747652,0,0,3.0909143432617188,0,0,0.7644
1.6431794749805704,0,0,-0.5099649536132812,0,0,1.07016
1.6462975519825704,0,0,3.2824504760742186,0,0,1.2230400000000001
1.6494130919745658,0,0,1.6543933471679686,0,0,0.15288000000000002
1.6525526129989885,0,0,-0.5195417602539062,0,0,0.45864
1.6556698009953834,0,0,3.5506010620117183,0,0,1.60524
1.6588156369980425,0,0,0.6440402465820312,0,0,0.53508
1.6621392109955195,0,0,1.3479355346679687,0,0,0.53508
1.6652583989780396,0,0,1.5897499023437498,0,0,0.99372
1.6683708099881187,0,0,-0.679953271484375,0,0,-0.53508
1.671489626984112,0,0,3.3590649291992185,0,0,2.06388
1.674603870982537,0,0,1.0079588989257813,0,0,0.30576000000000003
1.6777516879956238,0,0,1.2665326782226562,0,0,1.2994800000000002
1.680867283983389,0,0,2.300827795410156,0,0,1.75812
1.6839788609941024,0,0,-0.7541735229492187,0,0,-1.5288
1.6870950489828829,0,0,1.714248388671875,0,0,1.98744
1.690238569979556,0,0,1.0773907470703123,0,0,-0.99372
1.6933593139983714,0,0,0.7757213378906249,0,0,1.1465999999999998
1.69647264998639,0,0,2.959233251953125,0,0,1.911
1.6995923749927897,0,0,-1.2473790649414063,0,0,-0.45864
1.7027532659994904,0,0,1.7214309936523438,0,0,1.98744
1.7059140279889107,0,0,2.3127988037109373,0,0,-0.7644
1.7090383829781786,0,0,-0.8307879760742187,0,0,1.07016
1.712158736976562,0,0,3.268085266113281,0,0,0.7644
1.715259980992414,0,0,-0.2154781494140625,0,0,0.22932
1.7183724099886604,0,0,1.8052280517578123,0,0,1.5288
1.722089683986269,0,0,2.73896669921875,0,0,-1.07016
1.725195167993661,0,0,0.25139117431640623,0,0,1.2994800000000002
1.7282930789806414,0,0,2.511517541503906,0,0,2.2931999999999997
1.7313922669854946,0,0,0.0383072265625,0,0,1.45236
1.734509658999741,0,0,1.3934253662109375,0,0,1.37592
1.7376274209818803,0,0,2.43250888671875,0,0,0.07644000000000001
1.740750904980814,0,0,-0.4429273071289062,0,0,0.53508
1.7438820749812294,0,0,2.664746447753906,0,0,0.91728
1.7469996519794222,0,0,1.0965443603515623,0,0,0.45864
1.7501147839939222,0,0,0.16759411621093748,0,0,0.6115200000000001
1.7532310649985448,0,0,3.057395520019531,0,0,2.2931999999999997
1.7563428089779336,0,0,-1.1348515869140625,0,0,-1.2994800000000002
1.7594965889875311,0,0,2.3582886352539063,0,0,1.911
1.7626122209767345,0,0,1.4508862060546874,0,0,0.99372
1.7657675569935236,0,0,0.3758896606445312,0,0,1.2230400000000001
1.768883744982304,0,0,2.4205378784179685,0,0,1.98744
1.7719958039815538,0,0,0.7517793212890624,0,0,0.0
1.775109750975389,0,0,2.4588451049804685,0,0,1.45236
1.7782239579828456,0,0,0.8786720092773437,0,0,-1.2230400000000001
1.7813402009778656,0,0,1.3311761230468748,0,0,2.4460800000000003
1.7844867959793191,0,0,1.8171990600585937,0,0,2.2167600000000003
1.7876058179826941,0,0,-0.3280056274414062,0,0,-0.91728
1.7907247469993308,0,0,2.920926025390625,0,0,1.2994800000000002
1.7938399159756955,0,0,2.3127988037109373,0,0,-0.6115200000000001
1.7969558259937912,0,0,-1.0462661254882812,0,0,0.15288000000000002
1.8000683109858073,0,0,2.2649147705078123,0,0,0.68796
1.8031818509916775,0,0,-0.03591302490234375,0,0,1.5288
1.8063476859824732,0,0,1.7310078002929687,0,0,0.6115200000000001
1.809548466000706,0,0,1.9321207397460936,0,0,1.2230400000000001
1.8127025429857895,0,0,0.13168109130859373,0,0,1.37592
1.8158306569966953,0,0,2.6048914062499997,0,0,0.84084
1.818952770991018,0,0,0.4333505004882812,0,0,9.555
1.8220714589988347,0,0,3.066972326660156,0,0,0.3822
1.8251892580010463,0,0,1.4437036010742186,0,0,2.06388
1.8283034089836292,0,0,-1.3623007446289062,0,0,-0.53508
1.8314282259962056,0,0,4.414907861328125,0,0,2.5989600000000004
1.8345335999911185,0,0,0.7110778930664062,0,0,-1.37592
1.8376448799972422,0,0,0.062249243164062495,0,0,0.7644
1.8407810679927934,0,0,3.31357509765625,0,0,1.75812
1.8438937009777874,0,0,-0.6560112548828124,0,0,-0.99372
1.847011499979999,0,0,3.2345664428710936,0,0,2.2931999999999997
1.8501248550019227,0,0,0.948103857421875,0,0,-20
1.8532911529764533,0,0,0.8858546142578124,0,0,2.4460800000000003
1.856405674974667,0,0,3.303998291015625,0,0,0.91728
1.8595654179807752,0,0,-1.3814543579101561,0,0,-0.84084
1.862719531985931,0,0,2.50912333984375,0,0,1.2230400000000001
1.8658535899885464,0,0,2.300827795410156,0,0,-1.2994800000000002
1.8689724819851108,0,0,-1.2785036865234374,0,0,0.07644000000000001
1.8720890769909602,0,0,3.6942531616210936,0,0,0.68796
1.875189746991964,0,0,-0.8068459594726562,0,0,-0.30576000000000003
1.8783102309971582,0,0,0.33518823242187495,0,0,9.631440000000001
1.8814281599770766,0,0,2.8850130004882812,0,0,1.911
1.8845468109939247,0,0,-1.7477672119140624,0,0,-9.784320000000001
1.8876676840009168,0,0,1.3144167114257812,0,0,0.0
1.8907690019987058,0,0,2.1835119140624997,0,0,1.98744
1.893884616001742,0,0,-1.1252747802734375,0,0,-0.68796
1.897002766985679,0,0,4.110844250488281,0,0,-0.30576000000000003
1.9001221770013217,0,0,0.5147533569335937,0,0,0.68796
1.9032406059850473,0,0,-2.3822306518554686,0,0,-9.172799999999999
1.9064347009989433,0,0,2.375048046875,0,0,-1.2994800000000002
1.9096541649778374,0,0,0.7805097412109374,0,0,0.30576000000000003
1.9127904269844294,0,0,-0.277727392578125,0,0,2.36964
1.915889892989071,0,0,2.8945898071289062,0,0,2.4460800000000003
1.9190112849755678,0,0,-0.5099649536132812,0,0,-3.822
1.922120361996349,0,0,0.055066638183593745,0,0,-1.911
1.925231975998031,0,0,3.0358477050781247,0,0,1.68168
1.9283495899871923,0,0,-0.21787235107421873,0,0,0.0
1.9314514639845584,0,0,0.4525041137695312,0,0,-0.6115200000000001
1.9345677069795784,0,0,2.1619640991210938,0,0,0.53508
1.9376765429915395,0,0,1.235408056640625,0,0,0.45864
1.9408192679984495,0,0,-0.32561142578124996,0,0,-0.6115200000000001
1.9439369929896202,0,0,1.01514150390625,0,0,-9.32568
1.947051700000884,0,0,0.4381389038085937,0,0,0.07644000000000001
1.950167461996898,0,0,1.37906015625,0,0,0.99372
1.9532849839888513,0,0,0.9145850341796874,0,0,2.2931999999999997
1.9566048179985955,0,0,0.24899697265624998,0,0,-0.99372
1.9597632459772285,0,0,1.1947066284179686,0,0,0.84084
1.9628736379963811,0,0,0.3112462158203125,0,0,20
1.9659818809886929,0,0,0.01915361328125,0,0,0.45864
1.9690886439930182,0,0,1.8195932617187498,0,0,1.07016
1.9721939989831299,0,0,1.4413093994140624,0,0,0.53508
1.975298852979904,0,0,-0.25139117431640623,0,0,-0.7644
1.9784076899813954,0,0,1.5705962890624998,0,0,0.53508
1.9815191559900995,0,0,0.7589619262695312,0,0,0.0
1.984640454989858,0,0,-0.08858546142578125,0,0,0.0
1.9877573089906946,0,0,1.838746875,0,0,0.91728
1.9908637199841905,0,0,0.6440402465820312,0,0,-0.3822
1.993970185983926,0,0,0.076614453125,0,0,-0.68796
1.9971556139935274,0,0,1.2641384765625,0,0,0.68796
2.0002682089980226,0,0,0.30885201416015623,0,0,-9.47856
2.00337863797904,0,0,0.06703764648437499,0,0,0.68796
2.0064928630017675,0,0,1.6065093139648436,0,0,0.15288000000000002
2.009701586997835,0,0,0.7134720947265625,0,0,0.0
2.012810238986276,0,0,0.8667010009765624,0,0,0.0
2.0159310559974983,0,0,0.5027823486328125,0,0,0.15288000000000002
2.0190370219934266,0,0,1.3359645263671873,0,0,0.3822
2.02214204397751,0,0,0.2154781494140625,0,0,0.53508
2.0252492129802704,0,0,0.7206546997070312,0,0,1.07016
2.028349215979688,0,0,1.2689268798828124,0,0,0.0
2.031453737989068,0,0,0.32561142578124996,0,0,-20
2.0345951479976065,0,0,0.9361328491210937,0,0,0.22932
2.0377020579762757,0,0,0.7326257080078125,0,0,0.3822
2.040808653982822,0,0,0.040701428222656245,0,0,0.0
2.043910934997257,0,0,1.2282254516601563,0,0,0.7644
2.0470165489823557,0,0,0.8882488159179687,0,0,-20
2.050122347980505,0,0,0.55545478515625,0,0,0.0
2.0532262589840684,0,0,1.1444283935546875,0,0,0.07644000000000001
2.0563981869781855,0,0,0.8978256225585937,0,0,-20
2.0597313359903637,0,0,0.8068459594726562,0,0,0.91728
2.062853819981683,0,0,0.6105214233398437,0,0,0.84084
2.065959674975602,0,0,0.9361328491210937,0,0,0.53508
2.069066899974132,0,0,0.7422025146484375,0,0,0.6115200000000001
2.0721685879980214,0,0,1.9584569580078124,0,0,1.83456
2.0752719989977777,0,0,1.1372457885742187,0,0,0.91728
2.0783794460003264,0,0,0.9313444458007812,0,0,0.7644
2.0814885039872024,0,0,1.924938134765625,0,0,0.22932
2.0846060069743544,0,0,1.3527239379882812,0,0,0.6115200000000001
2.087806064984761,0,0,1.3215993164062498,0,0,0.91728
2.0909209749952424,0,0,1.419761584472656,0,0,0.84084
2.094025829981547,0,0,1.20667763671875,0,0,0.84084
2.0971307029831223,0,0,1.199495031738281,0,0,0.07644000000000001
2.1002632989839185,0,0,1.3575123413085937,0,0,0.6115200000000001
2.1033709869952872,0,0,1.3479355346679687,0,0,0.53508
2.1064756749838125,0,0,1.2042834350585936,0,0,0.84084
2.1096392889739946,0,0,1.2928688964843749,0,0,0.6115200000000001
2.112883363995934,0,0,1.5251064575195312,0,0,0.84084
2.116080328996759,0,0,1.3646949462890625,0,0,0.7644
2.1192626459815074,0,0,1.2234370483398436,0,0,0.53508
2.122452555980999,0,0,1.7477672119140624,0,0,1.2230400000000001
2.125649594992865,0,0,0.9217676391601562,0,0,0.91728
2.128915410983609,0,0,1.3527239379882812,0,0,0.6115200000000001
2.1321139310020953,0,0,1.675941162109375,0,0,0.91728
2.135314062994439,0,0,1.22583125,0,0,0.84084
2.1385628049902152,0,0,1.3192051147460937,0,0,0.6115200000000001
2.141765584994573,0,0,1.6352397338867186,0,0,1.911
2.1449526789947413,0,0,1.3072341064453123,0,0,0.30576000000000003
2.1482455879740883,0,0,0.9744400756835937,0,0,1.1465999999999998
2.151421015994856,0,0,1.4915876342773438,0,0,0.99372
2.154532462998759,0,0,1.2282254516601563,0,0,0.91728
2.1576398919860367,0,0,1.177947216796875,0,0,0.07644000000000001
2.1608489679929335,0,0,1.3623007446289062,0,0,0.99372
2.1637839169998188,0,0,1.2234370483398436,0,0,0.53508
2.1665772019769065,0,0,1.199495031738281,0,0,0.45864
2.1693940039840527,0,0,1.2401964599609374,0,0,0.6115200000000001
2.1721833249903284,0,0,1.659181750488281,0,0,0.53508
2.1749731279851403,0,0,1.2856862915039062,0,0,1.1465999999999998
2.177762615989195,0,0,1.1372457885742187,0,0,0.84084
2.180553307989612,0,0,1.3646949462890625,0,0,0.3822
2.1833434809814207,0,0,1.5514426757812498,0,0,1.1465999999999998
2.186132931994507,0,0,1.24498486328125,0,0,-9.09636
2.188925937982276,0,0,1.2473790649414063,0,0,0.91728
2.191715499997372,0,0,1.4700398193359374,0,0,0.91728
2.194537079980364,0,0,1.2665326782226562,0,0,0.68796
2.197330308990786,0,0,1.218648645019531,0,0,0.91728
2.2001190749870148,0,0,1.254561669921875,0,0,0.7644
2.2029081739892717,0,0,1.5370774658203123,0,0,0.68796
2.2057026059774216,0,0,1.1923124267578125,0,0,0.30576000000000003
2.2084739089768846,0,0,1.20667763671875,0,0,0.22932
2.2112666749744676,0,0,1.2497732666015624,0,0,0.68796
2.21405679199961,0,0,1.3263877197265623,0,0,0.91728
2.2168478169769514,0,0,1.1013327636718748,0,0,0.84084
2.2196343609830365,0,0,1.3862427612304686,0,0,0.3822
2.222425644984469,0,0,1.6160861206054686,0,0,0.68796
2.2252168739796616,0,0,1.3239935180664062,0,0,1.1465999999999998
2.2280035649891943,0,0,1.1252747802734375,0,0,0.45864
2.2307945159845985,0,0,1.3215993164062498,0,0,0.53508
2.2335864669876173,0,0,1.2808978881835937,0,0,1.1465999999999998
2.236374732980039,0,0,1.3527239379882812,0,0,0.7644
2.2391652389778756,0,0,1.1540052001953125,0,0,1.2994800000000002
2.2419559129921254,0,0,1.2521674682617188,0,0,1.2994800000000002
2.2447691969864536,0,0,1.350329736328125,0,0,0.53508
2.247558498987928,0,0,1.1516109985351561,0,0,1.2994800000000002
2.250348801986547,0,0,1.2737152832031249,0,0,0.68796
2.2531405309855472,0,0,1.7357962036132812,0,0,0.91728
2.255927555990638,0,0,1.1444283935546875,0,0,0.68796
2.2587182839924935,0,0,1.0893617553710937,0,0,0.0
2.261590622976655,0,0,1.2713210815429687,0,0,0.45864
2.264550405991031,0,0,1.2569558715820313,0,0,0.45864
2.2676566489972174,0,0,1.1659762084960936,0,0,1.2230400000000001
2.2707658750005066,0,0,1.4245499877929686,0,0,0.53508
2.273873211001046,0,0,1.4006079711914061,0,0,1.2230400000000001
2.2769823619746603,0,0,1.2018892333984375,0,0,0.84084
2.2800865869794507,0,0,1.2330138549804688,0,0,0.7644
2.2831937939918134,0,0,1.618480322265625,0,0,0.84084
2.28631996299373,0,0,1.20667763671875,0,0,0.45864
2.289445687987609,0,0,1.2593500732421874,0,0,0.84084
2.2925539879943244,0,0,1.4508862060546874,0,0,0.6115200000000001
2.29565880500013,0,0,1.3263877197265623,0,0,0.53508
2.2987658079946414,0,0,1.216254443359375,0,0,0.0
2.30188232997898,0,0,1.2497732666015624,0,0,0.91728
2.305012536002323,0,0,1.254561669921875,0,0,0.91728
2.3081739459885284,0,0,1.2976572998046874,0,0,0.22932
2.3113944289798383,0,0,1.4963760375976562,0,0,0.6115200000000001
2.3145052469917573,0,0,1.3431471313476562,0,0,0.53508
2.3176123059820384,0,0,1.13006318359375,0,0,2.14032
2.320715752983233,0,0,1.3000515014648437,0,0,0.99372
2.323799292993499,0,0,1.599326708984375,0,0,1.60524
2.3269120369805023,0,0,1.1731588134765625,0,0,0.6115200000000001
2.3300180769874714,0,0,1.16837041015625,0,0,0.53508
2.3331223579880316,0,0,1.2976572998046874,0,0,0.30576000000000003
2.336227527994197,0,0,1.3263877197265623,0,0,0.53508
2.339331418974325,0,0,1.350329736328125,0,0,1.45236
2.3424392929882742,0,0,1.2737152832031249,0,0,0.99372
2.3455482400022447,0,0,1.2880804931640624,0,0,1.2994800000000002
2.3487026319780853,0,0,1.1635820068359375,0,0,0.84084
2.3518086900003254,0,0,1.2713210815429687,0,0,0.6115200000000001
2.354914600990014,0,0,1.3718775512695311,0,0,0.45864
2.3580217519775033,0,0,1.2928688964843749,0,0,1.1465999999999998
2.361161994980648,0,0,1.3000515014648437,0,0,0.91728
2.364327071001753,0,0,1.5035586425781249,0,0,1.37592
2.3674369629879948,0,0,1.189918225097656,0,0,1.07016
2.3705437629832886,0,0,1.2737152832031249,0,0,0.6115200000000001
2.373652228998253,0,0,1.62805712890625,0,0,0.53508
2.376808434986742,0,0,1.3120225097656248,0,0,0.22932
2.3799158269830514,0,0,1.0941501586914062,0,0,1.2230400000000001
2.3830543289950583,0,0,1.3168109130859373,0,0,0.53508
2.3866189009859227,0,0,1.3455413330078123,0,0,0.6115200000000001
2.389855365996482,0,0,1.1923124267578125,0,0,1.1465999999999998
2.393225940002594,0,0,1.458068811035156,0,0,0.6115200000000001
2.3964684039819986,0,0,1.3958195678710936,0,0,0.6115200000000001
2.3996948689746205,0,0,1.0773907470703123,0,0,0.6115200000000001
2.4029136119934265,0,0,1.2378022583007813,0,0,0.91728
2.406227500992827,0,0,1.4915876342773438,0,0,1.37592
2.409516501997132,0,0,1.1635820068359375,0,0,0.0
2.4127245039853733,0,0,1.0821791503906248,0,0,0.99372
2.415913005999755,0,0,1.2497732666015624,0,0,1.07016
2.4190827119746245,0,0,1.1348515869140625,0,0,0.30576000000000003
2.4222558249894064,0,0,1.2330138549804688,0,0,0.30576000000000003
2.425365087983664,0,0,1.3072341064453123,0,0,0.53508
2.428473756997846,0,0,1.0845733520507812,0,0,0.3822
2.43158209399553,0,0,1.2904746948242187,0,0,0.7644
2.4346891149762087,0,0,1.599326708984375,0,0,1.07016
2.4377987109764945,0,0,1.139639990234375,0,0,0.91728
2.440906157979043,0,0,1.2617442749023438,0,0,0.6115200000000001
2.444025716977194,0,0,1.3407529296874998,0,0,0.45864
2.4471340159943793,0,0,1.369483349609375,0,0,0.68796
2.4502491669845767,0,0,1.216254443359375,0,0,0.45864
2.453356576996157,0,0,1.1875240234375,0,0,0.68796
2.4564659319876228,0,0,1.2785036865234374,0,0,1.2230400000000001
2.4595733789901715,0,0,1.0079588989257813,0,0,0.0
2.4628012889879756,0,0,1.3024457031249999,0,0,0.53508
2.465585776983062,0,0,1.350329736328125,0,0,1.2994800000000002
2.4681209709960967,0,0,1.2282254516601563,0,0,0.53508
2.4708832559990697,0,0,1.1037269653320312,0,0,0.45864
2.4734221719845664,0,0,1.1156979736328125,0,0,0.6115200000000001
2.475955662986962,0,0,1.4437036010742186,0,0,0.99372
2.4784876169869676,0,0,1.0965443603515623,0,0,0.7644
2.481043273990508,0,0,1.2234370483398436,0,0,0.91728
2.4835711719933897,0,0,1.369483349609375,0,0,1.07016
2.4861000329838134,0,0,1.3263877197265623,0,0,1.2230400000000001
2.4886527639755514,0,0,1.0869675537109373,0,0,0.91728
2.491180662997067,0,0,1.3144167114257812,0,0,0.7644
2.4937098200025503,0,0,1.2689268798828124,0,0,0.91728
2.4962367179978173,0,0,1.3287819213867187,0,0,0.53508
2.4987644130014814,0,0,1.149216796875,0,0,0.91728
2.5013781809830107,0,0,1.0773907470703123,0,0,1.37592
2.503936300985515,0,0,1.3287819213867187,0,0,0.84084
2.50646677298937,0,0,1.3623007446289062,0,0,0.7644
2.5090247999760322,0,0,1.235408056640625,0,0,0.91728
2.5115528839814942,0,0,1.3479355346679687,0,0,1.1465999999999998
2.5140833189943805,0,0,1.5107412475585937,0,0,0.91728
2.516641697991872,0,0,1.3311761230468748,0,0,0.53508
2.5191718929854687,0,0,1.158793603515625,0,0,0.91728
2.5217025869933423,0,0,1.35990654296875,0,0,1.07016
2.5242276339849923,0,0,1.2330138549804688,0,0,0.91728
2.5267730499908794,0,0,1.2617442749023438,0,0,0.30576000000000003
2.5293136709951796,0,0,1.3048399047851562,0,0,0.99372
2.531855438981438,0,0,1.3120225097656248,0,0,1.1465999999999998
2.5343965039937757,0,0,1.3646949462890625,0,0,0.99372
2.536987882980611,0,0,1.3168109130859373,0,0,0.30576000000000003
2.5395520589954685,0,0,1.3407529296874998,0,0,0.53508
2.5420935309957713,0,0,1.3072341064453123,0,0,0.91728
2.54463866900187,0,0,1.2832920898437499,0,0,0.68796
2.5471801789826714,0,0,1.3551181396484375,0,0,0.3822
2.5497244659927674,0,0,1.1540052001953125,0,0,0.45864
2.5522644559969194,0,0,1.3144167114257812,0,0,0.99372
2.5548037619737443,0,0,1.3024457031249999,0,0,0.91728
2.558619478979381,0,0,1.2425906616210938,0,0,0.30576000000000003
2.5612498389964458,0,0,1.1468225952148436,0,0,-20
2.563821588992141,0,0,1.3192051147460937,0,0,1.2230400000000001
2.566901999991387,0,0,1.3958195678710936,0,0,0.53508
2.5700216129771434,0,0,1.1707646118164061,0,0,1.2230400000000001
2.573139726999216,0,0,1.2785036865234374,0,0,0.84084
2.5762528789928183,0,0,1.4437036010742186,0,0,1.07016
2.5793695479806047,0,0,1.1276689819335937,0,0,0.3822
2.5824852359946817,0,0,1.0726023437499999,0,0,0.53508
2.585602849983843,0,0,1.5969325073242187,0,0,0.84084
2.588721501000691,0,0,1.5203180541992187,0,0,0.6115200000000001
2.591835651983274,0,0,1.1851298217773436,0,0,0.68796
2.59494843299035,0,0,1.5203180541992187,0,0,0.53508
2.598391987994546,0,0,1.4628572143554686,0,0,0.6115200000000001
2.6015896189783234,0,0,1.2114660400390624,0,0,1.1465999999999998
2.6049406379752327,0,0,1.6711527587890624,0,0,0.84084
2.6080672339885496,0,0,1.3814543579101561,0,0,0.99372
2.6112013469974045,0,0,1.0893617553710937,0,0,0.0
2.614325590984663,0,0,1.254561669921875,0,0,0.7644
2.6174438529997133,0,0,1.2306196533203124,0,0,0.45864
2.6205587449949235,0,0,1.1252747802734375,0,0,0.91728
2.6236742479959503,0,0,1.2617442749023438,0,0,0.7644
2.626789916976122,0,0,1.2114660400390624,0,0,1.1465999999999998
2.62990390197956,0,0,1.3120225097656248,0,0,1.1465999999999998
2.63301884898101,0,0,1.2928688964843749,0,0,0.68796
2.636130962986499,0,0,1.5155296508789062,0,0,1.1465999999999998
2.6392501699738204,0,0,1.3431471313476562,0,0,0.84084
2.64236511697527,0,0,1.1827356201171875,0,0,0.7644
2.6454779529885855,0,0,1.3335703247070312,0,0,0.7644
2.6487261209986173,0,0,1.3072341064453123,0,0,0.99372
2.651854049996473,0,0,1.1420341918945311,0,0,0.30576000000000003
2.655006570974365,0,0,1.3215993164062498,0,0,1.07016
2.6581249999871943,0,0,1.3718775512695311,0,0,0.84084
2.6612810579827055,0,0,1.149216796875,0,0,0.6115200000000001
2.6644524119910784,0,0,1.369483349609375,0,0,0.7644
2.6675678409810644,0,0,1.2282254516601563,0,0,0.6115200000000001
2.6707244539866224,0,0,1.0821791503906248,0,0,0.7644
2.6738392719998956,0,0,1.3958195678710936,0,0,0.84084
2.6769541639951058,0,0,1.4628572143554686,0,0,1.37592
2.6800657409767155,0,0,1.0917559570312498,0,0,0.91728
2.683179799001664,0,0,1.3072341064453123,0,0,0.53508
2.6863134689920116,0,0,1.4867992309570313,0,0,0.53508
2.6894292309880257,0,0,1.4221557861328125,0,0,0.53508
2.692566232988611,0,0,0.9241618408203125,0,0,1.07016
2.6956816249876283,0,0,1.2856862915039062,0,0,1.07016
2.6987957389792427,0,0,1.254561669921875,0,0,1.2994800000000002
2.701918445993215,0,0,1.1252747802734375,0,0,-9.47856
2.705037707986776,0,0,1.2521674682617188,0,0,0.7644
2.7081513029988855,0,0,1.35990654296875,0,0,0.6115200000000001
2.711269083985826,0,0,1.2808978881835937,0,0,0.91728
2.714382530975854,0,0,1.3239935180664062,0,0,0.6115200000000001
2.7174954599759076,0,0,1.6735469604492186,0,0,1.68168
2.720607110997662,0,0,1.3551181396484375,0,0,1.1465999999999998
2.7237203359836712,0,0,1.2425906616210938,0,0,0.3822
2.7268403949856292,0,0,1.5442600708007812,0,0,0.6115200000000001
2.729957174975425,0,0,1.0726023437499999,0,0,0.22932
2.7330720859754365,0,0,1.0989385620117187,0,0,0.84084
2.7361847549909726,0,0,1.3215993164062498,0,0,0.6115200000000001
2.7392942209844477,0,0,1.3311761230468748,0,0,0.7644
2.742824811983155,0,0,1.0917559570312498,0,0,0.99372
2.7459473889903165,0,0,1.3335703247070312,0,0,1.2230400000000001
2.749065743992105,0,0,1.2521674682617188,0,0,0.99372
2.752183153992519,0,0,1.197100830078125,0,0,0.7644
2.7553000089828856,0,0,1.3024457031249999,0,0,0.6115200000000001
2.7584416039753705,0,0,1.3144167114257812,0,0,0.45864
2.7615596069954336,0,0,1.1133037719726562,0,0,1.2230400000000001
2.7647870529908687,0,0,1.47482822265625,0,0,0.7644
2.768464901979314,0,0,1.5753846923828123,0,0,0.6115200000000001
2.7716954029747285,0,0,1.1635820068359375,0,0,2.2931999999999997
2.774814331991365,0,0,1.4628572143554686,0,0,0.84084
2.77792066798429,0,0,1.4867992309570313,0,0,1.5288
2.781024541996885,0,0,1.189918225097656,0,0,1.1465999999999998
2.784125840989873,0,0,1.0893617553710937,0,0,0.45864
2.7872301029856317,0,0,1.4413093994140624,0,0,0.22932
2.7903334769944195,0,0,1.3120225097656248,0,0,0.6115200000000001
2.793437238986371,0,0,1.1827356201171875,0,0,0.53508
2.7966663699771743,0,0,1.2401964599609374,0,0,0.6115200000000001
2.7997733549855184,0,0,1.3431471313476562,0,0,1.2230400000000001
2.802875912981108,0,0,1.1037269653320312,0,0,20
2.8059818419860676,0,0,1.2904746948242187,0,0,0.3822
2.8091329929884523,0,0,1.2306196533203124,0,0,0.22932
2.8123120879754424,0,0,1.1947066284179686,0,0,1.1465999999999998
2.8154214799869806,0,0,1.2378022583007813,0,0,0.91728
2.818532667995896,0,0,1.3072341064453123,0,0,1.2994800000000002
2.8216376889904495,0,0,1.1563994018554686,0,0,1.2994800000000002
2.8247420259867795,0,0,1.3263877197265623,0,0,0.22932
2.8278459919965826,0,0,1.5873557006835937,0,0,0.91728
2.830949420982506,0,0,1.3215993164062498,0,0,0.53508
2.8340522939979564,0,0,1.1827356201171875,0,0,1.07016
2.83715755600133,0,0,1.2785036865234374,0,0,0.84084
2.8402593929786235,0,0,1.2665326782226562,0,0,1.07016
2.8433653399988543,0,0,1.1563994018554686,0,0,-9.707880000000001
2.846470620977925,0,0,1.43652099609375,0,0,0.6115200000000001
2.8495753269817214,0,0,1.3311761230468748,0,0,0.53508
2.8526884599996265,0,0,1.158793603515625,0,0,0.84084
2.8557920189923607,0,0,1.4006079711914061,0,0,0.68796
2.8589265209739096,0,0,1.446097802734375,0,0,1.2230400000000001
2.862041357991984,0,0,1.0941501586914062,0,0,1.1465999999999998
2.8651794159959536,0,0,1.2569558715820313,0,0,0.53508
2.868280047987355,0,0,1.4628572143554686,0,0,0.53508
2.871385513979476,0,0,1.446097802734375,0,0,0.68796
2.8744894989940803,0,0,1.2378022583007813,0,0,0.84084
2.8775914829748217,0,0,1.465251416015625,0,0,0.6115200000000001
2.880695708998246,0,0,1.2617442749023438,0,0,0.91728
2.883797581976978,0,0,1.1923124267578125,0,0,0.07644000000000001
2.886900732992217,0,0,1.3455413330078123,0,0,0.99372
2.890003495995188,0,0,1.1013327636718748,0,0,0.6115200000000001
2.89310873899376,0,0,1.1875240234375,0,0,1.2994800000000002
2.896210741979303,0,0,1.3000515014648437,0,0,0.7644
2.899312541994732,0,0,1.6807295654296874,0,0,1.2994800000000002
2.9024240259896033,0,0,1.1420341918945311,0,0,0.7644
2.9055435469781514,0,0,1.3359645263671873,0,0,0.53508
2.9088006599922664,0,0,1.5658078857421873,0,0,0.45864
2.911909829999786,0,0,1.189918225097656,0,0,0.6115200000000001
2.915018183994107,0,0,1.1611878051757811,0,0,0.7644
2.918124149990035,0,0,1.2306196533203124,0,0,0.53508
2.921476816991344,0,0,1.2808978881835937,0,0,0.53508
2.924590319977142,0,0,1.139639990234375,0,0,0.15288000000000002
2.927696656988701,0,0,1.3623007446289062,0,0,0.84084
2.930818584980443,0,0,1.3263877197265623,0,0,0.84084
2.933923809992848,0,0,1.2114660400390624,0,0,0.84084
2.9370228509942535,0,0,1.4820108276367188,0,0,0.53508
2.940124223998282,0,0,1.47482822265625,0,0,0.6115200000000001
2.943227041978389,0,0,1.1372457885742187,0,0,0.7644
2.9463299889757764,0,0,1.1659762084960936,0,0,0.53508
2.9494335479976144,0,0,1.5083470458984374,0,0,0.68796
2.952564105973579,0,0,1.197100830078125,0,0,0.3822
2.955739848985104,0,0,1.1563994018554686,0,0,0.68796
2.9588465559936594,0,0,1.438915197753906,0,0,0.3822
2.9619502069836017,0,0,1.2928688964843749,0,0,0.45864
2.965092394995736,0,0,1.197100830078125,0,0,0.84084
2.968192675994942,0,0,1.3455413330078123,0,0,0.99372
2.971295826981077,0,0,1.2569558715820313,0,0,1.07016
2.974398347985698,0,0,1.0749965454101562,0,0,1.1465999999999998
2.977503739995882,0,0,1.3455413330078123,0,0,0.45864
2.980606724973768,0,0,1.3359645263671873,0,0,0.3822
2.9837083949823864,0,0,1.0797849487304687,0,0,0.68796
2.986824119987432,0,0,1.2306196533203124,0,0,1.07016
2.9899310109904036,0,0,1.6065093139648436,0,0,0.91728
2.993035847990541,0,0,1.235408056640625,0,0,0.91728
2.9961368879885413,0,0,1.1516109985351561,0,0,1.2230400000000001
2.999241705983877,0,0,1.2306196533203124,0,0,0.7644
3.0023448939900845,0,0,1.3287819213867187,0,0,0.53508
3.0054502860002685,0,0,1.1420341918945311,0,0,0.22932
3.0085525479807984,0,0,1.0726023437499999,0,0,0.84084
3.011654570000246,0,0,1.3551181396484375,0,0,1.2230400000000001
3.014920292975148,0,0,1.0917559570312498,0,0,1.07016
3.0180363149847835,0,0,1.2306196533203124,0,0,0.45864
3.021144946978893,0,0,1.3838485595703125,0,0,20
3.024244579981314,0,0,1.1324573852539062,0,0,0.15288000000000002
3.027348212985089,0,0,1.5179238525390624,0,0,0.84084
3.030453529994702,0,0,1.4245499877929686,0,0,1.1465999999999998
3.033559718984179,0,0,1.218648645019531,0,0,0.53508
3.036960495985113,0,0,1.2952630981445312,0,0,0.53508
3.040170775988372,0,0,1.4604630126953124,0,0,0.68796
3.043279667996103,0,0,1.1037269653320312,0,0,0.53508
3.046385058987653,0,0,1.1013327636718748,0,0,1.07016
3.0494892849819735,0,0,1.455674609375,0,0,0.53508
3.0526027139858343,0,0,1.3120225097656248,0,0,0.84084
3.055764585995348,0,0,1.0726023437499999,0,0,0.0
3.0588794039795175,0,0,1.3431471313476562,0,0,1.2230400000000001
3.062123701995006,0,0,1.2713210815429687,0,0,0.84084
3.0653222219843883,0,0,1.1563994018554686,0,0,0.99372
3.0684257249813527,0,0,1.3431471313476562,0,0,0.53508
3.071535190974828,0,0,1.2904746948242187,0,0,0.68796
3.0746451939921826,0,0,1.1013327636718748,0,0,0.30576000000000003
3.077782270993339,0,0,1.438915197753906,0,0,0.84084
3.08089116300107,0,0,1.6735469604492186,0,0,1.07016
3.0839939989964478,0,0,1.1420341918945311,0,0,1.07016
3.0871941119839903,0,0,1.3024457031249999,0,0,0.45864
3.0903101339936256,0,0,1.5849614990234373,0,0,0.45864
3.093423839978641,0,0,1.3120225097656248,0,0,0.7644
3.0965636389737483,0,0,1.0821791503906248,0,0,0.22932
3.0996715869987383,0,0,1.2473790649414063,0,0,1.1465999999999998
3.102790422999533,0,0,1.2713210815429687,0,0,0.99372
3.1058984999835957,0,0,1.3575123413085937,0,0,0.53508
3.1090071509825066,0,0,1.2569558715820313,0,0,0.53508
3.112112116999924,0,0,1.4820108276367188,0,0,0.68796
3.1152315090002958,0,0,1.1061211669921875,0,0,0.6115200000000001
3.118337325984612,0,0,1.2976572998046874,0,0,0.99372
3.1214439409959596,0,0,1.5418658691406248,0,0,1.37592
3.1245482209778856,0,0,1.209071838378906,0,0,0.91728
3.1276532799820416,0,0,1.2952630981445312,0,0,0.68796
3.130757282982813,0,0,1.4030021728515625,0,0,0.53508
3.1338658229797147,0,0,1.5059528442382812,0,0,0.6115200000000001
3.1369733439933043,0,0,1.1827356201171875,0,0,0.68796
3.1400757919764146,0,0,1.3263877197265623,0,0,1.07016
3.1431808499910403,0,0,1.39821376953125,0,0,0.91728
3.146289612981491,0,0,1.216254443359375,0,0,1.2994800000000002
3.149404337978922,0,0,1.2401964599609374,0,0,0.45864
3.1525716359901708,0,0,1.2856862915039062,0,0,0.53508
3.1556801209808327,0,0,1.1923124267578125,0,0,0.45864
3.1587859759747516,0,0,1.5059528442382812,0,0,0.99372
3.1618901819747407,0,0,1.5394716674804687,0,0,1.1465999999999998
3.165030443982687,0,0,1.3072341064453123,0,0,0.91728
3.1681334099848755,0,0,1.3048399047851562,0,0,0.45864
3.17123869099305,0,0,1.62805712890625,0,0,0.68796
3.1743446759937797,0,0,1.0749965454101562,0,0,0.45864
3.177451937983278,0,0,1.1133037719726562,0,0,0.3822
3.180582995992154,0,0,1.2401964599609374,0,0,1.07016
3.183688239980256,0,0,1.1707646118164061,0,0,1.37592
3.1867948540020734,0,0,1.1563994018554686,0,0,1.1465999999999998
3.1899002459831536,0,0,1.2952630981445312,0,0,0.6115200000000001
3.1930312859767582,0,0,1.37906015625,0,0,1.1465999999999998
3.1961344549781643,0,0,1.1085153686523437,0,0,0.3822
3.1992399399750866,0,0,1.4030021728515625,0,0,0.45864
3.202344646997517,0,0,1.4245499877929686,0,0,1.2230400000000001
3.2054659639834426,0,0,1.0893617553710937,0,0,1.07016
3.208572818984976,0,0,1.3215993164062498,0,0,0.7644
3.2116761739889625,0,0,1.4341267944335936,0,0,0.7644
3.214782454975648,0,0,1.3670891479492187,0,0,1.2994800000000002
3.217887475999305,0,0,1.0031704956054688,0,0,0.22932
3.2209940899920184,0,0,1.3048399047851562,0,0,1.07016
3.224095833982574,0,0,1.2617442749023438,0,0,0.7644
3.227200188994175,0,0,1.1851298217773436,0,0,1.07016
3.2303073219954967,0,0,1.2713210815429687,0,0,0.30576000000000003
3.2334147130022757,0,0,1.3551181396484375,0,0,0.84084
3.236550271976739,0,0,1.1348515869140625,0,0,0.6115200000000001
3.239657589001581,0,0,1.4245499877929686,0,0,0.7644
3.2427634809864685,0,0,1.678335363769531,0,0,1.2994800000000002
3.245870502985781,0,0,1.3287819213867187,0,0,0.84084
3.24897494999459,0,0,1.3239935180664062,0,0,0.6115200000000001
3.252099471981637,0,0,1.5346832641601562,0,0,0.53508
3.255204307992244,0,0,1.2473790649414063,0,0,0.6115200000000001
3.258309458993608,0,0,1.1180921752929687,0,0,0.53508
3.2614173509937245,0,0,1.3335703247070312,0,0,1.1465999999999998
3.26454527999158,0,0,1.1947066284179686,0,0,0.84084
3.267682226985926,0,0,1.1540052001953125,0,0,0.3822
3.270786914974451,0,0,1.37906015625,0,0,0.15288000000000002
3.2738922139978968,0,0,1.4173673828125,0,0,0.45864
3.27699882799061,0,0,1.1037269653320312,0,0,0.7644
3.280100128002232,0,0,1.3263877197265623,0,0,0.91728
3.2832060199871194,0,0,1.618480322265625,0,0,1.37592
3.286379133001901,0,0,1.149216796875,0,0,0.6115200000000001
3.2894866729911882,0,0,1.2282254516601563,0,0,0.45864
3.2925903059949633,0,0,1.5179238525390624,0,0,0.6115200000000001
3.295694567990722,0,0,1.3407529296874998,0,0,0.6115200000000001
3.298799459997099,0,0,1.1324573852539062,0,0,0.84084
3.301905592001276,0,0,1.2928688964843749,0,0,1.07016
3.3050279099843465,0,0,1.1851298217773436,0,0,1.1465999999999998
3.3081318579788785,0,0,1.0749965454101562,0,0,-8.7906
3.311308044998441,0,0,1.2785036865234374,0,0,0.45864
3.3144744359888136,0,0,1.24498486328125,0,0,0.15288000000000002
3.3175762169994414,0,0,1.1156979736328125,0,0,0.3822
3.3207074599922635,0,0,1.35990654296875,0,0,0.99372
3.323844129976351,0,0,1.5825672973632812,0,0,1.5288
3.3269499109883327,0,0,1.2234370483398436,0,0,0.68796
3.3300550619896967,0,0,1.3144167114257812,0,0,0.3822
3.3331588610017207,0,0,1.6400281372070311,0,0,0.6115200000000001
3.3362621419946663,0,0,1.2569558715820313,0,0,0.7644
3.3393682739988435,0,0,1.0965443603515623,0,0,0.7644
3.3424762589856982,0,0,1.1875240234375,0,0,1.07016
3.3455759469943587,0,0,1.3455413330078123,0,0,1.2230400000000001
3.348751226993045,0,0,1.0797849487304687,0,0,0.0
3.35185597097734,0,0,1.2713210815429687,0,0,0.53508
3.3549583629937842,0,0,1.209071838378906,0,0,0.22932
3.358060532977106,0,0,1.216254443359375,0,0,0.53508
3.361164498986909,0,0,1.2880804931640624,0,0,0.68796
3.364300019980874,0,0,1.5873557006835937,0,0,1.2230400000000001
3.367430299986154,0,0,1.1611878051757811,0,0,1.07016
3.3705336739949416,0,0,1.209071838378906,0,0,0.53508
3.373636787990108,0,0,1.4413093994140624,0,0,0.45864
3.37673890197766,0,0,1.3192051147460937,0,0,0.22932
3.3798414609918837,0,0,1.2665326782226562,0,0,0.53508
3.382944166980451,0,0,1.3575123413085937,0,0,1.2230400000000001
3.3860705589759164,0,0,1.2641384765625,0,0,1.1465999999999998
3.3894100959878415,0,0,1.13006318359375,0,0,20
3.392687893996481,0,0,1.4915876342773438,0,0,0.99372
3.3958718399808276,0,0,1.2617442749023438,0,0,0.6115200000000001
3.398981342994375,0,0,1.2234370483398436,0,0,1.5288
3.4020823829923756,0,0,1.455674609375,0,0,0.30576000000000003
3.4052213489776477,0,0,1.446097802734375,0,0,0.7644
3.4083918699761853,0,0,1.158793603515625,0,0,0.91728
3.4114990389789455,0,0,1.2401964599609374,0,0,1.07016
3.4146066719840746,0,0,1.43652099609375,0,0,1.2230400000000001
3.4177466929832008,0,0,1.0845733520507812,0,0,0.68796
3.420856232987717,0,0,1.2761094848632812,0,0,0.84084
3.423959402978653,0,0,1.4341267944335936,0,0,0.84084
3.4270677949825767,0,0,1.3718775512695311,0,0,0.7644
3.43017440897529,0,0,1.2832920898437499,0,0,0.68796
3.4332823009754065,0,0,1.2593500732421874,0,0,0.99372
3.436384932982037,0,0,1.1156979736328125,0,0,0.7644
3.4394906029920094,0,0,1.1109095703125,0,0,1.07016
3.4425909019773826,0,0,1.4628572143554686,0,0,0.45864
3.4456931089807767,0,0,1.1348515869140625,0,0,2.4460800000000003
3.4488312039757147,0,0,1.2880804931640624,0,0,0.84084
3.451936225988902,0,0,1.4867992309570313,0,0,0.6115200000000001
3.455062654975336,0,0,1.6807295654296874,0,0,0.91728
3.4581688979815226,0,0,1.0941501586914062,0,0,0.68796
3.4612772899854463,0,0,1.13006318359375,0,0,0.84084
3.464380089979386,0,0,1.4867992309570313,0,0,0.84084
3.4675152959825937,0,0,1.5131354492187499,0,0,0.84084
3.470640020997962,0,0,1.1731588134765625,0,0,0.3822
3.473996279994026,0,0,1.3168109130859373,0,0,0.84084
3.4771016909799073,0,0,1.0749965454101562,0,0,0.91728
3.480200508987764,0,0,1.2593500732421874,0,0,0.6115200000000001
3.4833007339912,0,0,1.4891934326171874,0,0,0.45864
3.486419680994004,0,0,1.3527239379882812,0,0,0.07644000000000001
3.4895346099801827,0,0,1.1468225952148436,0,0,0.53508
3.4926827419840265,0,0,1.3862427612304686,0,0,0.99372
3.4957972269912716,0,0,1.388636962890625,0,0,1.2230400000000001
3.498911358998157,0,0,1.1875240234375,0,0,0.84084
3.5020217139972374,0,0,1.2880804931640624,0,0,0.30576000000000003
3.5053075479809195,0,0,1.4030021728515625,0,0,0.84084
3.5087179179827217,0,0,1.0749965454101562,0,0,0.7644
3.5118216249975376,0,0,1.1875240234375,0,0,0.91728
3.5149207759823184,0,0,1.458068811035156,0,0,0.91728
3.5180244279908948,0,0,1.3120225097656248,0,0,1.2230400000000001
3.521122337988345,0,0,1.0893617553710937,0,0,0.0
3.5242176369938534,0,0,1.2928688964843749,0,0,1.1465999999999998
3.527338954998413,0,0,1.0941501586914062,0,0,0.45864
3.5304560879885685,0,0,1.1109095703125,0,0,1.1465999999999998
3.5335735349799506,0,0,1.3551181396484375,0,0,0.7644
3.536686278996058,0,0,1.3335703247070312,0,0,0.99372
3.5397807999979705,0,0,1.1707646118164061,0,0,0.45864
3.5428986919869203,0,0,1.3455413330078123,0,0,0.22932
3.5460134169843514,0,0,1.4125789794921875,0,0,0.6115200000000001
3.5491154569899663,0,0,1.3551181396484375,0,0,0.53508
3.552210200985428,0,0,1.1827356201171875,0,0,1.2994800000000002
3.5553053339826874,0,0,1.3096283081054687,0,0,0.91728
3.558417317981366,0,0,1.3383587280273437,0,0,0.6115200000000001
3.5619633899768814,0,0,1.0989385620117187,0,0,0.7644
3.5652728359855246,0,0,1.24498486328125,0,0,0.68796
3.56856491099461,0,0,1.2641384765625,0,0,1.2230400000000001
3.5715059709909838,0,0,1.1563994018554686,0,0,1.07016
3.5743055699858814,0,0,1.419761584472656,0,0,0.7644
3.577110816986533,0,0,1.5035586425781249,0,0,1.2994800000000002
3.5799000639817677,0,0,1.1540052001953125,0,0,0.53508
3.5826964779989794,0,0,1.2808978881835937,0,0,0.7644
3.585538335988531,0,0,1.5298948608398437,0,0,0.99372
3.5883365829940885,0,0,1.2306196533203124,0,0,0.45864
3.5911321999737993,0,0,1.1563994018554686,0,0,0.68796
3.5939286699867807,0,0,1.3120225097656248,0,0,0.7644
3.596750490978593,0,0,1.678335363769531,0,0,0.6115200000000001
3.599545422999654,0,0,1.1180921752929687,0,0,0.53508
3.602340410987381,0,0,1.1061211669921875,0,0,1.45236
3.6051354729861487,0,0,1.39821376953125,0,0,0.45864
3.6079284789739177,0,0,1.3024457031249999,0,0,0.7644
3.610723596997559,0,0,1.1252747802734375,0,0,0.84084
3.6135219739808235,0,0,1.3862427612304686,0,0,0.53508
3.616314294980839,0,0,1.2665326782226562,0,0,0.91728
3.619109134975588,0,0,1.3718775512695311,0,0,0.99372
3.6219026779872365,0,0,1.0510545288085937,0,0,0.91728
3.624702406988945,0,0,1.3958195678710936,0,0,1.2230400000000001
3.627500467991922,0,0,1.3335703247070312,0,0,0.91728
3.6302961600013077,0,0,1.1133037719726562,0,0,0.22932
3.6330916289880406,0,0,1.2210428466796874,0,0,0.22932
3.635885283991229,0,0,1.2856862915039062,0,0,0.99372
3.638702326978091,0,0,1.177947216796875,0,0,0.53508
3.64149924099911,0,0,1.235408056640625,0,0,0.53508
3.644294728990644,0,0,1.3646949462890625,0,0,0.45864
3.647086364973802,0,0,1.3958195678710936,0,0,0.3822
3.6499143339751754,0,0,1.1516109985351561,0,0,0.99372
3.6527146179869305,0,0,1.1180921752929687,0,0,0.15288000000000002
3.655511790973833,0,0,1.2808978881835937,0,0,0.84084
3.658308630983811,0,0,1.2785036865234374,0,0,1.37592
3.6611063779855613,0,0,1.149216796875,0,0,0.99372
3.6638996249821503,0,0,1.22583125,0,0,0.7644
3.6666954279935453,0,0,1.4987702392578124,0,0,1.07016
3.6695750809740275,0,0,1.2569558715820313,0,0,1.37592
3.672662639990449,0,0,1.1755530151367186,0,0,0.68796
3.675781272992026,0,0,1.24498486328125,0,0,0.84084
3.678894460987067,0,0,1.2425906616210938,0,0,0.7644
3.6820074819843285,0,0,1.1252747802734375,0,0,0.6115200000000001
3.685121984977741,0,0,1.407790576171875,0,0,0.7644
3.6882332469976973,0,0,1.618480322265625,0,0,0.99372
3.6913469169812743,0,0,1.209071838378906,0,0,0.7644
3.6944598089903593,0,0,1.2808978881835937,0,0,0.7644
3.6975734229781665,0,0,1.4245499877929686,0,0,0.07644000000000001
3.700686814991059,0,0,1.2473790649414063,0,0,0.6115200000000001
3.703799076989526,0,0,1.1731588134765625,0,0,0.07644000000000001
3.706946763995802,0,0,1.2952630981445312,0,0,0.68796
3.7100671929947566,0,0,1.3335703247070312,0,0,0.68796
3.7131868439901154,0,0,1.0917559570312498,0,0,0.30576000000000003
3.716308716975618,0,0,1.3455413330078123,0,0,0.84084
3.7194222759862896,0,0,1.3215993164062498,0,0,0.53508
3.72255274199415,0,0,1.3407529296874998,0,0,0.30576000000000003
3.7256669299968053,0,0,1.4149731811523436,0,0,0.91728
3.7288309879950248,0,0,1.637633935546875,0,0,1.1465999999999998
3.7319684349931777,0,0,1.1444283935546875,0,0,0.99372
3.735083177976776,0,0,1.2425906616210938,0,0,0.3822
3.738197033002507,0,0,1.448492004394531,0,0,0.45864
3.7413122769794427,0,0,1.199495031738281,0,0,0.07644000000000001
3.7444237799791154,0,0,1.254561669921875,0,0,0.68796
3.7475324679980986,0,0,1.2521674682617188,0,0,1.07016
3.7506758779927623,0,0,1.2665326782226562,0,0,0.68796
3.7537941949849483,0,0,1.1563994018554686,0,0,-9.09636
3.7569138089893386,0,0,1.2425906616210938,0,0,0.99372
3.7600280350015964,0,0,1.2401964599609374,0,0,0.3822
3.763142555981176,0,0,1.1252747802734375,0,0,0.6115200000000001
3.766246132989181,0,0,1.4700398193359374,0,0,0.84084
3.7693890429800376,0,0,1.2785036865234374,0,0,1.5288
3.7725048049760517,0,0,1.0989385620117187,0,0,0.7644
3.7756403259991203,0,0,1.3718775512695311,0,0,0.45864
3.778755736973835,0,0,1.6639701538085936,0,0,0.53508
3.7818706659891177,0,0,1.120486376953125,0,0,0.3822
3.784989390987903,0,0,1.177947216796875,0,0,1.2230400000000001
3.7881029860000126,0,0,1.3623007446289062,0,0,0.84084
3.79121819298598,0,0,1.254561669921875,0,0,1.1465999999999998
3.7943324919906445,0,0,1.1180921752929687,0,0,0.45864
3.7974481059936807,0,0,1.3239935180664062,0,0,0.91728
3.800563571974635,0,0,1.149216796875,0,0,0.22932
3.8036778339883313,0,0,1.1228805786132812,0,0,0.6115200000000001
3.806796928984113,0,0,1.446097802734375,0,0,0.99372
3.8099136909877416,0,0,1.448492004394531,0,0,1.1465999999999998
3.814825026987819,0,0,1.1923124267578125,0,0,0.30576000000000003
3.817962639994221,0,0,1.5251064575195312,0,0,0.84084
3.82108040197636,0,0,1.2306196533203124,0,0,0.53508
3.8241930909862276,0,0,1.1228805786132812,0,0,1.2994800000000002
3.8273075929901097,0,0,1.4987702392578124,0,0,0.68796
3.8304262809979264,0,0,1.3072341064453123,0,0,0.84084
3.8335757839959115,0,0,1.1947066284179686,0,0,0.84084
3.83669095399091,0,0,1.3120225097656248,0,0,0.53508
3.839823455986334,0,0,1.5083470458984374,0,0,1.07016
3.8429375150008127,0,0,1.3000515014648437,0,0,-9.47856
3.8460519619984552,0,0,1.1037269653320312,0,0,0.84084
3.849194112990517,0,0,1.4125789794921875,0,0,2.4460800000000003
3.8523158929892816,0,0,1.3048399047851562,0,0,0.91728
3.8554306929872837,0,0,1.13006318359375,0,0,0.07644000000000001
3.8585454729909543,0,0,1.2425906616210938,0,0,0.68796
3.8616673839860596,0,0,1.0917559570312498,0,0,0.7644
3.8648177379800472,0,0,1.1180921752929687,0,0,0.84084
3.867931703978684,0,0,1.426944189453125,0,0,0.91728
3.871080446988344,0,0,1.39821376953125,0,0,0.91728
3.874194264994003,0,0,1.1276689819335937,0,0,0.45864
3.877309952978976,0,0,1.5083470458984374,0,0,0.53508
3.8804217709985096,0,0,1.448492004394531,0,0,0.84084
3.8835376809875015,0,0,1.1875240234375,0,0,0.53508
3.886662960983813,0,0,1.2832920898437499,0,0,0.99372
3.8897791499912273,0,0,1.2378022583007813,0,0,0.6115200000000001
3.8928940409969073,0,0,1.3263877197265623,0,0,0.84084
3.8960059519740753,0,0,1.0845733520507812,0,0,0.0
3.899118176981574,0,0,1.369483349609375,0,0,0.6115200000000001
3.9022307169798296,0,0,1.1372457885742187,0,0,0.68796
3.905345311999554,0,0,1.1061211669921875,0,0,1.2230400000000001
3.908476147975307,0,0,1.4891934326171874,0,0,0.30576000000000003
3.911586798989447,0,0,1.3359645263671873,0,0,0.7644
3.91470296899206,0,0,1.13006318359375,0,0,0.7644
3.917816712986678,0,0,1.350329736328125,0,0,0.7644
3.920928677980555,0,0,1.426944189453125,0,0,0.91728
3.924041551974369,0,0,1.1947066284179686,0,0,0.53508
3.927155535988277,0,0,1.2282254516601563,0,0,1.07016
3.9302945759845898,0,0,1.458068811035156,0,0,0.45864
3.9334112639771774,0,0,1.1156979736328125,0,0,0.84084
3.9365594889968634,0,0,1.177947216796875,0,0,0.0
3.9396738249924965,0,0,1.2689268798828124,0,0,0.68796
3.9427855129761156,0,0,1.139639990234375,0,0,0.6115200000000001
3.9458956269954797,0,0,1.3527239379882812,0,0,0.99372
3.949056628975086,0,0,1.4939818359375,0,0,0.7644
3.9521742799843196,0,0,1.1276689819335937,0,0,1.07016
3.9552900059788954,0,0,1.2737152832031249,0,0,0.3822
3.9584056199819315,0,0,1.35990654296875,0,0,0.68796
3.9615221779968124,0,0,1.5538368774414062,0,0,0.7644
3.9646649209898897,0,0,1.3024457031249999,0,0,2.14032
3.9677817019983195,0,0,1.3024457031249999,0,0,1.07016
3.9709500189928804,0,0,1.369483349609375,0,0,0.7644
3.9740679659880698,0,0,1.1180921752929687,0,0,-0.53508
3.9771887289825827,0,0,1.1635820068359375,0,0,0.07644000000000001
3.9803036939993035,0,0,1.5203180541992187,0,0,1.1465999999999998
3.98341901198728,0,0,1.2210428466796874,0,0,0.53508
3.986534033989301,0,0,1.2641384765625,0,0,0.84084
3.989650203002384,0,0,1.350329736328125,0,0,0.68796
3.992793076002272,0,0,1.4891934326171874,0,0,1.07016
3.9959071349876467,0,0,1.1875240234375,0,0,0.91728
3.9990220999752637,0,0,1.4628572143554686,0,0,0.6115200000000001
4.002136584982509,0,0,1.4532804077148436,0,0,0.7644
4.005253809998976,0,0,1.139639990234375,0,0,0.84084
4.008366590976948,0,0,1.235408056640625,0,0,1.07016
4.01155338899116,0,0,1.438915197753906,0,0,-9.172799999999999
4.014711113995872,0,0,1.2713210815429687,0,0,0.45864
4.0178153199958615,0,0,1.2210428466796874,0,0,0.07644000000000001
4.020923841977492,0,0,1.350329736328125,0,0,1.07016
4.02403593697818,0,0,1.2306196533203124,0,0,0.84084
4.027148328983458,0,0,0.93852705078125,0,0,1.1465999999999998
4.030283201980637,0,0,1.4125789794921875,0,0,0.7644
4.03339683500235,0,0,1.2306196533203124,0,0,0.45864
4.037049812992336,0,0,1.1276689819335937,0,0,1.1465999999999998
4.040195926994784,0,0,1.4437036010742186,0,0,0.53508
4.043410780985141,0,0,1.3383587280273437,0,0,1.07016
4.046533246000763,0,0,1.0749965454101562,0,0,0.45864
4.049677100992994,0,0,1.2952630981445312,0,0,0.84084
4.052799511002377,0,0,1.4221557861328125,0,0,0.68796
4.0559215509856585,0,0,1.197100830078125,0,0,0.45864
4.059034608973889,0,0,1.2856862915039062,0,0,0.6115200000000001
4.0621635189745575,0,0,1.5179238525390624,0,0,0.3822
4.065589481993811,0,0,1.2569558715820313,0,0,0.15288000000000002
4.068721798976185,0,0,1.1372457885742187,0,0,0.99372
4.071945819974644,0,0,1.388636962890625,0,0,1.2230400000000001
4.074888157978421,0,0,1.3072341064453123,0,0,0.84084
4.077685478987405,0,0,1.13006318359375,0,0,0.68796
4.080481429991778,0,0,1.3431471313476562,0,0,0.84084
4.0832791029824875,0,0,1.608903515625,0,0,0.45864
4.086076090985443,0,0,1.0869675537109373,0,0,0.53508
4.08892674499657,0,0,1.216254443359375,0,0,0.0
4.091745361976791,0,0,1.4413093994140624,0,0,0.45864
4.094530238973675,0,0,1.2713210815429687,0,0,0.53508
4.097327374998713,0,0,1.120486376953125,0,0,0.45864
4.100160973001039,0,0,1.2425906616210938,0,0,0.53508
4.102947387000313,0,0,1.5801730957031248,0,0,0.68796
4.1057884490001015,0,0,1.2928688964843749,0,0,0.68796
4.10887897000066,0,0,1.199495031738281,0,0,0.45864
4.111664347001351,0,0,1.5275006591796874,0,0,0.91728
4.114483315992402,0,0,1.5083470458984374,0,0,0.53508
4.1172679529991,0,0,1.0726023437499999,0,0,0.91728
4.120047606993467,0,0,1.3287819213867187,0,0,1.2230400000000001
4.122873186977813,0,0,1.4724340209960938,0,0,0.91728
4.125670174980769,0,0,1.3766659545898436,0,0,0.45864
4.128465607995167,0,0,1.3048399047851562,0,0,1.2230400000000001
4.1312612619949505,0,0,1.4915876342773438,0,0,0.91728
4.134060675976798,0,0,1.6232687255859375,0,0,0.6115200000000001
4.136857385979965,0,0,1.197100830078125,0,0,0.30576000000000003
4.139652540994575,0,0,1.0893617553710937,0,0,0.07644000000000001
4.1424750839942135,0,0,1.3096283081054687,0,0,0.7644
4.145272867986932,0,0,1.0773907470703123,0,0,0.22932
4.1480962809873745,0,0,1.3239935180664062,0,0,0.99372
4.150895509985276,0,0,1.3239935180664062,0,0,0.3822
4.153692460997263,0,0,1.6065093139648436,0,0,0.7644
4.156488170992816,0,0,1.3670891479492187,0,0,1.07016
4.159286695998162,0,0,1.199495031738281,0,0,0.68796
4.162079886998981,0,0,1.2569558715820313,0,0,0.6115200000000001
4.164922355994349,0,0,1.2737152832031249,0,0,1.2230400000000001
4.167720658995677,0,0,1.1228805786132812,0,0,0.7644
4.170515961974161,0,0,1.1061211669921875,0,0,0.6115200000000001
4.173402873973828,0,0,1.3192051147460937,0,0,0.99372
4.176461581984768,0,0,1.350329736328125,0,0,0.7644
4.179575658985414,0,0,1.1228805786132812,0,0,0.22932
4.182694679999258,0,0,1.3072341064453123,0,0,0.84084
4.185852867987705,0,0,1.120486376953125,0,0,0.53508
4.188971110997954,0,0,1.2689268798828124,0,0,0.7644
4.192083613976138,0,0,1.6328455322265625,0,0,0.7644
4.195197820983594,0,0,1.3934253662109375,0,0,1.5288
4.198313693981618,0,0,1.197100830078125,0,0,1.1465999999999998
4.201427733991295,0,0,1.0797849487304687,0,0,0.68796
4.204571273992769,0,0,1.3814543579101561,0,0,0.45864
4.207686961977743,0,0,1.1923124267578125,0,0,0.45864
4.210799093998503,0,0,1.2378022583007813,0,0,0.7644
4.21391294899513,0,0,1.4173673828125,0,0,0.91728
4.217056043999037,0,0,1.3455413330078123,0,0,1.07016
4.220167972991476,0,0,1.1635820068359375,0,0,0.15288000000000002
4.223300308978651,0,0,1.2808978881835937,0,0,0.99372
4.226413885975489,0,0,1.35990654296875,0,0,0.0
4.229529462987557,0,0,1.216254443359375,0,0,0.7644
4.2326782059972174,0,0,1.4867992309570313,0,0,0.30576000000000003
4.23579130199505,0,0,1.254561669921875,0,0,1.2994800000000002
4.238904378988082,0,0,1.0917559570312498,0,0,0.7644
4.242017381999176,0,0,1.2785036865234374,0,0,0.6115200000000001
4.245131439995021,0,0,1.66636435546875,0,0,0.68796
4.248243238980649,0,0,1.1372457885742187,0,0,0.6115200000000001
4.2513575939810835,0,0,1.1755530151367186,0,0,0.84084
4.254471466992982,0,0,1.2497732666015624,0,0,0.7644
4.257583117985632,0,0,1.3263877197265623,0,0,1.07016
4.2606980099808425,0,0,1.0869675537109373,0,0,0.22932
4.26381051298813,0,0,1.3287819213867187,0,0,0.53508
4.266923848976148,0,0,1.3096283081054687,0,0,0.3822
4.270038260001456,0,0,1.177947216796875,0,0,1.1465999999999998
4.273180632997537,0,0,1.4867992309570313,0,0,0.7644
4.276293061993783,0,0,1.6831237670898436,0,0,1.37592
4.279407249996439,0,0,1.20667763671875,0,0,0.99372
4.282519659987884,0,0,1.429338391113281,0,0,0.53508
4.285634162981296,0,0,1.599326708984375,0,0,0.53508
4.288748961989768,0,0,1.3766659545898436,0,0,0.30576000000000003
4.291863149992423,0,0,1.1635820068359375,0,0,0.91728
4.29497735699988,0,0,1.3742717529296875,0,0,0.84084
4.298090562981088,0,0,1.3048399047851562,0,0,0.84084
4.301204732997576,0,0,1.1037269653320312,0,0,0.22932
4.304315679997671,0,0,1.35990654296875,0,0,1.1465999999999998
4.307938732992625,0,0,1.139639990234375,0,0,0.7644
4.311199752992252,0,0,1.1228805786132812,0,0,20
4.3158708499977365,0,0,1.6543933471679686,0,0,0.6115200000000001
4.319010704988614,0,0,1.2808978881835937,0,0,0.22932
4.322113244998036,0,0,1.1180921752929687,0,0,1.1465999999999998
4.325215136981569,0,0,1.2952630981445312,0,0,0.84084
4.328311453980859,0,0,1.3551181396484375,0,0,1.2230400000000001
4.331408957979875,0,0,1.1947066284179686,0,0,0.91728
4.334506774990587,0,0,1.2904746948242187,0,0,0.6115200000000001
4.337616926990449,0,0,1.209071838378906,0,0,0.91728
4.340731632983079,0,0,1.3096283081054687,0,0,0.45864
4.343844265997177,0,0,1.5275006591796874,0,0,1.07016
4.346957508998457,0,0,1.6400281372070311,0,0,0.99372
4.350071622990072,0,0,1.1540052001953125,0,0,0.6115200000000001
4.353187478001928,0,0,1.2737152832031249,0,0,0.91728
4.356323610001709,0,0,1.3048399047851562,0,0,0.6115200000000001
4.359439723979449,0,0,1.2401964599609374,0,0,0.15288000000000002
4.362552504986525,0,0,1.0726023437499999,0,0,0.3822
4.365667970996583,0,0,1.1276689819335937,0,0,0.91728
4.36880936200032,0,0,1.3192051147460937,0,0,1.1465999999999998
4.371926161984447,0,0,1.1133037719726562,0,0,0.6115200000000001
4.375047849986004,0,0,1.448492004394531,0,0,0.68796
4.378201721992809,0,0,1.2569558715820313,0,0,0.68796
4.381317947991192,0,0,1.2234370483398436,0,0,0.53508
4.384431172977202,0,0,1.43652099609375,0,0,0.53508
4.387648377974983,0,0,1.5155296508789062,0,0,1.2230400000000001
4.3909478609857615,0,0,1.3383587280273437,0,0,0.84084
4.394141992001096,0,0,1.3455413330078123,0,0,0.91728
4.39729271698161,0,0,1.678335363769531,0,0,0.6115200000000001
4.400388886977453,0,0,1.235408056640625,0,0,0.45864
4.403508500981843,0,0,1.1444283935546875,0,0,1.07016
4.406811778986594,0,0,1.3910311645507811,0,0,0.45864
4.409957188996486,0,0,1.455674609375,0,0,0.6115200000000001
4.413070876995334,0,0,1.149216796875,0,0,0.0
4.416207731992472,0,0,1.3551181396484375,0,0,1.07016
4.419317641993985,0,0,1.1635820068359375,0,0,0.6115200000000001
4.422426440985873,0,0,1.1468225952148436,0,0,0.99372
4.4255389259778894,0,0,1.5227122558593749,0,0,0.7644
4.428680446988437,0,0,1.4963760375976562,0,0,1.07016
4.431787930981955,0,0,1.1731588134765625,0,0,0.68796
4.434895489976043,0,0,1.2928688964843749,0,0,0.91728
4.438006177981151,0,0,1.4628572143554686,0,0,1.2994800000000002
4.441112200001953,0,0,1.0845733520507812,0,0,0.3822
4.444217999000102,0,0,1.0965443603515623,0,0,0.7644
4.447309871990001,0,0,1.6400281372070311,0,0,0.68796
4.450574280985165,0,0,1.139639990234375,0,0,0.22932
4.453683783998713,0,0,1.197100830078125,0,0,0.0
4.456813730997965,0,0,1.24498486328125,0,0,0.91728
4.459920030989451,0,0,1.177947216796875,0,0,0.68796
4.463026940997224,0,0,1.16837041015625,0,0,1.07016
4.466117536998354,0,0,1.2904746948242187,0,0,2.06388
4.469222779996926,0,0,1.4125789794921875,0,0,0.99372
4.472905609989539,0,0,1.216254443359375,0,0,1.07016
4.4759575399803,0,0,1.4987702392578124,0,0,1.07016
4.47874773197691,0,0,1.618480322265625,0,0,0.99372
4.481541163986549,0,0,1.1228805786132812,0,0,0.6115200000000001
4.48435418898589,0,0,1.2521674682617188,0,0,0.0
4.487179397983709,0,0,1.4820108276367188,0,0,0.99372
4.489968848996796,0,0,1.35990654296875,0,0,0.6115200000000001
4.4927871149848215,0,0,1.1372457885742187,0,0,0.68796
4.495576157991309,0,0,1.2593500732421874,0,0,0.45864
4.498365053994348,0,0,1.6232687255859375,0,0,0.6115200000000001
