Time,AccelX1,AccelY1,AccelZ1,AccelX2,AccelY2,AccelZ2
5.870999302715063e-06,0,0,1.5298948608398437,0,0,0.6115200000000001
0.003696738014696166,0,0,1.1037269653320312,0,0,0.6115200000000001
0.008619461004855111,0,0,1.3742717529296875,0,0,0.91728
0.012157830002252012,0,0,1.5107412475585937,0,0,0.84084
0.015676587005145848,0,0,1.1659762084960936,0,0,1.2230400000000001
0.019200160022592172,0,0,1.3000515014648437,0,0,0.84084
0.0227193990140222,0,0,1.6735469604492186,0,0,0.7644
0.02700390701647848,0,0,1.2473790649414063,0,0,0.7644
0.030737903027329594,0,0,1.446097802734375,0,0,0.99372
0.034373011003481224,0,0,1.3623007446289062,0,0,1.2230400000000001
0.037897676025750116,0,0,1.3551181396484375,0,0,1.45236
0.041417175001697615,0,0,1.5155296508789062,0,0,0.7644
0.04500206100055948,0,0,1.1085153686523437,0,0,0.91728
0.04851933702593669,0,0,1.3311761230468748,0,0,0.53508
0.052038095018360764,0,0,1.2904746948242187,0,0,1.1465999999999998
0.055552260018885136,0,0,1.0917559570312498,0,0,0.91728
0.059119554003700614,0,0,1.3144167114257812,0,0,0.30576000000000003
0.06276429200079292,0,0,1.0797849487304687,0,0,0.91728
0.06594942402443849,0,0,1.0773907470703123,0,0,1.07016
0.06928775701089762,0,0,1.3766659545898436,0,0,0.99372
0.07251770302536897,0,0,1.5155296508789062,0,0,0.7644
0.07569640901056118,0,0,1.1085153686523437,0,0,0.99372
0.07882046702434309,0,0,1.4891934326171874,0,0,0.7644
0.08194282202748582,0,0,1.3263877197265623,0,0,0.91728
0.08506363900960423,0,0,1.5322890624999999,0,0,0.7644
0.0881847900163848,0,0,1.2114660400390624,0,0,0.91728
0.09130012601963244,0,0,1.2713210815429687,0,0,0.84084
0.0944165920082014,0,0,1.1037269653320312,0,0,1.07016
0.09753500201622956,0,0,1.1563994018554686,0,0,0.6115200000000001
0.10065452300477773,0,0,1.2713210815429687,0,0,-0.30576000000000003
0.10377154502202757,0,0,1.35990654296875,0,0,0.7644
0.1068689740204718,0,0,1.1923124267578125,0,0,0.6115200000000001
0.10996771702775732,0,0,1.350329736328125,0,0,1.1465999999999998
0.11308518302394077,0,0,1.43652099609375,0,0,0.91728
0.1162048340192996,0,0,1.4700398193359374,0,0,1.2230400000000001
0.1193225960014388,0,0,1.1707646118164061,0,0,0.99372
0.12243902502814308,0,0,1.3000515014648437,0,0,0.53508
0.12555782400886528,0,0,1.5011644409179687,0,0,0.53508
0.1286884930159431,0,0,1.1923124267578125,0,0,0.7644
0.13184405100764707,0,0,1.3168109130859373,0,0,0.30576000000000003
0.1349607570155058,0,0,1.2138602416992186,0,0,0.91728
0.1380781120096799,0,0,1.2114660400390624,0,0,1.1465999999999998
0.14119463300448842,0,0,1.2330138549804688,0,0,1.2994800000000002
0.14431304301251657,0,0,1.5179238525390624,0,0,0.68796
0.14742634200956672,0,0,1.465251416015625,0,0,0.99372
0.1505425860232208,0,0,1.3407529296874998,0,0,0.6115200000000001
0.15365966301760636,0,0,1.4820108276367188,0,0,0.91728
0.15680492500541732,0,0,1.4700398193359374,0,0,0.53508
0.15992305701365694,0,0,1.0797849487304687,0,0,0.99372
0.16307150400825776,0,0,1.3551181396484375,0,0,0.91728
0.16618837701389566,0,0,1.3718775512695311,0,0,1.07016
0.16930515700369142,0,0,1.0773907470703123,0,0,0.99372
0.17242266001994722,0,0,1.2569558715820313,0,0,1.07016
0.1755480150168296,0,0,1.2952630981445312,0,0,0.7644
0.17869768402306363,0,0,1.0989385620117187,0,0,0.84084
0.1818232049990911,0,0,1.2880804931640624,0,0,0.7644
0.18494148601894267,0,0,1.5131354492187499,0,0,0.84084
0.18805952501134016,0,0,1.4030021728515625,0,0,1.1465999999999998
0.19117401001858525,0,0,1.13006318359375,0,0,0.91728
0.19431227102177218,0,0,1.3551181396484375,0,0,1.2230400000000001
0.1974293300008867,0,0,1.4030021728515625,0,0,1.1465999999999998
0.20054703601635993,0,0,1.3455413330078123,0,0,0.84084
0.20366283500334248,0,0,1.2737152832031249,0,0,0.22932
0.20677935701678507,0,0,1.2713210815429687,0,0,0.53508
0.20989491502405144,0,0,1.1420341918945311,0,0,0.91728
0.21301260302425362,0,0,1.2521674682617188,0,0,1.2230400000000001
0.21613006902043708,0,0,1.4508862060546874,0,0,1.1465999999999998
0.21924416400725022,0,0,1.4532804077148436,0,0,0.91728
0.22236059300485067,0,0,1.35990654296875,0,0,0.91728
0.225478706008289,0,0,1.3910311645507811,0,0,1.07016
0.22860182001022622,0,0,1.3958195678710936,0,0,0.6115200000000001
0.2317287300247699,0,0,1.1037269653320312,0,0,0.7644
0.2348435660242103,0,0,1.3263877197265623,0,0,0.45864
0.23795903200516477,0,0,1.3623007446289062,0,0,0.91728
0.24107473902404308,0,0,1.0845733520507812,0,0,0.91728
0.24419157500960864,0,0,1.3742717529296875,0,0,1.60524
0.24730359599925578,0,0,1.4221557861328125,0,0,1.07016
0.2504245250020176,0,0,1.3766659545898436,0,0,1.1465999999999998
0.25353986100526527,0,0,1.3359645263671873,0,0,0.6115200000000001
0.2566579010162968,0,0,1.5179238525390624,0,0,0.84084
0.25981153300381266,0,0,1.3934253662109375,0,0,0.99372
0.26294538701768033,0,0,1.2665326782226562,0,0,0.6115200000000001
0.2660492600116413,0,0,1.3287819213867187,0,0,0.7644
0.2691697080153972,0,0,1.22583125,0,0,1.45236
0.27227765502175316,0,0,1.2737152832031249,0,0,0.68796
0.2753723250061739,0,0,1.1085153686523437,0,0,1.45236
0.2785417340055574,0,0,1.2641384765625,0,0,0.30576000000000003
0.28191497499938123,0,0,1.2473790649414063,0,0,1.07016
0.2850463850190863,0,0,1.2808978881835937,0,0,0.7644
0.28816851699957624,0,0,1.3287819213867187,0,0,1.07016
0.2912851870059967,0,0,1.3024457031249999,0,0,1.07016
0.2944029120262712,0,0,1.0989385620117187,0,0,1.2994800000000002
0.2975214140024036,0,0,1.3144167114257812,0,0,1.07016
0.3006483610079158,0,0,1.4628572143554686,0,0,0.84084
0.3037642530107405,0,0,1.3527239379882812,0,0,0.91728
0.3068804230133537,0,0,1.3192051147460937,0,0,0.0
0.309997481002938,0,0,1.3934253662109375,0,0,0.91728
0.3131145580264274,0,0,1.3335703247070312,0,0,0.7644
0.3162338750262279,0,0,1.3144167114257812,0,0,0.84084
0.3193483780196402,0,0,1.5203180541992187,0,0,0.7644
0.3224664920126088,0,0,1.3646949462890625,0,0,1.2230400000000001
0.3256184390047565,0,0,1.1923124267578125,0,0,0.84084
0.32874210801674053,0,0,1.3144167114257812,0,0,0.84084
0.3318682220124174,0,0,1.2593500732421874,0,0,0.22932
0.3351976110134274,0,0,1.2018892333984375,0,0,0.91728
0.3384168350021355,0,0,1.3215993164062498,0,0,0.99372
0.3416423550224863,0,0,1.1420341918945311,0,0,1.07016
0.34487489401362836,0,0,1.3527239379882812,0,0,0.6115200000000001
0.34801293301279657,0,0,1.1013327636718748,0,0,0.6115200000000001
0.3511331770278048,0,0,1.1659762084960936,0,0,0.84084
0.3542357539990917,0,0,1.1013327636718748,0,0,0.68796
0.35735334901255555,0,0,1.35990654296875,0,0,1.2230400000000001
0.3604629260080401,0,0,1.4006079711914061,0,0,0.7644
0.36365550200571306,0,0,1.446097802734375,0,0,1.1465999999999998
0.3667769490275532,0,0,1.1228805786132812,0,0,0.68796
0.36989454401191324,0,0,1.4724340209960938,0,0,0.68796
0.373013066011481,0,0,1.2808978881835937,0,0,0.3822
0.3761625500046648,0,0,1.1133037719726562,0,0,0.53508
0.37928071900387295,0,0,1.2497732666015624,0,0,0.45864
0.382398722023936,0,0,1.0869675537109373,0,0,1.07016
0.3855185580032412,0,0,1.3168109130859373,0,0,1.2230400000000001
0.38863757901708595,0,0,1.254561669921875,0,0,1.60524
0.3917556000233162,0,0,1.4030021728515625,0,0,0.99372
0.39487495500361547,0,0,1.4125789794921875,0,0,0.99372
0.3979919020202942,0,0,1.1276689819335937,0,0,0.7644
0.40110947901848704,0,0,1.4820108276367188,0,0,1.07016
0.4042251860082615,0,0,1.649604943847656,0,0,0.45864
0.4073413360165432,0,0,1.2713210815429687,0,0,0.68796
0.41045848702196963,0,0,1.2593500732421874,0,0,1.1465999999999998
0.41357608302496374,0,0,1.3646949462890625,0,0,0.99372
0.4166957890265621,0,0,1.2497732666015624,0,0,0.6115200000000001
0.419852051010821,0,0,1.3359645263671873,0,0,2.4460800000000003
0.4229700720170513,0,0,1.426944189453125,0,0,0.99372
0.426088038017042,0,0,1.1875240234375,0,0,0.68796
0.42920585500542074,0,0,1.3551181396484375,0,0,0.68796
0.43232480200822465,0,0,1.484405029296875,0,0,1.1465999999999998
0.4354402500030119,0,0,1.4221557861328125,0,0,2.90472
0.43855677102692425,0,0,1.1156979736328125,0,0,0.91728
0.4416736630082596,0,0,1.3359645263671873,0,0,0.91728
0.44482007302576676,0,0,1.235408056640625,0,0,1.1465999999999998
0.44793889002176,0,0,1.0989385620117187,0,0,0.91728
0.45105404101195745,0,0,1.3215993164062498,0,0,-0.15288000000000002
0.454173673002515,0,0,1.3359645263671873,0,0,0.84084
0.45731521301786415,0,0,1.1468225952148436,0,0,0.7644
0.460441012022784,0,0,1.3144167114257812,0,0,1.1465999999999998
0.46364540301146917,0,0,1.4532804077148436,0,0,1.1465999999999998
0.466766590019688,0,0,1.455674609375,0,0,1.07016
0.4698665930191055,0,0,1.218648645019531,0,0,0.6115200000000001
0.47298496702569537,0,0,1.426944189453125,0,0,0.7644
0.4761126360099297,0,0,1.3934253662109375,0,0,0.53508
0.47920697202789597,0,0,1.2832920898437499,0,0,0.53508
0.48238938199938275,0,0,1.3215993164062498,0,0,0.53508
0.4855124580208212,0,0,1.2832920898437499,0,0,1.07016
0.4886347760038916,0,0,1.0893617553710937,0,0,0.91728
0.4917516680143308,0,0,1.235408056640625,0,0,1.1465999999999998
0.49486902201897465,0,0,1.47482822265625,0,0,0.68796
0.49798635800834745,0,0,1.1947066284179686,0,0,0.84084
0.5011035460047424,0,0,1.3168109130859373,0,0,0.53508
0.5138499990280252,0,0,1.3455413330078123,0,0,0.68796
0.5170868710265495,0,0,1.4532804077148436,0,0,0.53508
0.5202026330225635,0,0,1.1516109985351561,0,0,0.91728
0.5233023020264227,0,0,1.3431471313476562,0,0,0.0
0.5264049720135517,0,0,1.2785036865234374,0,0,1.07016
0.5295693260268308,0,0,1.20667763671875,0,0,0.99372
0.5327892900095321,0,0,1.3575123413085937,0,0,1.2994800000000002
0.5359424410271458,0,0,1.3551181396484375,0,0,0.7644
0.5390558880171739,0,0,1.1061211669921875,0,0,-9.09636
0.5429557710012887,0,0,1.1013327636718748,0,0,1.83456
0.5461162740248255,0,0,1.4820108276367188,0,0,1.37592
0.5492390910221729,0,0,1.3000515014648437,0,0,1.2994800000000002
0.5523588720243424,0,0,1.2593500732421874,0,0,0.68796
0.5554759850201663,0,0,1.235408056640625,0,0,0.45864
0.5585929700173438,0,0,1.465251416015625,0,0,0.45864
0.5617673240194563,0,0,1.3766659545898436,0,0,0.99372
0.5649855480005499,0,0,1.3239935180664062,0,0,0.45864
0.5678426090162247,0,0,1.199495031738281,0,0,0.7644
0.5706408930127509,0,0,1.216254443359375,0,0,0.3822
0.5734408990247175,0,0,1.2856862915039062,0,0,0.84084
0.5762403870176058,0,0,1.4341267944335936,0,0,0.68796
0.5790356890065596,0,0,1.4413093994140624,0,0,0.6115200000000001
0.5820408230065368,0,0,1.0965443603515623,0,0,0.53508
0.5850891779991798,0,0,1.3168109130859373,0,0,1.60524
0.5878998140105978,0,0,1.2617442749023438,0,0,0.7644
0.5906973200035281,0,0,1.2521674682617188,0,0,1.37592
0.5935102890070993,0,0,1.1659762084960936,0,0,2.98116
0.5963434430013876,0,0,1.3383587280273437,0,0,1.2230400000000001
0.5991410240239929,0,0,1.2521674682617188,0,0,1.1465999999999998
0.6019929370086174,0,0,1.1516109985351561,0,0,0.91728
0.6048033880069852,0,0,1.2234370483398436,0,0,0.99372
0.607603097014362,0,0,1.3934253662109375,0,0,0.91728
0.6104007150279358,0,0,1.5921441040039062,0,0,0.7644
0.6131956840108614,0,0,1.3144167114257812,0,0,0.6115200000000001
0.6161345220170915,0,0,1.2856862915039062,0,0,0.45864
0.6189543800137471,0,0,1.1133037719726562,0,0,0.7644
0.6217590529995505,0,0,1.438915197753906,0,0,1.07016
0.6245529300067574,0,0,1.1444283935546875,0,0,0.99372
0.6273355840239674,0,0,1.4604630126953124,0,0,0.99372
0.6301524980226532,0,0,1.2952630981445312,0,0,0.99372
0.632952745014336,0,0,1.1516109985351561,0,0,0.6115200000000001
0.6357523620245047,0,0,1.2282254516601563,0,0,0.68796
0.6385482760088053,0,0,1.5059528442382812,0,0,0.84084
0.6413604110130109,0,0,1.5394716674804687,0,0,0.6115200000000001
0.6441590470203664,0,0,1.2880804931640624,0,0,0.7644
0.6469516280048992,0,0,1.3383587280273437,0,0,0.53508
0.649747653020313,0,0,1.180341418457031,0,0,0.99372
0.6525440850236919,0,0,1.350329736328125,0,0,1.2230400000000001
0.655338702024892,0,0,1.3575123413085937,0,0,0.6115200000000001
0.6581341160053853,0,0,1.5083470458984374,0,0,1.2994800000000002
0.6612495260196738,0,0,1.2976572998046874,0,0,0.91728
0.6643416770093609,0,0,1.209071838378906,0,0,0.6115200000000001
0.667320404027123,0,0,1.2234370483398436,0,0,0.3822
0.6704188880103175,0,0,1.484405029296875,0,0,0.91728
0.6735469280101825,0,0,1.22583125,0,0,0.7644
0.6766439680068288,0,0,1.2761094848632812,0,0,0.53508
0.6797634710092098,0,0,1.5275006591796874,0,0,1.45236
0.6828583810129203,0,0,1.2306196533203124,0,0,0.99372
0.6859747910057195,0,0,1.3024457031249999,0,0,1.07016
0.6890872760268394,0,0,1.35990654296875,0,0,0.6115200000000001
0.6922369630192406,0,0,1.2497732666015624,0,0,1.07016
0.6953557810047641,0,0,1.1540052001953125,0,0,0.6115200000000001
0.6984703580092173,0,0,1.2904746948242187,0,0,0.15288000000000002
0.7015838600054849,0,0,1.467645617675781,0,0,1.07016
0.704699141002493,0,0,1.1444283935546875,0,0,0.7644
0.7078412180126179,0,0,1.3215993164062498,0,0,1.2230400000000001
0.7109554060152732,0,0,1.4628572143554686,0,0,0.68796
0.7140698710281868,0,0,1.2713210815429687,0,0,1.07016
0.7171831150189973,0,0,1.1085153686523437,0,0,0.7644
0.7203255620261189,0,0,1.2808978881835937,0,0,0.53508
0.7234376760025043,0,0,1.2617442749023438,0,0,0.6115200000000001
0.7265511230216362,0,0,1.3455413330078123,0,0,0.45864
0.7296722739993129,0,0,1.2378022583007813,0,0,1.5288
0.7328428320179228,0,0,1.3407529296874998,0,0,1.07016
0.7359650380094536,0,0,1.3335703247070312,0,0,1.07016
0.739082985004643,0,0,1.3575123413085937,0,0,1.2994800000000002
0.7422001180239022,0,0,1.2713210815429687,0,0,0.6115200000000001
0.7453160460281651,0,0,1.350329736328125,0,0,0.84084
0.7484341230010614,0,0,1.3431471313476562,0,0,0.84084
0.7515489780053031,0,0,1.4173673828125,0,0,1.07016
0.7546977210149635,0,0,1.2473790649414063,0,0,1.07016
0.757812890020432,0,0,1.3120225097656248,0,0,0.91728
0.7609296150039881,0,0,1.2976572998046874,0,0,1.07016
0.7640800070075784,0,0,1.3048399047851562,0,0,0.68796
0.7671952500240877,0,0,1.3024457031249999,0,0,-9.172799999999999
0.7703361970197875,0,0,1.3479355346679687,0,0,0.15288000000000002
0.7734531070163939,0,0,1.4915876342773438,0,0,1.37592
0.7765706659993157,0,0,1.1731588134765625,0,0,0.68796
0.7797138350142632,0,0,1.369483349609375,0,0,0.0
0.7840622130024713,0,0,1.1133037719726562,0,0,1.45236
0.7871757160173729,0,0,1.197100830078125,0,0,1.1465999999999998
0.7903025890118442,0,0,1.3096283081054687,0,0,1.45236
0.7934233320120256,0,0,1.4053963745117186,0,0,0.84084
0.7973135300271679,0,0,1.0917559570312498,0,0,1.1465999999999998
0.800478032004321,0,0,1.235408056640625,0,0,1.2994800000000002
0.803600091021508,0,0,1.5179238525390624,0,0,0.99372
0.8067186670086812,0,0,1.1755530151367186,0,0,1.1465999999999998
0.8098367260245141,0,0,1.24498486328125,0,0,0.53508
0.8129551170277409,0,0,1.3120225097656248,0,0,0.7644
0.8160725830239244,0,0,1.6208745239257811,0,0,0.45864
0.8191885120177176,0,0,1.3311761230468748,0,0,0.45864
0.8223102550255135,0,0,1.1109095703125,0,0,0.68796
0.8254979420162272,0,0,1.3168109130859373,0,0,1.2994800000000002
0.8286166670150124,0,0,1.3670891479492187,0,0,0.99372
0.8317385030095465,0,0,1.1827356201171875,0,0,1.2230400000000001
0.8348537840065546,0,0,1.2306196533203124,0,0,0.99372
0.8379692680027802,0,0,1.2234370483398436,0,0,0.68796
0.8410859560244717,0,0,1.2785036865234374,0,0,0.68796
0.8442036440246738,0,0,1.2904746948242187,0,0,0.91728
0.8473230360250454,0,0,1.5083470458984374,0,0,0.68796
0.8504413160262629,0,0,1.3287819213867187,0,0,1.07016
0.8535596710280515,0,0,1.43652099609375,0,0,0.7644
0.8566769330063835,0,0,1.3287819213867187,0,0,0.7644
0.859794973017415,0,0,1.2976572998046874,0,0,0.99372
0.8629973080242053,0,0,1.3168109130859373,0,0,0.53508
0.8661735320056323,0,0,1.4724340209960938,0,0,0.68796
0.8692876460263506,0,0,1.20667763671875,0,0,0.84084
0.8724052600155119,0,0,1.22583125,0,0,1.07016
0.8755301700148266,0,0,1.6448165405273436,0,0,2.5989600000000004
0.8786449690232985,0,0,1.9728221679687499,0,0,2.36964
0.8817629720142577,0,0,2.128445275878906,0,0,1.75812
0.884878512006253,0,0,2.8945898071289062,0,0,0.84084
0.8879968660185114,0,0,1.608903515625,0,0,0.30576000000000003
0.8911122210265603,0,0,1.4891934326171874,0,0,1.07016
0.8942306500102859,0,0,1.3287819213867187,0,0,0.68796
0.8973507260088809,0,0,1.7501614135742187,0,0,1.75812
0.90046602502116,0,0,2.2553379638671873,0,0,1.83456
0.9036175280052703,0,0,1.8076222534179687,0,0,2.2931999999999997
0.90673701200285,0,0,1.9919757812499999,0,0,1.2230400000000001
0.9098517190141138,0,0,1.697488977050781,0,0,1.1465999999999998
0.9129677770251874,0,0,1.668758557128906,0,0,0.99372
0.91608516901033,0,0,1.8602946899414061,0,0,1.37592
0.919198616000358,0,0,1.7334020019531249,0,0,0.68796
0.9223128220182844,0,0,1.675941162109375,0,0,1.5288
0.9254280470195226,0,0,2.300827795410156,0,0,3.66912
0.9285444950219244,0,0,1.2832920898437499,0,0,1.07016
0.9316601270111278,0,0,1.9488801513671874,0,0,1.2994800000000002
0.9347738330252469,0,0,1.3024457031249999,0,0,1.83456
0.9378889290092047,0,0,1.8746598999023436,0,0,1.98744
0.9410035800246987,0,0,2.0877438476562498,0,0,1.75812
0.9441235270060133,0,0,2.592920397949219,0,0,1.37592
0.9472375300247222,0,0,1.9105729248046874,0,0,1.60524
0.9503515330143273,0,0,1.5538368774414062,0,0,0.84084
0.9534992390254047,0,0,1.1444283935546875,0,0,1.2230400000000001
0.9566156670043711,0,0,1.3144167114257812,0,0,2.2931999999999997
0.9597322070039809,0,0,2.0661960327148434,0,0,2.2931999999999997
0.9640051420137752,0,0,1.4030021728515625,0,0,1.07016
0.9671297550085001,0,0,2.6503812377929687,0,0,1.45236
0.9702259250043426,0,0,1.7645266235351562,0,0,0.84084
0.9733202610223088,0,0,1.2210428466796874,0,0,1.98744
0.976425653003389,0,0,2.2457611572265623,0,0,1.75812
0.9795385080215055,0,0,0.7852981445312499,0,0,1.1465999999999998
0.9826266040035989,0,0,2.5474305664062498,0,0,1.75812
0.9857733100070618,0,0,1.8435352783203125,0,0,0.53508
0.9888797010062262,0,0,1.2306196533203124,0,0,1.1465999999999998
0.9919883150141686,0,0,2.6671406494140624,0,0,1.911
0.9950887260201853,0,0,1.5394716674804687,0,0,0.99372
0.9981989880034234,0,0,2.4947581298828125,0,0,0.6115200000000001
1.0013232130149845,0,0,1.7549498168945312,0,0,1.68168
1.004547825024929,0,0,1.9488801513671874,0,0,1.45236
1.0078329190146178,0,0,2.1116858642578125,0,0,2.52252
1.0110610690026078,0,0,2.042254016113281,0,0,1.45236
1.0142457930196542,0,0,1.6639701538085936,0,0,1.83456
1.0174807020230219,0,0,1.649604943847656,0,0,9.40212
1.0206979260256048,0,0,2.080561242675781,0,0,1.60524
1.0240402220224496,0,0,1.7788918334960937,0,0,2.6754
1.0271922430256382,0,0,1.8531120849609375,0,0,1.37592
1.0303940410085488,0,0,1.8315642700195311,0,0,8.25552
1.0337447820056695,0,0,1.8818425048828125,0,0,3.7455600000000002
1.0370750230213162,0,0,2.645592834472656,0,0,0.91728
1.0402836180001032,0,0,1.1611878051757811,0,0,0.22932
1.0434815640037414,0,0,2.2768857788085937,0,0,3.36336
1.0466787330224179,0,0,3.009511486816406,0,0,1.2994800000000002
1.0498682530014776,0,0,0.47884033203125,0,0,0.6115200000000001
1.053068366018124,0,0,1.149216796875,0,0,2.2931999999999997
1.0562683120078873,0,0,2.77727392578125,0,0,2.5989600000000004
1.0594987210060935,0,0,-0.1484405029296875,0,0,0.0
1.0627374080067966,0,0,3.071760729980469,0,0,2.14032
1.066033000999596,0,0,3.134009973144531,0,0,0.0
1.0690458760072943,0,0,-0.7661445312499999,0,0,9.24924
1.0712839440093376,0,0,2.530671154785156,0,0,0.6115200000000001
1.0735435300157405,0,0,2.7437551025390623,0,0,0.99372
1.0758139310055412,0,0,0.3687070556640625,0,0,9.40212
1.0780706650111824,0,0,-1.149216796875,0,0,0.53508
1.08063454402145,0,0,2.6216508178710938,0,0,1.1465999999999998
1.082852465013275,0,0,2.616862414550781,0,0,2.06388
1.0851300510112196,0,0,-0.7757213378906249,0,0,0.99372
1.0874949320277665,0,0,1.5490484741210937,0,0,1.07016
1.089733963017352,0,0,2.703053674316406,0,0,1.60524
1.0920554370095488,0,0,1.3527239379882812,0,0,-0.91728
1.0942501540121157,0,0,0.8595183959960937,0,0,0.15288000000000002
1.0965104620263446,0,0,2.454056701660156,0,0,1.911
1.098771178018069,0,0,2.4013842651367185,0,0,1.5288
1.1010415980126709,0,0,-0.18435352783203124,0,0,0.30576000000000003
1.1032614990253933,0,0,1.886630908203125,0,0,1.37592
1.105481716018403,0,0,3.028665100097656,0,0,1.83456
1.1077455430058762,0,0,1.2808978881835937,0,0,-0.45864
1.1100863320170902,0,0,0.33518823242187495,0,0,0.22932
1.1123486590222456,0,0,2.2601263671875,0,0,0.91728
1.1145360790251289,0,0,2.0877438476562498,0,0,0.99372
1.1166800560022239,0,0,0.15562310791015624,0,0,0.22932
1.118813217006391,0,0,0.8259995727539062,0,0,2.14032
1.1209544160228688,0,0,2.568978381347656,0,0,2.52252
1.123087337007746,0,0,1.218648645019531,0,0,1.2994800000000002
1.125221832015086,0,0,0.13407529296874998,0,0,0.7644
1.1273601420107298,0,0,2.0063409912109376,0,0,0.99372
1.1294974700140301,0,0,1.908178723144531,0,0,1.2994800000000002
1.1316296870063525,0,0,0.5123591552734374,0,0,-1.07016
1.1337641450227238,0,0,-0.34715924072265625,0,0,0.7644
1.1359000480151735,0,0,1.889025109863281,0,0,1.1465999999999998
1.1380311360117048,0,0,2.461239306640625,0,0,1.37592
1.1401636490190867,0,0,0.13646949462890623,0,0,-0.30576000000000003
1.1422946439997759,0,0,0.8595183959960937,0,0,-0.22932
1.1444829720130656,0,0,2.5067291381835934,0,0,1.911
1.1466152260254603,0,0,2.4684219116210935,0,0,1.07016
1.1487479810020886,0,0,0.3184288208007812,0,0,0.22932
1.1508785130281467,0,0,0.06464344482421874,0,0,0.3822
1.1530127670266666,0,0,1.695094775390625,0,0,1.75812
1.155143799027428,0,0,1.5059528442382812,0,0,1.45236
1.1572766280150972,0,0,0.12210428466796874,0,0,1.60524
1.159407289000228,0,0,1.6639701538085936,0,0,0.91728
1.1615529880218673,0,0,2.039859814453125,0,0,0.53508
1.1636908159998711,0,0,1.7429788085937499,0,0,0.3822
1.1658212740148883,0,0,0.181959326171875,0,0,0.45864
1.167960288003087,0,0,1.426944189453125,0,0,1.07016
1.1703873350052163,0,0,1.1180921752929687,0,0,1.37592
1.1729317150020506,0,0,0.4381389038085937,0,0,0.22932
1.1754738910240121,0,0,2.013523596191406,0,0,1.37592
1.1780166220269166,0,0,1.889025109863281,0,0,1.68168
1.1805857050057966,0,0,0.430956298828125,0,0,0.53508
1.1831272140261717,0,0,2.214636535644531,0,0,0.99372
1.1856693340232596,0,0,2.549824768066406,0,0,0.53508
1.1882121760281734,0,0,0.2059013427734375,0,0,9.47856
1.1907530930184294,0,0,0.718260498046875,0,0,0.91728
1.193294621014502,0,0,1.6208745239257811,0,0,-0.15288000000000002
1.1958609070279635,0,0,1.1109095703125,0,0,0.07644000000000001
1.1984056200017221,0,0,1.7764976318359373,0,0,2.14032
1.2009500920248684,0,0,2.1547814941406247,0,0,1.37592
1.2034917490091175,0,0,0.6392518432617187,0,0,-1.45236
1.2060349430248607,0,0,1.8746598999023436,0,0,0.91728
1.2085776930034626,0,0,2.1930887207031247,0,0,1.98744
1.211126147012692,0,0,0.05985504150390625,0,0,0.15288000000000002
1.2136722300201654,0,0,-0.488417138671875,0,0,0.0
1.2162214050185867,0,0,3.047818713378906,0,0,1.2994800000000002
1.2187609890243039,0,0,1.848323681640625,0,0,1.5288
1.221302979014581,0,0,-0.8547299926757812,0,0,0.30576000000000003
1.2238471920136362,0,0,1.7645266235351562,0,0,0.84084
1.2263881460239645,0,0,1.7405846069335937,0,0,1.37592
1.2289313950168435,0,0,-0.6440402465820312,0,0,1.2230400000000001
1.2314733490056824,0,0,1.936909143066406,0,0,1.60524
1.234015599009581,0,0,1.6424223388671875,0,0,-0.3822
1.236584941012552,0,0,0.3112462158203125,0,0,0.84084
1.23911191301886,0,0,2.597708801269531,0,0,2.4460800000000003
1.2416592000226956,0,0,1.8842367065429686,0,0,0.15288000000000002
1.244201598019572,0,0,-0.5674257934570313,0,0,-0.30576000000000003
1.246742848015856,0,0,1.9800047729492187,0,0,2.52252
1.2492836900055408,0,0,2.77727392578125,0,0,1.45236
1.2518245330138598,0,0,0.2154781494140625,0,0,-1.75812
1.2543639310169965,0,0,0.9050082275390624,0,0,1.2994800000000002
1.256903791014338,0,0,3.5194764404296874,0,0,2.06388
1.2594522820145357,0,0,1.2401964599609374,0,0,-1.07016
1.2622469730267767,0,0,0.0909796630859375,0,0,0.7644
1.2648014270234853,0,0,2.9831752685546875,0,0,2.75184
1.2673795650189277,0,0,1.3527239379882812,0,0,-0.7644
1.270096258027479,0,0,0.5410895751953124,0,0,1.83456
1.2732163710170425,0,0,2.7246014892578123,0,0,1.2994800000000002
1.2763334670162294,0,0,-0.047884033203124995,0,0,0.30576000000000003
1.2794525810168125,0,0,2.4061726684570313,0,0,1.07016
1.2826162490237039,0,0,1.7477672119140624,0,0,-0.68796
1.2859711760247592,0,0,0.5339069702148437,0,0,1.75812
1.289112844999181,0,0,3.342305517578125,0,0,1.2994800000000002
1.2922357550123706,0,0,-0.411802685546875,0,0,-0.15288000000000002
1.2953557210275903,0,0,1.2928688964843749,0,0,-7.94976
1.2984761680127122,0,0,2.9089550170898435,0,0,0.91728
1.3015954670263454,0,0,-0.7996633544921875,0,0,0.0
1.3047189880162477,0,0,2.252943762207031,0,0,1.2994800000000002
1.3079008790082298,0,0,0.852335791015625,0,0,0.30576000000000003
1.3110204560216516,0,0,1.3934253662109375,0,0,0.99372
1.3141373100224882,0,0,1.9416975463867185,0,0,-8.7906
1.3172560170060024,0,0,-0.45489831542968745,0,0,0.22932
1.3203763900091872,0,0,2.5905261962890624,0,0,1.60524
1.3234901330142748,0,0,1.5610194824218748,0,0,-0.84084
1.326606636022916,0,0,0.37828386230468747,0,0,1.60524
1.329753416008316,0,0,2.0638018310546875,0,0,0.99372
1.3328997710195836,0,0,-0.6871358764648438,0,0,1.37592
1.3381239540176466,0,0,2.5258827514648434,0,0,1.37592
1.3419862630253192,0,0,-0.2442085693359375,0,0,0.53508
1.345172839006409,0,0,2.4588451049804685,0,0,1.2994800000000002
1.34830024902476,0,0,1.2952630981445312,0,0,0.45864
1.3513976230169646,0,0,0.6584054565429687,0,0,0.22932
1.354522737005027,0,0,2.051830822753906,0,0,0.99372
1.357643925002776,0,0,0.4165910888671875,0,0,0.30576000000000003
1.3607639830152038,0,0,2.370259643554687,0,0,1.2230400000000001
1.3638863740197849,0,0,0.39743747558593745,0,0,9.172799999999999
1.3670024140155874,0,0,1.9608511596679685,0,0,2.14032
1.3702273050148506,0,0,2.0446482177734375,0,0,1.5288
1.373073810013011,0,0,-0.47884033203125,0,0,0.22932
1.3758761500066612,0,0,2.013523596191406,0,0,1.45236
1.378673286002595,0,0,1.9393033447265624,0,0,2.2167600000000003
1.3815239210089203,0,0,0.22744915771484372,0,0,0.84084
1.384330705011962,0,0,2.070984436035156,0,0,1.5288
1.3871361930214334,0,0,1.5227122558593749,0,0,0.15288000000000002
1.3899406430136878,0,0,0.7613561279296874,0,0,0.68796
1.3927408720192034,0,0,2.291250988769531,0,0,0.99372
1.3955395630036946,0,0,1.3287819213867187,0,0,-0.22932
1.3983446070051286,0,0,1.0342951171875,0,0,1.2230400000000001
1.401145150011871,0,0,1.9752163696289062,0,0,0.45864
1.4039456010214053,0,0,0.7015010864257812,0,0,0.0
1.40674232901074,0,0,2.0877438476562498,0,0,2.36964
1.4095411870221142,0,0,1.9105729248046874,0,0,9.47856
1.4123413790075574,0,0,-0.20350714111328125,0,0,0.30576000000000003
1.4151424400042742,0,0,2.4971523315429685,0,0,2.4460800000000003
1.4179405020258855,0,0,2.1643583007812497,0,0,0.84084
1.4207397860009223,0,0,-1.20667763671875,0,0,0.07644000000000001
1.4235394410206936,0,0,1.8938135131835936,0,0,0.99372
1.4263391320127994,0,0,2.281674182128906,0,0,1.68168
1.429138101026183,0,0,-0.699106884765625,0,0,0.53508
1.4319422190019395,0,0,2.4253262817382812,0,0,0.45864
1.4347391510091256,0,0,1.5682020874023437,0,0,0.99372
1.437537213001633,0,0,-0.05985504150390625,0,0,1.60524
1.440339312015567,0,0,2.461239306640625,0,0,1.5288
1.4431345400225837,0,0,0.3711012573242187,0,0,-0.3822
1.4459347690280993,0,0,0.6823474731445313,0,0,1.07016
1.448733830009587,0,0,2.987963671875,0,0,1.98744
1.4515312440053094,0,0,0.565031591796875,0,0,-1.75812
1.45433347200742,0,0,0.3399766357421875,0,0,1.68168
1.4571376450185198,0,0,4.094084838867187,0,0,2.2167600000000003
1.459951966011431,0,0,-0.5578489868164063,0,0,-1.75812
1.4628242310136557,0,0,1.8531120849609375,0,0,1.60524
1.4656365520204417,0,0,2.6958710693359373,0,0,1.60524
1.4685277050011791,0,0,-0.4285620971679687,0,0,-9.555
1.4713974700134713,0,0,0.8667010009765624,0,0,1.37592
1.4745193620037753,0,0,2.5163059448242184,0,0,2.06388
1.4776377530070022,0,0,-0.19632453613281248,0,0,0.45864
1.4807585150119849,0,0,2.7533319091796873,0,0,0.53508
1.4838784440071322,0,0,0.7805097412109374,0,0,9.172799999999999
1.486992928024847,0,0,1.1635820068359375,0,0,1.75812
1.4901102830190212,0,0,2.2074539306640624,0,0,1.37592
1.493227637023665,0,0,-1.0893617553710937,0,0,0.3822
1.4963468440109864,0,0,2.7581203125,0,0,2.4460800000000003
1.4994635690236464,0,0,2.262520568847656,0,0,-0.84084
1.5025827570061665,0,0,0.8283937744140625,0,0,1.45236
1.505699278000975,0,0,3.708618371582031,0,0,2.14032
1.50881670700619,0,0,-1.8339584716796873,0,0,-0.6115200000000001
1.5119355430069845,0,0,1.1659762084960936,0,0,1.07016
1.5150525270146318,0,0,2.839523168945312,0,0,1.45236
1.5181692340120208,0,0,-0.7996633544921875,0,0,1.911
1.5212874770222697,0,0,3.1938650146484373,0,0,1.2230400000000001
1.524405165022472,0,0,1.16837041015625,0,0,-0.30576000000000003
1.5275212050182745,0,0,1.8938135131835936,0,0,1.1465999999999998
1.5306376890221145,0,0,1.6136919189453125,0,0,0.0
1.5338729310024064,0,0,-0.6775590698242188,0,0,1.2230400000000001
1.5371184880204964,0,0,3.517082238769531,0,0,1.75812
1.540249768004287,0,0,1.1707646118164061,0,0,-0.3822
1.5433662900177296,0,0,0.6584054565429687,0,0,1.60524
1.5464842180081178,0,0,2.1691467041015624,0,0,1.98744
1.549601110018557,0,0,-0.8786720092773437,0,0,0.22932
1.5527225200203247,0,0,2.480392919921875,0,0,0.99372
1.5558865410275757,0,0,2.0350714111328125,0,0,0.84084
1.5590032470063306,0,0,0.5506663818359374,0,0,-0.22932
1.5621218610031065,0,0,1.7741034301757812,0,0,1.45236
1.5652393090131227,0,0,0.8403647827148437,0,0,0.84084
1.5683585890219547,0,0,1.2282254516601563,0,0,1.1465999999999998
1.5715110170131084,0,0,1.0869675537109373,0,0,9.40212
1.574627946014516,0,0,2.6048914062499997,0,0,2.2167600000000003
1.5777474860078655,0,0,2.020706201171875,0,0,0.0
1.5808632660191506,0,0,-1.0702081420898437,0,0,-0.7644
1.5839848250034265,0,0,2.492363928222656,0,0,1.911
1.587098494026577,0,0,1.0821791503906248,0,0,-0.30576000000000003
1.5902150710171554,0,0,-0.22026655273437498,0,0,1.75812
1.5933388330158778,0,0,2.798821740722656,0,0,1.2230400000000001
1.5964958910190035,0,0,0.2657563842773437,0,0,1.1465999999999998
1.599616097024409,0,0,2.0757728393554684,0,0,0.99372
1.602735507010948,0,0,1.1444283935546875,0,0,-0.91728
1.6058549170265906,0,0,0.2346317626953125,0,0,1.37592
1.6089727540093008,0,0,2.7916391357421872,0,0,0.99372
1.6120904790004715,0,0,0.5339069702148437,0,0,0.0
1.6152046850183979,0,0,2.2577321655273437,0,0,1.2994800000000002
1.618319966015406,0,0,1.3024457031249999,0,0,0.7644
1.621446728007868,0,0,-0.584185205078125,0,0,0.22932
1.6245665450114757,0,0,3.4811692138671875,0,0,1.75812
1.6277248990081716,0,0,0.4165910888671875,0,0,8.867040000000001
1.6308443460147828,0,0,1.5849614990234373,0,0,1.2230400000000001
1.6339610160212032,0,0,2.1906945190429687,0,0,1.45236
1.6370778890268411,0,0,-0.8355763793945312,0,0,0.7644
1.6401956510089803,0,0,3.0358477050781247,0,0,2.4460800000000003
1.6433115240070038,0,0,-0.6177040283203125,0,0,-1.2994800000000002
1.6464310820156243,0,0,2.0350714111328125,0,0,2.2167600000000003
1.6495468630164396,0,0,2.8993782104492185,0,0,1.68168
1.6526648660073988,0,0,-1.649604943847656,0,0,-9.32568
1.6557830170204397,0,0,2.89219560546875,0,0,0.6115200000000001
1.658899371017469,0,0,2.288856787109375,0,0,-0.30576000000000003
1.6620338920038193,0,0,-1.1659762084960936,0,0,0.99372
1.665181376010878,0,0,3.27526787109375,0,0,1.60524
1.6683018230251037,0,0,-0.7637503295898437,0,0,2.4460800000000003
1.6714557520172093,0,0,1.687912170410156,0,0,0.7644
1.6745734400174115,0,0,2.408566870117187,0,0,1.75812
1.6776907940220553,0,0,-0.737414111328125,0,0,0.0
1.6808600560179912,0,0,3.3159692993164063,0,0,1.2994800000000002
1.6839867810194846,0,0,1.4604630126953124,0,0,0.6115200000000001
1.687099932023557,0,0,0.7015010864257812,0,0,0.99372
1.690218008006923,0,0,2.3726538452148436,0,0,2.52252
1.693336974014528,0,0,-0.9864110839843749,0,0,0.0
1.696460069011664,0,0,3.327940307617187,0,0,2.82828
1.699627905007219,0,0,1.24498486328125,0,0,-0.99372
1.7027490000182297,0,0,-0.0718260498046875,0,0,1.37592
1.7058679100009613,0,0,2.7940333374023436,0,0,0.45864
1.708984284021426,0,0,-0.023942016601562498,0,0,-0.45864
1.7121048970147967,0,0,1.7764976318359373,0,0,1.911
1.7152208450133912,0,0,1.5586252807617187,0,0,0.0
1.7183377920009661,0,0,0.277727392578125,0,0,1.911
1.7214536650280934,0,0,2.7964275390625,0,0,0.91728
1.7245790010201745,0,0,0.143652099609375,0,0,0.0
1.7277272260107566,0,0,1.1875240234375,0,0,0.22932
1.7308461909997277,0,0,2.674323254394531,0,0,-9.631440000000001
1.7339668050117325,0,0,-0.51714755859375,0,0,0.91728
1.737085308006499,0,0,2.3511060302734372,0,0,1.5288
1.7402035880077165,0,0,0.181959326171875,0,0,0.45864
1.7433190360025037,0,0,1.2928688964843749,0,0,0.91728
1.7464372050017118,0,0,2.511517541503906,0,0,2.4460800000000003
1.749552837020019,0,0,-0.8810662109374999,0,0,-0.53508
1.7526800620253198,0,0,2.9568390502929685,0,0,2.6754
1.755802769010188,0,0,1.9009961181640624,0,0,-0.30576000000000003
1.758920531021431,0,0,-0.5698199951171875,0,0,-0.30576000000000003
1.7620976620237343,0,0,2.384624853515625,0,0,2.4460800000000003
1.7652204430196434,0,0,-0.4381389038085937,0,0,-0.22932
1.7683407980075572,0,0,2.0566192260742184,0,0,2.82828
1.7714924300089478,0,0,1.5753846923828123,0,0,8.48484
1.774610284017399,0,0,0.9624690673828125,0,0,2.06388
1.7777604530274402,0,0,1.9919757812499999,0,0,0.99372
1.7808779560145922,0,0,-0.44532150878906246,0,0,0.0
1.7840411060024053,0,0,2.3247698120117186,0,0,1.68168
1.787273793015629,0,0,0.7517793212890624,0,0,-0.99372
1.7903991290077101,0,0,1.0606313354492187,0,0,2.6754
1.7935176500177477,0,0,2.5378537597656248,0,0,1.75812
1.7966377830016427,0,0,-0.02633621826171875,0,0,0.07644000000000001
1.7997585820266977,0,0,1.879448303222656,0,0,0.0
1.802873250999255,0,0,1.8650830932617186,0,0,-9.09636
1.8059888090065215,0,0,-0.34715924072265625,0,0,1.2230400000000001
1.8091069600195624,0,0,1.908178723144531,0,0,0.6115200000000001
1.8122244260157458,0,0,0.3591302490234375,0,0,0.91728
1.8153786320181098,0,0,3.0885201416015624,0,0,1.2230400000000001
1.8185166900220793,0,0,1.1444283935546875,0,0,1.2230400000000001
1.821632989012869,0,0,-1.350329736328125,0,0,-0.30576000000000003
1.8247560660238378,0,0,3.797203833007812,0,0,1.68168
1.8278702730021905,0,0,0.8690952026367187,0,0,-0.91728
1.830986146000214,0,0,-0.11731588134765625,0,0,0.84084
1.8341022970271297,0,0,2.5522189697265625,0,0,2.90472
1.8372178550052922,0,0,-1.8052280517578123,0,0,-0.84084
1.8403464690200053,0,0,3.3710359375,0,0,2.75184
1.8434610270196572,0,0,1.0917559570312498,0,0,-1.60524
1.8465772710042074,0,0,0.09816226806640624,0,0,2.06388
1.8496920880279504,0,0,2.616862414550781,0,0,2.4460800000000003
1.8528398680209648,0,0,-0.679953271484375,0,0,-9.09636
1.8559609450167045,0,0,2.767697119140625,0,0,1.68168
1.859075392014347,0,0,0.8978256225585937,0,0,-0.53508
1.8622039690089878,0,0,-0.814028564453125,0,0,0.30576000000000003
1.8653348420048133,0,0,3.8379052612304685,0,0,1.37592
1.868451623013243,0,0,-1.0175357055664063,0,0,-0.53508
1.8716109030065127,0,0,0.5602431884765625,0,0,0.45864
1.8747294430213515,0,0,3.356670727539062,0,0,2.4460800000000003
1.8778444640047383,0,0,-1.5586252807617187,0,0,-1.45236
1.8809627440059558,0,0,2.9664158569335934,0,0,1.911
1.8840783210180234,0,0,-0.1292868896484375,0,0,-3.59268
1.8871962870180141,0,0,0.3758896606445312,0,0,0.84084
1.8903115680150222,0,0,2.221819140625,0,0,2.4460800000000003
1.8934252740000375,0,0,-0.852335791015625,0,0,-2.4460800000000003
1.8965438320010435,0,0,1.5825672973632812,0,0,2.90472
1.899658743001055,0,0,3.1172505615234374,0,0,0.22932
1.9027733750117477,0,0,-1.9129671264648436,0,0,-4.433520000000001
1.9058932850020938,0,0,0.5626373901367188,0,0,2.4460800000000003
1.90900754701579,0,0,0.4333505004882812,0,0,3.89844
1.9121237720246427,0,0,-1.898601916503906,0,0,-1.45236
1.9152386450150516,0,0,3.181894006347656,0,0,-0.91728
1.9183540180092677,0,0,2.6862942626953124,0,0,0.15288000000000002
1.921468114014715,0,0,-1.139639990234375,0,0,-0.7644
1.9245921350084245,0,0,0.8571241943359375,0,0,1.911
1.9277608590200543,0,0,2.1691467041015624,0,0,2.14032
1.9308762880100403,0,0,-1.1133037719726562,0,0,-0.6115200000000001
1.9339949020068161,0,0,1.8698714965820311,0,0,0.53508
1.9371110339998268,0,0,2.1164742675781247,0,0,1.68168
1.9402283890231047,0,0,-0.507570751953125,0,0,-0.53508
1.9433431880024727,0,0,0.4213794921875,0,0,-9.707880000000001
1.9464592460135464,0,0,0.8714894042968749,0,0,0.91728
1.9495737310207915,0,0,0.9097966308593749,0,0,1.37592
1.9526885480154306,0,0,1.37906015625,0,0,1.2230400000000001
1.9558028290048242,0,0,0.8834604125976562,0,0,-0.91728
1.9589171840052586,0,0,1.37906015625,0,0,-0.6115200000000001
1.9620283900003415,0,0,0.4285620971679687,0,0,1.45236
1.965919569018297,0,0,-0.201112939453125,0,0,0.45864
1.9690502200101037,0,0,1.1109095703125,0,0,0.84084
1.9722101110091899,0,0,2.0350714111328125,0,0,0.84084
1.9753307810169645,0,0,0.4285620971679687,0,0,-2.14032
1.9784523020207416,0,0,0.1388636962890625,0,0,9.555
1.9815857310022693,0,0,1.4125789794921875,0,0,1.07016
1.9847083260247018,0,0,-0.143652099609375,0,0,0.07644000000000001
1.9878840500023216,0,0,1.879448303222656,0,0,0.68796
1.9909868680115324,0,0,1.1324573852539062,0,0,0.99372
1.994107074016938,0,0,0.028730419921875,0,0,-0.45864
1.997253058012575,0,0,0.9911994873046874,0,0,0.53508
2.000372098002117,0,0,1.484405029296875,0,0,0.30576000000000003
2.0034881380270235,0,0,-0.3591302490234375,0,0,0.0
2.0066059370001312,0,0,1.7884686401367187,0,0,0.91728
2.009757273015566,0,0,0.6392518432617187,0,0,0.3822
2.012872146005975,0,0,1.1468225952148436,0,0,0.07644000000000001
2.0160016850277316,0,0,0.6440402465820312,0,0,-9.784320000000001
2.0191195030056406,0,0,0.9361328491210937,0,0,0.45864
2.022236654011067,0,0,0.5003881469726562,0,0,9.40212
2.0253516750235576,0,0,0.20350714111328125,0,0,0.0
2.028465956012951,0,0,1.8195932617187498,0,0,0.7644
2.0316114950110205,0,0,0.9361328491210937,0,0,0.0
2.0357473760086577,0,0,1.3263877197265623,0,0,0.0
2.038950822025072,0,0,1.20667763671875,0,0,0.22932
2.0420749540207908,0,0,0.143652099609375,0,0,0.3822
2.0451949760026764,0,0,1.1109095703125,0,0,1.07016
2.0483154410030693,0,0,0.8547299926757812,0,0,0.53508
2.0514305180113297,0,0,0.5530605834960938,0,0,0.15288000000000002
2.0545467250049114,0,0,1.2138602416992186,0,0,0.07644000000000001
2.0576612270087935,0,0,0.5602431884765625,0,0,-0.99372
2.060858785000164,0,0,0.8667010009765624,0,0,1.5288
2.0640036390104797,0,0,0.4955997436523437,0,0,0.68796
2.0671266230056062,0,0,1.0630255371093749,0,0,1.2230400000000001
2.070245793001959,0,0,0.70868369140625,0,0,0.45864
2.0734030910243746,0,0,1.5682020874023437,0,0,1.37592
2.0765206500072964,0,0,1.1875240234375,0,0,0.91728
2.079636726004537,0,0,0.97683427734375,0,0,0.91728
2.0827589140099008,0,0,1.908178723144531,0,0,1.07016
2.085902991006151,0,0,0.9792284790039062,0,0,0.53508
2.089027697016718,0,0,1.1180921752929687,0,0,0.7644
2.092145311005879,0,0,1.2641384765625,0,0,0.6115200000000001
2.09525898101856,0,0,1.2306196533203124,0,0,0.7644
2.0983732430031523,0,0,1.350329736328125,0,0,-9.172799999999999
2.1014923940238077,0,0,1.3670891479492187,0,0,0.68796
2.104606822016649,0,0,1.1085153686523437,0,0,0.68796
2.107723844004795,0,0,1.0845733520507812,0,0,0.45864
2.1108387720014434,0,0,1.3670891479492187,0,0,0.7644
2.113955460023135,0,0,1.5442600708007812,0,0,1.37592
2.117157369008055,0,0,1.1348515869140625,0,0,0.84084
2.120345575007377,0,0,1.3742717529296875,0,0,-9.24924
2.1235490399994887,0,0,1.668758557128906,0,0,0.99372
2.1271630560222548,0,0,1.209071838378906,0,0,0.53508
2.1310957530222367,0,0,1.2976572998046874,0,0,0.6115200000000001
2.134373143024277,0,0,1.5346832641601562,0,0,1.1465999999999998
2.1376836440176703,0,0,1.2497732666015624,0,0,0.91728
2.1409571260155644,0,0,1.2569558715820313,0,0,0.3822
2.1441374800051562,0,0,1.4245499877929686,0,0,0.45864
2.147392667015083,0,0,1.369483349609375,0,0,0.53508
2.150575576000847,0,0,1.0438719238281249,0,0,-9.32568
2.153751634003129,0,0,1.5634136840820312,0,0,0.7644
2.1570710230153054,0,0,1.3144167114257812,0,0,1.1465999999999998
2.1602296370256227,0,0,0.9744400756835937,0,0,0.07644000000000001
2.1633199540083297,0,0,1.4628572143554686,0,0,0.6115200000000001
2.166414180013817,0,0,1.2904746948242187,0,0,0.68796
2.1695072750153486,0,0,1.13006318359375,0,0,0.45864
2.172695111017674,0,0,1.2282254516601563,0,0,0.53508
2.175751336006215,0,0,1.5586252807617187,0,0,0.84084
2.1782721420167945,0,0,1.2473790649414063,0,0,0.84084
2.180810966005083,0,0,1.2018892333984375,0,0,0.91728
2.1833857340097893,0,0,1.3958195678710936,0,0,0.99372
2.1859094650135376,0,0,1.4796166259765624,0,0,0.30576000000000003
2.188442141021369,0,0,1.2282254516601563,0,0,1.2994800000000002
2.1909754280059133,0,0,1.1037269653320312,0,0,1.07016
2.193497660016874,0,0,1.350329736328125,0,0,0.7644
2.1965124970010947,0,0,1.197100830078125,0,0,1.07016
2.1990935430221725,0,0,1.2928688964843749,0,0,0.45864
2.2016297740046866,0,0,1.2234370483398436,0,0,0.68796
2.2041671160259284,0,0,1.3575123413085937,0,0,0.7644
2.2066992740146816,0,0,1.5083470458984374,0,0,0.91728
2.2092350240272935,0,0,1.24498486328125,0,0,0.7644
2.211795440001879,0,0,1.1013327636718748,0,0,1.07016
2.2143294680281542,0,0,1.5011644409179687,0,0,0.91728
2.216863532026764,0,0,1.6136919189453125,0,0,0.7644
2.2193954860267695,0,0,1.3287819213867187,0,0,0.6115200000000001
2.2219298660056666,0,0,1.0366893188476562,0,0,1.1465999999999998
2.224463041027775,0,0,1.3215993164062498,0,0,0.30576000000000003
2.2270784940046724,0,0,1.465251416015625,0,0,0.53508
2.2296158550016116,0,0,1.1923124267578125,0,0,0.91728
2.2321516050142236,0,0,1.209071838378906,0,0,1.1465999999999998
2.234682614012854,0,0,1.43652099609375,0,0,20
2.2372190860041883,0,0,1.6208745239257811,0,0,0.0
2.239755058020819,0,0,1.254561669921875,0,0,0.99372
2.242287679022411,0,0,1.1372457885742187,0,0,1.07016
2.2448208360001445,0,0,1.4101847778320311,0,0,0.45864
2.2473531420109794,0,0,1.5538368774414062,0,0,0.53508
2.249908021010924,0,0,1.3024457031249999,0,0,0.84084
2.2524435670056846,0,0,1.1516109985351561,0,0,1.2230400000000001
2.2549736320215743,0,0,1.407790576171875,0,0,0.53508
2.257507289003115,0,0,1.5322890624999999,0,0,0.68796
2.2600400210067164,0,0,1.120486376953125,0,0,1.2230400000000001
2.262632603000384,0,0,1.177947216796875,0,0,0.6115200000000001
2.265327685017837,0,0,1.3407529296874998,0,0,0.6115200000000001
2.2678510270197876,0,0,1.6232687255859375,0,0,0.53508
2.2703697960241698,0,0,1.2521674682617188,0,0,1.07016
2.272973138024099,0,0,1.35990654296875,0,0,0.91728
2.275629220006522,0,0,1.4724340209960938,0,0,0.68796
2.278716704022372,0,0,1.4772224243164063,0,0,1.07016
2.2818485960015096,0,0,1.0773907470703123,0,0,-9.32568
2.2867732450249605,0,0,1.4700398193359374,0,0,0.7644
2.289906655001687,0,0,1.1707646118164061,0,0,0.6115200000000001
2.293018751021009,0,0,1.13006318359375,0,0,0.15288000000000002
2.296120939019602,0,0,1.2761094848632812,0,0,0.6115200000000001
2.299205942021217,0,0,1.5466542724609373,0,0,0.99372
2.3023155190167017,0,0,1.2785036865234374,0,0,1.2230400000000001
2.305426670005545,0,0,1.2521674682617188,0,0,0.53508
2.3085376730014104,0,0,1.438915197753906,0,0,0.3822
2.3116446570202243,0,0,1.2761094848632812,0,0,0.3822
2.314729456003988,0,0,1.1755530151367186,0,0,0.0
2.317837237002095,0,0,1.235408056640625,0,0,0.91728
2.3209424620145,0,0,1.1013327636718748,0,0,0.53508
2.3240497799997684,0,0,1.2880804931640624,0,0,1.1465999999999998
2.3271513010258786,0,0,1.4987702392578124,0,0,0.15288000000000002
2.33025941500091,0,0,1.6352397338867186,0,0,0.91728
2.3333649180131033,0,0,1.1156979736328125,0,0,0.53508
2.3366966960020363,0,0,1.47482822265625,0,0,0.84084
2.339990956010297,0,0,1.5705962890624998,0,0,0.91728
2.343467844009865,0,0,1.3072341064453123,0,0,1.2994800000000002
2.3480954780243337,0,0,1.5346832641601562,0,0,0.6115200000000001
2.3512270180217456,0,0,1.2473790649414063,0,0,0.45864
2.3543200390122365,0,0,1.1276689819335937,0,0,0.45864
2.357412302022567,0,0,1.3934253662109375,0,0,0.3822
2.3605382300156634,0,0,1.6472107421875,0,0,0.91728
2.3636727510020137,0,0,1.0845733520507812,0,0,0.84084
2.3667832170031033,0,0,1.3192051147460937,0,0,0.84084
2.369873905001441,0,0,1.2928688964843749,0,0,0.7644
2.3730783890059683,0,0,1.1875240234375,0,0,0.84084
2.376142207009252,0,0,1.139639990234375,0,0,0.3822
2.3789463980065193,0,0,1.4221557861328125,0,0,1.07016
2.3817343310220167,0,0,1.3814543579101561,0,0,1.1465999999999998
2.3845223000098485,0,0,1.1276689819335937,0,0,0.84084
2.3873062880011275,0,0,1.22583125,0,0,0.53508
2.390093424008228,0,0,1.3718775512695311,0,0,0.91728
2.3928810600191355,0,0,1.1659762084960936,0,0,0.53508
2.395696288003819,0,0,1.2832920898437499,0,0,0.3822
2.3985243500210345,0,0,1.2378022583007813,0,0,0.6115200000000001
2.40131661502528,0,0,1.6112977172851561,0,0,0.91728
2.4041078250156716,0,0,1.2330138549804688,0,0,0.84084
2.406895517022349,0,0,1.177947216796875,0,0,1.07016
2.409670746012125,0,0,1.5346832641601562,0,0,0.84084
2.412455771001987,0,0,1.3239935180664062,0,0,0.99372
2.4152444250066765,0,0,1.1444283935546875,0,0,0.53508
2.418034209025791,0,0,1.1180921752929687,0,0,0.6115200000000001
2.4208238270075526,0,0,1.3670891479492187,0,0,0.84084
2.423615129024256,0,0,1.0989385620117187,0,0,0.3822
2.426386432023719,0,0,1.3192051147460937,0,0,0.30576000000000003
2.4292026980256196,0,0,1.4125789794921875,0,0,0.7644
2.4319941670109984,0,0,1.4006079711914061,0,0,0.53508
2.434779025003081,0,0,1.1156979736328125,0,0,0.91728
2.4375668650027364,0,0,1.149216796875,0,0,1.2994800000000002
2.440356186009012,0,0,1.458068811035156,0,0,0.91728
2.443140174000291,0,0,1.5514426757812498,0,0,0.99372
2.4459269950166345,0,0,1.3455413330078123,0,0,0.45864
2.4487146500032395,0,0,1.2473790649414063,0,0,9.631440000000001
2.4515007300069556,0,0,1.209071838378906,0,0,0.91728
2.4543054770037998,0,0,1.0989385620117187,0,0,0.53508
2.457094095007051,0,0,1.189918225097656,0,0,0.84084
2.4598818420199677,0,0,1.2569558715820313,0,0,0.7644
2.4631263990013395,0,0,1.5203180541992187,0,0,0.45864
2.4659396820061374,0,0,1.350329736328125,0,0,1.45236
2.468717800016748,0,0,1.177947216796875,0,0,0.3822
2.4714903810236137,0,0,1.2617442749023438,0,0,0.6115200000000001
2.4743515530135483,0,0,1.197100830078125,0,0,1.1465999999999998
2.4772967240132857,0,0,1.235408056640625,0,0,0.7644
2.4803863010019995,0,0,1.3407529296874998,0,0,0.7644
2.483471305022249,0,0,1.5059528442382812,0,0,0.91728
2.4865798630053177,0,0,1.197100830078125,0,0,0.53508
2.4896837180131115,0,0,1.22583125,0,0,0.45864
2.4928150170017034,0,0,1.2808978881835937,0,0,1.07016
2.495921038003871,0,0,1.1468225952148436,0,0,1.07016
2.4990736890176777,0,0,1.1516109985351561,0,0,0.53508
2.5021783580014016,0,0,1.3910311645507811,0,0,0.68796
2.5052826940082014,0,0,1.2761094848632812,0,0,0.6115200000000001
2.5083880680031143,0,0,1.139639990234375,0,0,0.45864
2.511489367025206,0,0,1.5155296508789062,0,0,0.99372
2.514592777006328,0,0,1.446097802734375,0,0,0.7644
2.5176985390135087,0,0,1.24498486328125,0,0,0.91728
2.520801950013265,0,0,1.0773907470703123,0,0,0.84084
2.5239060450112447,0,0,1.2306196533203124,0,0,-8.943480000000001
2.527013955026632,0,0,1.1659762084960936,0,0,0.3822
2.5301051620044746,0,0,1.0965443603515623,0,0,-8.943480000000001
2.5332056100014597,0,0,1.3958195678710936,0,0,0.7644
2.5382738500193227,0,0,1.20667763671875,0,0,0.84084
2.541481685009785,0,0,1.2641384765625,0,0,0.91728
2.5446227800275665,0,0,1.3168109130859373,0,0,0.3822
2.547744635026902,0,0,1.2593500732421874,0,0,0.45864
2.550895248015877,0,0,1.1228805786132812,0,0,0.07644000000000001
2.5540154360060114,0,0,1.218648645019531,0,0,0.99372
2.557133809023071,0,0,1.1180921752929687,0,0,0.7644
2.5602530160103925,0,0,1.1516109985351561,0,0,0.99372
2.5633693520212546,0,0,1.426944189453125,0,0,0.99372
2.5664972430095077,0,0,1.3718775512695311,0,0,0.7644
2.5696147460257635,0,0,1.180341418457031,0,0,0.91728
2.5727818779996596,0,0,1.3144167114257812,0,0,0.22932
2.5759452510101255,0,0,1.3000515014648437,0,0,0.84084
2.5790629940165672,0,0,1.1228805786132812,0,0,0.45864
2.582213756017154,0,0,1.2330138549804688,0,0,0.45864
2.585339240002213,0,0,1.2521674682617188,0,0,0.84084
2.5884602060250472,0,0,1.2569558715820313,0,0,0.91728
2.591612245014403,0,0,1.120486376953125,0,0,0.84084
2.5947342660219874,0,0,1.39821376953125,0,0,0.7644
2.5978518800111488,0,0,1.4604630126953124,0,0,0.68796
2.6011086410144344,0,0,1.1109095703125,0,0,0.0
2.604252069024369,0,0,1.5155296508789062,0,0,1.07016
2.6073748120106757,0,0,1.3958195678710936,0,0,1.2994800000000002
2.610496426001191,0,0,1.3311761230468748,0,0,0.84084
2.6136162990005687,0,0,1.3766659545898436,0,0,0.7644
2.6167488020146266,0,0,1.5083470458984374,0,0,0.84084
2.619922508019954,0,0,1.158793603515625,0,0,0.6115200000000001
2.6231549540243577,0,0,1.2234370483398436,0,0,0.22932
2.6263116780028213,0,0,1.3766659545898436,0,0,0.84084
2.6294327740033623,0,0,1.180341418457031,0,0,1.07016
2.632587369007524,0,0,1.1635820068359375,0,0,1.37592
2.6357522230246104,0,0,1.4604630126953124,0,0,0.68796
2.638870188005967,0,0,1.1731588134765625,0,0,0.68796
2.641986913018627,0,0,1.158793603515625,0,0,0.30576000000000003
2.645103546004975,0,0,1.4820108276367188,0,0,0.6115200000000001
2.6482411960023455,0,0,1.5729904907226562,0,0,1.1465999999999998
2.651384347002022,0,0,0.9983820922851562,0,0,1.1465999999999998
2.654502276011044,0,0,1.0749965454101562,0,0,0.91728
2.6576202970172744,0,0,1.2761094848632812,0,0,0.3822
2.6607506700092927,0,0,1.3670891479492187,0,0,0.3822
2.6638966350001283,0,0,1.1156979736328125,0,0,-0.15288000000000002
2.6670238049991895,0,0,1.2330138549804688,0,0,1.2994800000000002
2.6701440300093964,0,0,1.0726023437499999,0,0,0.45864
2.673262810014421,0,0,1.189918225097656,0,0,1.60524
2.6764226270024665,0,0,1.4628572143554686,0,0,0.6115200000000001
2.6795402040006593,0,0,1.4724340209960938,0,0,0.7644
2.6826621510263067,0,0,1.1563994018554686,0,0,0.45864
2.6857805430190638,0,0,1.2378022583007813,0,0,0.45864
2.688897898013238,0,0,1.7334020019531249,0,0,0.7644
2.692017511028098,0,0,1.2689268798828124,0,0,0.84084
2.6951351989991963,0,0,1.1133037719726562,0,0,0.3822
2.6982524980267044,0,0,1.4700398193359374,0,0,0.91728
2.7013697050279006,0,0,1.2785036865234374,0,0,0.99372
2.7044888740056194,0,0,1.1851298217773436,0,0,0.68796
2.707608266005991,0,0,1.3862427612304686,0,0,0.7644
2.7107251760025974,0,0,1.3862427612304686,0,0,0.68796
2.713841864024289,0,0,1.3168109130859373,0,0,0.6115200000000001
2.716957867000019,0,0,1.5155296508789062,0,0,0.7644
2.7200790180067997,0,0,1.637633935546875,0,0,1.1465999999999998
2.723195057013072,0,0,1.120486376953125,0,0,0.7644
2.7263122640142683,0,0,1.24498486328125,0,0,0.91728
2.7294301930232905,0,0,1.2282254516601563,0,0,0.68796
2.7325485840265173,0,0,1.1444283935546875,0,0,0.53508
2.735664161009481,0,0,1.3311761230468748,0,0,0.30576000000000003
2.7387809600040782,0,0,1.2976572998046874,0,0,1.37592
2.741897018015152,0,0,1.3431471313476562,0,0,0.84084
2.7450138730055187,0,0,1.235408056640625,0,0,0.99372
2.7481566160277,0,0,1.419761584472656,0,0,0.53508
2.7512740820238832,0,0,1.47482822265625,0,0,1.1465999999999998
2.7543927140068263,0,0,1.0917559570312498,0,0,0.53508
2.7575093470222782,0,0,1.2952630981445312,0,0,0.68796
2.7606286640220787,0,0,1.43652099609375,0,0,0.53508
2.763764148025075,0,0,0.9313444458007812,0,0,0.68796
2.766880299022887,0,0,1.1731588134765625,0,0,0.0
2.769998506002594,0,0,1.3048399047851562,0,0,0.91728
2.7731156010122504,0,0,1.2138602416992186,0,0,1.07016
2.776265067019267,0,0,1.2928688964843749,0,0,1.2230400000000001
2.7793842910032254,0,0,1.4915876342773438,0,0,0.68796
2.7825051830150187,0,0,1.2497732666015624,0,0,0.53508
2.7856377410062123,0,0,1.2689268798828124,0,0,0.68796
2.789182239008369,0,0,1.4053963745117186,0,0,0.7644
2.792322557012085,0,0,1.5490484741210937,0,0,1.2230400000000001
2.795432337006787,0,0,1.1875240234375,0,0,1.07016
2.798547618003795,0,0,1.3455413330078123,0,0,0.84084
2.8016626390162855,0,0,1.5801730957031248,0,0,0.45864
2.804823919024784,0,0,1.2282254516601563,0,0,0.53508
2.8079407550103497,0,0,1.120486376953125,0,0,0.3822
2.8110540540074,0,0,1.1252747802734375,0,0,0.68796
2.8141682790010236,0,0,1.3215993164062498,0,0,0.7644
2.8172841900086496,0,0,1.1659762084960936,0,0,0.99372
2.8204005070147105,0,0,1.4628572143554686,0,0,0.84084
2.8235152140259743,0,0,1.5394716674804687,0,0,0.7644
2.8266291610198095,0,0,1.235408056640625,0,0,0.22932
2.8297445150092244,0,0,1.429338391113281,0,0,0.84084
2.832866870012367,0,0,1.6711527587890624,0,0,0.91728
2.83601989102317,0,0,1.1180921752929687,0,0,0.99372
2.8391343940165825,0,0,1.1635820068359375,0,0,0.99372
2.842250989022432,0,0,1.3575123413085937,0,0,0.6115200000000001
2.845366103021661,0,0,1.2880804931640624,0,0,0.3822
2.8485841600049753,0,0,1.2689268798828124,0,0,0.15288000000000002
2.8517466070188675,0,0,1.3120225097656248,0,0,1.07016
2.8548665730049834,0,0,1.0917559570312498,0,0,0.6115200000000001
2.8579799460130744,0,0,1.0917559570312498,0,0,0.84084
2.861094393010717,0,0,1.4820108276367188,0,0,0.6115200000000001
2.864230914012296,0,0,1.4173673828125,0,0,0.91728
2.8673496390110813,0,0,0.967257470703125,0,0,0.45864
2.8704638830095064,0,0,1.3718775512695311,0,0,0.68796
2.873578571015969,0,0,1.5466542724609373,0,0,0.68796
2.8766939810011536,0,0,1.3646949462890625,0,0,0.6115200000000001
2.879843279020861,0,0,1.1755530151367186,0,0,0.68796
2.882973393017892,0,0,1.2473790649414063,0,0,0.7644
2.886089414008893,0,0,1.3455413330078123,0,0,0.99372
2.8892061580263544,0,0,1.0726023437499999,0,0,0.45864
2.892573954013642,0,0,1.209071838378906,0,0,0.99372
2.895728160016006,0,0,1.2210428466796874,0,0,0.45864
2.8988445890136063,0,0,1.2521674682617188,0,0,0.7644
2.9019595550198574,0,0,1.4604630126953124,0,0,0.91728
2.905074021022301,0,0,1.5155296508789062,0,0,1.2994800000000002
2.90818889401271,0,0,1.0869675537109373,0,0,0.7644
2.911300489009591,0,0,1.1348515869140625,0,0,0.53508
2.914413714024704,0,0,1.2330138549804688,0,0,0.6115200000000001
2.917527532001259,0,0,1.1540052001953125,0,0,0.15288000000000002
2.9206433680083137,0,0,1.35990654296875,0,0,0.07644000000000001
2.9237568890093826,0,0,1.0965443603515623,0,0,0.99372
2.926871336007025,0,0,1.218648645019531,0,0,1.2994800000000002
2.929986524017295,0,0,1.2138602416992186,0,0,1.2994800000000002
2.9331006380089093,0,0,1.5059528442382812,0,0,0.7644
2.9362165670027025,0,0,1.4915876342773438,0,0,1.2230400000000001
2.9393286440172233,0,0,1.189918225097656,0,0,0.53508
2.9424420170253143,0,0,1.5322890624999999,0,0,0.7644
2.945648037013598,0,0,1.5035586425781249,0,0,1.37592
2.9487707990047056,0,0,1.0749965454101562,0,0,0.84084
2.9518877280061133,0,0,1.2785036865234374,0,0,0.91728
2.9549998230068013,0,0,1.1109095703125,0,0,0.7644
2.9581148819997907,0,0,1.189918225097656,0,0,0.84084
2.9612430140259676,0,0,1.1252747802734375,0,0,0.68796
2.9656472060014494,0,0,1.6112977172851561,0,0,0.6115200000000001
2.96876517200144,0,0,1.3192051147460937,0,0,0.53508
2.9718797860259656,0,0,1.3623007446289062,0,0,0.0
2.97497556702001,0,0,1.47482822265625,0,0,0.53508
2.9780787550262176,0,0,1.1851298217773436,0,0,0.68796
2.981198054010747,0,0,1.1851298217773436,0,0,0.99372
2.9843182420008816,0,0,1.3934253662109375,0,0,0.6115200000000001
2.987432207999518,0,0,1.2593500732421874,0,0,0.7644
2.990548191999551,0,0,1.3144167114257812,0,0,0.53508
2.993665657006204,0,0,1.3838485595703125,0,0,0.68796
2.9968127900210675,0,0,1.6639701538085936,0,0,0.45864
2.999930107005639,0,0,1.1180921752929687,0,0,0.84084
3.003046740021091,0,0,1.1468225952148436,0,0,0.68796
3.0061635020247195,0,0,1.2880804931640624,0,0,1.07016
3.0092804490122944,0,0,1.1540052001953125,0,0,0.7644
3.012397285026964,0,0,1.0989385620117187,0,0,1.07016
3.015511695004534,0,0,1.5155296508789062,0,0,0.7644
3.0186275870073587,0,0,1.1228805786132812,0,0,0.84084
3.0217474970268086,0,0,1.1707646118164061,0,0,-9.24924
3.0248696480121,0,0,1.455674609375,0,0,0.91728
3.0280126130091958,0,0,1.4317325927734375,0,0,0.91728
3.0311296900035813,0,0,1.2617442749023438,0,0,1.1465999999999998
3.0342470450268593,0,0,1.3623007446289062,0,0,0.91728
3.03738917701412,0,0,1.3958195678710936,0,0,0.68796
3.040662511019036,0,0,1.2569558715820313,0,0,0.45864
3.04379660601262,0,0,1.3120225097656248,0,0,-9.40212
3.0469506270019338,0,0,1.2330138549804688,0,0,0.99372
3.050069741002517,0,0,1.1133037719726562,0,0,0.99372
3.053187596000498,0,0,1.1707646118164061,0,0,1.2994800000000002
3.0563058020197786,0,0,1.3814543579101561,0,0,0.7644
3.0594228970003314,0,0,1.3646949462890625,0,0,0.84084
3.0625407150073443,0,0,1.1420341918945311,0,0,0.30576000000000003
3.065679995022947,0,0,1.2617442749023438,0,0,0.7644
3.068803239002591,0,0,1.6304513305664061,0,0,-9.01992
3.071923649025848,0,0,1.2042834350585936,0,0,0.6115200000000001
3.0750409480242524,0,0,1.1133037719726562,0,0,0.53508
3.078158579999581,0,0,1.3646949462890625,0,0,0.7644
3.0812768790055998,0,0,1.1851298217773436,0,0,0.84084
3.084394252015045,0,0,1.0821791503906248,0,0,0.45864
3.08750849601347,0,0,1.2330138549804688,0,0,0.68796
3.0906278880138416,0,0,1.3335703247070312,0,0,0.22932
3.0937496130063664,0,0,1.1516109985351561,0,0,0.3822
3.096871949004708,0,0,1.5227122558593749,0,0,0.84084
3.09999147002236,0,0,1.5921441040039062,0,0,0.68796
3.103151509014424,0,0,1.1085153686523437,0,0,0.7644
3.106292660027975,0,0,1.5275006591796874,0,0,0.53508
3.1094156440231018,0,0,1.649604943847656,0,0,0.3822
3.1125348870118614,0,0,1.16837041015625,0,0,0.30576000000000003
3.1156503350066487,0,0,1.199495031738281,0,0,0.53508
3.1187667080084793,0,0,1.3407529296874998,0,0,0.91728
3.1218941180268303,0,0,1.2114660400390624,0,0,0.84084
3.1250180460046977,0,0,1.1731588134765625,0,0,1.37592
3.128137734020129,0,0,1.235408056640625,0,0,0.6115200000000001
3.1312523480155505,0,0,1.254561669921875,0,0,0.6115200000000001
3.1343682580045424,0,0,1.2282254516601563,0,0,0.6115200000000001
3.1374850020220038,0,0,1.2665326782226562,0,0,0.6115200000000001
3.1406133380078245,0,0,1.6639701538085936,0,0,0.84084
3.1437617110204883,0,0,1.2018892333984375,0,0,0.6115200000000001
3.146881991007831,0,0,1.2401964599609374,0,0,1.2230400000000001
3.14999869800522,0,0,1.3670891479492187,0,0,0.91728
3.1531166820204817,0,0,1.0965443603515623,0,0,-9.09636
3.1562734250037465,0,0,1.3335703247070312,0,0,0.15288000000000002
3.159390724002151,0,0,1.3263877197265623,0,0,0.7644
3.162508412002353,0,0,1.2761094848632812,0,0,0.6115200000000001
3.1656258040165994,0,0,1.2425906616210938,0,0,0.91728
3.168743047019234,0,0,1.24498486328125,0,0,0.91728
3.171860494010616,0,0,1.5682020874023437,0,0,1.2230400000000001
3.17497514502611,0,0,1.0821791503906248,0,0,0.7644
3.1781303330208175,0,0,1.3527239379882812,0,0,0.6115200000000001
3.181277632014826,0,0,1.465251416015625,0,0,0.7644
3.184404653002275,0,0,1.2210428466796874,0,0,0.3822
3.187518100021407,0,0,1.3670891479492187,0,0,0.07644000000000001
3.1906346030009445,0,0,1.2665326782226562,0,0,1.2994800000000002
3.193755680025788,0,0,1.2665326782226562,0,0,0.99372
3.196872479020385,0,0,1.1372457885742187,0,0,1.68168
3.199989500019001,0,0,1.4173673828125,0,0,0.3822
3.203105040010996,0,0,1.2018892333984375,0,0,1.07016
3.206221357017057,0,0,1.2497732666015624,0,0,0.53508
3.2093375450058375,0,0,1.4173673828125,0,0,0.6115200000000001
3.2124541960074566,0,0,1.7788918334960937,0,0,0.6115200000000001
3.215623347001383,0,0,1.1444283935546875,0,0,0.53508
3.218746071011992,0,0,1.1875240234375,0,0,0.7644
3.221863722021226,0,0,1.3766659545898436,0,0,1.1465999999999998
3.224979892023839,0,0,1.1731588134765625,0,0,0.68796
3.2280961720098276,0,0,1.1420341918945311,0,0,0.99372
3.2312118600239046,0,0,1.2593500732421874,0,0,0.84084
3.2343275110179093,0,0,1.1468225952148436,0,0,0.07644000000000001
3.2374435140227433,0,0,1.3670891479492187,0,0,0.15288000000000002
3.240560443024151,0,0,1.5227122558593749,0,0,1.1465999999999998
3.243770907021826,0,0,1.6112977172851561,0,0,1.1465999999999998
3.2468892430188134,0,0,1.1635820068359375,0,0,1.07016
3.2500070800015237,0,0,1.3910311645507811,0,0,0.91728
3.2531228230218403,0,0,1.6424223388671875,0,0,0.7644
3.256240141025046,0,0,1.2713210815429687,0,0,0.15288000000000002
3.2593542550166603,0,0,1.3096283081054687,0,0,0.0
3.26247668301221,0,0,1.2880804931640624,0,0,0.84084
3.2656083710025996,0,0,1.0821791503906248,0,0,0.6115200000000001
3.268723133020103,0,0,1.149216796875,0,0,1.45236
3.271848784002941,0,0,1.3910311645507811,0,0,0.91728
3.2749633240164258,0,0,1.149216796875,0,0,0.68796
3.2781089740165044,0,0,1.149216796875,0,0,0.45864
3.281228199019097,0,0,1.4724340209960938,0,0,0.30576000000000003
3.2843453870154917,0,0,1.8243816650390623,0,0,0.7644
3.2875131120090373,0,0,1.2928688964843749,0,0,0.84084
3.2907737050263677,0,0,1.3239935180664062,0,0,1.1465999999999998
3.29390022699954,0,0,1.2665326782226562,0,0,0.7644
3.2970166740124114,0,0,1.1468225952148436,0,0,0.68796
3.3001332510029897,0,0,1.158793603515625,0,0,-9.09636
3.3032481240225025,0,0,1.448492004394531,0,0,0.68796
3.306362497009104,0,0,1.1085153686523437,0,0,0.84084
3.3094748700095806,0,0,1.3168109130859373,0,0,0.53508
3.3125909650116228,0,0,1.4149731811523436,0,0,0.6115200000000001
3.315746690001106,0,0,1.687912170410156,0,0,1.1465999999999998
3.3188606740150135,0,0,1.1037269653320312,0,0,-8.71416
3.3219766030088067,0,0,1.4628572143554686,0,0,0.6115200000000001
3.32508982802392,0,0,1.5418658691406248,0,0,0.45864
3.328204090008512,0,0,1.158793603515625,0,0,0.3822
3.3313157410011627,0,0,1.1755530151367186,0,0,0.3822
3.3344284100166988,0,0,1.2880804931640624,0,0,0.68796
3.3410843560122885,0,0,1.1348515869140625,0,0,-9.784320000000001
3.3444564850069582,0,0,1.4317325927734375,0,0,0.91728
3.347659654013114,0,0,1.1875240234375,0,0,0.6115200000000001
3.3507842860126402,0,0,1.1372457885742187,0,0,1.60524
3.3539040480100084,0,0,1.4700398193359374,0,0,0.84084
3.3570230140176136,0,0,1.3455413330078123,0,0,1.07016
3.3601404979999643,0,0,1.1324573852539062,0,0,0.7644
3.363258093013428,0,0,1.3096283081054687,0,0,0.53508
3.3663765220262576,0,0,1.6543933471679686,0,0,0.7644
3.3694922660070006,0,0,1.3000515014648437,0,0,0.6115200000000001
3.3726094540033955,0,0,1.2330138549804688,0,0,0.68796
3.375727012025891,0,0,1.3862427612304686,0,0,0.68796
3.3788853480073158,0,0,1.189918225097656,0,0,0.91728
3.38200264700572,0,0,1.1516109985351561,0,0,0.84084
3.38511889000074,0,0,1.426944189453125,0,0,0.68796
3.3882365780009422,0,0,1.3670891479492187,0,0,0.91728
3.3913514880114235,0,0,1.1348515869140625,0,0,0.53508
3.3944688240007963,0,0,1.465251416015625,0,0,0.68796
3.397583272017073,0,0,1.5514426757812498,0,0,0.84084
3.400699367019115,0,0,1.3575123413085937,0,0,1.1465999999999998
3.403864110005088,0,0,1.350329736328125,0,0,-8.71416
3.406984872010071,0,0,1.438915197753906,0,0,0.84084
3.4105033520027064,0,0,1.3407529296874998,0,0,0.7644
3.4139660540095065,0,0,1.3263877197265623,0,0,0.91728
3.4170723350252956,0,0,1.2761094848632812,0,0,0.7644
3.420178319007391,0,0,1.3383587280273437,0,0,0.6115200000000001
3.4233151920197997,0,0,0.9744400756835937,0,0,-9.01992
3.426426343008643,0,0,1.4317325927734375,0,0,0.68796
3.4295371790067293,0,0,1.3383587280273437,0,0,0.53508
3.432647312001791,0,0,1.1875240234375,0,0,0.68796
3.4357511480047833,0,0,1.458068811035156,0,0,0.99372
3.438856929016765,0,0,1.4796166259765624,0,0,1.2994800000000002
3.4419652280048467,0,0,1.2713210815429687,0,0,0.91728
3.4450938790105283,0,0,1.2306196533203124,0,0,0.84084
3.448203233012464,0,0,1.3646949462890625,0,0,0.6115200000000001
3.451303903013468,0,0,1.3263877197265623,0,0,0.53508
3.454409165016841,0,0,1.1133037719726562,0,0,0.0
3.457515335001517,0,0,1.4963760375976562,0,0,1.1465999999999998
3.460620967001887,0,0,1.369483349609375,0,0,0.6115200000000001
3.463723970024148,0,0,1.1180921752929687,0,0,0.91728
3.4671162480080966,0,0,1.4508862060546874,0,0,0.91728
3.4702068059996236,0,0,1.455674609375,0,0,0.45864
3.473298606026219,0,0,1.209071838378906,0,0,0.84084
3.476387461007107,0,0,1.3096283081054687,0,0,0.45864
3.479509371012682,0,0,1.3934253662109375,0,0,1.2230400000000001
3.482665651012212,0,0,1.1923124267578125,0,0,0.68796
3.485774950007908,0,0,1.3359645263671873,0,0,0.84084
3.488881860015681,0,0,1.2641384765625,0,0,1.1465999999999998
3.49198925201199,0,0,1.1731588134765625,0,0,0.68796
3.4950915510125924,0,0,1.1468225952148436,0,0,-8.867040000000001
3.4981974240217824,0,0,1.455674609375,0,0,0.68796
3.501302131015109,0,0,1.2473790649414063,0,0,0.53508
3.504409615008626,0,0,1.1085153686523437,0,0,0.30576000000000003
3.507509970018873,0,0,1.3455413330078123,0,0,0.91728
3.510615121020237,0,0,1.5059528442382812,0,0,0.91728
3.513754642015556,0,0,1.2521674682617188,0,0,0.91728
3.5168588860251475,0,0,1.2785036865234374,0,0,0.6115200000000001
3.5199646480032243,0,0,1.4963760375976562,0,0,0.7644
3.523066281020874,0,0,1.3048399047851562,0,0,0.45864
3.526170154014835,0,0,1.0558429321289062,0,0,0.30576000000000003
3.529275509004947,0,0,1.4915876342773438,0,0,0.91728
3.532381734024966,0,0,1.2425906616210938,0,0,0.6115200000000001
3.5354824220121372,0,0,1.1013327636718748,0,0,0.7644
3.540655458025867,0,0,1.6136919189453125,0,0,0.68796
3.5439243850123603,0,0,1.2330138549804688,0,0,0.6115200000000001
3.5470378500176594,0,0,1.3000515014648437,0,0,0.22932
3.550147835019743,0,0,1.2497732666015624,0,0,0.99372
3.5532573930104263,0,0,1.216254443359375,0,0,0.7644
3.556382396025583,0,0,1.024718310546875,0,0,1.1465999999999998
3.559490417013876,0,0,1.4532804077148436,0,0,0.45864
3.5626669930061325,0,0,1.350329736328125,0,0,0.99372
3.565778181015048,0,0,1.1947066284179686,0,0,0.3822
3.568888166017132,0,0,1.4101847778320311,0,0,0.53508
3.571997391001787,0,0,1.6400281372070311,0,0,0.91728
3.5751035600260366,0,0,1.1875240234375,0,0,0.53508
3.5782108410203364,0,0,1.3239935180664062,0,0,1.1465999999999998
3.5814157500281,0,0,1.3575123413085937,0,0,0.99372
3.584258145012427,0,0,1.1276689819335937,0,0,0.45864
3.587046503002057,0,0,1.0797849487304687,0,0,1.07016
3.5900589510274585,0,0,1.438915197753906,0,0,0.68796
3.592853661015397,0,0,1.5083470458984374,0,0,0.84084
3.595646260015201,0,0,1.1516109985351561,0,0,0.6115200000000001
3.598435767024057,0,0,1.0773907470703123,0,0,-9.784320000000001
3.601230940024834,0,0,1.465251416015625,0,0,0.84084
3.6040135940129403,0,0,1.1420341918945311,0,0,1.1465999999999998
3.6067837300070096,0,0,1.1731588134765625,0,0,0.7644
3.609579237003345,0,0,1.4006079711914061,0,0,0.99372
3.612369447015226,0,0,1.3000515014648437,0,0,0.68796
3.615153453021776,0,0,1.120486376953125,0,0,0.84084
3.6179401260160375,0,0,1.1252747802734375,0,0,0.30576000000000003
3.620754299015971,0,0,1.6831237670898436,0,0,0.7644
3.6235416200070176,0,0,1.5370774658203123,0,0,0.53508
3.626335071021458,0,0,1.3120225097656248,0,0,0.3822
3.629113855015021,0,0,1.1085153686523437,0,0,0.68796
3.63190097300685,0,0,1.4987702392578124,0,0,0.91728
3.6348464590264484,0,0,1.3766659545898436,0,0,0.84084
3.6376802240265533,0,0,1.2425906616210938,0,0,0.53508
3.6404870450205635,0,0,1.4532804077148436,0,0,1.07016
3.6432849030243233,0,0,1.3287819213867187,0,0,0.68796
3.6460842430242337,0,0,1.0989385620117187,0,0,0.84084
3.648883508023573,0,0,1.2401964599609374,0,0,0.84084
3.651725644012913,0,0,1.446097802734375,0,0,0.6115200000000001
3.654525187012041,0,0,1.5083470458984374,0,0,0.84084
3.6573237670236267,0,0,1.2306196533203124,0,0,0.3822
3.660123107023537,0,0,1.209071838378906,0,0,0.30576000000000003
3.6629190210078377,0,0,1.446097802734375,0,0,0.7644
3.6657358040101826,0,0,1.0797849487304687,0,0,0.84084
3.6685423660092056,0,0,1.2569558715820313,0,0,0.99372
3.6713380020228215,0,0,1.3000515014648437,0,0,0.7644
3.6741362120083068,0,0,1.2785036865234374,0,0,0.84084
3.676956829003757,0,0,1.189918225097656,0,0,0.6115200000000001
3.679913149011554,0,0,1.1133037719726562,0,0,1.45236
3.6827903210069053,0,0,1.419761584472656,0,0,0.6115200000000001
3.6859072310035117,0,0,1.2425906616210938,0,0,1.1465999999999998
3.689023363025626,0,0,1.149216796875,0,0,0.91728
3.692136551020667,0,0,1.2713210815429687,0,0,0.3822
3.6952877940202598,0,0,1.4437036010742186,0,0,0.99372
3.6984062230039854,0,0,1.1851298217773436,0,0,0.6115200000000001
3.701523689000169,0,0,1.2689268798828124,0,0,0.7644
3.704641080024885,0,0,1.2378022583007813,0,0,0.84084
3.7077585650258698,0,0,1.1659762084960936,0,0,0.15288000000000002
3.711656966013834,0,0,1.3335703247070312,0,0,0.07644000000000001
3.7147810800233856,0,0,1.35990654296875,0,0,1.07016
3.7183029670268297,0,0,1.2114660400390624,0,0,0.6115200000000001
3.721450414013816,0,0,1.2761094848632812,0,0,-9.09636
3.7245723610103596,0,0,1.2521674682617188,0,0,0.91728
3.7277385120105464,0,0,1.1851298217773436,0,0,0.6115200000000001
3.730894439999247,0,0,1.3311761230468748,0,0,0.99372
3.73399840600905,0,0,1.4149731811523436,0,0,0.84084
3.737116557022091,0,0,1.5035586425781249,0,0,1.1465999999999998
3.7402339670225047,0,0,1.0869675537109373,0,0,1.07016
3.743349655007478,0,0,1.3168109130859373,0,0,0.53508
3.7464557500206865,0,0,1.5969325073242187,0,0,0.91728
3.7495704570028465,0,0,1.1731588134765625,0,0,-9.40212
3.7526897370116785,0,0,1.1133037719726562,0,0,0.53508
3.7558035730035044,0,0,1.2976572998046874,0,0,0.91728
3.7589164840173908,0,0,1.1540052001953125,0,0,0.84084
3.7620296900277026,0,0,1.1707646118164061,0,0,0.45864
3.7651486930262763,0,0,1.4796166259765624,0,0,0.6115200000000001
3.768263473000843,0,0,1.149216796875,0,0,0.68796
3.771373643015977,0,0,1.0845733520507812,0,0,0.68796
3.774487183021847,0,0,1.4772224243164063,0,0,0.6115200000000001
3.7775998710130807,0,0,1.6208745239257811,0,0,0.6115200000000001
3.780739910027478,0,0,1.350329736328125,0,0,0.3822
3.78385311702732,0,0,1.2856862915039062,0,0,0.45864
3.786965860024793,0,0,1.2569558715820313,0,0,0.6115200000000001
3.7902447130181827,0,0,1.1611878051757811,0,0,0.7644
3.7934180490265135,0,0,1.0989385620117187,0,0,0.7644
3.796533774002455,0,0,1.5059528442382812,0,0,0.84084
3.799637869000435,0,0,1.216254443359375,0,0,0.84084
3.802751335024368,0,0,1.1468225952148436,0,0,0.45864
3.8058579490170814,0,0,1.3144167114257812,0,0,0.99372
3.8090042660187464,0,0,1.4317325927734375,0,0,0.99372
3.8121143060270697,0,0,1.2904746948242187,0,0,1.2230400000000001
3.815218124014791,0,0,1.2880804931640624,0,0,0.7644
3.8183251270093024,0,0,1.388636962890625,0,0,0.53508
3.8214707960141823,0,0,1.3096283081054687,0,0,0.3822
3.82458141000825,0,0,1.1156979736328125,0,0,0.30576000000000003
3.8277179490251,0,0,1.5298948608398437,0,0,0.7644
3.8308439330139663,0,0,1.3431471313476562,0,0,0.84084
3.833948751009302,0,0,1.3670891479492187,0,0,1.07016
3.83705482800724,0,0,1.484405029296875,0,0,0.68796
3.840173386008246,0,0,1.3455413330078123,0,0,1.1465999999999998
3.843281334004132,0,0,1.1324573852539062,0,0,0.7644
3.8463871140265837,0,0,1.2832920898437499,0,0,0.6115200000000001
3.849492506007664,0,0,1.4101847778320311,0,0,0.6115200000000001
3.852596787008224,0,0,1.0917559570312498,0,0,0.22932
3.8557906589994673,0,0,1.0726023437499999,0,0,0.68796
3.858897940022871,0,0,1.4125789794921875,0,0,1.2230400000000001
3.862067090027267,0,0,1.2210428466796874,0,0,0.68796
3.8659501210204326,0,0,1.189918225097656,0,0,0.15288000000000002
3.8690488100110088,0,0,1.5131354492187499,0,0,1.1465999999999998
3.8721411270089447,0,0,1.2114660400390624,0,0,0.7644
3.875227556010941,0,0,1.2234370483398436,0,0,1.2230400000000001
3.878467669012025,0,0,1.484405029296875,0,0,0.68796
3.8816782450012397,0,0,1.3287819213867187,0,0,0.84084
3.884616712020943,0,0,1.3551181396484375,0,0,1.07016
3.887408922018949,0,0,1.3263877197265623,0,0,1.07016
3.8901994290063158,0,0,1.467645617675781,0,0,0.84084
3.892977695009904,0,0,1.209071838378906,0,0,0.68796
3.8958828110189643,0,0,1.13006318359375,0,0,0.6115200000000001
3.898674447002122,0,0,1.37906015625,0,0,0.84084
3.9014622120012064,0,0,1.5777788940429687,0,0,0.53508
3.9042544219992124,0,0,1.1468225952148436,0,0,0.53508
3.907040058023995,0,0,1.2569558715820313,0,0,-0.15288000000000002
3.9098341570061166,0,0,1.4053963745117186,0,0,0.84084
3.912624479009537,0,0,1.2282254516601563,0,0,0.99372
3.915410003013676,0,0,1.197100830078125,0,0,0.99372
3.9181978800043,0,0,1.2832920898437499,0,0,0.99372
3.9209860160190146,0,0,1.2785036865234374,0,0,0.7644
3.923800745018525,0,0,1.1180921752929687,0,0,0.53508
3.926632602000609,0,0,1.1827356201171875,0,0,0.6115200000000001
3.929424812027719,0,0,1.4053963745117186,0,0,0.68796
3.9322140410076827,0,0,1.675941162109375,0,0,0.45864
3.9350154920248315,0,0,1.1156979736328125,0,0,0.3822
3.937807683018036,0,0,1.0534487304687499,0,0,2.2167600000000003
3.94059739302611,0,0,1.4915876342773438,0,0,0.91728
3.943383474019356,0,0,1.3311761230468748,0,0,0.91728
3.9461718870152254,0,0,1.1156979736328125,0,0,0.7644
3.9489600600209087,0,0,1.2042834350585936,0,0,0.68796
3.9517489000281785,0,0,1.2330138549804688,0,0,0.99372
3.9545367210230324,0,0,1.218648645019531,0,0,0.68796
3.957324431015877,0,0,1.3455413330078123,0,0,0.3822
3.96011136402376,0,0,1.3910311645507811,0,0,0.84084
3.9628983520087786,0,0,1.235408056640625,0,0,0.53508
3.9657549500116147,0,0,1.2330138549804688,0,0,0.7644
3.9685472340206616,0,0,1.1324573852539062,0,0,1.2230400000000001
3.97133722199942,0,0,1.4149731811523436,0,0,0.68796
3.9741121910046786,0,0,1.3766659545898436,0,0,0.7644
3.976899809000315,0,0,1.177947216796875,0,0,0.53508
3.9797016850207,0,0,1.149216796875,0,0,0.6115200000000001
3.982575265021296,0,0,1.3359645263671873,0,0,0.99372
3.9856340650003403,0,0,1.1180921752929687,0,0,0.84084
3.9887400300067384,0,0,1.3048399047851562,0,0,0.53508
3.9918679220136255,0,0,1.5322890624999999,0,0,0.68796
3.9949726840131916,0,0,1.3431471313476562,0,0,0.68796
3.9980769460089505,0,0,1.22583125,0,0,0.7644
4.001181727013318,0,0,1.4413093994140624,0,0,0.6115200000000001
4.00428726701648,0,0,1.6017209106445311,0,0,0.99372
4.00738965900382,0,0,1.3335703247070312,0,0,0.45864
4.010493606008822,0,0,1.2593500732421874,0,0,0.22932
4.013598479010398,0,0,1.1947066284179686,0,0,0.91728
4.016729167022277,0,0,1.3335703247070312,0,0,1.07016
4.019857096020132,0,0,1.2569558715820313,0,0,1.2994800000000002
4.022962450020714,0,0,1.455674609375,0,0,0.6115200000000001
4.026216785016004,0,0,1.20667763671875,0,0,0.7644
4.029454305011313,0,0,1.2306196533203124,0,0,0.6115200000000001
4.032555308018345,0,0,1.4006079711914061,0,0,0.84084
4.03568640301819,0,0,1.5921441040039062,0,0,1.1465999999999998
4.038790147023974,0,0,1.1731588134765625,0,0,1.2230400000000001
4.043211894022534,0,0,1.4628572143554686,0,0,0.99372
4.046335304999957,0,0,1.3287819213867187,0,0,0.99372
4.049442696006736,0,0,1.120486376953125,0,0,0.6115200000000001
4.052552255016053,0,0,1.3096283081054687,0,0,0.68796
4.055655035015661,0,0,1.3862427612304686,0,0,0.84084
4.058758464001585,0,0,1.254561669921875,0,0,0.3822
4.061898985004518,0,0,1.3144167114257812,0,0,0.45864
4.065042654023273,0,0,1.3168109130859373,0,0,0.68796
4.0681700090062805,0,0,1.2832920898437499,0,0,0.91728
4.071256474999245,0,0,1.2042834350585936,0,0,0.91728
4.074346589011839,0,0,1.448492004394531,0,0,0.68796
4.0774355000176,0,0,1.438915197753906,0,0,0.6115200000000001
4.08086599901435,0,0,1.2904746948242187,0,0,0.45864
4.083915891009383,0,0,1.4317325927734375,0,0,0.53508
4.08670393502689,0,0,1.446097802734375,0,0,0.6115200000000001
4.089576885016868,0,0,1.1563994018554686,0,0,0.7644
4.092372206010623,0,0,1.16837041015625,0,0,0.6115200000000001
4.095157953008311,0,0,1.4604630126953124,0,0,0.68796
4.097945422021439,0,0,1.254561669921875,0,0,0.99372
4.10073355800705,0,0,1.2593500732421874,0,0,0.91728
4.1035205090011,0,0,1.2952630981445312,0,0,0.84084
4.106307238020236,0,0,1.3359645263671873,0,0,0.99372
4.10909476300003,0,0,1.0845733520507812,0,0,0.84084
4.111910621024435,0,0,1.2210428466796874,0,0,0.53508
4.114697405020706,0,0,1.5251064575195312,0,0,0.3822
4.117486763017951,0,0,1.4101847778320311,0,0,0.53508
4.120274621003773,0,0,1.2306196533203124,0,0,0.84084
4.123062035010662,0,0,1.1324573852539062,0,0,0.68796
4.1258507080201525,0,0,1.419761584472656,0,0,0.7644
4.128640233015176,0,0,1.5035586425781249,0,0,1.07016
4.131427461019484,0,0,1.0654197387695312,0,0,0.7644
4.1342168940173,0,0,1.2952630981445312,0,0,0.30576000000000003
4.137004808027996,0,0,1.3527239379882812,0,0,0.91728
4.139816240000073,0,0,1.22583125,0,0,0.6115200000000001
4.142602468025871,0,0,1.1923124267578125,0,0,0.22932
4.145390734018292,0,0,1.4987702392578124,0,0,0.68796
4.148181555006886,0,0,1.465251416015625,0,0,0.45864
4.150965821027057,0,0,1.3168109130859373,0,0,0.84084
4.153755068022292,0,0,1.158793603515625,0,0,1.37592
4.156549482024275,0,0,1.388636962890625,0,0,0.68796
4.159334432013566,0,0,1.5083470458984374,0,0,1.07016
4.162158512015594,0,0,1.1875240234375,0,0,0.3822
4.16494918501121,0,0,1.3335703247070312,0,0,0.22932
4.167770154017489,0,0,1.2138602416992186,0,0,1.2994800000000002
4.170592975016916,0,0,1.35990654296875,0,0,0.53508
4.173383870016551,0,0,1.1444283935546875,0,0,0.6115200000000001
4.176173655025195,0,0,1.484405029296875,0,0,0.68796
4.178958939010045,0,0,1.5179238525390624,0,0,0.84084
4.1818536480132025,0,0,1.3192051147460937,0,0,0.91728
4.184814689011546,0,0,1.0749965454101562,0,0,0.15288000000000002
4.187923192017479,0,0,1.3742717529296875,0,0,0.99372
4.191023954015691,0,0,1.0797849487304687,0,0,0.45864
4.194127605005633,0,0,1.1252747802734375,0,0,0.6115200000000001
4.197231755999383,0,0,1.3862427612304686,0,0,0.84084
4.200338204012951,0,0,1.6448165405273436,0,0,0.84084
4.203455151000526,0,0,1.1420341918945311,0,0,0.6115200000000001
4.20656048701494,0,0,1.2042834350585936,0,0,1.07016
4.2096653600165155,0,0,1.6160861206054686,0,0,0.6115200000000001
4.212805678020231,0,0,1.2761094848632812,0,0,0.84084
4.215911829000106,0,0,1.2808978881835937,0,0,0.07644000000000001
4.219054887013044,0,0,1.235408056640625,0,0,1.07016
4.222164834005525,0,0,1.2808978881835937,0,0,0.53508
4.225269411021145,0,0,1.3263877197265623,0,0,0.84084
4.2284081170219,0,0,1.4149731811523436,0,0,0.91728
4.2315143610176165,0,0,1.6400281372070311,0,0,0.91728
4.234619790018769,0,0,1.3670891479492187,0,0,0.84084
4.2377584030036815,0,0,1.388636962890625,0,0,0.91728
4.240862591017503,0,0,1.618480322265625,0,0,0.68796
4.243968631024472,0,0,1.3335703247070312,0,0,0.30576000000000003
4.24706993100699,0,0,1.2114660400390624,0,0,0.30576000000000003
4.250174748012796,0,0,1.2713210815429687,0,0,1.07016
4.253280066011939,0,0,1.1180921752929687,0,0,1.07016
4.256385624001268,0,0,1.2856862915039062,0,0,1.2994800000000002
4.259486961003859,0,0,1.3958195678710936,0,0,0.3822
4.262591334001627,0,0,1.2521674682617188,0,0,0.6115200000000001
4.266103610018035,0,0,1.2952630981445312,0,0,0.07644000000000001
4.269201595016057,0,0,1.458068811035156,0,0,0.53508
4.2722926900023594,0,0,1.7932570434570312,0,0,0.91728
4.275376879028045,0,0,1.1635820068359375,0,0,0.7644
4.278464104019804,0,0,1.1372457885742187,0,0,1.07016
4.281598847010173,0,0,1.4891934326171874,0,0,0.7644
4.284706591017311,0,0,1.24498486328125,0,0,0.6115200000000001
4.287837964016944,0,0,1.2952630981445312,0,0,0.6115200000000001
4.292507894017035,0,0,1.5131354492187499,0,0,0.68796
4.295662211021408,0,0,1.16837041015625,0,0,0.84084
4.298769418004667,0,0,1.3096283081054687,0,0,0.45864
4.301906846027123,0,0,1.3335703247070312,0,0,0.91728
4.3050140340055805,0,0,1.1563994018554686,0,0,1.1465999999999998
4.308123185008299,0,0,1.1013327636718748,0,0,1.37592
4.3112258920155,0,0,1.4030021728515625,0,0,0.53508
4.314362580014858,0,0,1.4508862060546874,0,0,0.6115200000000001
4.317469045025064,0,0,1.1707646118164061,0,0,0.30576000000000003
4.320575956022367,0,0,1.4341267944335936,0,0,1.07016
4.3237113840004895,0,0,1.7429788085937499,0,0,0.99372
4.326815109001473,0,0,1.0749965454101562,0,0,0.84084
4.329919075011276,0,0,1.3215993164062498,0,0,1.1465999999999998
4.333101318014087,0,0,1.3024457031249999,0,0,-9.01992
4.3362372090050485,0,0,1.1659762084960936,0,0,0.3822
4.339862262015231,0,0,1.13006318359375,0,0,0.22932
4.343042931024684,0,0,1.35990654296875,0,0,0.84084
4.348054561007302,0,0,1.0869675537109373,0,0,0.53508
4.351267414022004,0,0,1.2952630981445312,0,0,0.6115200000000001
4.35450087900972,0,0,1.6304513305664061,0,0,0.91728
4.357728861999931,0,0,1.1324573852539062,0,0,0.91728
4.36118749101297,0,0,1.2425906616210938,0,0,0.7644
4.364421381003922,0,0,1.5945383056640625,0,0,0.30576000000000003
4.367666197009385,0,0,1.218648645019531,0,0,0.30576000000000003
4.370867217017803,0,0,1.0845733520507812,0,0,0.68796
4.373998479015427,0,0,1.2497732666015624,0,0,1.2230400000000001
4.37710385301034,0,0,1.1156979736328125,0,0,0.6115200000000001
4.380344817007426,0,0,1.3479355346679687,0,0,0.53508
4.383602854999481,0,0,1.2928688964843749,0,0,1.07016
4.38622790001682,0,0,1.3958195678710936,0,0,0.91728
4.38876963200164,0,0,1.197100830078125,0,0,0.30576000000000003
4.391310956008965,0,0,1.0821791503906248,0,0,0.30576000000000003
4.393852557026548,0,0,1.4891934326171874,0,0,0.7644
4.396394863026217,0,0,1.2617442749023438,0,0,1.1465999999999998
4.398933594027767,0,0,1.0726023437499999,0,0,0.30576000000000003
4.4015170840139035,0,0,1.2617442749023438,0,0,0.6115200000000001
4.404063649009913,0,0,1.4030021728515625,0,0,0.7644
4.406607324024662,0,0,1.3718775512695311,0,0,0.84084
4.409150334016886,0,0,1.1037269653320312,0,0,0.3822
4.41169300902402,0,0,1.2114660400390624,0,0,0.91728
4.414219778002007,0,0,1.3910311645507811,0,0,1.1465999999999998
4.4167627870047,0,0,1.4867992309570313,0,0,1.75812
4.419303481001407,0,0,1.0821791503906248,0,0,0.99372
4.421843472024193,0,0,1.1516109985351561,0,0,1.2230400000000001
4.424383259000024,0,0,1.37906015625,0,0,0.99372
4.426918342011049,0,0,1.5969325073242187,0,0,0.53508
4.429544424026972,0,0,1.189918225097656,0,0,0.45864
4.432085155014647,0,0,1.1635820068359375,0,0,1.07016
4.434625739027979,0,0,1.5035586425781249,0,0,0.99372
4.437214451027103,0,0,1.426944189453125,0,0,0.53508
4.439793959027156,0,0,1.35990654296875,0,0,0.68796
4.442335895000724,0,0,1.2018892333984375,0,0,1.2994800000000002
4.444877811009064,0,0,1.419761584472656,0,0,0.91728
4.447419116011588,0,0,1.4149731811523436,0,0,0.91728
4.449959570018109,0,0,1.24498486328125,0,0,0.84084
4.452500894025434,0,0,1.0989385620117187,0,0,1.5288
4.4550400510197505,0,0,1.4724340209960938,0,0,1.2994800000000002
4.4575800230086315,0,0,1.4867992309570313,0,0,0.84084
4.460252235003281,0,0,1.177947216796875,0,0,0.53508
4.462799169006757,0,0,1.1180921752929687,0,0,1.45236
4.465356938017067,0,0,1.407790576171875,0,0,0.84084
4.46790259500267,0,0,1.599326708984375,0,0,0.6115200000000001
4.4704455110186245,0,0,1.1468225952148436,0,0,0.84084
4.472986095002852,0,0,1.1540052001953125,0,0,1.2994800000000002
4.475525493005989,0,0,1.47482822265625,0,0,1.07016
4.478066409006715,0,0,1.6400281372070311,0,0,0.68796
4.480625288008014,0,0,1.0821791503906248,0,0,0.84084
4.483258000022033,0,0,1.1635820068359375,0,0,0.6115200000000001
4.486281856021378,0,0,1.4149731811523436,0,0,0.45864
4.489396266028052,0,0,1.189918225097656,0,0,0.91728
4.492510787007632,0,0,1.3024457031249999,0,0,0.15288000000000002
4.495624401024543,0,0,1.4508862060546874,0,0,0.6115200000000001
4.498737534013344,0,0,1.5753846923828123,0,0,0.91728
