Time,AccelX1,AccelY1,AccelZ1,AccelX2,AccelY2,AccelZ2
4.536996129900217e-06,0,0,1.3263877197265623,0,0,0.99372
0.0036407159932423383,0,0,1.139639990234375,0,0,9.555
0.00724115499178879,0,0,1.3646949462890625,0,0,0.7644
0.01087277801707387,0,0,1.3623007446289062,0,0,1.98744
0.014385254995431751,0,0,1.1372457885742187,0,0,0.3822
0.017897342011565343,0,0,1.3551181396484375,0,0,0.68796
0.02140950399916619,0,0,1.218648645019531,0,0,0.53508
0.025004183989949524,0,0,1.158793603515625,0,0,0.91728
0.028702084004180506,0,0,1.5777788940429687,0,0,2.36964
0.032227801013505086,0,0,1.3670891479492187,0,0,0.84084
0.03573946299729869,0,0,1.2569558715820313,0,0,0.7644
0.039263328013475984,0,0,1.3718775512695311,0,0,0.91728
0.04276943500735797,0,0,1.158793603515625,0,0,1.07016
0.04627555899787694,0,0,1.2282254516601563,0,0,0.7644
0.04978116601705551,0,0,1.5610194824218748,0,0,0.68796
0.05328460500459187,0,0,1.2952630981445312,0,0,0.99372
0.056789155991282314,0,0,1.3479355346679687,0,0,0.84084
0.060302318015601486,0,0,1.4221557861328125,0,0,0.99372
0.06381316500483081,0,0,1.1851298217773436,0,0,0.84084
0.06771389601635747,0,0,1.37906015625,0,0,0.7644
0.07144511101068929,0,0,1.6112977172851561,0,0,0.68796
0.07497440199949779,0,0,1.350329736328125,0,0,0.7644
0.07849634200101718,0,0,1.5155296508789062,0,0,0.6115200000000001
0.08201496599940583,0,0,1.4772224243164063,0,0,0.6115200000000001
0.08553992400993593,0,0,1.1228805786132812,0,0,0.6115200000000001
0.08876049699028954,0,0,1.4700398193359374,0,0,0.7644
0.09188062700559385,0,0,1.5610194824218748,0,0,1.07016
0.09520706799230538,0,0,1.3742717529296875,0,0,0.53508
0.09844562201760709,0,0,1.1635820068359375,0,0,0.53508
0.10156984400236979,0,0,1.6807295654296874,0,0,0.53508
0.10467786301160231,0,0,1.2832920898437499,0,0,0.6115200000000001
0.10779119600192644,0,0,1.1085153686523437,0,0,0.07644000000000001
0.11090502899605781,0,0,1.3455413330078123,0,0,0.91728
0.11402351100696251,0,0,1.3000515014648437,0,0,0.84084
0.11714180701528676,0,0,1.2904746948242187,0,0,1.37592
0.12025826901663095,0,0,1.350329736328125,0,0,0.45864
0.12338686198927462,0,0,1.5203180541992187,0,0,0.7644
0.1265023619926069,0,0,1.216254443359375,0,0,0.68796
0.12961441700463183,0,0,1.3814543579101561,0,0,0.6115200000000001
0.13275856501422822,0,0,1.5873557006835937,0,0,-9.01992
0.1358783420000691,0,0,1.2641384765625,0,0,0.30576000000000003
0.1390290640119929,0,0,0.967257470703125,0,0,1.07016
0.14214587901369669,0,0,1.24498486328125,0,0,1.07016
0.1452608230174519,0,0,1.0749965454101562,0,0,0.84084
0.14837486000033095,0,0,1.209071838378906,0,0,1.2230400000000001
0.15148963799583726,0,0,1.3838485595703125,0,0,0.6115200000000001
0.15460406299098395,0,0,1.35990654296875,0,0,0.84084
0.15771656300057657,0,0,1.2425906616210938,0,0,0.68796
0.16083437800989486,0,0,1.2378022583007813,0,0,0.45864
0.16394923001644202,0,0,1.6472107421875,0,0,0.7644
0.16706226699170657,0,0,1.3120225097656248,0,0,0.68796
0.1701769700157456,0,0,1.1468225952148436,0,0,0.99372
0.1732880999916233,0,0,1.3072341064453123,0,0,0.99372
0.1764025439915713,0,0,1.3192051147460937,0,0,1.07016
0.17954856200958602,0,0,1.1707646118164061,0,0,1.1465999999999998
0.18266219200449996,0,0,1.2880804931640624,0,0,0.30576000000000003
0.18581261701183394,0,0,1.2976572998046874,0,0,0.53508
0.18892780199530534,0,0,1.3168109130859373,0,0,0.68796
0.19204519101185724,0,0,1.407790576171875,0,0,0.91728
0.195178191002924,0,0,1.5897499023437498,0,0,0.84084
0.19829363501048647,0,0,1.2952630981445312,0,0,0.3822
0.20140398701187223,0,0,1.24498486328125,0,0,0.7644
0.20517370098968968,0,0,1.2401964599609374,0,0,0.68796
0.20844031000160612,0,0,1.0893617553710937,0,0,0.6115200000000001
0.2115423289942555,0,0,1.1923124267578125,0,0,0.91728
0.21524917299393564,0,0,1.2282254516601563,0,0,0.68796
0.21865565099869855,0,0,1.1875240234375,0,0,0.7644
0.2219265199964866,0,0,1.2976572998046874,0,0,0.22932
0.22516761100268923,0,0,1.3263877197265623,0,0,0.91728
0.22829183301655576,0,0,1.1133037719726562,0,0,0.99372
0.2314133690088056,0,0,1.1324573852539062,0,0,1.2994800000000002
0.23453044300549664,0,0,1.4891934326171874,0,0,0.45864
0.23764722101623192,0,0,1.3120225097656248,0,0,0.84084
0.24076120200334117,0,0,1.2473790649414063,0,0,0.45864
0.24387701699743047,0,0,1.2785036865234374,0,0,0.91728
0.2469885729951784,0,0,1.484405029296875,0,0,0.7644
0.25019140500808135,0,0,1.3527239379882812,0,0,0.99372
0.253317312017316,0,0,1.1468225952148436,0,0,0.7644
0.25677519699092954,0,0,1.4341267944335936,0,0,0.7644
0.2598993070132565,0,0,1.2282254516601563,0,0,0.68796
0.26304719600011595,0,0,1.1109095703125,0,0,0.07644000000000001
0.2661650660156738,0,0,1.4413093994140624,0,0,0.7644
0.26927934400737286,0,0,1.2569558715820313,0,0,0.6115200000000001
0.2723947699996643,0,0,1.1827356201171875,0,0,1.1465999999999998
0.27551080600824207,0,0,1.2425906616210938,0,0,1.07016
0.27863071399042383,0,0,1.4413093994140624,0,0,0.7644
0.2817817690083757,0,0,1.158793603515625,0,0,0.7644
0.2849329349992331,0,0,1.3000515014648437,0,0,0.84084
0.2880494529963471,0,0,1.2785036865234374,0,0,0.53508
0.2911629719892517,0,0,1.235408056640625,0,0,0.68796
0.2942760270088911,0,0,1.149216796875,0,0,0.15288000000000002
0.29738893400644884,0,0,1.209071838378906,0,0,0.99372
0.30050269298953936,0,0,1.3168109130859373,0,0,0.45864
0.303621582017513,0,0,1.1923124267578125,0,0,0.91728
0.306734340992989,0,0,1.3527239379882812,0,0,0.6115200000000001
0.3098479710170068,0,0,1.5562310791015623,0,0,1.1465999999999998
0.3129627490125131,0,0,1.3048399047851562,0,0,0.91728
0.31607865600381047,0,0,1.3096283081054687,0,0,0.7644
0.31919300800655037,0,0,1.2928688964843749,0,0,0.3822
0.3223068960069213,0,0,1.2473790649414063,0,0,0.45864
0.3254196369962301,0,0,1.1635820068359375,0,0,0.15288000000000002
0.3285539880162105,0,0,1.3359645263671873,0,0,1.07016
0.331670043990016,0,0,1.2473790649414063,0,0,0.45864
0.3347833589941729,0,0,1.2114660400390624,0,0,0.68796
0.3379389320034534,0,0,1.3144167114257812,0,0,0.53508
0.3410560250049457,0,0,1.6615759521484375,0,0,0.91728
0.344188043003669,0,0,1.2042834350585936,0,0,1.2994800000000002
0.34865211899159476,0,0,1.5107412475585937,0,0,0.22932
0.3517760079994332,0,0,1.5107412475585937,0,0,1.1465999999999998
0.3548923600174021,0,0,1.1061211669921875,0,0,0.6115200000000001
0.3580074330093339,0,0,1.3287819213867187,0,0,0.84084
0.3611218040168751,0,0,1.4149731811523436,0,0,0.99372
0.36423930400633253,0,0,1.3383587280273437,0,0,0.68796
0.367353228997672,0,0,1.2904746948242187,0,0,0.91728
0.3704646000114735,0,0,1.2114660400390624,0,0,0.84084
0.37357467401307076,0,0,1.2761094848632812,0,0,0.68796
0.37734894300228916,0,0,1.199495031738281,0,0,0.15288000000000002
0.3804796469921712,0,0,1.2737152832031249,0,0,1.07016
0.38358131400309503,0,0,1.3024457031249999,0,0,0.84084
0.38678223799797706,0,0,1.3670891479492187,0,0,0.7644
0.38961492700036615,0,0,1.3766659545898436,0,0,0.91728
0.39241200499236584,0,0,1.6472107421875,0,0,0.84084
0.3952099710004404,0,0,1.2114660400390624,0,0,0.6115200000000001
0.3980062899936456,0,0,1.0749965454101562,0,0,0.45864
0.40080379298888147,0,0,1.2904746948242187,0,0,0.53508
0.40361727800336666,0,0,1.5203180541992187,0,0,0.91728
0.4064187449985184,0,0,1.3431471313476562,0,0,0.68796
0.4092184889886994,0,0,1.2689268798828124,0,0,0.3822
0.41201382598956116,0,0,1.3383587280273437,0,0,0.99372
0.4148118669982068,0,0,1.1635820068359375,0,0,0.84084
0.4176082040066831,0,0,1.2832920898437499,0,0,0.68796
0.42040396700031124,0,0,1.446097802734375,0,0,0.53508
0.42320250801276416,0,0,1.6017209106445311,0,0,0.91728
0.4259994929889217,0,0,1.2689268798828124,0,0,0.45864
0.42890706899925135,0,0,1.199495031738281,0,0,0.99372
0.4317014249972999,0,0,1.3551181396484375,0,0,0.68796
0.43448576200171374,0,0,1.4820108276367188,0,0,1.07016
0.43728850601473823,0,0,1.1923124267578125,0,0,0.7644
0.4401106020086445,0,0,1.2832920898437499,0,0,0.53508
0.44290910600102507,0,0,1.2665326782226562,0,0,0.6115200000000001
0.4457069060008507,0,0,1.2880804931640624,0,0,0.6115200000000001
0.4485037430131342,0,0,1.3287819213867187,0,0,0.6115200000000001
0.4513019130099565,0,0,1.5275006591796874,0,0,0.7644
0.45412571300403215,0,0,1.5729904907226562,0,0,0.53508
0.4569270499923732,0,0,1.1923124267578125,0,0,0.84084
0.4597254419932142,0,0,1.1324573852539062,0,0,1.2994800000000002
0.4625207240169402,0,0,1.426944189453125,0,0,0.53508
0.465640409005573,0,0,1.3934253662109375,0,0,1.07016
0.46850422699935734,0,0,1.1731588134765625,0,0,0.68796
0.47132847100147046,0,0,1.2497732666015624,0,0,0.53508
0.4741177340038121,0,0,1.2713210815429687,0,0,0.91728
0.47691349699744023,0,0,1.3311761230468748,0,0,0.53508
0.4797066670143977,0,0,1.2593500732421874,0,0,0.6115200000000001
0.48249467101413757,0,0,1.2306196533203124,0,0,0.84084
0.4853759139950853,0,0,1.5059528442382812,0,0,0.6115200000000001
0.4882458240026608,0,0,1.2593500732421874,0,0,0.6115200000000001
0.4913568609918002,0,0,1.197100830078125,0,0,0.07644000000000001
0.4944617500004824,0,0,1.3311761230468748,0,0,0.68796
0.49756867601536214,0,0,1.0749965454101562,0,0,0.91728
0.5006768240127712,0,0,1.350329736328125,0,0,0.68796
0.5130520279926714,0,0,1.2521674682617188,0,0,0.53508
0.5167454839975107,0,0,1.608903515625,0,0,0.7644
0.5199493170075584,0,0,1.2832920898437499,0,0,0.7644
0.5230553720030002,0,0,1.2569558715820313,0,0,0.84084
0.5261430020036642,0,0,1.2473790649414063,0,0,0.68796
0.5292322800087277,0,0,1.0821791503906248,0,0,0.45864
0.5328664960106835,0,0,1.0965443603515623,0,0,0.22932
0.5362148449930828,0,0,1.3168109130859373,0,0,0.99372
0.5393215109943412,0,0,1.2401964599609374,0,0,0.91728
0.5424199739936739,0,0,1.199495031738281,0,0,1.07016
0.5455207150080241,0,0,1.4772224243164063,0,0,0.68796
0.5486392890161369,0,0,1.4030021728515625,0,0,0.91728
0.5517583070031833,0,0,1.189918225097656,0,0,0.7644
0.5548749930167105,0,0,1.2042834350585936,0,0,0.68796
0.5580022140056826,0,0,1.5562310791015623,0,0,0.6115200000000001
0.5611185290035792,0,0,1.2569558715820313,0,0,0.68796
0.5643311390012968,0,0,1.1180921752929687,0,0,0.53508
0.5674498050066177,0,0,1.2808978881835937,0,0,0.68796
0.5705630459997337,0,0,1.2473790649414063,0,0,0.7644
0.5748626799904741,0,0,1.0438719238281249,0,0,0.53508
0.5780447160068434,0,0,1.2713210815429687,0,0,0.91728
0.5811947160109412,0,0,1.22583125,0,0,0.99372
0.5843113079899922,0,0,1.20667763671875,0,0,0.84084
0.5875195109983906,0,0,1.4030021728515625,0,0,0.91728
0.5903621249890421,0,0,1.2521674682617188,0,0,0.84084
0.5931757950165775,0,0,1.199495031738281,0,0,0.99372
0.5960602790000848,0,0,1.3742717529296875,0,0,0.99372
0.5989115409902297,0,0,1.407790576171875,0,0,0.91728
0.6017112859990448,0,0,1.3024457031249999,0,0,0.7644
0.6045245669956785,0,0,1.1228805786132812,0,0,0.6115200000000001
0.6073324040044099,0,0,1.2617442749023438,0,0,0.45864
0.6101308700162917,0,0,1.6208745239257811,0,0,0.7644
0.6129366520035546,0,0,1.3072341064453123,0,0,0.7644
0.6157371000153944,0,0,0.9816226806640624,0,0,1.2994800000000002
0.6185329740110319,0,0,1.5203180541992187,0,0,0.68796
0.6213305520068388,0,0,1.4796166259765624,0,0,0.84084
0.6241291660116985,0,0,1.0941501586914062,0,0,0.7644
0.6269264850125182,0,0,1.22583125,0,0,0.3822
0.6297199330001604,0,0,1.3575123413085937,0,0,0.53508
0.632548602996394,0,0,1.2832920898437499,0,0,0.53508
0.6353488469903823,0,0,1.2282254516601563,0,0,0.6115200000000001
0.6381554620165844,0,0,1.2617442749023438,0,0,0.84084
0.6409539660089649,0,0,1.5442600708007812,0,0,0.6115200000000001
0.6437849499925505,0,0,1.2904746948242187,0,0,0.84084
0.6465823620092124,0,0,1.2904746948242187,0,0,0.84084
0.6494339939963538,0,0,1.3311761230468748,0,0,0.68796
0.6522507200133987,0,0,1.350329736328125,0,0,0.91728
0.6550481120066252,0,0,1.3000515014648437,0,0,0.91728
0.6578442640020512,0,0,1.235408056640625,0,0,0.0
0.6606414900161326,0,0,1.446097802734375,0,0,0.68796
0.6634402350173332,0,0,1.3670891479492187,0,0,0.30576000000000003
0.666236460005166,0,0,1.3287819213867187,0,0,0.68796
0.6690642969915643,0,0,1.3239935180664062,0,0,0.99372
0.6718628930102568,0,0,1.5155296508789062,0,0,0.7644
0.6746577669982798,0,0,1.3024457031249999,0,0,0.68796
0.6774562899954617,0,0,1.1109095703125,0,0,0.91728
0.6802561450167559,0,0,1.446097802734375,0,0,0.7644
0.6830538710055407,0,0,1.4796166259765624,0,0,1.07016
0.6859483360021841,0,0,1.2401964599609374,0,0,0.7644
0.6888265240122564,0,0,1.2282254516601563,0,0,0.22932
0.6919440609926824,0,0,1.2689268798828124,0,0,0.7644
0.6950592279899865,0,0,1.235408056640625,0,0,0.91728
0.6981744499935303,0,0,1.1947066284179686,0,0,1.37592
0.7012904309958685,0,0,1.2808978881835937,0,0,0.68796
0.7044045609945897,0,0,1.4820108276367188,0,0,0.6115200000000001
0.7075220420083497,0,0,1.1061211669921875,0,0,0.6115200000000001
0.7106343200139236,0,0,1.2856862915039062,0,0,0.68796
0.7137705420027487,0,0,1.5825672973632812,0,0,0.45864
0.716886134003289,0,0,1.0989385620117187,0,0,0.45864
0.7200035229907371,0,0,1.189918225097656,0,0,0.22932
0.723157689004438,0,0,1.2018892333984375,0,0,0.91728
0.7262731890077703,0,0,1.3239935180664062,0,0,0.99372
0.7293838920013513,0,0,1.1516109985351561,0,0,1.37592
0.7325313180044759,0,0,1.3551181396484375,0,0,0.45864
0.7356519470049534,0,0,1.5634136840820312,0,0,0.53508
0.7387664470006712,0,0,1.3024457031249999,0,0,0.68796
0.7418850029935129,0,0,1.4030021728515625,0,0,0.7644
0.7450031879998278,0,0,1.6328455322265625,0,0,0.7644
0.7481203910137992,0,0,1.3000515014648437,0,0,0.6115200000000001
0.7513097790069878,0,0,1.1228805786132812,0,0,0.84084
0.7544262970041018,0,0,1.3718775512695311,0,0,0.99372
0.7575437230116222,0,0,1.1540052001953125,0,0,1.07016
0.7606618530116975,0,0,1.0941501586914062,0,0,1.07016
0.7637997409910895,0,0,1.3215993164062498,0,0,0.30576000000000003
0.7669154079922009,0,0,1.2713210815429687,0,0,0.84084
0.7700315740075894,0,0,1.3024457031249999,0,0,0.7644
0.7731515929917805,0,0,1.438915197753906,0,0,0.99372
0.776267832989106,0,0,1.6735469604492186,0,0,0.99372
0.7793853699986357,0,0,1.2665326782226562,0,0,0.7644
0.7825022400065791,0,0,1.1611878051757811,0,0,0.84084
0.785618907015305,0,0,1.3958195678710936,0,0,0.91728
0.7895613409928046,0,0,1.3168109130859373,0,0,0.3822
0.7927257110131904,0,0,1.2114660400390624,0,0,0.84084
0.7958505249989685,0,0,1.3527239379882812,0,0,0.99372
0.7989634510013275,0,0,1.0845733520507812,0,0,0.68796
0.8020816729986109,0,0,1.218648645019531,0,0,1.45236
0.8052128769923002,0,0,1.3934253662109375,0,0,0.6115200000000001
0.8083367840154096,0,0,1.4508862060546874,0,0,0.68796
0.8114456910116132,0,0,1.1923124267578125,0,0,0.6115200000000001
0.8145401910005603,0,0,1.369483349609375,0,0,0.6115200000000001
0.8205101200146601,0,0,1.3431471313476562,0,0,0.68796
0.8236275090021081,0,0,1.0917559570312498,0,0,0.0
0.8267431569984183,0,0,1.0821791503906248,0,0,0.91728
0.829853194009047,0,0,1.3215993164062498,0,0,0.84084
0.8329991009959485,0,0,1.1611878051757811,0,0,0.91728
0.8361163600056898,0,0,1.4245499877929686,0,0,0.6115200000000001
0.8392314340162557,0,0,1.5921441040039062,0,0,0.7644
0.8423881189955864,0,0,1.1037269653320312,0,0,0.45864
0.8455164330080152,0,0,1.369483349609375,0,0,0.91728
0.8487293950165622,0,0,1.6017209106445311,0,0,0.45864
0.8518808940134477,0,0,1.2761094848632812,0,0,0.3822
0.85498872800963,0,0,1.1635820068359375,0,0,0.30576000000000003
0.8582131149887573,0,0,1.3048399047851562,0,0,0.91728
0.8613315960101318,0,0,1.0749965454101562,0,0,0.7644
0.8644453370070551,0,0,1.0989385620117187,0,0,0.7644
0.8675652809906751,0,0,1.407790576171875,0,0,0.30576000000000003
0.8706779110070784,0,0,1.2306196533203124,0,0,0.6115200000000001
0.8737926880130544,0,0,1.2856862915039062,0,0,0.6115200000000001
0.8769070960115641,0,0,1.3838485595703125,0,0,0.7644
0.8800219839904457,0,0,1.678335363769531,0,0,1.1465999999999998
0.88316787299118,0,0,1.1276689819335937,0,0,0.84084
0.8862822059891187,0,0,1.218648645019531,0,0,0.91728
0.8894922600011341,0,0,1.4772224243164063,0,0,0.7644
0.8923396890168078,0,0,1.235408056640625,0,0,0.7644
0.8951365080138203,0,0,1.3048399047851562,0,0,0.7644
0.8979343629907817,0,0,1.4604630126953124,0,0,0.53508
0.9007290709996596,0,0,1.6328455322265625,0,0,0.7644
0.9035899070149753,0,0,1.2832920898437499,0,0,0.7644
0.906393687997479,0,0,1.1133037719726562,0,0,-8.7906
0.9092154880054295,0,0,1.3383587280273437,0,0,0.45864
0.9120910280034877,0,0,1.4030021728515625,0,0,0.99372
0.9148904200119432,0,0,1.3383587280273437,0,0,0.6115200000000001
0.9176884430053178,0,0,1.254561669921875,0,0,0.53508
0.9204857239965349,0,0,1.35990654296875,0,0,0.91728
0.9233489120088052,0,0,1.2282254516601563,0,0,0.45864
0.9261571560055017,0,0,1.1156979736328125,0,0,0.3822
0.9289622340002097,0,0,1.3551181396484375,0,0,0.45864
0.9317649040021934,0,0,1.5921441040039062,0,0,0.91728
0.9354814339894801,0,0,1.2497732666015624,0,0,0.84084
0.938331826007925,0,0,1.1707646118164061,0,0,0.91728
0.941136904002633,0,0,1.3431471313476562,0,0,0.91728
0.9439402589923702,0,0,1.1827356201171875,0,0,0.6115200000000001
0.9467387810000218,0,0,1.2042834350585936,0,0,0.6115200000000001
0.9495372480014339,0,0,1.2689268798828124,0,0,0.53508
0.9523361960018519,0,0,1.3120225097656248,0,0,0.30576000000000003
0.955138569988776,0,0,1.2425906616210938,0,0,1.2230400000000001
0.9579355549940374,0,0,1.0773907470703123,0,0,1.5288
0.9607332250161562,0,0,1.438915197753906,0,0,0.6115200000000001
0.963533247995656,0,0,1.2617442749023438,0,0,0.7644
0.9663328439928591,0,0,1.2856862915039062,0,0,0.7644
0.969131551013561,0,0,1.1659762084960936,0,0,0.45864
0.971930795989465,0,0,1.3287819213867187,0,0,0.91728
0.9747261140146293,0,0,1.2617442749023438,0,0,0.6115200000000001
0.9775234700064175,0,0,1.120486376953125,0,0,0.53508
0.9803199919988401,0,0,1.2234370483398436,0,0,0.7644
0.9831476059916895,0,0,1.3646949462890625,0,0,0.53508
0.9859457400161773,0,0,1.3646949462890625,0,0,0.91728
0.9888340939942282,0,0,1.1420341918945311,0,0,0.99372
0.9917040599975735,0,0,1.458068811035156,0,0,0.45864
0.9948202449886594,0,0,1.426944189453125,0,0,0.99372
0.9979380599979777,0,0,1.2210428466796874,0,0,0.91728
1.0010731520014815,0,0,1.2497732666015624,0,0,0.6115200000000001
1.0043629090068862,0,0,1.446097802734375,0,0,0.91728
1.0075904630066361,0,0,1.2282254516601563,0,0,0.7644
1.01083899801597,0,0,1.22583125,0,0,0.68796
1.0141002369928174,0,0,1.3335703247070312,0,0,0.45864
1.0173377169994637,0,0,1.2737152832031249,0,0,0.84084
1.0205665490066167,0,0,1.0797849487304687,0,0,0.3822
1.0238169550138991,0,0,1.2689268798828124,0,0,0.91728
1.0270454160054214,0,0,1.2976572998046874,0,0,-9.01992
1.0302623780153226,0,0,1.1228805786132812,0,0,0.91728
1.0334460060112178,0,0,1.3215993164062498,0,0,0.68796
1.0366273389954586,0,0,1.2282254516601563,0,0,0.84084
1.0397609130013734,0,0,1.2569558715820313,0,0,0.68796
1.0428896530065686,0,0,1.2473790649414063,0,0,0.84084
1.0460221900139004,0,0,1.6065093139648436,0,0,0.99372
1.0491590230085421,0,0,1.2641384765625,0,0,0.68796
1.052318763016956,0,0,1.2785036865234374,0,0,0.7644
1.055448207014706,0,0,1.455674609375,0,0,0.15288000000000002
1.0585787250020076,0,0,1.2976572998046874,0,0,0.91728
1.0617221140128095,0,0,1.1013327636718748,0,0,0.53508
1.0648766499944031,0,0,1.4413093994140624,0,0,0.68796
1.06802816799609,0,0,1.2497732666015624,0,0,0.6115200000000001
1.0712301479943562,0,0,1.2114660400390624,0,0,0.68796
1.0744322949904017,0,0,1.24498486328125,0,0,0.68796
1.0777075520018116,0,0,1.4963760375976562,0,0,0.84084
1.0809512730047572,0,0,1.1635820068359375,0,0,0.53508
1.0841807899996638,0,0,1.254561669921875,0,0,0.45864
1.0873883260064758,0,0,1.5921441040039062,0,0,1.07016
1.0916840150021017,0,0,1.2593500732421874,0,0,0.6115200000000001
1.0934360870160162,0,0,1.1013327636718748,0,0,0.91728
1.0948787000088487,0,0,1.24498486328125,0,0,0.91728
1.0982855850015767,0,0,1.4173673828125,0,0,0.6115200000000001
1.0997612889914308,0,0,1.2042834350585936,0,0,0.7644
1.1012249939958565,0,0,1.2401964599609374,0,0,0.7644
1.1026991620019544,0,0,1.2425906616210938,0,0,0.99372
1.104173941013869,0,0,1.1085153686523437,0,0,1.07016
1.1056568490166683,0,0,1.3934253662109375,0,0,0.15288000000000002
1.1071044240088668,0,0,1.2425906616210938,0,0,0.84084
1.1084891479986254,0,0,1.5945383056640625,0,0,0.7644
1.1098693360108882,0,0,1.2785036865234374,0,0,0.6115200000000001
1.11125191199244,0,0,1.13006318359375,0,0,0.6115200000000001
1.1126313029963057,0,0,1.180341418457031,0,0,0.68796
1.1140103419893421,0,0,1.1707646118164061,0,0,0.53508
1.1154012139886618,0,0,1.3623007446289062,0,0,0.53508
1.116785271995468,0,0,1.2808978881835937,0,0,0.7644
1.1181646439945325,0,0,1.2641384765625,0,0,0.45864
1.119561405008426,0,0,1.3335703247070312,0,0,0.53508
1.120941222005058,0,0,1.0773907470703123,0,0,1.2230400000000001
1.1223200199892744,0,0,1.2401964599609374,0,0,0.7644
1.1237000589899253,0,0,1.1827356201171875,0,0,0.53508
1.1250790060148574,0,0,1.2018892333984375,0,0,1.07016
1.1264619890134782,0,0,1.3934253662109375,0,0,0.45864
1.1278421579918358,0,0,1.1851298217773436,0,0,0.53508
1.1292217900045216,0,0,1.3862427612304686,0,0,0.99372
1.1306008849933278,0,0,1.1540052001953125,0,0,0.68796
1.1319810159911867,0,0,1.3263877197265623,0,0,0.7644
1.133360684994841,0,0,1.1228805786132812,0,0,0.6115200000000001
1.1347393910109531,0,0,1.0965443603515623,0,0,0.6115200000000001
1.136123003991088,0,0,1.2378022583007813,0,0,0.53508
1.1375015990051907,0,0,1.3000515014648437,0,0,0.84084
1.1388804900052492,0,0,1.2665326782226562,0,0,0.7644
1.1402610840159468,0,0,1.254561669921875,0,0,0.68796
1.1416480859916192,0,0,1.216254443359375,0,0,0.91728
1.1430299030034803,0,0,1.2904746948242187,0,0,0.91728
1.1444199419929646,0,0,1.1420341918945311,0,0,0.91728
1.1458072960085701,0,0,1.2210428466796874,0,0,0.91728
1.1471925759979058,0,0,1.3239935180664062,0,0,0.30576000000000003
1.1485717259929515,0,0,1.22583125,0,0,0.7644
1.1499507460102905,0,0,1.599326708984375,0,0,0.99372
1.1513370629982091,0,0,1.1851298217773436,0,0,0.84084
1.1527244909957517,0,0,1.3072341064453123,0,0,0.68796
1.154111678013578,0,0,1.16837041015625,0,0,0.7644
1.1554965880059171,0,0,1.1540052001953125,0,0,0.68796
1.1568995339912362,0,0,1.3072341064453123,0,0,0.68796
1.1582899799977895,0,0,1.3838485595703125,0,0,0.68796
1.1596806299930904,0,0,1.4245499877929686,0,0,0.91728
1.161068317014724,0,0,1.5705962890624998,0,0,0.84084
1.1624558010080364,0,0,1.3215993164062498,0,0,0.91728
1.163839487999212,0,0,1.0726023437499999,0,0,0.91728
1.165218009002274,0,0,1.16837041015625,0,0,0.99372
1.1665993810165673,0,0,1.1875240234375,0,0,1.37592
1.1679835680115502,0,0,1.2785036865234374,0,0,0.68796
1.1693626070045866,0,0,1.1276689819335937,0,0,0.7644
1.1707414610136766,0,0,1.62805712890625,0,0,1.07016
1.1721297040057834,0,0,1.2497732666015624,0,0,0.7644
1.1735179839888588,0,0,1.2952630981445312,0,0,0.91728
1.174905560008483,0,0,1.2378022583007813,0,0,0.53508
1.176292616990395,0,0,1.197100830078125,0,0,0.15288000000000002
1.1776802300009876,0,0,1.4030021728515625,0,0,0.53508
1.1790681400161702,0,0,1.3072341064453123,0,0,0.7644
1.1804550490051042,0,0,1.43652099609375,0,0,0.3822
1.181841625017114,0,0,1.5227122558593749,0,0,0.68796
1.1832258680078667,0,0,1.2928688964843749,0,0,1.1465999999999998
1.1846039810043294,0,0,1.149216796875,0,0,1.07016
1.18598272401141,0,0,1.1252747802734375,0,0,1.07016
1.1873679849959444,0,0,1.2401964599609374,0,0,1.07016
1.1887538759910967,0,0,1.484405029296875,0,0,0.91728
1.1901397299952805,0,0,1.3838485595703125,0,0,0.68796
1.1915259170054924,0,0,1.5729904907226562,0,0,1.07016
1.192912160011474,0,0,1.1276689819335937,0,0,0.53508
1.1942982540058438,0,0,1.177947216796875,0,0,0.6115200000000001
1.1956839970080182,0,0,1.1276689819335937,0,0,0.68796
1.197069851012202,0,0,1.199495031738281,0,0,0.45864
1.1984558530093636,0,0,1.455674609375,0,0,0.53508
1.199841596011538,0,0,1.407790576171875,0,0,0.68796
1.2012279870104976,0,0,1.5825672973632812,0,0,0.45864
1.20261382200988,0,0,1.3335703247070312,0,0,0.53508
1.2040002309950069,0,0,1.1516109985351561,0,0,0.91728
1.205386029992951,0,0,1.2018892333984375,0,0,0.84084
1.2067718460166361,0,0,1.2785036865234374,0,0,0.99372
1.2081580340163782,0,0,1.2952630981445312,0,0,0.99372
1.2095437759999186,0,0,1.4628572143554686,0,0,0.7644
1.2109413710131776,0,0,1.3192051147460937,0,0,0.99372
1.2123288169968873,0,0,1.5059528442382812,0,0,1.07016
1.2137154859956354,0,0,1.1468225952148436,0,0,1.07016
1.215122227993561,0,0,1.216254443359375,0,0,0.68796
1.2166278770018835,0,0,1.218648645019531,0,0,0.68796
1.2180930630129296,0,0,1.0749965454101562,0,0,1.5288
1.2201021689979825,0,0,1.4125789794921875,0,0,0.99372
1.2214822820096742,0,0,1.3527239379882812,0,0,0.91728
1.2228580249939114,0,0,1.6232687255859375,0,0,0.68796
1.2242356200003996,0,0,1.180341418457031,0,0,0.91728
1.2256097700155806,0,0,1.209071838378906,0,0,0.6115200000000001
1.2269845310074743,0,0,1.13006318359375,0,0,0.6115200000000001
1.2283591440063901,0,0,1.1037269653320312,0,0,0.6115200000000001
1.2297384059929755,0,0,1.3646949462890625,0,0,0.22932
1.2311301669979002,0,0,1.2880804931640624,0,0,0.3822
1.2325130210083444,0,0,1.4700398193359374,0,0,0.7644
1.2338956519961357,0,0,1.37906015625,0,0,0.3822
1.2352787840063684,0,0,1.2473790649414063,0,0,0.99372
1.2366854900028557,0,0,1.0893617553710937,0,0,0.84084
1.2380691400030628,0,0,1.1444283935546875,0,0,0.7644
1.2394521789974533,0,0,1.2880804931640624,0,0,1.37592
1.240834272990469,0,0,1.5155296508789062,0,0,0.68796
1.2422171639918815,0,0,1.3335703247070312,0,0,0.84084
1.243599648005329,0,0,1.5346832641601562,0,0,0.91728
1.2449837790045422,0,0,1.2976572998046874,0,0,0.84084
1.2463662629888859,0,0,1.2521674682617188,0,0,0.84084
1.2477485979907215,0,0,1.1324573852539062,0,0,-9.24924
1.2491318410029635,0,0,1.254561669921875,0,0,0.3822
1.2505149170174263,0,0,1.388636962890625,0,0,0.07644000000000001
1.2518986600043718,0,0,1.4245499877929686,0,0,0.7644
1.253281514014816,0,0,1.5610194824218748,0,0,0.53508
1.254664683016017,0,0,1.4125789794921875,0,0,0.22932
1.2560474069905467,0,0,1.3455413330078123,0,0,0.84084
1.2574248530145269,0,0,1.1731588134765625,0,0,0.7644
1.258798911003396,0,0,1.1420341918945311,0,0,0.84084
1.2601824130106252,0,0,1.3431471313476562,0,0,1.45236
1.2615653969987761,0,0,1.3144167114257812,0,0,0.7644
1.262947676004842,0,0,1.369483349609375,0,0,0.84084
1.2643305489909835,0,0,1.4987702392578124,0,0,0.68796
1.2657127540151123,0,0,1.24498486328125,0,0,0.91728
1.2671708849957213,0,0,1.1875240234375,0,0,0.99372
1.268555146001745,0,0,1.1947066284179686,0,0,0.7644
1.269937908014981,0,0,1.0893617553710937,0,0,0.53508
1.271322020998923,0,0,1.4413093994140624,0,0,0.07644000000000001
1.2727026900101919,0,0,1.2713210815429687,0,0,0.6115200000000001
1.2740850429981947,0,0,1.5777788940429687,0,0,0.6115200000000001
1.2754684160172474,0,0,1.3766659545898436,0,0,0.6115200000000001
1.2768498809891753,0,0,1.1611878051757811,0,0,0.99372
1.2782327349996194,0,0,1.20667763671875,0,0,1.07016
1.2796154399984516,0,0,1.149216796875,0,0,0.7644
1.2809984050109051,0,0,1.3527239379882812,0,0,1.37592
1.282380426011514,0,0,1.4317325927734375,0,0,0.91728
1.283762779989047,0,0,1.2904746948242187,0,0,0.91728
1.2851454119954724,0,0,1.47482822265625,0,0,0.68796
1.2865279139950871,0,0,1.189918225097656,0,0,0.99372
1.2879104530147742,0,0,1.3551181396484375,0,0,0.84084
1.2892932140093762,0,0,1.2138602416992186,0,0,0.53508
1.2906758640019689,0,0,1.197100830078125,0,0,0.68796
1.2920585880056024,0,0,1.35990654296875,0,0,0.07644000000000001
1.2934409239969682,0,0,1.3120225097656248,0,0,0.68796
1.2948234630166553,0,0,1.22583125,0,0,0.53508
1.2962059089913964,0,0,1.216254443359375,0,0,0.30576000000000003
1.2975877819990274,0,0,1.3000515014648437,0,0,1.07016
1.2989701360056642,0,0,1.254561669921875,0,0,0.99372
1.300353452010313,0,0,1.2306196533203124,0,0,0.84084
1.3017359910008963,0,0,1.350329736328125,0,0,1.5288
1.3031192710041068,0,0,1.4149731811523436,0,0,0.6115200000000001
1.3045003290171735,0,0,1.3096283081054687,0,0,0.84084
1.3058829049987253,0,0,1.5490484741210937,0,0,1.07016
1.3072666290099733,0,0,1.2473790649414063,0,0,1.07016
1.3086479459889233,0,0,1.4053963745117186,0,0,0.84084
1.310029893007595,0,0,1.2330138549804688,0,0,0.3822
1.3114134130009916,0,0,1.1156979736328125,0,0,0.84084
1.3127950259950012,0,0,1.2785036865234374,0,0,0.0
1.3141771949885879,0,0,1.407790576171875,0,0,0.6115200000000001
1.3155596040014643,0,0,1.5107412475585937,0,0,0.68796
1.316941218014108,0,0,1.2114660400390624,0,0,0.30576000000000003
1.3183228489942849,0,0,1.2880804931640624,0,0,1.1465999999999998
1.3197054069896694,0,0,1.2234370483398436,0,0,0.91728
1.3210882790153846,0,0,1.1516109985351561,0,0,0.7644
1.3224739849974867,0,0,1.3024457031249999,0,0,1.45236
1.323956559994258,0,0,1.3670891479492187,0,0,0.68796
1.325349524995545,0,0,1.1228805786132812,0,0,0.68796
1.3267323969921563,0,0,1.6017209106445311,0,0,0.84084
1.3281162689963821,0,0,1.2880804931640624,0,0,0.99372
1.329498770995997,0,0,1.2425906616210938,0,0,0.6115200000000001
1.3308811990136746,0,0,1.3000515014648437,0,0,0.53508
1.3322654050134588,0,0,1.1348515869140625,0,0,0.6115200000000001
1.3336503140162677,0,0,1.465251416015625,0,0,0.0
1.3350338349991944,0,0,1.2114660400390624,0,0,0.91728
1.3364168190164492,0,0,1.5155296508789062,0,0,0.68796
1.3377987460116856,0,0,1.4628572143554686,0,0,0.68796
1.33918136000284,0,0,1.3072341064453123,0,0,0.68796
1.3405642319994513,0,0,1.158793603515625,0,0,1.07016
1.3419470670050941,0,0,1.0893617553710937,0,0,0.68796
1.3433299949974753,0,0,1.2473790649414063,0,0,1.60524
1.344711220008321,0,0,1.4149731811523436,0,0,0.84084
1.3461031100014225,0,0,1.3431471313476562,0,0,0.91728
1.3485275809944142,0,0,1.3000515014648437,0,0,0.7644
1.3499153059965465,0,0,1.1324573852539062,0,0,0.68796
1.3513024559943005,0,0,1.1611878051757811,0,0,0.68796
1.3526865500025451,0,0,1.1707646118164061,0,0,0.53508
1.354068496992113,0,0,1.2880804931640624,0,0,0.68796
1.3554522579943296,0,0,1.3215993164062498,0,0,0.7644
1.3568338160112035,0,0,1.3144167114257812,0,0,0.6115200000000001
1.358215818007011,0,0,1.458068811035156,0,0,0.84084
1.3595986349973828,0,0,1.3359645263671873,0,0,1.07016
1.3609805809974205,0,0,1.1156979736328125,0,0,0.84084
1.3623631020018365,0,0,1.1611878051757811,0,0,0.68796
1.36374558499665,0,0,1.1252747802734375,0,0,0.91728
1.3651276979944669,0,0,1.4437036010742186,0,0,0.22932
1.3665097740013152,0,0,1.2521674682617188,0,0,0.6115200000000001
1.3678923129918985,0,0,1.455674609375,0,0,0.91728
1.369274241005769,0,0,1.189918225097656,0,0,0.7644
1.3706558920093812,0,0,1.3239935180664062,0,0,0.99372
1.3720385789929423,0,0,1.1133037719726562,0,0,0.7644
1.3734204880020116,0,0,1.0941501586914062,0,0,0.45864
1.3748034159943927,0,0,1.0797849487304687,0,0,0.84084
1.3762654539896175,0,0,1.3646949462890625,0,0,0.91728
1.3776540670078248,0,0,1.3383587280273437,0,0,0.6115200000000001
1.3790387180051766,0,0,1.2880804931640624,0,0,0.6115200000000001
1.3804213120019995,0,0,1.1372457885742187,0,0,1.07016
1.381803869997384,0,0,1.20667763671875,0,0,1.1465999999999998
1.3831862790102605,0,0,1.1037269653320312,0,0,0.99372
1.384568595996825,0,0,1.0869675537109373,0,0,0.7644
1.3859504869906232,0,0,1.4628572143554686,0,0,0.07644000000000001
1.3873334520030767,0,0,1.2665326782226562,0,0,0.68796
1.3887156209966633,0,0,1.4604630126953124,0,0,0.84084
1.3900978259916883,0,0,1.2808978881835937,0,0,0.84084
1.3915723270038143,0,0,1.3742717529296875,0,0,0.68796
1.3929550150060095,0,0,1.20667763671875,0,0,0.6115200000000001
1.3943366649909876,0,0,1.139639990234375,0,0,0.68796
1.3957190930086654,0,0,1.2761094848632812,0,0,0.15288000000000002
1.3971015209972393,0,0,1.388636962890625,0,0,0.7644
1.3984835600131191,0,0,1.5227122558593749,0,0,0.30576000000000003
1.3998659139906522,0,0,1.2114660400390624,0,0,0.53508
1.4012480080127716,0,0,1.2473790649414063,0,0,0.68796
1.4026304180151783,0,0,1.1731588134765625,0,0,0.68796
1.4040126969921403,0,0,1.1109095703125,0,0,0.99372
1.40539455099497,0,0,1.3551181396484375,0,0,-8.867040000000001
1.4067804790101945,0,0,1.235408056640625,0,0,0.53508
1.4081613890011795,0,0,1.235408056640625,0,0,0.7644
1.409777221007971,0,0,1.5586252807617187,0,0,0.91728
1.411176001012791,0,0,1.189918225097656,0,0,0.91728
1.412552613997832,0,0,1.20667763671875,0,0,0.6115200000000001
1.413928116002353,0,0,1.209071838378906,0,0,0.6115200000000001
1.4153050259919837,0,0,1.1013327636718748,0,0,0.45864
1.4166794350021519,0,0,1.2617442749023438,0,0,0.07644000000000001
1.4180528630095068,0,0,1.2114660400390624,0,0,0.53508
1.4194288100115955,0,0,1.2904746948242187,0,0,0.68796
1.4208019229990896,0,0,1.1659762084960936,0,0,0.68796
1.422175535990391,0,0,1.3000515014648437,0,0,0.91728
1.4235787419893313,0,0,1.1085153686523437,0,0,0.91728
1.424960206990363,0,0,1.1731588134765625,0,0,0.68796
1.426341523998417,0,0,1.2785036865234374,0,0,1.1465999999999998
1.4277243220130913,0,0,1.407790576171875,0,0,0.84084
1.4291059719980694,0,0,1.3168109130859373,0,0,1.07016
1.4304834739887156,0,0,1.6232687255859375,0,0,0.7644
1.4318668839987367,0,0,1.235408056640625,0,0,1.07016
1.4332488120126072,0,0,1.3000515014648437,0,0,0.84084
1.43463251698995,0,0,1.2761094848632812,0,0,2.36964
1.436014723003609,0,0,1.1276689819335937,0,0,0.6115200000000001
1.4373961880046409,0,0,1.5251064575195312,0,0,0.0
1.4387774119968526,0,0,1.180341418457031,0,0,0.68796
1.4401597480173223,0,0,1.5107412475585937,0,0,0.22932
1.441541287000291,0,0,1.39821376953125,0,0,0.45864
1.4429230300011113,0,0,1.2330138549804688,0,0,0.99372
1.4443051980051678,0,0,1.1420341918945311,0,0,0.91728
1.445686941005988,0,0,1.20667763671875,0,0,0.68796
1.4470692390168551,0,0,1.3048399047851562,0,0,1.1465999999999998
1.4484511490154546,0,0,1.4939818359375,0,0,0.6115200000000001
1.4498350030044094,0,0,1.3551181396484375,0,0,0.84084
1.4512237269955222,0,0,1.5753846923828123,0,0,1.2230400000000001
1.4526054140005726,0,0,1.3407529296874998,0,0,0.91728
1.453996027004905,0,0,1.209071838378906,0,0,0.68796
1.455399917991599,0,0,1.0989385620117187,0,0,0.6115200000000001
1.4568290669994894,0,0,1.2713210815429687,0,0,0.7644
1.4582124770095106,0,0,1.3742717529296875,0,0,0.15288000000000002
1.459594960004324,0,0,1.3646949462890625,0,0,0.6115200000000001
1.4609766110079363,0,0,1.5514426757812498,0,0,0.68796
1.4623583350039553,0,0,1.4700398193359374,0,0,0.45864
1.4637405590037815,0,0,1.2378022583007813,0,0,0.91728
1.465123116999166,0,0,1.1420341918945311,0,0,2.36964
1.4665057480160613,0,0,1.1731588134765625,0,0,1.07016
1.467887917009648,0,0,1.37906015625,0,0,1.2230400000000001
1.4692698259896133,0,0,1.3742717529296875,0,0,0.45864
1.4706517540034838,0,0,1.254561669921875,0,0,0.7644
1.472033644997282,0,0,1.458068811035156,0,0,0.68796
1.4734152590099256,0,0,1.1013327636718748,0,0,0.99372
1.4747970009921119,0,0,1.2306196533203124,0,0,0.7644
1.4761790219927207,0,0,1.2306196533203124,0,0,0.91728
1.4775605050090235,0,0,1.199495031738281,0,0,0.53508
1.47894248898956,0,0,1.3862427612304686,0,0,0.30576000000000003
1.4803245840012096,0,0,1.4508862060546874,0,0,0.6115200000000001
1.4817060490022413,0,0,1.2904746948242187,0,0,0.6115200000000001
1.4830884390103165,0,0,1.2785036865234374,0,0,0.53508
1.4844701270048972,0,0,1.3479355346679687,0,0,0.84084
1.4858519060071558,0,0,1.177947216796875,0,0,1.07016
1.487234909000108,0,0,1.1516109985351561,0,0,1.2230400000000001
1.4886200219916645,0,0,1.2042834350585936,0,0,1.37592
1.4900018940097652,0,0,1.43652099609375,0,0,0.6115200000000001
1.491384711000137,0,0,1.2856862915039062,0,0,0.91728
1.4927661760011688,0,0,1.4173673828125,0,0,0.84084
1.4941480479901657,0,0,1.1635820068359375,0,0,0.68796
1.4955465689999983,0,0,1.3215993164062498,0,0,0.84084
1.4969288670108654,0,0,1.2737152832031249,0,0,0.6115200000000001
1.4983107759908307,0,0,1.13006318359375,0,0,0.30576000000000003
1.4996929450135212,0,0,1.39821376953125,0,0,0.0
1.5010745949984994,0,0,1.2976572998046874,0,0,0.6115200000000001
1.502456134010572,0,0,1.3335703247070312,0,0,0.3822
1.5038379699981306,0,0,1.1707646118164061,0,0,0.68796
1.5052203419909347,0,0,1.20667763671875,0,0,0.91728
1.5066020289959852,0,0,1.2665326782226562,0,0,0.7644
1.5080033089907374,0,0,1.1420341918945311,0,0,0.7644
1.5093880890053697,0,0,1.2210428466796874,0,0,1.07016
1.5107719429943245,0,0,1.3455413330078123,0,0,0.68796
1.5121558330138214,0,0,1.1659762084960936,0,0,0.91728
1.5135436129930895,0,0,1.37906015625,0,0,0.99372
1.5149258750025183,0,0,1.2641384765625,0,0,0.99372
1.5163089690031484,0,0,1.369483349609375,0,0,0.7644
1.5176923419930972,0,0,1.0773907470703123,0,0,0.7644
1.5190754730137996,0,0,0.9696516723632812,0,0,0.6115200000000001
1.5204583829909097,0,0,1.3263877197265623,0,0,0.30576000000000003
1.5218409590015654,0,0,1.2473790649414063,0,0,0.68796
1.5232426460133865,0,0,1.438915197753906,0,0,0.3822
1.524625443998957,0,0,1.5083470458984374,0,0,0.45864
1.5260083719913382,0,0,1.3575123413085937,0,0,0.91728
1.5273924299981445,0,0,1.180341418457031,0,0,0.91728
1.5287740429921541,0,0,1.1109095703125,0,0,1.07016
1.5301565260160714,0,0,1.16837041015625,0,0,1.1465999999999998
1.5315407869929913,0,0,1.3718775512695311,0,0,0.45864
1.5329239930142649,0,0,1.3048399047851562,0,0,0.68796
1.5343066990026273,0,0,1.656787548828125,0,0,0.7644
1.5356901450140867,0,0,1.2617442749023438,0,0,0.91728
1.53707881399896,0,0,1.3048399047851562,0,0,0.6115200000000001
1.5384622050041799,0,0,1.3335703247070312,0,0,0.6115200000000001
1.5398459850111976,0,0,1.158793603515625,0,0,0.84084
1.5412290050007869,0,0,1.369483349609375,0,0,0.53508
1.5426120439951774,0,0,1.22583125,0,0,-9.01992
1.5439893610018771,0,0,1.455674609375,0,0,0.7644
1.545365493017016,0,0,1.438915197753906,0,0,0.53508
1.5467386620002799,0,0,1.3000515014648437,0,0,0.84084
1.5481231820012908,0,0,1.2234370483398436,0,0,-8.943480000000001
1.5495066290022805,0,0,1.1707646118164061,0,0,0.68796
1.550889983016532,0,0,1.2641384765625,0,0,1.1465999999999998
1.5522706880001351,0,0,1.4341267944335936,0,0,0.91728
1.5536443940072786,0,0,1.22583125,0,0,1.07016
1.5550216929987073,0,0,1.5705962890624998,0,0,1.07016
1.5564037320145871,0,0,1.2976572998046874,0,0,0.91728
1.5577856409945525,0,0,1.235408056640625,0,0,0.7644
1.5591687170090154,0,0,1.158793603515625,0,0,0.53508
1.5605499779921956,0,0,1.2018892333984375,0,0,0.53508
1.5619426660123281,0,0,1.3383587280273437,0,0,0.6115200000000001
1.5633297050080728,0,0,1.4628572143554686,0,0,0.7644
1.5647106330143288,0,0,1.5945383056640625,0,0,2.36964
1.5660928199940827,0,0,1.3766659545898436,0,0,0.22932
1.5674756549997255,0,0,1.3096283081054687,0,0,0.84084
1.5688565649907105,0,0,1.2521674682617188,0,0,1.07016
1.570238493004581,0,0,1.1707646118164061,0,0,0.99372
1.5716202910116408,0,0,1.2569558715820313,0,0,1.1465999999999998
1.5730018480098806,0,0,1.3958195678710936,0,0,0.53508
1.5743834619934205,0,0,1.2473790649414063,0,0,0.91728
1.57576555601554,0,0,1.5538368774414062,0,0,0.6115200000000001
1.5771504839940462,0,0,1.2880804931640624,0,0,0.68796
1.5785321530129295,0,0,1.35990654296875,0,0,0.6115200000000001
1.5799145250057336,0,0,1.2378022583007813,0,0,0.6115200000000001
1.581304101011483,0,0,1.0773907470703123,0,0,0.53508
1.5826858810032718,0,0,1.3144167114257812,0,0,0.45864
1.5840686050069053,0,0,1.388636962890625,0,0,0.84084
1.5854502370057162,0,0,1.3072341064453123,0,0,0.68796
1.586831943015568,0,0,1.3096283081054687,0,0,0.53508
1.5882143710041419,0,0,1.3670891479492187,0,0,0.7644
1.589596353995148,0,0,1.13006318359375,0,0,0.91728
1.5909776530170348,0,0,1.0654197387695312,0,0,0.91728
1.5923597289947793,0,0,1.2138602416992186,0,0,1.37592
1.5937411380000412,0,0,1.407790576171875,0,0,0.45864
1.5951237510016654,0,0,1.2330138549804688,0,0,0.7644
1.5965118640160654,0,0,1.3958195678710936,0,0,0.3822
1.5988570589979645,0,0,1.3096283081054687,0,0,0.91728
1.6002486720099114,0,0,1.3263877197265623,0,0,0.7644
1.601646488008555,0,0,1.1444283935546875,0,0,0.53508
1.6030301009886898,0,0,1.235408056640625,0,0,1.07016
1.604411437001545,0,0,1.407790576171875,0,0,0.84084
1.6058122160029598,0,0,1.2904746948242187,0,0,1.07016
1.6071949219913222,0,0,1.62805712890625,0,0,0.68796
1.608571368997218,0,0,1.3144167114257812,0,0,0.91728
1.6099454080103897,0,0,1.216254443359375,0,0,0.7644
1.6113512240117416,0,0,1.3072341064453123,0,0,0.30576000000000003
1.6127253189915791,0,0,1.1707646118164061,0,0,0.45864
1.6140988400147762,0,0,1.3335703247070312,0,0,0.15288000000000002
1.6154746940010227,0,0,1.22583125,0,0,0.7644
1.6168486030073836,0,0,1.5801730957031248,0,0,0.53508
1.6182222350034863,0,0,1.3742717529296875,0,0,0.99372
1.6195977000170387,0,0,1.2306196533203124,0,0,0.68796
1.6209711650153622,0,0,1.1540052001953125,0,0,0.68796
1.62234520399943,0,0,1.3215993164062498,0,0,0.84084
1.623726446996443,0,0,1.3168109130859373,0,0,1.2230400000000001
1.6251082270173356,0,0,1.2737152832031249,0,0,0.84084
1.626489581016358,0,0,1.2928688964843749,0,0,0.53508
1.6278737499960698,0,0,1.5442600708007812,0,0,0.84084
1.6292555289983284,0,0,1.2689268798828124,0,0,0.7644
1.630636735004373,0,0,1.209071838378906,0,0,0.91728
1.6320193849969655,0,0,1.158793603515625,0,0,0.53508
1.6334010540158488,0,0,1.1228805786132812,0,0,0.68796
1.6347828519938048,0,0,1.446097802734375,0,0,0.30576000000000003
1.636164521012688,0,0,1.3215993164062498,0,0,0.84084
1.6375458190159407,0,0,1.5729904907226562,0,0,0.68796
1.6389274510147516,0,0,1.3215993164062498,0,0,0.3822
1.6403216939943377,0,0,1.2737152832031249,0,0,0.91728
1.6417045480047818,0,0,1.1061211669921875,0,0,0.84084
1.643086216005031,0,0,1.1659762084960936,0,0,0.84084
1.6444676259998232,0,0,1.1109095703125,0,0,1.1465999999999998
1.6458494050020818,0,0,1.4030021728515625,0,0,0.68796
1.647232259012526,0,0,1.3623007446289062,0,0,0.84084
1.6486295950016938,0,0,1.429338391113281,0,0,0.99372
1.6500593550154008,0,0,1.1228805786132812,0,0,0.91728
1.6514429870003369,0,0,1.180341418457031,0,0,0.91728
1.6528248410031665,0,0,1.2330138549804688,0,0,0.45864
1.6542069720162544,0,0,1.189918225097656,0,0,0.30576000000000003
1.6555984000151511,0,0,1.4796166259765624,0,0,0.15288000000000002
1.656980588013539,0,0,1.37906015625,0,0,0.7644
1.6583633859991096,0,0,1.2737152832031249,0,0,0.68796
1.6597459249896929,0,0,1.3120225097656248,0,0,0.68796
1.6611275750037748,0,0,1.2617442749023438,0,0,0.91728
1.6625092070025858,0,0,1.254561669921875,0,0,0.84084
1.6638911350164562,0,0,1.22583125,0,0,0.91728
1.665273007005453,0,0,1.139639990234375,0,0,1.68168
1.6666549910150934,0,0,1.465251416015625,0,0,1.07016
1.66803962198901,0,0,1.2880804931640624,0,0,0.7644
1.6694215320167132,0,0,1.659181750488281,0,0,0.7644
1.6708037560165394,0,0,1.2665326782226562,0,0,0.99372
1.6721861840051133,0,0,1.3479355346679687,0,0,0.99372
1.6735680010169744,0,0,1.1875240234375,0,0,0.6115200000000001
1.6749512440001126,0,0,1.216254443359375,0,0,0.6115200000000001
1.676333559997147,0,0,1.2808978881835937,0,0,0.07644000000000001
1.677715747995535,0,0,1.3527239379882812,0,0,0.84084
1.6791188420029357,0,0,1.2497732666015624,0,0,0.53508
1.6805016589933075,0,0,1.2425906616210938,0,0,0.6115200000000001
1.6818833650031593,0,0,1.2689268798828124,0,0,0.91728
1.6832660520158242,0,0,1.3479355346679687,0,0,0.7644
1.6846485169953667,0,0,1.1731588134765625,0,0,0.91728
1.686029797012452,0,0,1.2856862915039062,0,0,1.45236
1.687412225001026,0,0,1.5203180541992187,0,0,0.91728
1.6887916900159325,0,0,1.2114660400390624,0,0,0.91728
1.6902329130098224,0,0,1.6065093139648436,0,0,0.7644
1.6916334890120197,0,0,1.2785036865234374,0,0,0.84084
1.6930335650104098,0,0,1.2425906616210938,0,0,0.6115200000000001
1.6944172340154182,0,0,1.3455413330078123,0,0,0.7644
1.6958004210027866,0,0,1.1611878051757811,0,0,0.53508
1.6971841269987635,0,0,1.2473790649414063,0,0,0.0
1.6985742950055283,0,0,1.2808978881835937,0,0,0.68796
1.6999715380079579,0,0,1.5394716674804687,0,0,0.53508
1.7013546139933169,0,0,1.4700398193359374,0,0,0.30576000000000003
1.7027375790057704,0,0,1.2808978881835937,0,0,1.07016
1.7041202659893315,0,0,1.2306196533203124,0,0,0.7644
1.7055033050128259,0,0,1.1420341918945311,0,0,0.68796
1.706886233005207,0,0,1.1875240234375,0,0,0.91728
1.7082623089954723,0,0,1.4915876342773438,0,0,1.07016
1.709636034007417,0,0,1.3862427612304686,0,0,0.7644
1.7111122749920469,0,0,1.5753846923828123,0,0,1.07016
1.7124962590169162,0,0,1.2952630981445312,0,0,0.91728
1.7138788159936666,0,0,1.2306196533203124,0,0,-9.01992
1.7152640960121062,0,0,1.209071838378906,0,0,0.91728
1.7166453760000877,0,0,1.1755530151367186,0,0,0.53508
1.7180279520107433,0,0,1.2785036865234374,0,0,0.0
1.7194114539888687,0,0,1.5227122558593749,0,0,0.6115200000000001
1.720792086009169,0,0,1.5705962890624998,0,0,0.7644
1.7221743469999637,0,0,1.4149731811523436,0,0,0.45864
1.7235565530136228,0,0,1.3192051147460937,0,0,0.84084
1.724938536004629,0,0,1.1851298217773436,0,0,1.07016
1.7263204460032284,0,0,1.1635820068359375,0,0,0.99372
1.7277027440140955,0,0,1.2928688964843749,0,0,1.07016
1.7290846900141332,0,0,1.4030021728515625,0,0,0.91728
1.7304665069968905,0,0,1.4413093994140624,0,0,-0.07644000000000001
1.7318503239948768,0,0,1.4939818359375,0,0,0.7644
1.7332321779977065,0,0,1.1468225952148436,0,0,0.91728
1.734613625012571,0,0,1.2856862915039062,0,0,0.68796
1.7359963490162045,0,0,1.3096283081054687,0,0,0.91728
1.7373865910049062,0,0,1.218648645019531,0,0,0.3822
1.7387687790032942,0,0,1.388636962890625,0,0,0.0
1.7401515399978962,0,0,1.458068811035156,0,0,0.53508
1.7415337460115552,0,0,1.5825672973632812,0,0,0.6115200000000001
1.7429156549915206,0,0,1.3096283081054687,0,0,0.3822
1.7442979160114191,0,0,1.0773907470703123,0,0,0.99372
1.745679863000987,0,0,1.1731588134765625,0,0,0.7644
1.7470624760026112,0,0,1.158793603515625,0,0,0.7644
1.7484484779997729,0,0,1.3431471313476562,0,0,1.1465999999999998
1.7498305909975898,0,0,1.4101847778320311,0,0,0.84084
1.7512129819951952,0,0,1.3239935180664062,0,0,0.68796
1.752592706005089,0,0,1.5634136840820312,0,0,1.1465999999999998
1.7539922269934323,0,0,1.1827356201171875,0,0,1.07016
1.7553795439889655,0,0,1.199495031738281,0,0,0.7644
1.756780786003219,0,0,1.0989385620117187,0,0,0.7644
1.7581648619961925,0,0,1.0893617553710937,0,0,0.68796
1.7595489200029988,0,0,1.3192051147460937,0,0,0.07644000000000001
1.7609321440104395,0,0,1.1635820068359375,0,0,0.45864
1.762315739004407,0,0,1.3551181396484375,0,0,0.84084
1.763699128990993,0,0,1.2952630981445312,0,0,0.53508
1.7650820760172792,0,0,1.3239935180664062,0,0,0.6115200000000001
1.7664652449893765,0,0,1.139639990234375,0,0,1.1465999999999998
1.7678487469966058,0,0,1.1444283935546875,0,0,0.91728
1.7692312299914192,0,0,1.2018892333984375,0,0,1.37592
1.770614287990611,0,0,1.3766659545898436,0,0,0.99372
1.7719975860090926,0,0,1.2210428466796874,0,0,0.68796
1.7733805699972436,0,0,1.4604630126953124,0,0,0.84084
1.774763922992861,0,0,1.1707646118164061,0,0,0.91728
1.7761469630058855,0,0,1.3479355346679687,0,0,0.84084
1.7775300760113169,0,0,1.1707646118164061,0,0,0.7644
1.7789134480117355,0,0,1.1516109985351561,0,0,0.68796
1.780303506006021,0,0,1.2689268798828124,0,0,0.22932
1.7816867670044303,0,0,1.3024457031249999,0,0,0.6115200000000001
1.7830703979998361,0,0,1.47482822265625,0,0,0.99372
1.784452899999451,0,0,1.2234370483398436,0,0,0.68796
1.785826161998557,0,0,1.2569558715820313,0,0,0.84084
1.7872119419916999,0,0,1.1755530151367186,0,0,0.91728
1.7885955550009385,0,0,1.1156979736328125,0,0,0.84084
1.7899789090151899,0,0,1.3742717529296875,0,0,1.2230400000000001
1.7913644660147838,0,0,1.3958195678710936,0,0,0.84084
1.792746986990096,0,0,1.3024457031249999,0,0,0.91728
1.794130230002338,0,0,1.675941162109375,0,0,0.91728
1.7955145279993303,0,0,1.3359645263671873,0,0,0.91728
1.7968975479889195,0,0,1.2497732666015624,0,0,0.68796
1.798281143011991,0,0,1.3239935180664062,0,0,0.84084
1.7996598670142703,0,0,1.22583125,0,0,0.7644
1.8010334809951019,0,0,1.3407529296874998,0,0,0.15288000000000002
1.8024070569954347,0,0,1.2952630981445312,0,0,0.7644
1.8037890220002737,0,0,1.5251064575195312,0,0,0.99372
1.8051719870127272,0,0,1.4987702392578124,0,0,0.68796
1.8065559889946599,0,0,1.2761094848632812,0,0,0.7644
1.8079384719894733,0,0,1.3742717529296875,0,0,0.84084
1.8093195669935085,0,0,1.1659762084960936,0,0,0.68796
1.8110184909892268,0,0,1.2665326782226562,0,0,0.45864
1.812400549009908,0,0,1.2569558715820313,0,0,0.7644
1.8137744400009979,0,0,1.4101847778320311,0,0,0.84084
1.8151634230162017,0,0,1.5514426757812498,0,0,0.68796
1.8165377590048593,0,0,1.2473790649414063,0,0,1.2994800000000002
1.817911890015239,0,0,1.1420341918945311,0,0,0.84084
1.8192873549996875,0,0,1.180341418457031,0,0,0.53508
1.820660746016074,0,0,1.3048399047851562,0,0,0.7644
1.822034229990095,0,0,1.419761584472656,0,0,0.45864
1.8234158249979373,0,0,1.3144167114257812,0,0,0.6115200000000001
1.8248063639912289,0,0,1.5753846923828123,0,0,0.68796
1.8261899770004675,0,0,1.3766659545898436,0,0,0.91728
1.827573738002684,0,0,1.3407529296874998,0,0,0.53508
1.8289566099992953,0,0,1.3192051147460937,0,0,0.84084
1.830340057000285,0,0,1.0749965454101562,0,0,0.91728
1.8317233370034955,0,0,1.20667763671875,0,0,0.68796
1.8331065610109363,0,0,1.4820108276367188,0,0,0.7644
1.8344898780051153,0,0,1.388636962890625,0,0,0.3822
1.835889045993099,0,0,1.6472107421875,0,0,0.53508
1.8372736219898798,0,0,1.254561669921875,0,0,1.1465999999999998
1.8386571610171814,0,0,1.1468225952148436,0,0,0.68796
1.8400454779912252,0,0,1.1635820068359375,0,0,0.53508
1.8414293139940128,0,0,1.1611878051757811,0,0,0.7644
1.842812982009491,0,0,1.2976572998046874,0,0,0.30576000000000003
1.8441969660052564,0,0,1.3479355346679687,0,0,0.45864
1.8455805600096937,0,0,1.5682020874023437,0,0,0.68796
1.8469798949954566,0,0,1.3144167114257812,0,0,0.53508
1.84984412099584,0,0,1.3072341064453123,0,0,0.30576000000000003
1.85123677100637,0,0,1.1420341918945311,0,0,0.6115200000000001
1.852620587014826,0,0,1.3287819213867187,0,0,0.3822
1.8540041449887212,0,0,1.5131354492187499,0,0,0.68796
1.8553889250033535,0,0,1.4772224243164063,0,0,0.53508
1.8567715380049776,0,0,1.3814543579101561,0,0,0.6115200000000001
1.858154170011403,0,0,1.197100830078125,0,0,1.2230400000000001
1.8595414120063651,0,0,1.216254443359375,0,0,0.7644
1.8609243399987463,0,0,1.2593500732421874,0,0,0.68796
1.8623063240083866,0,0,1.2401964599609374,0,0,0.91728
1.863688881014241,0,0,1.4125789794921875,0,0,0.68796
1.8650719200086314,0,0,1.2282254516601563,0,0,0.7644
1.866454236995196,0,0,1.5418658691406248,0,0,0.7644
1.8678367949905805,0,0,1.2282254516601563,0,0,0.84084
1.8692390189971775,0,0,1.1563994018554686,0,0,0.7644
1.8706219280138612,0,0,1.1827356201171875,0,0,0.45864
1.872004356002435,0,0,1.1755530151367186,0,0,0.45864
1.873387024999829,0,0,1.350329736328125,0,0,0.6115200000000001
1.8747850820072927,0,0,1.4820108276367188,0,0,0.91728
1.8761690290120896,0,0,1.1348515869140625,0,0,0.53508
1.8775521230127197,0,0,1.3838485595703125,0,0,0.53508
1.8789348480058834,0,0,1.149216796875,0,0,1.1465999999999998
1.8803187019948382,0,0,1.1827356201171875,0,0,1.07016
1.881701537000481,0,0,1.1372457885742187,0,0,0.84084
1.8830853539984673,0,0,1.189918225097656,0,0,1.07016
1.8844679850153625,0,0,1.4030021728515625,0,0,0.53508
1.8858508949924726,0,0,1.3192051147460937,0,0,1.07016
1.88723448899691,0,0,1.407790576171875,0,0,0.91728
1.8886636949901003,0,0,1.2018892333984375,0,0,0.99372
1.8900488630170003,0,0,1.3383587280273437,0,0,0.99372
1.8914345130033325,0,0,1.158793603515625,0,0,0.3822
1.8928159410133958,0,0,1.1180921752929687,0,0,0.53508
1.8941994619963225,0,0,1.3527239379882812,0,0,0.6115200000000001
1.8955825570155866,0,0,1.2952630981445312,0,0,0.53508
1.8969651139923371,0,0,1.3718775512695311,0,0,0.84084
1.898347709007794,0,0,1.3263877197265623,0,0,0.68796
1.899730711011216,0,0,1.254561669921875,0,0,0.68796
1.9011133979947772,0,0,1.3551181396484375,0,0,0.91728
1.9024958070076536,0,0,1.0869675537109373,0,0,0.7644
1.9038788460020442,0,0,1.1037269653320312,0,0,0.99372
1.9052734590077307,0,0,1.4413093994140624,0,0,0.45864
1.906656480015954,0,0,1.3048399047851562,0,0,0.84084
1.9080403890111484,0,0,1.6519991455078125,0,0,0.99372
1.9094234099902678,0,0,1.180341418457031,0,0,0.68796
1.910806022991892,0,0,1.3335703247070312,0,0,0.91728
1.9121894510171842,0,0,1.2497732666015624,0,0,0.6115200000000001
1.9135872120095883,0,0,1.2473790649414063,0,0,0.45864
1.9149702329887077,0,0,1.2617442749023438,0,0,0.7644
1.916353734995937,0,0,1.2856862915039062,0,0,0.53508
1.917736422008602,0,0,1.2641384765625,0,0,0.3822
1.919119424012024,0,0,1.5514426757812498,0,0,0.6115200000000001
1.9205019630026072,0,0,1.209071838378906,0,0,0.99372
1.921885112999007,0,0,1.3718775512695311,0,0,0.68796
1.9232688740012236,0,0,1.0917559570312498,0,0,0.99372
1.924650783999823,0,0,1.1875240234375,0,0,0.7644
1.926033544994425,0,0,1.2330138549804688,0,0,0.07644000000000001
1.9274169919954147,0,0,1.1659762084960936,0,0,1.07016
1.9287996600032784,0,0,1.5969325073242187,0,0,0.7644
1.930182311014505,0,0,1.1923124267578125,0,0,0.6115200000000001
1.9315657379920594,0,0,1.2665326782226562,0,0,0.7644
1.9330904239905067,0,0,1.0797849487304687,0,0,0.45864
1.9344809259928297,0,0,1.1540052001953125,0,0,0.53508
1.9358659090066794,0,0,1.2713210815429687,0,0,0.0
1.9372488929948304,0,0,1.2497732666015624,0,0,0.68796
1.9386315059964545,0,0,1.4772224243164063,0,0,0.6115200000000001
1.9400153410097118,0,0,1.5825672973632812,0,0,0.53508
1.9413982320111245,0,0,1.3311761230468748,0,0,0.84084
1.9427809570042882,0,0,1.3431471313476562,0,0,0.84084
1.9441701440082397,0,0,1.1372457885742187,0,0,0.91728
1.945553163997829,0,0,1.1731588134765625,0,0,1.75812
1.946935776999453,0,0,1.467645617675781,0,0,0.99372
1.9483187980076764,0,0,1.2234370483398436,0,0,0.91728
1.949701689009089,0,0,1.6831237670898436,0,0,0.99372
1.9510843210155144,0,0,1.2665326782226562,0,0,0.84084
1.952467044990044,0,0,1.2713210815429687,0,0,0.68796
1.9538495469896588,0,0,1.254561669921875,0,0,0.7644
1.955233918997692,0,0,1.1468225952148436,0,0,0.45864
1.956660160998581,0,0,1.2856862915039062,0,0,0.07644000000000001
1.9580443300073966,0,0,1.5131354492187499,0,0,0.6115200000000001
1.9594288140069693,0,0,1.4245499877929686,0,0,0.7644
1.9608104079961777,0,0,1.3024457031249999,0,0,0.3822
1.9621886330132838,0,0,1.3000515014648437,0,0,0.91728
1.9635747270076536,0,0,1.1444283935546875,0,0,0.84084
1.9649575620132964,0,0,1.1372457885742187,0,0,0.84084
1.9663405090104789,0,0,1.180341418457031,0,0,1.07016
1.9677234920090996,0,0,1.3623007446289062,0,0,0.68796
1.9691056610026862,0,0,1.426944189453125,0,0,0.68796
1.970488163002301,0,0,1.6017209106445311,0,0,0.84084
1.9718712579924613,0,0,1.2761094848632812,0,0,0.68796
1.9732542970159557,0,0,1.2401964599609374,0,0,0.7644
1.9746366509934887,0,0,1.3670891479492187,0,0,0.68796
1.9760199860029388,0,0,1.1540052001953125,0,0,0.53508
1.9774029880063608,0,0,1.3287819213867187,0,0,0.22932
1.9787851750152186,0,0,1.235408056640625,0,0,0.6115200000000001
1.980168437003158,0,0,1.5921441040039062,0,0,0.53508
1.981550883007003,0,0,1.3527239379882812,0,0,0.3822
1.9829336260154378,0,0,1.1947066284179686,0,0,0.91728
1.9843165170168504,0,0,1.1731588134765625,0,0,0.7644
1.9856988709943835,0,0,1.1635820068359375,0,0,0.84084
1.9876997169922106,0,0,1.2521674682617188,0,0,0.0
1.989228088001255,0,0,1.1659762084960936,0,0,0.68796
1.9906223120051436,0,0,1.419761584472656,0,0,0.6115200000000001
1.9920287030108739,0,0,1.158793603515625,0,0,0.53508
1.9934182040160522,0,0,1.2689268798828124,0,0,0.91728
1.9948066140059382,0,0,1.1875240234375,0,0,0.91728
1.9961948010022752,0,0,1.1420341918945311,0,0,0.84084
1.997583043994382,0,0,1.2641384765625,0,0,1.5288
1.9989709900110029,0,0,1.5155296508789062,0,0,0.7644
2.000359029014362,0,0,1.2425906616210938,0,0,0.53508
2.001753290009219,0,0,1.5490484741210937,0,0,0.68796
2.0031410139927175,0,0,1.2306196533203124,0,0,0.99372
2.004527812998276,0,0,1.2521674682617188,0,0,0.84084
2.0059150739980396,0,0,1.1372457885742187,0,0,0.68796
2.0073027799953707,0,0,1.180341418457031,0,0,0.3822
2.0086895220156293,0,0,1.3838485595703125,0,0,0.22932
2.0100771720171906,0,0,1.2928688964843749,0,0,0.53508
2.011475748004159,0,0,1.4724340209960938,0,0,0.84084
2.012863195006503,0,0,1.4796166259765624,0,0,0.6115200000000001
2.014250937005272,0,0,1.3239935180664062,0,0,0.99372
2.0156340319954325,0,0,1.2473790649414063,0,0,0.53508
2.017012849013554,0,0,1.180341418457031,0,0,0.91728
2.0183918139955495,0,0,1.2737152832031249,0,0,1.45236
2.0197807789954823,0,0,1.4341267944335936,0,0,0.7644
2.0211680959910154,0,0,1.35990654296875,0,0,0.6115200000000001
2.022555689996807,0,0,1.6208745239257811,0,0,0.84084
2.023939006990986,0,0,1.2976572998046874,0,0,0.91728
2.0253174910030793,0,0,1.2114660400390624,0,0,0.68796
2.0266965299961157,0,0,1.1875240234375,0,0,0.68796
2.0280770320096053,0,0,1.2306196533203124,0,0,0.53508
2.0294562189956196,0,0,1.3096283081054687,0,0,0.0
2.0308352950087283,0,0,1.448492004394531,0,0,0.91728
2.0322683890117332,0,0,1.5897499023437498,0,0,0.7644
2.0336551319924183,0,0,1.3575123413085937,0,0,0.30576000000000003
2.0350589860172477,0,0,1.2761094848632812,0,0,0.7644
2.0364454509981442,0,0,1.3407529296874998,0,0,0.7644
2.0378316749993246,0,0,1.2713210815429687,0,0,0.84084
2.0392184359952807,0,0,1.3000515014648437,0,0,1.2994800000000002
2.0406045120034833,0,0,1.2832920898437499,0,0,0.91728
2.041990218014689,0,0,1.5346832641601562,0,0,0.6115200000000001
2.0433769230148755,0,0,1.4532804077148436,0,0,0.91728
2.04477457300527,0,0,1.1013327636718748,0,0,0.99372
2.0461620010028128,0,0,1.1851298217773436,0,0,0.99372
2.0475482440087944,0,0,1.2497732666015624,0,0,0.7644
2.048934302001726,0,0,1.2306196533203124,0,0,0.53508
2.050327617995208,0,0,1.3527239379882812,0,0,0.0
2.051714435016038,0,0,1.5275006591796874,0,0,0.68796
2.053100937017007,0,0,1.6472107421875,0,0,0.6115200000000001
2.054486809007358,0,0,1.2761094848632812,0,0,0.45864
2.0559078480000608,0,0,1.1563994018554686,0,0,0.7644
2.0572989800130017,0,0,1.218648645019531,0,0,0.7644
2.0586845930083655,0,0,1.1659762084960936,0,0,0.91728
2.0600709650025237,0,0,1.2952630981445312,0,0,0.6115200000000001
2.0614569860044867,0,0,1.4030021728515625,0,0,0.84084
2.0628420620050747,0,0,1.1037269653320312,0,0,0.53508
2.064227953000227,0,0,1.4963760375976562,0,0,0.99372
2.0656142880034167,0,0,1.1731588134765625,0,0,1.07016
2.0670186410134193,0,0,1.2856862915039062,0,0,0.84084
2.068405847006943,0,0,1.197100830078125,0,0,0.7644
2.0697918859950732,0,0,0.9241618408203125,0,0,0.7644
2.0711781659920234,0,0,1.3000515014648437,0,0,0.30576000000000003
2.072563390014693,0,0,1.2856862915039062,0,0,0.99372
2.0739487440150697,0,0,1.6328455322265625,0,0,0.7644
2.07533502401202,0,0,1.2401964599609374,0,0,0.99372
2.0767205260053743,0,0,1.3455413330078123,0,0,0.84084
2.0781062679889146,0,0,1.2521674682617188,0,0,0.7644
2.079492641001707,0,0,1.235408056640625,0,0,0.7644
2.0808773470052984,0,0,1.3359645263671873,0,0,0.84084
2.0822628120076843,0,0,1.3168109130859373,0,0,0.99372
2.083648831991013,0,0,1.2330138549804688,0,0,0.68796
2.085034463991178,0,0,1.369483349609375,0,0,0.6115200000000001
2.0864202060038224,0,0,1.16837041015625,0,0,0.84084
2.087806133989943,0,0,1.2018892333984375,0,0,0.91728
2.089204192016041,0,0,1.218648645019531,0,0,0.6115200000000001
2.0905891570146196,0,0,1.1563994018554686,0,0,1.07016
2.0919753810158,0,0,1.446097802734375,0,0,0.22932
2.0933611420041416,0,0,1.2665326782226562,0,0,0.6115200000000001
2.094747051014565,0,0,1.6615759521484375,0,0,1.07016
2.0961312759900466,0,0,1.2378022583007813,0,0,1.1465999999999998
2.0984300450072624,0,0,1.1540052001953125,0,0,1.07016
2.0998594909906387,0,0,1.1252747802734375,0,0,0.7644
2.10124873300083,0,0,1.216254443359375,0,0,1.68168
2.1026368089951575,0,0,1.3383587280273437,0,0,0.84084
2.104024219006533,0,0,1.3263877197265623,0,0,1.07016
2.1054119240143336,0,0,1.5682020874023437,0,0,0.91728
2.107053960004123,0,0,1.2952630981445312,0,0,0.84084
2.1085237759980373,0,0,1.3335703247070312,0,0,1.07016
2.1099599070148543,0,0,1.1659762084960936,0,0,0.68796
2.1123106380109675,0,0,1.2952630981445312,0,0,0.0
2.1137641209934372,0,0,1.4053963745117186,0,0,0.91728
2.115686987002846,0,0,1.419761584472656,0,0,1.2230400000000001
2.1171941730135586,0,0,1.2808978881835937,0,0,0.7644
2.1186523030046374,0,0,1.4532804077148436,0,0,0.84084
2.120141841005534,0,0,1.189918225097656,0,0,0.6115200000000001
2.1216398230171762,0,0,1.2138602416992186,0,0,0.99372
2.1231503789895214,0,0,1.4221557861328125,0,0,0.45864
2.1246460099937394,0,0,1.2785036865234374,0,0,0.99372
2.1261739729961846,0,0,1.6041151123046875,0,0,0.84084
2.1275809190119617,0,0,1.2713210815429687,0,0,0.91728
2.1289610140083823,0,0,1.2665326782226562,0,0,0.68796
2.130340794014046,0,0,1.209071838378906,0,0,0.53508
2.13172764700721,0,0,1.189918225097656,0,0,0.6115200000000001
2.1331070940068457,0,0,1.3718775512695311,0,0,-0.15288000000000002
2.134491539996816,0,0,1.4413093994140624,0,0,0.6115200000000001
2.1358997269999236,0,0,1.66636435546875,0,0,0.3822
2.13728483999148,0,0,1.4030021728515625,0,0,0.7644
2.138663843012182,0,0,1.2593500732421874,0,0,0.91728
2.1400436779949814,0,0,1.218648645019531,0,0,0.99372
2.1414222170133144,0,0,1.1707646118164061,0,0,1.07016
2.1428010890085716,0,0,1.1516109985351561,0,0,1.60524
2.1441861290077213,0,0,1.4341267944335936,0,0,0.91728
2.1455677050107624,0,0,1.2880804931640624,0,0,0.84084
2.146946429013042,0,0,1.4939818359375,0,0,0.84084
2.1483267830044497,0,0,1.1611878051757811,0,0,0.99372
2.149705248011742,0,0,1.2976572998046874,0,0,0.68796
2.151086268015206,0,0,1.1827356201171875,0,0,0.6115200000000001
2.1525462139979936,0,0,1.0797849487304687,0,0,0.30576000000000003
2.153925660997629,0,0,1.419761584472656,0,0,0.0
2.155306663014926,0,0,1.3263877197265623,0,0,0.68796
2.156686313013779,0,0,1.2785036865234374,0,0,0.3822
2.158064593008021,0,0,1.2761094848632812,0,0,0.45864
2.159455001994502,0,0,1.35990654296875,0,0,1.1465999999999998
2.160834097012412,0,0,1.189918225097656,0,0,1.07016
2.1622133209893946,0,0,1.0869675537109373,0,0,0.99372
2.163593508012127,0,0,1.1731588134765625,0,0,1.5288
2.1649723809969146,0,0,1.254561669921875,0,0,1.1465999999999998
2.1663513829989824,0,0,1.1923124267578125,0,0,0.91728
2.1677395699953195,0,0,1.5203180541992187,0,0,0.99372
2.1691273500036914,0,0,1.1635820068359375,0,0,0.91728
2.170529166003689,0,0,1.39821376953125,0,0,0.53508
2.1719167419942096,0,0,1.1061211669921875,0,0,0.30576000000000003
2.173303521994967,0,0,1.0702081420898437,0,0,0.22932
2.174690504994942,0,0,1.2904746948242187,0,0,-0.22932
2.1760799520125147,0,0,1.3263877197265623,0,0,0.45864
2.177467119996436,0,0,1.465251416015625,0,0,0.7644
2.1788544740120415,0,0,1.2306196533203124,0,0,0.30576000000000003
2.1802421059983317,0,0,1.177947216796875,0,0,0.99372
2.1816203120106366,0,0,1.2138602416992186,0,0,1.07016
2.183020572992973,0,0,1.0941501586914062,0,0,0.99372
2.1844078710128088,0,0,1.2593500732421874,0,0,1.2994800000000002
2.1857937060121913,0,0,1.3144167114257812,0,0,0.84084
2.1871808750147466,0,0,1.2569558715820313,0,0,1.2994800000000002
2.188565969991032,0,0,1.5705962890624998,0,0,1.07016
2.1899518230056856,0,0,1.37906015625,0,0,0.99372
2.1913386220112443,0,0,1.3024457031249999,0,0,0.6115200000000001
2.1927240309887566,0,0,1.218648645019531,0,0,0.91728
2.1941099030082114,0,0,1.0726023437499999,0,0,0.53508
2.1954960910079535,0,0,1.2689268798828124,0,0,0.3822
2.1968814629944973,0,0,1.235408056640625,0,0,0.7644
2.1982670210127253,0,0,1.426944189453125,0,0,0.84084
2.199652634008089,0,0,1.5298948608398437,0,0,0.7644
2.2010386910114903,0,0,1.369483349609375,0,0,0.91728
2.2024244340136647,0,0,1.1109095703125,0,0,1.1465999999999998
2.203810325008817,0,0,1.1611878051757811,0,0,0.68796
2.2051963080011774,0,0,1.2425906616210938,0,0,1.2994800000000002
2.2065818840055726,0,0,1.465251416015625,0,0,0.84084
2.20797001599567,0,0,1.3000515014648437,0,0,0.84084
2.2093557589978445,0,0,1.5490484741210937,0,0,0.68796
2.210752537997905,0,0,1.1540052001953125,0,0,1.2230400000000001
2.212142781005241,0,0,1.1180921752929687,0,0,0.68796
2.213529061002191,0,0,1.1516109985351561,0,0,0.7644
2.2149158400134183,0,0,1.1085153686523437,0,0,0.6115200000000001
2.2163077680161223,0,0,1.3670891479492187,0,0,0.30576000000000003
2.2178341950057074,0,0,1.2282254516601563,0,0,0.91728
2.219303159014089,0,0,1.3862427612304686,0,0,0.6115200000000001
2.2207832150161266,0,0,1.2018892333984375,0,0,0.6115200000000001
2.2222174940106925,0,0,1.1947066284179686,0,0,0.7644
2.223623180994764,0,0,1.2114660400390624,0,0,0.91728
2.22550227001193,0,0,1.1635820068359375,0,0,0.84084
2.226919345004717,0,0,1.407790576171875,0,0,0.22932
2.228305772994645,0,0,1.2401964599609374,0,0,0.7644
2.2296978489903267,0,0,1.4245499877929686,0,0,0.91728
2.2310867400083225,0,0,1.1755530151367186,0,0,0.68796
2.2324670939997304,0,0,1.2641384765625,0,0,0.68796
2.2338453739939723,0,0,1.189918225097656,0,0,0.6115200000000001
2.2352254319994245,0,0,1.1324573852539062,0,0,0.53508
2.236604397010524,0,0,1.189918225097656,0,0,0.53508
2.2379829910059925,0,0,1.3168109130859373,0,0,0.68796
2.239364030014258,0,0,1.2808978881835937,0,0,0.53508
2.2407421809912194,0,0,1.3144167114257812,0,0,0.84084
2.242120201000944,0,0,1.1923124267578125,0,0,1.2230400000000001
2.2435002220154274,0,0,1.177947216796875,0,0,0.84084
2.2448787419998553,0,0,1.139639990234375,0,0,0.7644
2.24625694801216,0,0,1.120486376953125,0,0,0.91728
2.247646395000629,0,0,1.3359645263671873,0,0,0.45864
2.2490470630000345,0,0,1.1420341918945311,0,0,0.99372
2.250436064990936,0,0,1.5155296508789062,0,0,0.84084
2.251817234006012,0,0,1.218648645019531,0,0,1.07016
2.2531959949992597,0,0,1.3287819213867187,0,0,0.6115200000000001
2.2545744969975203,0,0,1.3407529296874998,0,0,0.53508
2.2559658880054485,0,0,1.0941501586914062,0,0,-0.3822
2.2573519450088497,0,0,1.2521674682617188,0,0,0.53508
2.258731298992643,0,0,1.3910311645507811,0,0,0.91728
2.2601195609895512,0,0,1.3144167114257812,0,0,0.6115200000000001
2.261506470007589,0,0,1.6472107421875,0,0,0.91728
2.2628931759973057,0,0,1.199495031738281,0,0,0.91728
2.264273806998972,0,0,1.3144167114257812,0,0,1.07016
2.2656522170000244,0,0,1.1228805786132812,0,0,0.68796
2.267031922994647,0,0,1.216254443359375,0,0,0.99372
2.2684322580171283,0,0,1.2378022583007813,0,0,0.53508
2.27000627599773,0,0,1.2952630981445312,0,0,0.68796
2.271430202992633,0,0,1.6807295654296874,0,0,0.7644
2.2729803519905545,0,0,1.2473790649414063,0,0,1.1465999999999998
2.2743691310170107,0,0,1.0941501586914062,0,0,1.07016
2.2757571330002975,0,0,1.1827356201171875,0,0,0.7644
2.277153339004144,0,0,1.1731588134765625,0,0,0.30576000000000003
2.2785423409950454,0,0,1.3407529296874998,0,0,0.0
2.279930435004644,0,0,1.1827356201171875,0,0,0.68796
2.28131725199637,0,0,1.3910311645507811,0,0,0.84084
2.2827046799939126,0,0,1.1923124267578125,0,0,0.22932
2.2841775880078785,0,0,1.3551181396484375,0,0,1.07016
2.285566202015616,0,0,1.0845733520507812,0,0,0.91728
2.2869537780061364,0,0,1.1420341918945311,0,0,0.84084
2.2883622980152722,0,0,1.3742717529296875,0,0,1.5288
2.289749818010023,0,0,1.3551181396484375,0,0,0.99372
2.2911350060021505,0,0,1.2473790649414063,0,0,0.45864
2.2925132480158936,0,0,1.6735469604492186,0,0,0.84084
2.2938918989966623,0,0,1.2928688964843749,0,0,0.91728
2.29527832599706,0,0,1.3239935180664062,0,0,0.91728
2.296665606001625,0,0,1.149216796875,0,0,0.7644
2.2980523300066125,0,0,1.16837041015625,0,0,0.3822
2.299440481001511,0,0,1.350329736328125,0,0,0.3822
2.3008268529956695,0,0,1.3646949462890625,0,0,0.7644
2.3022144839924295,0,0,1.618480322265625,0,0,0.7644
2.3036011529911775,0,0,1.1707646118164061,0,0,0.3822
2.3049877480079886,0,0,1.2832920898437499,0,0,0.91728
2.3063747129926924,0,0,1.1516109985351561,0,0,0.68796
2.3077574920025654,0,0,1.1611878051757811,0,0,0.84084
2.3091358650126494,0,0,1.2425906616210938,0,0,1.2230400000000001
2.3105142560089007,0,0,1.47482822265625,0,0,0.68796
2.311909220996313,0,0,1.3000515014648437,0,0,0.53508
2.313296314998297,0,0,1.6065093139648436,0,0,0.91728
2.3146819839894306,0,0,1.2904746948242187,0,0,0.99372
2.3160683379974216,0,0,1.218648645019531,0,0,0.84084
2.3174546730006114,0,0,1.1947066284179686,0,0,0.53508
2.3188405449909624,0,0,1.2593500732421874,0,0,0.45864
2.320226473006187,0,0,1.35990654296875,0,0,0.45864
2.3216123830061406,0,0,1.2282254516601563,0,0,0.45864
2.323011995991692,0,0,1.6232687255859375,0,0,0.68796
2.3243987940077204,0,0,1.37906015625,0,0,0.15288000000000002
2.3257852400129195,0,0,1.2569558715820313,0,0,0.99372
2.3272399450070225,0,0,1.158793603515625,0,0,0.91728
2.328630798991071,0,0,1.1372457885742187,0,0,0.68796
2.3300175050098915,0,0,1.2689268798828124,0,0,0.3822
2.33140541400644,0,0,1.4987702392578124,0,0,0.99372
2.3327920640003867,0,0,1.5155296508789062,0,0,0.45864
2.3341785480151884,0,0,1.5083470458984374,0,0,0.84084
2.335565198009135,0,0,1.2761094848632812,0,0,1.1465999999999998
2.3369522000139114,0,0,1.1659762084960936,0,0,0.7644
2.3383391090028454,0,0,1.2042834350585936,0,0,0.68796
2.339720777992625,0,0,1.3024457031249999,0,0,0.91728
2.3410988909890875,0,0,1.3862427612304686,0,0,0.3822
2.3424773559963796,0,0,1.429338391113281,0,0,0.7644
2.343863802991109,0,0,1.5801730957031248,0,0,1.1465999999999998
2.3452500640123617,0,0,1.22583125,0,0,0.99372
2.3466514169995207,0,0,1.254561669921875,0,0,0.53508
2.349022556009004,0,0,1.1947066284179686,0,0,0.84084
2.350496427010512,0,0,1.1468225952148436,0,0,1.2994800000000002
2.351892762002535,0,0,1.4341267944335936,0,0,0.99372
2.3532801720139105,0,0,1.254561669921875,0,0,0.7644
2.354676599992672,0,0,1.5035586425781249,0,0,0.91728
2.3560729899909347,0,0,1.20667763671875,0,0,0.84084
2.3574796589964535,0,0,1.24498486328125,0,0,0.45864
2.3588668270094786,0,0,1.1468225952148436,0,0,0.68796
2.3602483849972486,0,0,1.0917559570312498,0,0,0.53508
2.361627183010569,0,0,1.3168109130859373,0,0,0.22932
2.363035554997623,0,0,1.3335703247070312,0,0,0.84084
2.364423965016613,0,0,1.2737152832031249,0,0,0.68796
2.365811058989493,0,0,1.2114660400390624,0,0,0.30576000000000003
2.3671990059956443,0,0,1.209071838378906,0,0,1.07016
2.3685846739972476,0,0,1.199495031738281,0,0,0.84084
2.3699726019985974,0,0,1.180341418457031,0,0,0.7644
2.371370400011074,0,0,1.2473790649414063,0,0,1.1465999999999998
2.372757625009399,0,0,1.3263877197265623,0,0,0.84084
2.374144681991311,0,0,1.3646949462890625,0,0,0.45864
2.375607702007983,0,0,1.3934253662109375,0,0,0.99372
2.376990482007386,0,0,1.2234370483398436,0,0,0.68796
2.378369798010681,0,0,1.3072341064453123,0,0,0.99372
2.3797524670080747,0,0,1.0989385620117187,0,0,0.7644
2.38113196901395,0,0,1.1468225952148436,0,0,0.3822
2.3825110449979547,0,0,1.4030021728515625,0,0,0.15288000000000002
2.3838921769929584,0,0,1.254561669921875,0,0,0.91728
2.3852705860044807,0,0,1.4101847778320311,0,0,0.99372
2.386649126012344,0,0,1.2521674682617188,0,0,0.53508
2.3880289799999446,0,0,1.3024457031249999,0,0,0.68796
2.3894079820020124,0,0,1.1923124267578125,0,0,0.91728
2.3907865390065126,0,0,1.197100830078125,0,0,0.84084
2.392175078013679,0,0,1.1851298217773436,0,0,1.1465999999999998
2.393562154000392,0,0,1.3383587280273437,0,0,0.68796
2.3949490080121905,0,0,1.2761094848632812,0,0,0.68796
2.3963293060078286,0,0,1.6112977172851561,0,0,0.91728
2.397707622993039,0,0,1.2617442749023438,0,0,0.91728
2.399091272993246,0,0,1.3766659545898436,0,0,0.7644
2.400488609011518,0,0,1.1037269653320312,0,0,0.6115200000000001
2.4018747030058876,0,0,1.13006318359375,0,0,0.22932
2.403282631014008,0,0,1.419761584472656,0,0,0.30576000000000003
2.404669595998712,0,0,1.2378022583007813,0,0,0.68796
2.406066263996763,0,0,1.4796166259765624,0,0,0.53508
2.40745474799769,0,0,1.1875240234375,0,0,0.3822
2.4088421940105036,0,0,1.4030021728515625,0,0,0.6115200000000001
2.410229122004239,0,0,1.3575123413085937,0,0,0.84084
2.41162130900193,0,0,1.1085153686523437,0,0,0.7644
2.4129999220022,0,0,1.2665326782226562,0,0,0.7644
2.4143780730082653,0,0,1.3359645263671873,0,0,0.91728
2.4157661669887602,0,0,1.419761584472656,0,0,0.3822
2.4171530769963283,0,0,1.6639701538085936,0,0,0.68796
2.4185400040005334,0,0,1.2856862915039062,0,0,0.99372
2.419922339991899,0,0,1.22583125,0,0,0.7644
2.421300935006002,0,0,1.1851298217773436,0,0,0.68796
2.4226797700102907,0,0,1.2401964599609374,0,0,0.53508
2.4240672159940004,0,0,1.3551181396484375,0,0,0.22932
2.4254535520158242,0,0,1.2138602416992186,0,0,0.99372
2.4268392200174276,0,0,1.5298948608398437,0,0,0.7644
2.428233815007843,0,0,1.3168109130859373,0,0,0.7644
2.4296149279980455,0,0,1.2689268798828124,0,0,0.7644
2.4310132630052976,0,0,1.2210428466796874,0,0,0.84084
2.43240258001606,0,0,1.1516109985351561,0,0,0.68796
2.4337869890150614,0,0,1.3335703247070312,0,0,0.45864
2.4351968610135373,0,0,1.5155296508789062,0,0,0.7644
2.436583752016304,0,0,1.5538368774414062,0,0,0.3822
2.4379856059968006,0,0,1.5610194824218748,0,0,0.6115200000000001
2.4393749230075628,0,0,1.3670891479492187,0,0,0.99372
2.440760572993895,0,0,1.1923124267578125,0,0,1.07016
2.4421478899894282,0,0,1.2976572998046874,0,0,0.68796
2.44355529898894,0,0,1.3000515014648437,0,0,1.1465999999999998
2.44496015200275,0,0,1.4006079711914061,0,0,0.3822
2.446347227989463,0,0,1.2737152832031249,0,0,0.84084
2.4477461189962924,0,0,1.4796166259765624,0,0,1.2994800000000002
2.4491328620060813,0,0,1.1156979736328125,0,0,0.68796
2.4505197899998166,0,0,1.3000515014648437,0,0,0.6115200000000001
2.451907125010621,0,0,1.24498486328125,0,0,0.84084
2.4532935160095803,0,0,1.2018892333984375,0,0,0.53508
2.4546800359967165,0,0,1.2880804931640624,0,0,0.7644
2.4560667049954645,0,0,1.2521674682617188,0,0,0.91728
2.457458855002187,0,0,1.5729904907226562,0,0,0.3822
2.458845820015995,0,0,1.4604630126953124,0,0,0.53508
2.4602331549976952,0,0,1.1635820068359375,0,0,1.1465999999999998
2.461619954003254,0,0,1.218648645019531,0,0,0.99372
2.4630085109965876,0,0,1.1156979736328125,0,0,0.91728
2.4644036980171222,0,0,1.2617442749023438,0,0,0.84084
2.4657906079955865,0,0,1.3359645263671873,0,0,0.53508
2.467177498008823,0,0,1.350329736328125,0,0,1.07016
2.4685641860123724,0,0,1.5298948608398437,0,0,0.84084
2.469950650993269,0,0,1.2018892333984375,0,0,0.7644
2.4713379119930323,0,0,1.3766659545898436,0,0,0.7644
2.4727235799946357,0,0,1.1420341918945311,0,0,0.53508
2.474109878996387,0,0,1.16837041015625,0,0,0.53508
2.47549749200698,0,0,1.3718775512695311,0,0,0.22932
2.4768836419971194,0,0,1.3838485595703125,0,0,0.91728
2.478270218009129,0,0,1.0821791503906248,0,0,0.53508
2.4796567390148994,0,0,1.3263877197265623,0,0,0.91728
2.4810434069950134,0,0,1.2378022583007813,0,0,0.91728
2.4824299460160546,0,0,1.2114660400390624,0,0,0.68796
2.483816855994519,0,0,1.216254443359375,0,0,0.99372
2.4852036540105473,0,0,1.197100830078125,0,0,1.07016
2.4865901739976835,0,0,1.4772224243164063,0,0,0.53508
2.487992657988798,0,0,1.2976572998046874,0,0,0.99372
2.4893807519983966,0,0,1.5562310791015623,0,0,0.7644
2.4907679760071915,0,0,1.24498486328125,0,0,0.68796
2.4921551079896744,0,0,1.3718775512695311,0,0,0.6115200000000001
2.4935420360125136,0,0,1.149216796875,0,0,0.84084
2.494928592990618,0,0,1.1037269653320312,0,0,0.6115200000000001
2.496315558004426,0,0,1.2737152832031249,0,0,0.30576000000000003
2.4977024309919216,0,0,1.4149731811523436,0,0,0.53508
2.499089710006956,0,0,1.24498486328125,0,0,0.45864
2.5004761010059156,0,0,1.2713210815429687,0,0,0.91728
2.501863048004452,0,0,1.2569558715820313,0,0,0.91728
2.5032499940134585,0,0,1.3359645263671873,0,0,0.7644
2.5046357550018,0,0,1.2306196533203124,0,0,0.68796
2.506022239016602,0,0,1.13006318359375,0,0,0.91728
2.5074098889890593,0,0,1.47482822265625,0,0,0.84084
2.508796002017334,0,0,1.3646949462890625,0,0,1.1465999999999998
2.510182892990997,0,0,1.7262193969726563,0,0,0.84084
2.511569394991966,0,0,1.1731588134765625,0,0,0.84084
2.5129560079949442,0,0,1.1228805786132812,0,0,0.68796
2.51434330601478,0,0,1.235408056640625,0,0,0.45864
2.5157300860155374,0,0,1.22583125,0,0,0.53508
2.5171165880165063,0,0,1.2880804931640624,0,0,0.22932
2.518502979015466,0,0,1.2880804931640624,0,0,0.7644
2.5198851480090525,0,0,1.5298948608398437,0,0,0.45864
2.5212633720075246,0,0,1.419761584472656,0,0,0.45864
2.5226502070145216,0,0,1.3407529296874998,0,0,0.68796
2.5240389129903633,0,0,1.3766659545898436,0,0,0.84084
2.5254257479973603,0,0,1.13006318359375,0,0,0.84084
2.526812397991307,0,0,1.2138602416992186,0,0,0.99372
2.5281991779920645,0,0,1.388636962890625,0,0,0.6115200000000001
2.5295860689948313,0,0,1.3192051147460937,0,0,0.99372
2.53097281200462,0,0,1.5945383056640625,0,0,0.7644
2.532367628009524,0,0,1.235408056640625,0,0,0.91728
2.5337544640060514,0,0,1.20667763671875,0,0,0.91728
2.5351423550164327,0,0,1.1372457885742187,0,0,0.68796
2.5365284680156037,0,0,1.1252747802734375,0,0,0.45864
2.5379147290077526,0,0,1.2689268798828124,0,0,0.22932
2.5392985090147704,0,0,1.3263877197265623,0,0,0.45864
2.5406766770174727,0,0,1.5035586425781249,0,0,0.53508
2.542054808989633,0,0,1.5155296508789062,0,0,0.6115200000000001
2.543439478002256,0,0,1.2521674682617188,0,0,0.91728
2.5448254980146885,0,0,1.1468225952148436,0,0,0.84084
2.5462113709945697,0,0,1.3766659545898436,0,0,0.7644
2.547597038996173,0,0,1.218648645019531,0,0,0.99372
2.5489830230071675,0,0,1.4437036010742186,0,0,0.68796
2.550368710013572,0,0,1.3718775512695311,0,0,0.84084
2.5517548600037117,0,0,1.5610194824218748,0,0,1.07016
2.5531403810018674,0,0,1.2617442749023438,0,0,0.7644
2.5545260310173035,0,0,1.2282254516601563,0,0,0.91728
2.555911866016686,0,0,1.1180921752929687,0,0,0.53508
2.557296942017274,0,0,1.13006318359375,0,0,0.53508
2.5586823699995875,0,0,1.35990654296875,0,0,0.15288000000000002
2.5600680019997526,0,0,1.24498486328125,0,0,0.6115200000000001
2.5614532440085895,0,0,1.5203180541992187,0,0,0.45864
2.5628388389886823,0,0,1.467645617675781,0,0,0.6115200000000001
2.5642252849938814,0,0,1.1324573852539062,0,0,0.68796
2.5656180100049824,0,0,1.1563994018554686,0,0,0.7644
2.567014011001447,0,0,1.0845733520507812,0,0,0.91728
2.5684000689943787,0,0,1.2952630981445312,0,0,1.2994800000000002
2.5697881639935076,0,0,1.4221557861328125,0,0,0.84084
2.5711747579916846,0,0,1.350329736328125,0,0,0.84084
2.572559538006317,0,0,1.5586252807617187,0,0,0.99372
2.5739448179956526,0,0,1.3000515014648437,0,0,0.91728
2.575337596994359,0,0,1.1731588134765625,0,0,0.53508
2.576722822006559,0,0,1.2306196533203124,0,0,0.45864
2.5781083980109543,0,0,1.2665326782226562,0,0,0.84084
2.579494806996081,0,0,1.43652099609375,0,0,0.07644000000000001
2.580887309013633,0,0,1.3072341064453123,0,0,0.7644
2.5822732000087854,0,0,1.5418658691406248,0,0,0.53508
2.5836590910039376,0,0,1.2928688964843749,0,0,0.3822
2.5850453329912852,0,0,1.3120225097656248,0,0,0.84084
2.586430947005283,0,0,1.2569558715820313,0,0,0.84084
2.5878163930028677,0,0,1.1516109985351561,0,0,0.84084
2.5892017649894115,0,0,1.1061211669921875,0,0,1.2230400000000001
2.590587434009649,0,0,1.467645617675781,0,0,0.6115200000000001
2.5919736770156305,0,0,1.3048399047851562,0,0,0.99372
2.5933589189953636,0,0,1.43652099609375,0,0,0.91728
2.5947446069912985,0,0,1.177947216796875,0,0,0.91728
2.5961288860125933,0,0,1.3263877197265623,0,0,0.45864
2.5975126289995387,0,0,1.1875240234375,0,0,0.7644
2.5996718629903626,0,0,1.2473790649414063,0,0,1.45236
2.6011074570124038,0,0,1.2689268798828124,0,0,0.84084
2.6024970510043204,0,0,1.218648645019531,0,0,0.45864
2.6038908119953703,0,0,1.4700398193359374,0,0,0.99372
2.605277944006957,0,0,1.2425906616210938,0,0,1.07016
2.606664390012156,0,0,1.180341418457031,0,0,0.91728
2.608051521994639,0,0,1.1324573852539062,0,0,0.68796
2.609438098006649,0,0,1.1875240234375,0,0,0.6115200000000001
2.6108244149945676,0,0,1.2737152832031249,0,0,0.22932
2.6122234349895734,0,0,1.3335703247070312,0,0,0.7644
2.61360927100759,0,0,1.4891934326171874,0,0,0.6115200000000001
2.6150171059998684,0,0,1.47482822265625,0,0,0.6115200000000001
2.616408311005216,0,0,1.3000515014648437,0,0,0.84084
2.617795443016803,0,0,1.1324573852539062,0,0,0.68796
2.6191824260167778,0,0,1.1228805786132812,0,0,0.68796
2.620585372991627,0,0,1.3120225097656248,0,0,1.2994800000000002
2.6219721710076556,0,0,1.467645617675781,0,0,0.68796
2.62335896899458,0,0,1.4508862060546874,0,0,0.7644
2.624748175003333,0,0,1.5634136840820312,0,0,0.91728
2.6261346579995006,0,0,1.2425906616210938,0,0,0.99372
2.62752104899846,0,0,1.1109095703125,0,0,0.91728
2.6289075879903976,0,0,1.16837041015625,0,0,0.6115200000000001
2.630293646012433,0,0,1.0989385620117187,0,0,0.84084
2.631682387989713,0,0,1.3455413330078123,0,0,0.30576000000000003
2.6330690570175648,0,0,1.3168109130859373,0,0,0.91728
2.6344552260125056,0,0,1.5179238525390624,0,0,0.84084
2.6358414129936136,0,0,1.2569558715820313,0,0,0.7644
2.6372281560034025,0,0,1.2018892333984375,0,0,0.7644
2.638614527997561,0,0,1.2210428466796874,0,0,0.7644
2.6400108259986155,0,0,1.2425906616210938,0,0,0.68796
2.6413977350166533,0,0,1.3096283081054687,0,0,0.91728
2.642784460011171,0,0,1.5203180541992187,0,0,0.53508
2.6441714059910737,0,0,1.47482822265625,0,0,0.6115200000000001
2.6455577599990647,0,0,1.438915197753906,0,0,0.84084
2.6469440209912136,0,0,1.0941501586914062,0,0,0.7644
2.6483314300130587,0,0,1.2425906616210938,0,0,0.91728
2.6497565990139265,0,0,1.0893617553710937,0,0,0.68796
2.651147044991376,0,0,1.2856862915039062,0,0,0.84084
2.652536287991097,0,0,1.3431471313476562,0,0,0.30576000000000003
2.653923122998094,0,0,1.3742717529296875,0,0,0.91728
2.6553098290169146,0,0,1.62805712890625,0,0,0.99372
2.6567287009966094,0,0,1.1013327636718748,0,0,0.99372
2.6581177030166145,0,0,1.3359645263671873,0,0,0.84084
2.6595049269963056,0,0,1.1923124267578125,0,0,0.84084
2.6608912069932558,0,0,1.1563994018554686,0,0,0.53508
2.662277652998455,0,0,1.3168109130859373,0,0,0.91728
2.663682746991981,0,0,1.4891934326171874,0,0,0.91728
2.6650697860168293,0,0,1.2593500732421874,0,0,0.6115200000000001
2.666456344013568,0,0,1.407790576171875,0,0,0.6115200000000001
2.66784499399364,0,0,1.1851298217773436,0,0,0.91728
2.6692317739943974,0,0,1.2785036865234374,0,0,0.84084
2.670618424017448,0,0,1.199495031738281,0,0,0.84084
2.672005241009174,0,0,1.0893617553710937,0,0,0.68796
2.673391927994089,0,0,1.4628572143554686,0,0,0.45864
2.67477809698903,0,0,1.2761094848632812,0,0,0.84084
2.676164950011298,0,0,1.5203180541992187,0,0,1.07016
2.6775509520084597,0,0,1.180341418457031,0,0,0.7644
2.6789368799945805,0,0,1.2904746948242187,0,0,-9.01992
2.680325252993498,0,0,1.2306196533203124,0,0,0.68796
2.68171162501676,0,0,1.1180921752929687,0,0,0.99372
2.68312053399859,0,0,1.3431471313476562,0,0,0.99372
2.684507831989322,0,0,1.3383587280273437,0,0,0.99372
2.685893796995515,0,0,1.3168109130859373,0,0,0.53508
2.6872801700083073,0,0,1.3646949462890625,0,0,0.99372
2.6886654859990813,0,0,1.0989385620117187,0,0,0.84084
2.6900508220132906,0,0,1.2330138549804688,0,0,0.91728
2.69143721301225,0,0,1.2018892333984375,0,0,0.53508
2.6928244180162437,0,0,1.0989385620117187,0,0,0.91728
2.694210143003147,0,0,1.3479355346679687,0,0,0.0
2.6955962190113496,0,0,1.180341418457031,0,0,0.91728
2.696981627988862,0,0,1.4532804077148436,0,0,0.99372
2.6983764820033684,0,0,1.2569558715820313,0,0,0.68796
2.699763039010577,0,0,1.2880804931640624,0,0,0.7644
2.7011492630117573,0,0,1.16837041015625,0,0,0.6115200000000001
2.7025345989968628,0,0,1.13006318359375,0,0,0.6115200000000001
2.7039204339962453,0,0,1.0965443603515623,0,0,0.7644
2.705306621006457,0,0,1.3144167114257812,0,0,0.84084
2.70669264200842,0,0,1.2617442749023438,0,0,0.45864
2.7080851439968683,0,0,1.2952630981445312,0,0,0.7644
2.7094711269892287,0,0,1.2928688964843749,0,0,0.7644
2.710856702993624,0,0,1.3000515014648437,0,0,1.07016
2.7122421500098426,0,0,1.2569558715820313,0,0,0.68796
2.7136274480144493,0,0,1.1947066284179686,0,0,0.6115200000000001
2.7150141349993646,0,0,1.4125789794921875,0,0,0.84084
2.71639989601681,0,0,1.3096283081054687,0,0,1.07016
2.717785490996903,0,0,1.5921441040039062,0,0,0.7644
2.719172734010499,0,0,1.218648645019531,0,0,0.6115200000000001
2.7205568100034725,0,0,1.3096283081054687,0,0,0.6115200000000001
2.7219424410141073,0,0,1.1731588134765625,0,0,0.84084
2.7233291100128554,0,0,1.0917559570312498,0,0,0.68796
2.7247141679981723,0,0,1.2713210815429687,0,0,1.1465999999999998
2.7261001330043655,0,0,1.254561669921875,0,0,0.53508
2.7274863939965144,0,0,1.465251416015625,0,0,0.68796
2.7288714699971024,0,0,1.5729904907226562,0,0,0.68796
2.7302570269966964,0,0,1.3670891479492187,0,0,0.6115200000000001
2.7316440110153053,0,0,1.3551181396484375,0,0,0.84084
2.7330294759885874,0,0,1.1037269653320312,0,0,0.53508
2.734414922015276,0,0,1.1875240234375,0,0,0.68796
2.735807349992683,0,0,1.5298948608398437,0,0,0.6115200000000001
2.7372112589946482,0,0,1.2713210815429687,0,0,0.84084
2.7385979650134686,0,0,1.5921441040039062,0,0,0.7644
2.7399846150074154,0,0,1.2832920898437499,0,0,0.68796
2.7413706360093784,0,0,1.2210428466796874,0,0,0.6115200000000001
2.742755934013985,0,0,1.1372457885742187,0,0,0.6115200000000001
2.7441419910173863,0,0,1.120486376953125,0,0,-9.172799999999999
2.745528605009895,0,0,1.4053963745117186,0,0,0.45864
2.7469142180052586,0,0,1.446097802734375,0,0,0.7644
2.748300609004218,0,0,1.4437036010742186,0,0,0.6115200000000001
2.749686074006604,0,0,1.388636962890625,0,0,1.2230400000000001
2.7510829090024345,0,0,1.3144167114257812,0,0,1.1465999999999998
2.7524693550076336,0,0,1.149216796875,0,0,0.68796
2.7538550609897356,0,0,1.149216796875,0,0,0.91728
2.755241155013209,0,0,1.3072341064453123,0,0,1.1465999999999998
2.7566436199995223,0,0,1.3910311645507811,0,0,0.53508
2.758030177996261,0,0,1.4101847778320311,0,0,0.7644
2.75941667999723,0,0,1.637633935546875,0,0,0.99372
2.760802495991811,0,0,1.3766659545898436,0,0,0.84084
2.762188516993774,0,0,1.2593500732421874,0,0,0.7644
2.7635744450089987,0,0,1.3551181396484375,0,0,0.6115200000000001
2.764959947002353,0,0,1.2234370483398436,0,0,0.30576000000000003
2.7663457640155684,0,0,1.3958195678710936,0,0,0.30576000000000003
2.767731377010932,0,0,1.235408056640625,0,0,0.68796
2.7691165450087283,0,0,1.5490484741210937,0,0,0.7644
2.7705026770127006,0,0,1.419761584472656,0,0,0.53508
2.771888512012083,0,0,1.2617442749023438,0,0,0.99372
2.773274200008018,0,0,1.209071838378906,0,0,0.84084
2.7746598130033817,0,0,1.0845733520507812,0,0,0.84084
2.776045000005979,0,0,1.2904746948242187,0,0,1.60524
2.777430557005573,0,0,1.5203180541992187,0,0,0.68796
2.7788162819924764,0,0,1.2737152832031249,0,0,1.07016
2.7802020059898496,0,0,1.5418658691406248,0,0,0.84084
2.7815871750062797,0,0,1.16837041015625,0,0,0.7644
2.7829722510068677,0,0,1.24498486328125,0,0,0.91728
2.784357511991402,0,0,1.1109095703125,0,0,0.45864
2.7857429400028195,0,0,0.9864110839843749,0,0,0.68796
2.787128941999981,0,0,1.3335703247070312,0,0,0.30576000000000003
2.7885137959965505,0,0,1.3862427612304686,0,0,0.7644
2.789899224007968,0,0,1.3192051147460937,0,0,0.45864
2.791285614017397,0,0,1.4532804077148436,0,0,0.6115200000000001
2.7926705610007048,0,0,1.0845733520507812,0,0,1.07016
2.7940560260030907,0,0,1.16837041015625,0,0,0.68796
2.79544878701563,0,0,1.1061211669921875,0,0,0.99372
2.7968340670049656,0,0,1.1851298217773436,0,0,1.37592
2.7982194579963107,0,0,1.4413093994140624,0,0,0.6115200000000001
2.799604978004936,0,0,1.2976572998046874,0,0,0.91728
2.800990516989259,0,0,1.429338391113281,0,0,1.2230400000000001
2.8023755559988786,0,0,1.2569558715820313,0,0,0.99372
2.8037611140171066,0,0,1.3862427612304686,0,0,0.84084
2.805146430997411,0,0,1.158793603515625,0,0,0.6115200000000001
2.806532396003604,0,0,1.1156979736328125,0,0,0.68796
2.807918267993955,0,0,1.2497732666015624,0,0,0.3822
2.8093038809893187,0,0,1.3359645263671873,0,0,0.7644
2.8106890130147804,0,0,1.2713210815429687,0,0,0.6115200000000001
2.8120747370121535,0,0,1.3551181396484375,0,0,0.68796
2.8134689049911685,0,0,1.2641384765625,0,0,0.91728
2.8148649810173083,0,0,1.2832920898437499,0,0,0.99372
2.816251465003006,0,0,1.1324573852539062,0,0,0.7644
2.8176376330084167,0,0,1.1851298217773436,0,0,1.2230400000000001
2.8190234689973295,0,0,1.407790576171875,0,0,0.6115200000000001
2.820410415006336,0,0,1.2737152832031249,0,0,0.99372
2.821796453994466,0,0,1.455674609375,0,0,0.91728
2.823181918996852,0,0,1.1923124267578125,0,0,0.99372
2.824567217990989,0,0,1.235408056640625,0,0,0.68796
2.8259526639885735,0,0,1.1444283935546875,0,0,0.68796
2.827338592003798,0,0,1.1707646118164061,0,0,0.6115200000000001
2.828724204999162,0,0,1.3383587280273437,0,0,0.45864
2.8301098739902955,0,0,1.3575123413085937,0,0,0.7644
2.8314961529977154,0,0,1.2808978881835937,0,0,0.6115200000000001
2.8328823590127286,0,0,1.5346832641601562,0,0,0.68796
2.8342680649948306,0,0,1.235408056640625,0,0,1.07016
2.8356534370104782,0,0,1.1731588134765625,0,0,0.99372
2.837038810015656,0,0,1.177947216796875,0,0,0.6115200000000001
2.8384314970171545,0,0,1.2138602416992186,0,0,1.07016
2.839817647007294,0,0,1.3958195678710936,0,0,0.45864
2.8412030010076705,0,0,1.2042834350585936,0,0,1.1465999999999998
2.8425886140030343,0,0,1.656787548828125,0,0,0.7644
2.8439745049981866,0,0,1.1180921752929687,0,0,0.7644
2.845363839995116,0,0,1.2737152832031249,0,0,0.6115200000000001
2.8467490269977134,0,0,1.1228805786132812,0,0,0.53508
2.8481349179928657,0,0,1.1420341918945311,0,0,0.30576000000000003
2.849546326993732,0,0,1.2761094848632812,0,0,0.3822
2.8510597530112136,0,0,1.2114660400390624,0,0,0.7644
2.8524628480081446,0,0,1.4724340209960938,0,0,0.7644
2.8538542019960005,0,0,1.4125789794921875,0,0,0.53508
2.855242204008391,0,0,1.2761094848632812,0,0,0.6115200000000001
2.8566256499907468,0,0,1.2473790649414063,0,0,0.7644
2.8580110220063943,0,0,1.0797849487304687,0,0,0.7644
2.859397265012376,0,0,1.2785036865234374,0,0,1.2230400000000001
2.8607848600076977,0,0,1.3407529296874998,0,0,0.91728
2.8621701580123045,0,0,1.216254443359375,0,0,1.07016
2.8635959190141875,0,0,1.6352397338867186,0,0,0.68796
2.864982939005131,0,0,1.2425906616210938,0,0,0.99372
2.866368329996476,0,0,1.2282254516601563,0,0,0.84084
2.867753664992051,0,0,1.218648645019531,0,0,0.45864
2.8691395380010363,0,0,1.1875240234375,0,0,0.30576000000000003
2.870524594996823,0,0,1.350329736328125,0,0,0.0
2.8719735039921943,0,0,1.3168109130859373,0,0,0.53508
2.8734319130016956,0,0,1.649604943847656,0,0,0.53508
2.874819840013515,0,0,1.3910311645507811,0,0,0.22932
2.876207213004818,0,0,1.2880804931640624,0,0,0.6115200000000001
2.8775933629949577,0,0,1.1276689819335937,0,0,0.84084
2.878981716989074,0,0,1.0845733520507812,0,0,0.7644
2.8803698109986726,0,0,1.2138602416992186,0,0,0.91728
2.8817559060116764,0,0,1.467645617675781,0,0,0.7644
2.8831512040051166,0,0,1.2976572998046874,0,0,0.68796
2.884536799014313,0,0,1.5586252807617187,0,0,0.99372
2.885922651999863,0,0,1.2665326782226562,0,0,0.7644
2.887309562007431,0,0,1.2928688964843749,0,0,0.84084
2.888695044995984,0,0,1.1013327636718748,0,0,0.53508
2.8900811950152274,0,0,1.1659762084960936,0,0,0.6115200000000001
2.891468142013764,0,0,1.3263877197265623,0,0,0.07644000000000001
2.8928534220030997,0,0,1.2689268798828124,0,0,0.84084
2.8942396090133116,0,0,1.6448165405273436,0,0,0.91728
2.895625573990401,0,0,1.3838485595703125,0,0,0.7644
2.8970112609968055,0,0,1.3431471313476562,0,0,0.7644
2.8983993559959345,0,0,1.189918225097656,0,0,0.84084
2.899785598012386,0,0,1.216254443359375,0,0,0.6115200000000001
2.9011714520165697,0,0,1.2497732666015624,0,0,1.60524
2.90255773201352,0,0,1.3335703247070312,0,0,0.7644
2.9039437519968487,0,0,1.4101847778320311,0,0,0.68796
2.9053295140038244,0,0,1.5370774658203123,0,0,1.07016
2.906716090015834,0,0,1.1228805786132812,0,0,0.99372
2.908102036017226,0,0,1.254561669921875,0,0,0.68796
2.909488131001126,0,0,1.0941501586914062,0,0,0.68796
2.9108748360013124,0,0,1.1420341918945311,0,0,0.45864
2.912414966005599,0,0,1.4245499877929686,0,0,0.0
2.913805690011941,0,0,1.2210428466796874,0,0,0.91728
2.9151945630146656,0,0,1.5921441040039062,0,0,0.91728
2.916579028009437,0,0,1.2425906616210938,0,0,0.84084
2.917964899999788,0,0,1.3024457031249999,0,0,0.68796
2.919351902004564,0,0,1.2306196533203124,0,0,-9.172799999999999
2.9207397930149455,0,0,1.2234370483398436,0,0,0.84084
2.922126110002864,0,0,1.2832920898437499,0,0,0.68796
2.9235132780158892,0,0,1.2401964599609374,0,0,0.68796
2.9248987429891713,0,0,1.467645617675781,0,0,0.45864
2.926298726000823,0,0,1.4963760375976562,0,0,0.91728
2.9276865250139963,0,0,1.218648645019531,0,0,0.91728
2.9290733050147537,0,0,1.1085153686523437,0,0,0.99372
2.9304589919920545,0,0,1.218648645019531,0,0,0.68796
2.9318546790163964,0,0,1.254561669921875,0,0,0.91728
2.933240921003744,0,0,1.3575123413085937,0,0,0.3822
2.9346270720125176,0,0,1.369483349609375,0,0,0.91728
2.936013536993414,0,0,1.4820108276367188,0,0,0.84084
2.9373996870126575,0,0,1.2401964599609374,0,0,0.53508
2.938785911013838,0,0,1.2497732666015624,0,0,0.68796
2.9401721539907157,0,0,1.2210428466796874,0,0,0.45864
2.9415577109903097,0,0,1.1444283935546875,0,0,0.7644
2.942943583999295,0,0,1.388636962890625,0,0,1.07016
2.944329566991655,0,0,1.4796166259765624,0,0,0.6115200000000001
2.9457157170108985,0,0,1.3096283081054687,0,0,0.3822
2.9471206449961755,0,0,1.3359645263671873,0,0,0.84084
2.9485073130053934,0,0,1.1133037719726562,0,0,0.99372
2.9498934450093657,0,0,1.180341418457031,0,0,0.91728
2.9512801140081137,0,0,1.1372457885742187,0,0,0.53508
2.952665690012509,0,0,1.1659762084960936,0,0,0.91728
2.954051414009882,0,0,1.350329736328125,0,0,0.30576000000000003
2.955438045988558,0,0,1.2378022583007813,0,0,0.7644
2.9568492700054776,0,0,1.5705962890624998,0,0,0.91728
2.9582367530092597,0,0,1.2832920898437499,0,0,0.45864
2.959623606991954,0,0,1.3192051147460937,0,0,0.45864
2.9610094980162103,0,0,1.2665326782226562,0,0,0.68796
2.962395517999539,0,0,1.1923124267578125,0,0,0.53508
2.9637816500035115,0,0,1.369483349609375,0,0,1.2994800000000002
2.9651674299966544,0,0,1.3718775512695311,0,0,0.68796
2.966553672013106,0,0,1.2234370483398436,0,0,0.30576000000000003
2.9679394889972173,0,0,1.407790576171875,0,0,0.91728
2.9693251580174547,0,0,1.2641384765625,0,0,1.07016
2.9707227339968085,0,0,1.158793603515625,0,0,0.68796
2.972109272988746,0,0,1.158793603515625,0,0,0.91728
2.9734949599951506,0,0,1.1540052001953125,0,0,0.6115200000000001
2.9748812399921007,0,0,1.438915197753906,0,0,0.53508
2.9762670380005147,0,0,1.3263877197265623,0,0,0.84084
2.9776529840019066,0,0,1.5011644409179687,0,0,0.7644
2.9790398940094747,0,0,1.2042834350585936,0,0,0.7644
2.9804260809905827,0,0,1.2593500732421874,0,0,0.68796
2.9818120269919746,0,0,1.120486376953125,0,0,0.6115200000000001
2.9831994179985486,0,0,1.1707646118164061,0,0,0.7644
2.9845851240097545,0,0,1.20667763671875,0,0,0.30576000000000003
2.9859710890159477,0,0,1.426944189453125,0,0,0.6115200000000001
2.987358182988828,0,0,1.3335703247070312,0,0,0.3822
2.9887435369892046,0,0,1.2880804931640624,0,0,1.1465999999999998
2.9901368170103524,0,0,1.216254443359375,0,0,0.99372
2.9915238190151285,0,0,1.3407529296874998,0,0,0.91728
2.9929101360030472,0,0,1.0917559570312498,0,0,0.68796
2.9942958040046506,0,0,1.216254443359375,0,0,1.2994800000000002
2.9956816399935633,0,0,1.43652099609375,0,0,0.45864
2.9970744010061026,0,0,1.3311761230468748,0,0,0.91728
2.9984603470074944,0,0,1.5969325073242187,0,0,0.68796
2.9998463120136876,0,0,1.24498486328125,0,0,0.6115200000000001
3.0012324069975875,0,0,1.3000515014648437,0,0,0.53508
3.0026185020105913,0,0,1.2306196533203124,0,0,0.7644
3.0040042439941317,0,0,1.1420341918945311,0,0,0.7644
3.0053901910141576,0,0,1.199495031738281,0,0,0.30576000000000003
3.0067759150115307,0,0,1.3623007446289062,0,0,0.91728
3.008162268990418,0,0,1.426944189453125,0,0,0.53508
3.0095481039898004,0,0,1.5969325073242187,0,0,0.6115200000000001
3.0109334209992085,0,0,1.3168109130859373,0,0,0.91728
3.0123194780026097,0,0,1.3479355346679687,0,0,0.84084
3.0137239799951203,0,0,1.1659762084960936,0,0,1.07016
3.015123704011785,0,0,1.2378022583007813,0,0,0.91728
3.0165097620047163,0,0,1.47482822265625,0,0,0.3822
3.0178958929900546,0,0,1.1875240234375,0,0,0.68796
3.019282118009869,0,0,1.6711527587890624,0,0,1.1465999999999998
3.0206743229937274,0,0,1.1635820068359375,0,0,0.91728
3.022060788003728,0,0,1.3575123413085937,0,0,0.84084
3.0234471790026873,0,0,1.3551181396484375,0,0,0.68796
3.0248330880131107,0,0,1.1013327636718748,0,0,0.30576000000000003
3.026219460996799,0,0,1.2713210815429687,0,0,0.53508
3.0276059260067996,0,0,1.3838485595703125,0,0,0.68796
3.0289913910091855,0,0,1.419761584472656,0,0,0.45864
3.030377540999325,0,0,1.5322890624999999,0,0,0.6115200000000001
3.0317633950035088,0,0,1.3455413330078123,0,0,0.91728
3.0331490079988725,0,0,1.2617442749023438,0,0,0.7644
3.034535325015895,0,0,1.3359645263671873,0,0,0.99372
3.0360765279910993,0,0,1.2497732666015624,0,0,0.68796
3.037472752010217,0,0,1.3862427612304686,0,0,0.53508
3.038859791995492,0,0,1.216254443359375,0,0,0.99372
3.0402466079976875,0,0,1.5490484741210937,0,0,1.07016
3.04163268400589,0,0,1.1707646118164061,0,0,0.7644
3.0430197050154675,0,0,1.1755530151367186,0,0,0.6115200000000001
3.0444061140005942,0,0,1.0989385620117187,0,0,0.6115200000000001
3.0457921719935257,0,0,1.3000515014648437,0,0,0.3822
3.04717969201738,0,0,1.3263877197265623,0,0,0.15288000000000002
3.048578157002339,0,0,1.429338391113281,0,0,0.68796
3.049964400008321,0,0,1.5442600708007812,0,0,0.68796
3.051351086993236,0,0,1.5298948608398437,0,0,0.7644
3.0527367560134735,0,0,1.3335703247070312,0,0,0.68796
3.0541226839995943,0,0,1.235408056640625,0,0,1.07016
3.0555093710136134,0,0,1.1659762084960936,0,0,0.68796
3.056894650013419,0,0,1.2306196533203124,0,0,1.2230400000000001
3.0582878749992233,0,0,1.5107412475585937,0,0,0.84084
3.059674135991372,0,0,1.3383587280273437,0,0,0.7644
3.0610599530045874,0,0,1.5251064575195312,0,0,0.99372
3.0624464550055563,0,0,1.3192051147460937,0,0,0.7644
3.063832234009169,0,0,1.2138602416992186,0,0,0.91728
3.06521858801716,0,0,1.177947216796875,0,0,0.7644
3.066604774998268,0,0,1.1827356201171875,0,0,0.91728
3.067990648007253,0,0,1.3814543579101561,0,0,0.30576000000000003
3.0693771869991906,0,0,1.4317325927734375,0,0,0.45864
3.0707631150144152,0,0,1.5370774658203123,0,0,0.6115200000000001
3.0721490980067756,0,0,1.3742717529296875,0,0,0.7644
3.0735352670017164,0,0,1.158793603515625,0,0,0.91728
3.0749214540119283,0,0,1.2210428466796874,0,0,0.91728
3.076307048992021,0,0,1.1372457885742187,0,0,0.91728
3.077693327999441,0,0,1.2713210815429687,0,0,1.07016
3.0790803669951856,0,0,1.4006079711914061,0,0,0.68796
3.0804660730063915,0,0,1.2378022583007813,0,0,1.1465999999999998
3.0818520940083545,0,0,1.5849614990234373,0,0,1.07016
3.083238558989251,0,0,1.254561669921875,0,0,0.84084
3.084623986011138,0,0,1.180341418457031,0,0,0.7644
3.0860099880083,0,0,1.180341418457031,0,0,0.6115200000000001
3.08739632400102,0,0,1.189918225097656,0,0,0.53508
3.0887842520023696,0,0,1.3287819213867187,0,0,0.6115200000000001
3.09017023499473,0,0,1.3287819213867187,0,0,0.84084
3.0915562190057244,0,0,1.5059528442382812,0,0,0.53508
3.092941832001088,0,0,1.3239935180664062,0,0,0.7644
3.094327630009502,0,0,1.3287819213867187,0,0,0.84084
3.09571381699061,0,0,1.2210428466796874,0,0,0.7644
3.097099356004037,0,0,1.0845733520507812,0,0,0.84084
3.0984849510132335,0,0,1.1611878051757811,0,0,1.1465999999999998
3.099893767008325,0,0,1.3742717529296875,0,0,0.6115200000000001
3.10136795300059,0,0,1.2856862915039062,0,0,0.68796
3.102762714988785,0,0,1.5753846923828123,0,0,0.68796
3.1041566980129573,0,0,1.2761094848632812,0,0,0.6115200000000001
3.1055434590089135,0,0,1.0749965454101562,0,0,0.99372
3.1069386460003443,0,0,1.0965443603515623,0,0,0.6115200000000001
3.1083293330157176,0,0,1.1276689819335937,0,0,0.6115200000000001
3.109715632017469,0,0,1.4437036010742186,0,0,-9.47856
3.1111339300114196,0,0,1.438915197753906,0,0,0.53508
3.112521191011183,0,0,1.369483349609375,0,0,0.45864
3.113907229999313,0,0,1.2737152832031249,0,0,0.6115200000000001
3.1152939909952693,0,0,1.1228805786132812,0,0,0.84084
3.1166868259897456,0,0,1.3263877197265623,0,0,0.84084
3.118076901999302,0,0,1.0414777221679687,0,0,1.07016
3.1194632929982617,0,0,0.9888052856445312,0,0,1.37592
3.120849739992991,0,0,1.4101847778320311,0,0,1.1465999999999998
3.122235556016676,0,0,1.3335703247070312,0,0,0.99372
3.123621631995775,0,0,1.446097802734375,0,0,0.99372
3.1250078009907156,0,0,1.1540052001953125,0,0,0.6115200000000001
3.1263935989991296,0,0,1.350329736328125,0,0,0.91728
3.1277802500117105,0,0,1.1851298217773436,0,0,0.91728
3.1291666960169096,0,0,1.0893617553710937,0,0,0.22932
3.130552346003242,0,0,1.39821376953125,0,0,0.07644000000000001
3.131939904007595,0,0,1.2785036865234374,0,0,0.53508
3.1333260349929333,0,0,1.2617442749023438,0,0,0.7644
3.1347117779951077,0,0,1.2210428466796874,0,0,0.7644
3.136098057992058,0,0,1.2904746948242187,0,0,0.91728
3.137483949016314,0,0,1.1348515869140625,0,0,0.84084
3.1388695620116778,0,0,1.1037269653320312,0,0,0.91728
3.140255378995789,0,0,1.1947066284179686,0,0,1.07016
3.1416413620172534,0,0,1.3359645263671873,0,0,0.84084
3.143030308012385,0,0,1.20667763671875,0,0,0.68796
3.1444166809960734,0,0,1.5921441040039062,0,0,-9.01992
3.145822683000006,0,0,1.2641384765625,0,0,1.07016
3.1472095180070028,0,0,1.3551181396484375,0,0,1.07016
3.1485953899973538,0,0,1.0965443603515623,0,0,0.7644
3.1499829289969057,0,0,1.0965443603515623,0,0,0.45864
3.1513701349904295,0,0,1.3407529296874998,0,0,0.15288000000000002
3.152754284994444,0,0,1.2330138549804688,0,0,0.7644
3.154140102007659,0,0,1.4149731811523436,0,0,0.7644
3.155527936993167,0,0,1.2114660400390624,0,0,0.6115200000000001
3.156914160994347,0,0,1.3383587280273437,0,0,0.7644
3.1582994970085565,0,0,1.3359645263671873,0,0,0.68796
3.1596853689989075,0,0,1.1228805786132812,0,0,1.1465999999999998
3.161071130016353,0,0,1.1109095703125,0,0,1.2994800000000002
3.1624567059916444,0,0,1.3718775512695311,0,0,0.84084
3.163843264017487,0,0,1.2737152832031249,0,0,0.7644
3.1652386730129365,0,0,1.6735469604492186,0,0,1.2230400000000001
3.1666250090056565,0,0,1.2737152832031249,0,0,0.7644
3.1680111399909947,0,0,1.24498486328125,0,0,0.6115200000000001
3.1693969200132415,0,0,1.1468225952148436,0,0,0.53508
3.1707825330086052,0,0,1.22583125,0,0,0.30576000000000003
3.172168997989502,0,0,1.3742717529296875,0,0,0.45864
3.173554648004938,0,0,1.2689268798828124,0,0,0.84084
3.174940613011131,0,0,1.458068811035156,0,0,0.6115200000000001
3.1763265219924506,0,0,1.5059528442382812,0,0,0.45864
3.177711543015903,0,0,1.2880804931640624,0,0,0.91728
3.179106766998302,0,0,1.0917559570312498,0,0,0.84084
3.180492638988653,0,0,1.1635820068359375,0,0,0.91728
3.181877882016124,0,0,1.3048399047851562,0,0,1.68168
3.18326445799903,0,0,1.446097802734375,0,0,0.84084
3.184649275004631,0,0,1.3958195678710936,0,0,0.91728
3.1860341840074398,0,0,1.5969325073242187,0,0,1.07016
3.1874199640005827,0,0,1.3311761230468748,0,0,0.99372
3.188811855012318,0,0,1.3120225097656248,0,0,0.7644
3.1901982089912053,0,0,1.369483349609375,0,0,0.3822
3.1915843400056474,0,0,1.1731588134765625,0,0,0.6115200000000001
3.192970397998579,0,0,1.369483349609375,0,0,0.0
3.1943558439961635,0,0,1.4772224243164063,0,0,0.84084
3.1957413089985494,0,0,1.5466542724609373,0,0,0.84084
3.197126885992475,0,0,1.4724340209960938,0,0,0.53508
3.198512480012141,0,0,1.2473790649414063,0,0,0.91728
3.1998994640016463,0,0,1.1731588134765625,0,0,1.07016
3.2012851320032496,0,0,1.197100830078125,0,0,0.7644
3.202670689992374,0,0,1.3575123413085937,0,0,1.5288
3.2040561359899584,0,0,1.2952630981445312,0,0,0.6115200000000001
3.205441730999155,0,0,1.465251416015625,0,0,0.91728
3.2068273249897175,0,0,1.5658078857421873,0,0,1.07016
3.2082131240167655,0,0,1.3646949462890625,0,0,0.6115200000000001
3.20959857001435,0,0,1.235408056640625,0,0,0.84084
3.2109840539924335,0,0,1.0917559570312498,0,0,0.53508
3.2123755179927684,0,0,1.1085153686523437,0,0,0.3822
3.2137713539996184,0,0,1.35990654296875,0,0,-0.15288000000000002
3.215158726001391,0,0,1.2401964599609374,0,0,0.84084
3.216549208998913,0,0,1.5753846923828123,0,0,0.68796
3.2181940420123283,0,0,1.5298948608398437,0,0,0.45864
3.2196810980094597,0,0,1.24498486328125,0,0,0.68796
3.221137432003161,0,0,1.1420341918945311,0,0,0.6115200000000001
3.222534878994338,0,0,1.1109095703125,0,0,0.68796
3.2239454920054413,0,0,1.2856862915039062,0,0,0.84084
3.2253327340004034,0,0,1.438915197753906,0,0,0.91728
3.2267190699931234,0,0,1.4628572143554686,0,0,0.45864
3.228105331014376,0,0,1.3934253662109375,0,0,0.7644
3.2294899440021254,0,0,1.4006079711914061,0,0,1.07016
3.2308748530049343,0,0,1.1324573852539062,0,0,0.91728
3.2322799660032615,0,0,1.1659762084960936,0,0,0.84084
3.2336765239888337,0,0,1.3287819213867187,0,0,0.99372
3.235064117994625,0,0,1.235408056640625,0,0,0.68796
3.236450935015455,0,0,1.3383587280273437,0,0,0.99372
3.237837215012405,0,0,1.6208745239257811,0,0,0.91728
3.239223882992519,0,0,1.2569558715820313,0,0,0.84084
3.2406098849896807,0,0,1.2665326782226562,0,0,0.6115200000000001
3.2419956840167288,0,0,1.0989385620117187,0,0,0.84084
3.243381962995045,0,0,1.0989385620117187,0,0,0.84084
3.244767761992989,0,0,1.37906015625,0,0,0.45864
3.2461531340086367,0,0,1.5251064575195312,0,0,0.6115200000000001
3.2475408210011665,0,0,1.5562310791015623,0,0,0.6115200000000001
3.2489272310049273,0,0,1.4867992309570313,0,0,0.7644
3.250313158991048,0,0,1.0917559570312498,0,0,0.91728
3.251700216002064,0,0,1.2234370483398436,0,0,0.68796
3.2530864590080455,0,0,1.1156979736328125,0,0,0.91728
3.2544723309983965,0,0,1.2593500732421874,0,0,1.2994800000000002
3.2558619629999157,0,0,1.438915197753906,0,0,0.6115200000000001
3.2572573350043967,0,0,1.3646949462890625,0,0,1.07016
3.25864324401482,0,0,1.6136919189453125,0,0,1.07016
3.260034431994427,0,0,1.2952630981445312,0,0,0.91728
3.261420174007071,0,0,1.2952630981445312,0,0,0.45864
3.2628060650022235,0,0,1.2138602416992186,0,0,0.53508
3.264191993017448,0,0,1.0869675537109373,0,0,0.6115200000000001
3.2655773280130234,0,0,1.3670891479492187,0,0,0.30576000000000003
3.2669630529999267,0,0,1.3670891479492187,0,0,0.91728
3.268348814017372,0,0,1.5921441040039062,0,0,0.68796
3.2697339270089287,0,0,1.3431471313476562,0,0,0.45864
3.271120354998857,0,0,1.1923124267578125,0,0,0.99372
3.2725059119984508,0,0,1.197100830078125,0,0,0.7644
3.2738916740054265,0,0,1.2018892333984375,0,0,0.84084
3.2752847310039215,0,0,1.0845733520507812,0,0,1.37592
3.276683252013754,0,0,1.3311761230468748,0,0,0.6115200000000001
3.278070550004486,0,0,1.0917559570312498,0,0,0.68796
3.2794581440102775,0,0,1.5538368774414062,0,0,0.84084
3.2808431459998246,0,0,1.3024457031249999,0,0,0.7644
3.282237908017123,0,0,1.2306196533203124,0,0,0.84084
3.2836244280042592,0,0,1.1851298217773436,0,0,0.68796
3.285010744992178,0,0,0.9864110839843749,0,0,0.53508
3.2863965250144247,0,0,1.37906015625,0,0,0.6115200000000001
3.2877827860065736,0,0,1.3646949462890625,0,0,0.7644
3.289168529008748,0,0,1.3192051147460937,0,0,0.68796
3.290554567996878,0,0,1.2617442749023438,0,0,0.6115200000000001
3.2919410330068786,0,0,1.2808978881835937,0,0,1.1465999999999998
3.2933274600072764,0,0,1.1707646118164061,0,0,0.84084
3.294720962003339,0,0,1.16837041015625,0,0,0.84084
3.296107150003081,0,0,1.1731588134765625,0,0,1.07016
3.297493485006271,0,0,1.35990654296875,0,0,0.45864
3.2988791160169058,0,0,1.2808978881835937,0,0,0.91728
3.3002659890044015,0,0,1.5394716674804687,0,0,0.99372
3.3016517130017746,0,0,1.1947066284179686,0,0,0.53508
3.3030391960055567,0,0,1.3742717529296875,0,0,0.6115200000000001
3.304426421003882,0,0,1.16837041015625,0,0,0.7644
3.3058122560032643,0,0,1.216254443359375,0,0,0.3822
3.3071991649921983,0,0,1.22583125,0,0,0.53508
3.3085847230104264,0,0,1.3407529296874998,0,0,0.84084
3.3099712250113953,0,0,1.3359645263671873,0,0,0.7644
3.3113579679920804,0,0,1.2880804931640624,0,0,0.6115200000000001
3.312742636015173,0,0,1.2689268798828124,0,0,0.99372
3.314128341997275,0,0,1.2401964599609374,0,0,0.84084
3.3155146219942253,0,0,1.1444283935546875,0,0,0.84084
3.316899902012665,0,0,1.3383587280273437,0,0,1.07016
3.318286015011836,0,0,1.3335703247070312,0,0,0.53508
3.319671812991146,0,0,1.2832920898437499,0,0,0.7644
3.321065204014303,0,0,1.5969325073242187,0,0,0.84084
3.322452002001228,0,0,1.2593500732421874,0,0,0.7644
3.323838467011228,0,0,1.3838485595703125,0,0,0.84084
3.3252239690045826,0,0,1.2665326782226562,0,0,0.3822
3.3266098409949336,0,0,1.13006318359375,0,0,0.68796
3.327995027997531,0,0,1.350329736328125,0,0,0.6115200000000001
3.3293797530059237,0,0,1.3575123413085937,0,0,0.7644
3.330763976991875,0,0,1.448492004394531,0,0,0.68796
3.3321611270075664,0,0,1.4101847778320311,0,0,0.53508
3.3335483510163613,0,0,1.3575123413085937,0,0,1.2230400000000001
3.3349347980110906,0,0,1.1875240234375,0,0,0.99372
3.336324150994187,0,0,1.216254443359375,0,0,0.68796
3.3377097829943523,0,0,1.2785036865234374,0,0,1.07016
3.339115340000717,0,0,1.3120225097656248,0,0,0.91728
3.3405129720049445,0,0,1.2832920898437499,0,0,0.91728
3.341898881015368,0,0,1.5490484741210937,0,0,0.91728
3.3432858460000716,0,0,1.2306196533203124,0,0,0.84084
3.3446707370167132,0,0,1.3072341064453123,0,0,0.7644
3.346056498005055,0,0,1.177947216796875,0,0,0.68796
3.347442444995977,0,0,1.1037269653320312,0,0,0.84084
3.3488275019917637,0,0,1.3479355346679687,0,0,0.7644
3.350212912017014,0,0,1.2761094848632812,0,0,0.91728
3.3516556349932216,0,0,1.4796166259765624,0,0,0.45864
3.353084692003904,0,0,1.465251416015625,0,0,0.6115200000000001
3.3544713240116835,0,0,1.2521674682617188,0,0,0.91728
3.355863141012378,0,0,1.3359645263671873,0,0,1.07016
3.35724884600495,0,0,1.0965443603515623,0,0,1.07016
3.3586347000091337,0,0,1.2018892333984375,0,0,1.60524
3.3600202210072894,0,0,1.4030021728515625,0,0,0.6115200000000001
3.3614057780068833,0,0,1.2617442749023438,0,0,1.1465999999999998
3.3627942799939774,0,0,1.4125789794921875,0,0,0.99372
3.3641982449917123,0,0,1.2785036865234374,0,0,0.91728
3.3655851910007186,0,0,1.2282254516601563,0,0,0.6115200000000001
3.3669708039960824,0,0,1.0726023437499999,0,0,0.6115200000000001
3.3683563620143104,0,0,1.139639990234375,0,0,0.45864
3.3697423269913998,0,0,1.35990654296875,0,0,-0.15288000000000002
3.3711302549927495,0,0,1.2378022583007813,0,0,0.53508
3.3725168310047593,0,0,1.5897499023437498,0,0,0.30576000000000003
3.3739030550059397,0,0,1.4867992309570313,0,0,0.45864
3.3752894639910664,0,0,1.2641384765625,0,0,1.2230400000000001
3.3767595019889995,0,0,1.1348515869140625,0,0,0.91728
3.3781501530029345,0,0,1.1372457885742187,0,0,0.7644
3.3795413030020427,0,0,1.2832920898437499,0,0,1.37592
3.3809270820056554,0,0,1.3910311645507811,0,0,0.68796
3.382320566015551,0,0,1.3646949462890625,0,0,0.91728
3.3837080860103015,0,0,1.5801730957031248,0,0,0.91728
3.3850937919924036,0,0,1.1085153686523437,0,0,0.91728
3.386479461012641,0,0,1.24498486328125,0,0,0.99372
3.3878661479975563,0,0,1.3287819213867187,0,0,0.3822
3.3892518159991596,0,0,1.2473790649414063,0,0,0.22932
3.390637559001334,0,0,1.4245499877929686,0,0,-9.784320000000001
3.39206459801062,0,0,1.39821376953125,0,0,0.7644
3.3934501920011826,0,0,1.5729904907226562,0,0,0.7644
3.394835749990307,0,0,1.3718775512695311,0,0,0.45864
3.3962216959916987,0,0,1.3239935180664062,0,0,0.91728
3.397607291000895,0,0,1.209071838378906,0,0,0.91728
3.399006626015762,0,0,1.216254443359375,0,0,0.7644
3.400392479990842,0,0,1.3407529296874998,0,0,1.2230400000000001
3.4017815930128563,0,0,1.429338391113281,0,0,0.99372
3.403169094992336,0,0,1.438915197753906,0,0,0.7644
3.4045537270139903,0,0,1.5729904907226562,0,0,1.1465999999999998
3.405939506017603,0,0,1.180341418457031,0,0,1.2230400000000001
3.407325601001503,0,0,1.189918225097656,0,0,0.99372
3.4087176579923835,0,0,1.158793603515625,0,0,0.68796
3.410112845012918,0,0,1.120486376953125,0,0,0.3822
3.4114995330164675,0,0,1.2737152832031249,0,0,0.0
3.412885535013629,0,0,1.2330138549804688,0,0,0.68796
3.4142810360062867,0,0,1.6232687255859375,0,0,0.7644
3.415668019995792,0,0,1.3192051147460937,0,0,0.68796
3.417064670007676,0,0,1.0965443603515623,0,0,0.53508
3.418454041995574,0,0,1.2378022583007813,0,0,0.53508
3.41984263699851,0,0,1.0845733520507812,0,0,0.68796
3.4212306200060993,0,0,1.2401964599609374,0,0,1.5288
3.422621400008211,0,0,1.3192051147460937,0,0,1.1465999999999998
3.4240081059979275,0,0,1.0917559570312498,0,0,0.99372
3.425393162993714,0,0,1.6041151123046875,0,0,0.91728
3.426778943015961,0,0,1.2401964599609374,0,0,1.07016
3.4281628339958843,0,0,1.2593500732421874,0,0,0.68796
3.429547077015741,0,0,1.2234370483398436,0,0,0.68796
3.430930948990863,0,0,1.1037269653320312,0,0,0.6115200000000001
3.4323343579890206,0,0,1.3479355346679687,0,0,0.0
3.4337217489955947,0,0,1.2856862915039062,0,0,0.68796
3.435128879995318,0,0,1.5466542724609373,0,0,0.84084
3.436515142006101,0,0,1.2737152832031249,0,0,0.45864
3.4379011070122942,0,0,1.3192051147460937,0,0,0.7644
3.4392888119909912,0,0,1.2210428466796874,0,0,0.6115200000000001
3.4406736480013933,0,0,1.0749965454101562,0,0,0.6115200000000001
3.442059483000776,0,0,1.3120225097656248,0,0,0.91728
3.443445373995928,0,0,1.5203180541992187,0,0,0.7644
3.4448305800033268,0,0,1.2713210815429687,0,0,0.7644
3.4462166930024978,0,0,1.465251416015625,0,0,0.84084
3.4476027130149305,0,0,1.22583125,0,0,1.2230400000000001
3.448987678013509,0,0,1.1133037719726562,0,0,0.91728
3.4503736250044312,0,0,1.20667763671875,0,0,0.6115200000000001
3.451775422989158,0,0,1.1444283935546875,0,0,0.6115200000000001
3.4531616840104107,0,0,1.350329736328125,0,0,0.30576000000000003
3.4545480190136004,0,0,1.3407529296874998,0,0,0.68796
3.456012261012802,0,0,1.4867992309570313,0,0,0.68796
3.457409874012228,0,0,1.2880804931640624,0,0,0.84084
3.4587967089901213,0,0,1.3670891479492187,0,0,0.91728
3.4601828219892923,0,0,1.22583125,0,0,0.68796
3.4615684910095297,0,0,1.2234370483398436,0,0,0.68796
3.4629546779906377,0,0,1.3455413330078123,0,0,0.7644
3.464341143000638,0,0,1.2785036865234374,0,0,0.53508
3.4657273670018185,0,0,1.2401964599609374,0,0,0.6115200000000001
3.4671152209921274,0,0,1.2617442749023438,0,0,0.6115200000000001
3.468500982009573,0,0,1.1659762084960936,0,0,0.7644
3.469887003011536,0,0,1.2928688964843749,0,0,0.53508
3.471274134994019,0,0,1.1635820068359375,0,0,0.6115200000000001
3.472659729013685,0,0,1.218648645019531,0,0,0.6115200000000001
3.474045490002027,0,0,1.3814543579101561,0,0,-0.6115200000000001
3.4754345109977294,0,0,1.2976572998046874,0,0,0.84084
3.4768199940153863,0,0,1.5011644409179687,0,0,0.6115200000000001
3.4782054960087407,0,0,1.1563994018554686,0,0,0.84084
3.4795919799944386,0,0,1.2521674682617188,0,0,0.99372
3.4809777780028526,0,0,1.1276689819335937,0,0,0.7644
3.4823634840140585,0,0,1.1540052001953125,0,0,0.84084
3.4837496709951665,0,0,1.0941501586914062,0,0,0.68796
3.4851360059983563,0,0,1.3575123413085937,0,0,0.68796
3.4865216560137924,0,0,1.3287819213867187,0,0,0.68796
3.4879076209908817,0,0,1.4245499877929686,0,0,0.7644
3.4892934010131285,0,0,1.3144167114257812,0,0,0.84084
3.4906790140084922,0,0,1.3455413330078123,0,0,0.6115200000000001
3.492064849997405,0,0,1.0797849487304687,0,0,0.6115200000000001
3.4934506849967875,0,0,1.1875240234375,0,0,0.84084
3.4948364089941606,0,0,1.2689268798828124,0,0,0.53508
3.496230930002639,0,0,1.2018892333984375,0,0,0.68796
3.4976171719899867,0,0,1.4101847778320311,0,0,1.07016
3.4990160439920146,0,0,1.2713210815429687,0,0,0.91728
3.5004054169985466,0,0,1.2665326782226562,0,0,0.53508
3.5019451760163065,0,0,1.1611878051757811,0,0,0.7644
3.5033368630101904,0,0,1.0726023437499999,0,0,1.07016
3.5047235320089385,0,0,1.2761094848632812,0,0,0.7644
3.506110477988841,0,0,1.4101847778320311,0,0,0.68796
3.5074982400110457,0,0,1.4604630126953124,0,0,0.6115200000000001
3.508883408008842,0,0,1.62805712890625,0,0,0.6115200000000001
3.510269855003571,0,0,1.2330138549804688,0,0,0.99372
3.51165635700454,0,0,1.189918225097656,0,0,1.07016
3.513042544014752,0,0,1.1611878051757811,0,0,0.84084
3.5144287500006612,0,0,1.2737152832031249,0,0,1.2230400000000001
3.515833511017263,0,0,1.3311761230468748,0,0,0.53508
3.5172194380138535,0,0,1.1875240234375,0,0,0.91728
3.51860595899052,0,0,1.5251064575195312,0,0,0.84084
3.5199920349987224,0,0,1.2473790649414063,0,0,0.6115200000000001
3.5213778520119376,0,0,1.2282254516601563,0,0,0.84084
3.5227640949888155,0,0,1.1611878051757811,0,0,0.6115200000000001
3.5241502819990274,0,0,1.2378022583007813,0,0,0.45864
3.5255447840027045,0,0,1.3551181396484375,0,0,0.84084
3.5269308970018756,0,0,1.350329736328125,0,0,0.7644
3.5283151020121295,0,0,1.429338391113281,0,0,0.68796
3.529698753001867,0,0,1.5658078857421873,0,0,0.45864
3.5311531240004115,0,0,1.2832920898437499,0,0,0.91728
3.532543533015996,0,0,1.16837041015625,0,0,1.07016
3.5339338690100703,0,0,1.2042834350585936,0,0,0.53508
3.5353300370043144,0,0,1.2234370483398436,0,0,0.7644
3.5367156869906466,0,0,1.3192051147460937,0,0,0.53508
3.5381019670167007,0,0,1.3407529296874998,0,0,0.68796
3.5394969689950813,0,0,1.6041151123046875,0,0,0.68796
3.5408835640118923,0,0,1.2401964599609374,0,0,0.7644
3.5422699170012493,0,0,1.235408056640625,0,0,0.91728
3.5436575679923408,0,0,1.16837041015625,0,0,0.68796
3.5450437359977514,0,0,1.209071838378906,0,0,0.6115200000000001
3.5464301090105437,0,0,1.3000515014648437,0,0,0.15288000000000002
3.5478163509978913,0,0,1.2282254516601563,0,0,0.6115200000000001
3.5492027979926206,0,0,1.4963760375976562,0,0,0.53508
3.5505893180088606,0,0,1.4149731811523436,0,0,0.7644
3.5519763570046052,0,0,1.254561669921875,0,0,0.68796
3.5533635070023593,0,0,1.2114660400390624,0,0,0.68796
3.5547493800113443,0,0,1.1468225952148436,0,0,0.7644
3.5561453080154024,0,0,1.2138602416992186,0,0,1.37592
3.5575664569914807,0,0,1.3120225097656248,0,0,0.99372
3.5589684960141312,0,0,1.35990654296875,0,0,0.91728
3.5603555910056457,0,0,1.5203180541992187,0,0,1.07016
3.561741332989186,0,0,1.1420341918945311,0,0,0.7644
3.563128484005574,0,0,1.2138602416992186,0,0,0.6115200000000001
3.5645141339919064,0,0,1.218648645019531,0,0,0.53508
3.5659000250161625,0,0,0.9720458740234375,0,0,0.45864
3.5672862300125416,0,0,1.3359645263671873,0,0,0.22932
3.5686721579986624,0,0,1.5155296508789062,0,0,0.84084
3.5700583450088743,0,0,1.5777788940429687,0,0,0.53508
3.571444809989771,0,0,1.3910311645507811,0,0,0.45864
3.572830757009797,0,0,1.2569558715820313,0,0,0.99372
3.574275610008044,0,0,1.0678139404296874,0,0,0.99372
3.5756622790067922,0,0,0.9935936889648437,0,0,0.7644
3.577048131992342,0,0,1.3862427612304686,0,0,1.2230400000000001
3.5784343749983236,0,0,1.4149731811523436,0,0,0.30576000000000003
3.5798203030135483,0,0,1.350329736328125,0,0,1.07016
3.5812059350137133,0,0,1.5083470458984374,0,0,0.84084
3.582591640006285,0,0,1.2378022583007813,0,0,0.91728
