Time,AccelX1,AccelY1,AccelZ1,AccelX2,AccelY2,AccelZ2
4.8140063881874084e-06,0,0,1.4245499877929686,0,0,0.68796
0.003654700005427003,0,0,1.3407529296874998,0,0,1.2994800000000002
0.007799746992532164,0,0,1.2856862915039062,0,0,0.53508
0.011411985993618146,0,0,1.0941501586914062,0,0,0.91728
0.01493674298399128,0,0,1.2785036865234374,0,0,0.84084
0.018493240990210325,0,0,1.3311761230468748,0,0,0.68796
0.022609899984672666,0,0,1.5011644409179687,0,0,1.07016
0.026328228996135294,0,0,1.1252747802734375,0,0,0.68796
0.029843172000255436,0,0,1.2689268798828124,0,0,1.45236
0.03335848500137217,0,0,1.37906015625,0,0,1.07016
0.03686907698283903,0,0,1.1563994018554686,0,0,0.91728
0.04037507498287596,0,0,1.4006079711914061,0,0,1.1465999999999998
0.04392546199960634,0,0,1.2210428466796874,0,0,0.68796
0.04743173799943179,0,0,1.2665326782226562,0,0,1.1465999999999998
0.050936699990415946,0,0,1.458068811035156,0,0,0.99372
0.05444073598482646,0,0,1.2761094848632812,0,0,0.68796
0.05795027100248262,0,0,1.2521674682617188,0,0,0.91728
0.06144686200423166,0,0,1.426944189453125,0,0,1.1465999999999998
0.0650945820088964,0,0,1.2856862915039062,0,0,0.91728
0.06879994799965061,0,0,1.2593500732421874,0,0,-8.867040000000001
0.0731956780073233,0,0,1.419761584472656,0,0,0.84084
0.07673052800237201,0,0,1.350329736328125,0,0,0.84084
0.08025048900162801,0,0,1.3479355346679687,0,0,0.68796
0.08378109900513664,0,0,1.5011644409179687,0,0,1.2230400000000001
0.08723165298579261,0,0,1.1731588134765625,0,0,0.6115200000000001
0.09003282600315288,0,0,1.2856862915039062,0,0,0.99372
0.09283162900828756,0,0,1.3168109130859373,0,0,2.4460800000000003
0.09563539500231855,0,0,1.3742717529296875,0,0,0.84084
0.098431160004111,0,0,1.3527239379882812,0,0,0.6115200000000001
0.10122966600465588,0,0,1.39821376953125,0,0,2.06388
0.10408585699042305,0,0,1.4341267944335936,0,0,0.99372
0.10688529000617564,0,0,1.2497732666015624,0,0,0.7644
0.10968372199567966,0,0,1.3263877197265623,0,0,0.99372
0.11248561699176207,0,0,1.4245499877929686,0,0,0.99372
0.11528153100516647,0,0,1.3000515014648437,0,0,1.07016
0.11807799999951385,0,0,1.3479355346679687,0,0,1.2994800000000002
0.12087522901128978,0,0,1.3383587280273437,0,0,1.2994800000000002
0.12367867899592966,0,0,1.3551181396484375,0,0,0.68796
0.12648088901187293,0,0,1.35990654296875,0,0,0.84084
0.12941017199773341,0,0,1.2976572998046874,0,0,1.37592
0.13221619700198062,0,0,1.47482822265625,0,0,1.07016
0.13501503600855358,0,0,1.4030021728515625,0,0,0.68796
0.13781567200203426,0,0,1.1037269653320312,0,0,0.84084
0.14061467899591662,0,0,1.1037269653320312,0,0,0.45864
0.1434107410022989,0,0,1.3215993164062498,0,0,0.68796
0.14620987698435783,0,0,1.120486376953125,0,0,0.91728
0.1490073089953512,0,0,1.3168109130859373,0,0,0.91728
0.15183635198627599,0,0,1.3479355346679687,0,0,0.68796
0.1546353579906281,0,0,1.2689268798828124,0,0,0.91728
0.15746101198601536,0,0,1.3670891479492187,0,0,0.84084
0.1602616849995684,0,0,1.3527239379882812,0,0,-8.56128
0.1630613770103082,0,0,1.4820108276367188,0,0,0.84084
0.16589077198295854,0,0,1.3455413330078123,0,0,0.99372
0.16892003500834107,0,0,1.1133037719726562,0,0,0.99372
0.17181470699142665,0,0,1.4317325927734375,0,0,0.91728
0.17466336098732427,0,0,1.2473790649414063,0,0,1.45236
0.17746312599047087,0,0,1.2497732666015624,0,0,0.84084
0.18026061399723403,0,0,1.3646949462890625,0,0,1.37592
0.1830564349947963,0,0,1.388636962890625,0,0,1.2230400000000001
0.18597806998877786,0,0,1.3742717529296875,0,0,1.1465999999999998
0.18905246199574322,0,0,1.2042834350585936,0,0,0.84084
0.1921703910047654,0,0,1.2425906616210938,0,0,1.07016
0.19528194901067764,0,0,1.5131354492187499,0,0,0.68796
0.19839371100533754,0,0,1.3096283081054687,0,0,0.91728
0.20195609799702652,0,0,1.3000515014648437,0,0,0.99372
0.20514746999833733,0,0,1.3192051147460937,0,0,0.91728
0.20828667699242942,0,0,1.2689268798828124,0,0,1.1465999999999998
0.2114057909930125,0,0,1.2665326782226562,0,0,0.22932
0.21452794200740755,0,0,1.4245499877929686,0,0,0.68796
0.2176354999828618,0,0,1.2665326782226562,0,0,0.53508
0.22075144699192606,0,0,1.3072341064453123,0,0,1.2994800000000002
0.22387180200894363,0,0,1.4867992309570313,0,0,1.2230400000000001
0.22706091500003822,0,0,1.3527239379882812,0,0,1.07016
0.2301856029953342,0,0,1.1516109985351561,0,0,0.7644
0.2332957730104681,0,0,1.4125789794921875,0,0,0.68796
0.23642212699633092,0,0,1.5059528442382812,0,0,1.07016
0.23953707498731092,0,0,1.2808978881835937,0,0,0.53508
0.2426591879921034,0,0,1.3575123413085937,0,0,1.2994800000000002
0.2457742280093953,0,0,1.3575123413085937,0,0,1.2230400000000001
0.24888758300221525,0,0,1.3024457031249999,0,0,0.84084
0.25200512300943956,0,0,1.3742717529296875,0,0,0.22932
0.25514775500050746,0,0,1.4437036010742186,0,0,0.6115200000000001
0.2582629619864747,0,0,1.2114660400390624,0,0,0.7644
0.26137787199695595,0,0,1.2928688964843749,0,0,1.60524
0.26449535600841045,0,0,1.3862427612304686,0,0,0.99372
0.26760928498697467,0,0,1.4413093994140624,0,0,1.1465999999999998
0.27072262100409716,0,0,1.2689268798828124,0,0,0.68796
0.2738360129878856,0,0,1.4173673828125,0,0,0.53508
0.27694960799999535,0,0,1.4987702392578124,0,0,0.6115200000000001
0.28006342600565404,0,0,1.3575123413085937,0,0,0.3822
0.2833517050021328,0,0,1.350329736328125,0,0,1.37592
0.28648996699484996,0,0,1.2569558715820313,0,0,1.07016
0.2895897660055198,0,0,1.3144167114257812,0,0,1.2994800000000002
0.2926917129952926,0,0,1.3455413330078123,0,0,0.22932
0.29588171499199234,0,0,1.2737152832031249,0,0,0.91728
0.29898053299984895,0,0,1.2785036865234374,0,0,0.68796
0.302080333000049,0,0,1.2521674682617188,0,0,1.45236
0.30517826200230047,0,0,1.419761584472656,0,0,1.07016
0.30828970900620334,0,0,1.4053963745117186,0,0,1.07016
0.3114054150064476,0,0,1.2234370483398436,0,0,0.99372
0.31452012198860757,0,0,1.2617442749023438,0,0,0.7644
0.31765786500182003,0,0,1.5131354492187499,0,0,0.53508
0.3207766269915737,0,0,1.1228805786132812,0,0,0.7644
0.3239048339892179,0,0,1.4820108276367188,0,0,1.07016
0.3270174479985144,0,0,1.3766659545898436,0,0,1.37592
0.3301345059880987,0,0,1.3407529296874998,0,0,0.99372
0.333252045995323,0,0,1.2497732666015624,0,0,0.15288000000000002
0.3363689749967307,0,0,1.3934253662109375,0,0,0.7644
0.339482367009623,0,0,1.0773907470703123,0,0,0.84084
0.3425997399899643,0,0,1.254561669921875,0,0,1.1465999999999998
0.3457182800048031,0,0,1.448492004394531,0,0,1.1465999999999998
0.3488328749954235,0,0,1.5035586425781249,0,0,1.45236
0.35197008098475635,0,0,1.1468225952148436,0,0,0.84084
0.3550856770016253,0,0,1.37906015625,0,0,1.07016
0.35819964300026186,0,0,1.43652099609375,0,0,0.3822
0.36131603398825973,0,0,1.254561669921875,0,0,0.91728
0.36443214799510315,0,0,1.3742717529296875,0,0,0.7644
0.36754352200659923,0,0,1.3670891479492187,0,0,1.2230400000000001
0.37065815398818813,0,0,1.2761094848632812,0,0,1.45236
0.3737722680089064,0,0,1.2761094848632812,0,0,0.53508
0.37688602998969145,0,0,1.2330138549804688,0,0,0.68796
0.38000079200719483,0,0,1.2713210815429687,0,0,0.6115200000000001
0.38311183199402876,0,0,1.3551181396484375,0,0,1.2994800000000002
0.38625837198924273,0,0,1.3072341064453123,0,0,0.99372
0.38937448599608615,0,0,1.4221557861328125,0,0,1.07016
0.3924916739924811,0,0,1.2210428466796874,0,0,0.84084
0.39560830598929897,0,0,1.4867992309570313,0,0,0.91728
0.3987221420102287,0,0,1.465251416015625,0,0,0.91728
0.40209616100764833,0,0,1.2976572998046874,0,0,0.6115200000000001
0.4052371630095877,0,0,1.197100830078125,0,0,1.1465999999999998
0.40835675899870694,0,0,1.0869675537109373,0,0,1.07016
0.41147324300254695,0,0,1.2952630981445312,0,0,0.99372
0.4145896160043776,0,0,1.3623007446289062,0,0,0.45864
0.4177065450057853,0,0,1.3215993164062498,0,0,0.6115200000000001
0.42082093699718826,0,0,1.1324573852539062,0,0,0.68796
0.42393945800722577,0,0,1.3718775512695311,0,0,0.6115200000000001
0.42705370200565085,0,0,1.4030021728515625,0,0,1.2230400000000001
0.430169316008687,0,0,1.599326708984375,0,0,1.07016
0.4332832630025223,0,0,1.0869675537109373,0,0,0.68796
0.43639963600435294,0,0,1.3718775512695311,0,0,0.91728
0.43951167599880137,0,0,1.426944189453125,0,0,0.6115200000000001
0.442627234995598,0,0,1.1563994018554686,0,0,0.53508
0.44579832899034955,0,0,1.2521674682617188,0,0,0.99372
0.448960239009466,0,0,1.3359645263671873,0,0,0.99372
0.45417896000435576,0,0,1.1228805786132812,0,0,0.7644
0.4573364619864151,0,0,1.2282254516601563,0,0,0.68796
0.46045940899057314,0,0,1.3287819213867187,0,0,0.91728
0.46362267099902965,0,0,1.1324573852539062,0,0,0.99372
0.46672261800267734,0,0,1.2401964599609374,0,0,0.84084
0.4698485099943355,0,0,1.3263877197265623,0,0,1.2230400000000001
0.4729647529893555,0,0,1.3359645263671873,0,0,0.68796
0.4760809229919687,0,0,1.3431471313476562,0,0,0.45864
0.4791935179964639,0,0,1.3048399047851562,0,0,0.91728
0.4822922069870401,0,0,1.1324573852539062,0,0,0.53508
0.48546574599458836,0,0,1.3455413330078123,0,0,0.84084
0.4886085629987065,0,0,1.4221557861328125,0,0,0.91728
0.49174130699248053,0,0,1.0749965454101562,0,0,1.1465999999999998
0.49488510499941185,0,0,1.1827356201171875,0,0,0.6115200000000001
0.49798729398753494,0,0,1.4508862060546874,0,0,0.3822
0.5010871670092456,0,0,1.4317325927734375,0,0,1.2994800000000002
0.5145550559973344,0,0,1.1372457885742187,0,0,0.99372
0.5177861129923258,0,0,1.3192051147460937,0,0,0.91728
0.5209532819862943,0,0,1.455674609375,0,0,0.99372
0.5240511189913377,0,0,1.3335703247070312,0,0,0.68796
0.5271384179941379,0,0,1.20667763671875,0,0,0.68796
0.530230328993639,0,0,1.3551181396484375,0,0,0.7644
0.5334641080116853,0,0,1.2856862915039062,0,0,0.84084
0.5369536069920287,0,0,1.2138602416992186,0,0,0.68796
0.5401007939944975,0,0,1.446097802734375,0,0,0.84084
0.5432187599944882,0,0,1.2569558715820313,0,0,0.99372
0.546338410989847,0,0,1.254561669921875,0,0,1.1465999999999998
0.5494550069852266,0,0,1.3335703247070312,0,0,0.99372
0.5525694539828692,0,0,1.2761094848632812,0,0,0.91728
0.5557500300055835,0,0,1.2641384765625,0,0,0.91728
0.5588981439941563,0,0,1.2641384765625,0,0,0.7644
0.562045238999417,0,0,1.37906015625,0,0,0.53508
0.5651626309845597,0,0,1.2785036865234374,0,0,0.68796
0.568282336986158,0,0,1.2138602416992186,0,0,0.99372
0.5713962469890248,0,0,1.4891934326171874,0,0,1.37592
0.5745114169840235,0,0,1.3335703247070312,0,0,1.07016
0.5776287709886674,0,0,1.1923124267578125,0,0,0.3822
0.5807715519913472,0,0,1.3359645263671873,0,0,1.07016
0.5844922889955342,0,0,1.4317325927734375,0,0,0.91728
0.5877606970025226,0,0,1.3263877197265623,0,0,0.91728
0.5907973859866615,0,0,1.4245499877929686,0,0,0.91728
0.5936197999981232,0,0,1.3670891479492187,0,0,0.99372
0.5964144729950931,0,0,1.139639990234375,0,0,0.68796
0.5992050159838982,0,0,1.22583125,0,0,1.1465999999999998
0.6019970409979578,0,0,1.149216796875,0,0,1.1465999999999998
0.6047891220077872,0,0,1.2665326782226562,0,0,0.53508
0.6076058129838202,0,0,1.2665326782226562,0,0,1.1465999999999998
0.6103999489860144,0,0,1.4245499877929686,0,0,0.6115200000000001
0.6131915659934748,0,0,1.4915876342773438,0,0,0.6115200000000001
0.6159929060086142,0,0,1.2306196533203124,0,0,0.84084
0.6189539849874564,0,0,1.22583125,0,0,0.68796
0.621801305009285,0,0,1.2665326782226562,0,0,0.6115200000000001
0.624607145000482,0,0,1.3048399047851562,0,0,0.68796
0.6274149839882739,0,0,1.4053963745117186,0,0,0.84084
0.6302102679910604,0,0,1.3958195678710936,0,0,1.1465999999999998
0.633001570997294,0,0,1.3000515014648437,0,0,1.2230400000000001
0.6358277070103213,0,0,1.2521674682617188,0,0,1.2994800000000002
0.6386200840061065,0,0,1.3000515014648437,0,0,1.07016
0.6414267380023375,0,0,1.2473790649414063,0,0,1.2994800000000002
0.6442219479940832,0,0,1.209071838378906,0,0,1.37592
0.6470093799871393,0,0,1.2210428466796874,0,0,0.91728
0.6497989789932035,0,0,1.4173673828125,0,0,1.1465999999999998
0.6525903749861754,0,0,1.2880804931640624,0,0,0.6115200000000001
0.6554068250115961,0,0,1.2904746948242187,0,0,0.68796
0.6581961839983705,0,0,1.3479355346679687,0,0,0.68796
0.6609860789903905,0,0,1.2593500732421874,0,0,0.3822
0.6637777700088918,0,0,1.5298948608398437,0,0,0.53508
0.6665684620093089,0,0,1.2856862915039062,0,0,0.91728
0.6693586169858463,0,0,1.3048399047851562,0,0,1.07016
0.672141401009867,0,0,1.3431471313476562,0,0,1.45236
0.674913110997295,0,0,1.5083470458984374,0,0,1.07016
0.6777107100060675,0,0,1.189918225097656,0,0,0.6115200000000001
0.6804994019912556,0,0,1.5251064575195312,0,0,1.2230400000000001
0.6832884819887113,0,0,1.3215993164062498,0,0,1.07016
0.6862545979965944,0,0,1.2904746948242187,0,0,0.84084
0.6890397520037368,0,0,1.2497732666015624,0,0,1.45236
0.6920260720071383,0,0,1.426944189453125,0,0,1.2230400000000001
0.6951329259900376,0,0,1.2401964599609374,0,0,1.1465999999999998
0.6982398919935804,0,0,1.0917559570312498,0,0,0.6115200000000001
0.7013528399984352,0,0,1.2521674682617188,0,0,0.6115200000000001
0.704713562008692,0,0,1.419761584472656,0,0,0.7644
0.70787152700359,0,0,1.2689268798828124,0,0,0.84084
0.7109597899834625,0,0,1.3958195678710936,0,0,1.2994800000000002
0.7141019960108679,0,0,1.446097802734375,0,0,0.99372
0.7172082210017834,0,0,1.2928688964843749,0,0,0.84084
0.7203125199885108,0,0,1.0965443603515623,0,0,0.15288000000000002
0.7234154309844598,0,0,1.3120225097656248,0,0,0.53508
0.7265198969980702,0,0,1.0821791503906248,0,0,0.6115200000000001
0.7296238069829997,0,0,1.3670891479492187,0,0,1.60524
0.7327330319967587,0,0,1.4006079711914061,0,0,1.07016
0.7358802570088301,0,0,1.4317325927734375,0,0,1.2230400000000001
0.7389842410048004,0,0,1.0917559570312498,0,0,0.91728
0.7420879300043453,0,0,1.2713210815429687,0,0,0.3822
0.7451918029983062,0,0,1.419761584472656,0,0,0.45864
0.7483140279946383,0,0,1.3646949462890625,0,0,0.84084
0.7514242159959394,0,0,1.2378022583007813,0,0,0.99372
0.7545920700067654,0,0,1.2378022583007813,0,0,1.2230400000000001
0.7576997579890303,0,0,1.3120225097656248,0,0,0.84084
0.7608064649975859,0,0,1.1228805786132812,0,0,0.22932
0.7639138379890937,0,0,1.484405029296875,0,0,0.53508
0.7670168410113547,0,0,1.3670891479492187,0,0,0.84084
0.7701238069857936,0,0,1.2473790649414063,0,0,0.99372
0.77322875399841,0,0,1.4939818359375,0,0,1.07016
0.776335183007177,0,0,1.4963760375976562,0,0,1.2994800000000002
0.7798277380061336,0,0,1.1348515869140625,0,0,0.84084
0.782962202996714,0,0,1.254561669921875,0,0,0.6115200000000001
0.7860709099913947,0,0,1.5227122558593749,0,0,0.53508
0.7899394780106377,0,0,1.1109095703125,0,0,0.84084
0.7928170950035565,0,0,1.3527239379882812,0,0,-8.943480000000001
0.795614453003509,0,0,1.2282254516601563,0,0,0.99372
0.7983884039858822,0,0,1.3263877197265623,0,0,1.07016
0.8011811510077678,0,0,1.1348515869140625,0,0,1.07016
0.8039713430043776,0,0,1.448492004394531,0,0,0.30576000000000003
0.8067569980048575,0,0,1.4628572143554686,0,0,0.91728
0.8095469109830447,0,0,1.2785036865234374,0,0,0.84084
0.8123361589969136,0,0,1.3311761230468748,0,0,0.30576000000000003
0.8151208499912173,0,0,1.3455413330078123,0,0,0.7644
0.8179087270109449,0,0,1.2473790649414063,0,0,0.99372
0.8206973630003631,0,0,1.2234370483398436,0,0,0.99372
0.8234834620088805,0,0,1.467645617675781,0,0,0.91728
0.8262705240049399,0,0,1.5179238525390624,0,0,1.2230400000000001
0.8290580119937658,0,0,1.3479355346679687,0,0,0.99372
0.831847277993802,0,0,1.2665326782226562,0,0,1.1465999999999998
0.8346337469993159,0,0,1.4317325927734375,0,0,1.2994800000000002
0.8374198829988018,0,0,1.426944189453125,0,0,0.7644
0.840210592985386,0,0,1.1707646118164061,0,0,0.7644
0.8442709750088397,0,0,1.3575123413085937,0,0,0.53508
0.8470690179965459,0,0,1.5203180541992187,0,0,0.68796
0.8498460249975324,0,0,1.388636962890625,0,0,1.1465999999999998
0.8526327529980335,0,0,1.2952630981445312,0,0,0.6115200000000001
0.8554189819842577,0,0,1.2713210815429687,0,0,0.7644
0.8582059330074117,0,0,1.2617442749023438,0,0,1.07016
0.8609945320058614,0,0,1.2737152832031249,0,0,0.68796
0.8637826310005039,0,0,1.3670891479492187,0,0,1.1465999999999998
0.8666043959965464,0,0,1.3120225097656248,0,0,1.2994800000000002
0.8694277360045817,0,0,1.2832920898437499,0,0,0.84084
0.872221797995735,0,0,1.3646949462890625,0,0,1.37592
0.8750064889900386,0,0,1.4341267944335936,0,0,0.84084
0.877797050983645,0,0,1.5322890624999999,0,0,1.83456
0.8805869839852676,0,0,2.2864625854492187,0,0,1.911
0.883376212004805,0,0,2.2577321655273437,0,0,1.37592
0.8861678850080352,0,0,2.8036101440429686,0,0,1.07016
0.8889842619828414,0,0,1.5107412475585937,0,0,0.7644
0.8917815090098884,0,0,1.3623007446289062,0,0,0.99372
0.894572329998482,0,0,1.4867992309570313,0,0,2.06388
0.897362465999322,0,0,1.7094599853515624,0,0,2.14032
0.900144379993435,0,0,2.051830822753906,0,0,1.5288
0.9029157939949073,0,0,2.0159177978515626,0,0,1.911
0.905705115001183,0,0,1.9536685546875,0,0,1.68168
0.9084924370108638,0,0,2.068590234375,0,0,1.07016
0.9112782760057598,0,0,1.7908628417968748,0,0,1.07016
0.9140650419867598,0,0,1.7190367919921874,0,0,1.45236
0.9168508260045201,0,0,2.032677209472656,0,0,1.83456
0.919638869992923,0,0,1.7597382202148437,0,0,1.1465999999999998
0.9224384499830194,0,0,1.5179238525390624,0,0,1.2230400000000001
0.9252279750071466,0,0,2.29843359375,0,0,2.06388
0.9280167589895427,0,0,1.9009961181640624,0,0,0.91728
0.9308010250097141,0,0,1.3024457031249999,0,0,0.99372
0.9335875870019663,0,0,1.8698714965820311,0,0,1.68168
0.9363763339933939,0,0,1.2378022583007813,0,0,1.83456
0.9391606189892627,0,0,1.8698714965820311,0,0,2.2931999999999997
0.9419491619919427,0,0,1.8124106567382812,0,0,1.75812
0.9447364280058537,0,0,2.454056701660156,0,0,1.07016
0.9475216929859016,0,0,2.0638018310546875,0,0,1.37592
0.9503061439900193,0,0,1.9656395629882812,0,0,0.84084
0.9537300140073057,0,0,1.22583125,0,0,0.91728
0.9566776489955373,0,0,1.2497732666015624,0,0,2.2167600000000003
0.9594744140049443,0,0,2.7461493041992187,0,0,2.36964
0.9622812349989545,0,0,1.9297265380859374,0,0,1.2230400000000001
0.9650712049915455,0,0,1.6448165405273436,0,0,0.6115200000000001
0.9680571529897861,0,0,2.6384102294921874,0,0,1.2230400000000001
0.9708594369876664,0,0,1.4891934326171874,0,0,0.7644
0.9736597769951914,0,0,0.5099649536132812,0,0,0.68796
0.9764625240059104,0,0,2.588131994628906,0,0,2.36964
0.9792597339837812,0,0,2.360682836914062,0,0,1.60524
0.9820435369911138,0,0,1.695094775390625,0,0,1.07016
0.9848450619901996,0,0,2.4588451049804685,0,0,0.99372
0.9876450859883334,0,0,1.3718775512695311,0,0,1.60524
0.9904632219986524,0,0,1.39821376953125,0,0,2.2167600000000003
0.9935132999962661,0,0,2.0638018310546875,0,0,1.1465999999999998
0.996628172986675,0,0,1.8507178833007811,0,0,1.98744
1.0000488579971716,0,0,2.0733786376953125,0,0,1.5288
1.0033787839929573,0,0,1.20667763671875,0,0,1.98744
1.0066040079982486,0,0,1.6304513305664061,0,0,1.37592
1.0099147869914304,0,0,2.3487118286132813,0,0,0.0
1.013148344005458,0,0,1.4532804077148436,0,0,0.22932
1.0163793269894086,0,0,2.5474305664062498,0,0,1.45236
1.0196544019854628,0,0,1.5322890624999999,0,0,1.07016
1.0229319400095847,0,0,1.4221557861328125,0,0,0.99372
1.0261078870098572,0,0,2.4444798950195312,0,0,1.68168
1.0293176109844353,0,0,1.886630908203125,0,0,1.83456
1.0325145570095628,0,0,1.7573440185546874,0,0,1.2994800000000002
1.0356805409828667,0,0,1.9800047729492187,0,0,1.83456
1.0388362839876208,0,0,1.6328455322265625,0,0,0.22932
1.0419670270057395,0,0,1.254561669921875,0,0,1.45236
1.0450961599999573,0,0,2.4444798950195312,0,0,2.6754
1.048227995983325,0,0,2.568978381347656,0,0,1.07016
1.05135303499992,0,0,0.32082302246093747,0,0,-0.99372
1.0545204640075099,0,0,1.599326708984375,0,0,2.52252
1.0576587810064666,0,0,2.6431986328124997,0,0,0.99372
1.060800097999163,0,0,0.2920926025390625,0,0,0.0
1.063965064007789,0,0,3.8762124877929685,0,0,3.51624
1.0675002289935946,0,0,2.1499930908203124,0,0,0.7644
1.0723883229948115,0,0,2.1883003173828124,0,0,0.84084
1.0756325839902274,0,0,1.62805712890625,0,0,0.53508
1.078849067009287,0,0,-0.05027823486328125,0,0,2.06388
1.0821832900110167,0,0,2.712630480957031,0,0,1.45236
1.0854515690007247,0,0,0.239420166015625,0,0,0.3822
1.0888237720064353,0,0,2.6144682128906247,0,0,1.83456
1.09226104899426,0,0,1.3407529296874998,0,0,0.68796
1.093809810001403,0,0,-1.1372457885742187,0,0,-0.7644
1.0952794610057026,0,0,-0.4477157104492187,0,0,0.30576000000000003
1.0967352039879188,0,0,2.214636535644531,0,0,1.98744
1.098211539996555,0,0,2.9735984619140625,0,0,2.06388
1.099734263989376,0,0,1.6112977172851561,0,0,1.2230400000000001
1.101184191997163,0,0,0.4213794921875,0,0,1.07016
1.1026256580080371,0,0,-0.7062894897460937,0,0,0.07644000000000001
1.104108178988099,0,0,1.8507178833007811,0,0,1.37592
1.1055951440066565,0,0,2.4660277099609376,0,0,1.83456
1.1070734979875851,0,0,2.6958710693359373,0,0,1.75812
1.108512240985874,0,0,1.7166425903320313,0,0,0.6115200000000001
1.1099644849891774,0,0,-0.5770026000976562,0,0,-0.68796
1.1114436909847427,0,0,-0.06464344482421874,0,0,-0.22932
1.1128276759991422,0,0,1.5897499023437498,0,0,1.37592
1.114208252984099,0,0,2.233790148925781,0,0,1.45236
1.1156124970002566,0,0,0.9983820922851562,0,0,0.7644
1.117002371000126,0,0,0.3016694091796875,0,0,1.07016
1.1183822629973292,0,0,-0.06464344482421874,0,0,0.45864
1.1197643769846763,0,0,2.308010400390625,0,0,1.07016
1.1211433990101796,0,0,2.839523168945312,0,0,2.6754
1.122523069003364,0,0,3.047818713378906,0,0,2.6754
1.123906202003127,0,0,1.3718775512695311,0,0,0.3822
1.1252864460111596,0,0,0.19153613281249998,0,0,0.0
1.1266656900115777,0,0,0.469263525390625,0,0,9.172799999999999
1.1280470269848593,0,0,1.9895815795898437,0,0,0.91728
1.129426419007359,0,0,2.2170307373046874,0,0,1.07016
1.130806125991512,0,0,1.7956512451171873,0,0,1.5288
1.1321870000101626,0,0,0.8954314208984374,0,0,0.30576000000000003
1.1335663179925177,0,0,-0.20829554443359374,0,0,-1.37592
1.134947248006938,0,0,0.12449848632812499,0,0,0.30576000000000003
1.136327991989674,0,0,1.5921441040039062,0,0,1.07016
1.1377074029878713,0,0,2.6216508178710938,0,0,2.06388
1.1390862950065639,0,0,2.2768857788085937,0,0,2.14032
1.140474630985409,0,0,1.8076222534179687,0,0,1.75812
1.141861042007804,0,0,-0.14604630126953125,0,0,-0.6115200000000001
1.1432485640107188,0,0,0.40940848388671874,0,0,0.0
1.1446355670050252,0,0,2.492363928222656,0,0,1.37592
1.1460220709850546,0,0,3.1124621582031247,0,0,1.911
1.1474090369883925,0,0,2.7174188842773437,0,0,1.2230400000000001
1.1487953180039767,0,0,0.5003881469726562,0,0,1.75812
1.1501811179914512,0,0,-0.622492431640625,0,0,-0.30576000000000003
1.1515678990108427,0,0,0.9552864624023437,0,0,-0.53508
1.152970364986686,0,0,1.4604630126953124,0,0,1.2994800000000002
1.1543572749942541,0,0,2.1068974609374997,0,0,1.45236
1.1557452600100078,0,0,1.6136919189453125,0,0,1.07016
1.1571301149961073,0,0,0.8068459594726562,0,0,1.75812
1.1585161190014333,0,0,0.19153613281249998,0,0,1.07016
1.1599060849985108,0,0,1.8243816650390623,0,0,0.3822
1.161292033008067,0,0,1.8435352783203125,0,0,1.2230400000000001
1.1626780540100299,0,0,2.3774422485351563,0,0,1.2230400000000001
1.164064223994501,0,0,1.8363526733398436,0,0,0.99372
1.1654479499848094,0,0,1.16837041015625,0,0,-0.6115200000000001
1.1672780039953068,0,0,0.258573779296875,0,0,0.30576000000000003
1.1688102649932262,0,0,1.3311761230468748,0,0,1.37592
1.170295749005163,0,0,1.946485949707031,0,0,1.2994800000000002
1.171759917982854,0,0,0.9840168823242187,0,0,0.6115200000000001
1.1731444030010607,0,0,0.8571241943359375,0,0,0.6115200000000001
1.1745252390101086,0,0,-0.040701428222656245,0,0,0.07644000000000001
1.1759098909969907,0,0,1.915361328125,0,0,0.91728
1.1772895790054463,0,0,1.944091748046875,0,0,2.06388
1.178669268003432,0,0,2.118868469238281,0,0,1.60524
1.1800523269921541,0,0,1.7214309936523438,0,0,0.99372
1.1814309039909858,0,0,1.13006318359375,0,0,0.0
1.1828100369893946,0,0,0.8475473876953125,0,0,0.84084
1.1841984110069461,0,0,2.281674182128906,0,0,0.99372
1.1855861179938074,0,0,2.1835119140624997,0,0,1.37592
1.186973066010978,0,0,1.3311761230468748,0,0,0.6115200000000001
1.1883599759894423,0,0,1.0678139404296874,0,0,0.68796
1.18974699798855,0,0,-0.13407529296874998,0,0,-0.53508
1.1911360939848237,0,0,0.49320554199218747,0,0,0.84084
1.1925255789828952,0,0,1.6041151123046875,0,0,1.07016
1.1939119710004888,0,0,1.8148048583984373,0,0,0.84084
1.1952982519869693,0,0,1.209071838378906,0,0,0.84084
1.19668520000414,0,0,0.7493851196289062,0,0,1.2230400000000001
1.1980718699924182,0,0,0.5243301635742187,0,0,0.68796
1.199457631999394,0,0,1.1659762084960936,0,0,2.4460800000000003
1.2008444319944829,0,0,2.6479870361328124,0,0,1.98744
1.202249046007637,0,0,2.5809493896484375,0,0,1.07016
1.2037312519969419,0,0,0.9528922607421875,0,0,-0.15288000000000002
1.2051566439913586,0,0,0.316034619140625,0,0,0.22932
1.2065464059996884,0,0,1.2689268798828124,0,0,0.91728
1.2079384840035345,0,0,2.463633508300781,0,0,0.91728
1.2093208569858689,0,0,1.9943699829101562,0,0,1.68168
1.2107070829952136,0,0,1.1156979736328125,0,0,0.7644
1.2120934749837033,0,0,0.3232172241210937,0,0,0.68796
1.213478903984651,0,0,-0.011971008300781249,0,0,-1.5288
1.2148718149983324,0,0,0.6248866333007812,0,0,0.53508
1.216257966007106,0,0,2.2673089721679687,0,0,1.75812
1.2176448770042043,0,0,2.748543505859375,0,0,1.68168
1.2190307319979183,0,0,1.9129671264648436,0,0,1.2230400000000001
1.2204168470052537,0,0,1.3814543579101561,0,0,1.75812
1.2218026829941664,0,0,-0.37828386230468747,0,0,8.867040000000001
1.2231953160080593,0,0,0.1005564697265625,0,0,0.53508
1.2245836159854662,0,0,2.0063409912109376,0,0,1.60524
1.226027469994733,0,0,2.750937707519531,0,0,1.60524
1.2274201219843235,0,0,1.9416975463867185,0,0,0.45864
1.2288076429977082,0,0,0.411802685546875,0,0,1.2994800000000002
1.2301939989847597,0,0,-0.39983167724609375,0,0,0.0
1.2315839460061397,0,0,1.9776105712890624,0,0,0.91728
1.2329705980082508,0,0,2.1835119140624997,0,0,2.06388
1.2343563419999555,0,0,2.916137622070312,0,0,0.91728
1.2357485120010097,0,0,1.0726023437499999,0,0,0.0
1.2371338479861151,0,0,0.3184288208007812,0,0,-0.45864
1.2385230549843982,0,0,0.9097966308593749,0,0,0.7644
1.239909613999771,0,0,2.3056161987304686,0,0,1.37592
1.2412957290071063,0,0,2.4061726684570313,0,0,2.06388
1.2426817319937982,0,0,1.3144167114257812,0,0,0.99372
1.2440687349881046,0,0,0.47884033203125,0,0,0.07644000000000001
1.2454535349970683,0,0,-0.5339069702148437,0,0,-1.2994800000000002
1.2468412599992007,0,0,0.8379705810546875,0,0,0.6115200000000001
1.2482282450073399,0,0,2.4899697265625,0,0,1.911
1.249614266998833,0,0,2.925714428710937,0,0,2.14032
1.2509996779845096,0,0,1.7381904052734374,0,0,1.911
1.252386365988059,0,0,0.8068459594726562,0,0,0.7644
1.2537723139976151,0,0,-1.0127473022460938,0,0,-1.5288
1.2551600209844764,0,0,0.24899697265624998,0,0,0.53508
1.2565468949906062,0,0,3.1387983764648437,0,0,1.1465999999999998
1.25793299000361,0,0,3.679887951660156,0,0,2.06388
1.2593188270111568,0,0,2.461239306640625,0,0,1.68168
1.2607047380006406,0,0,0.02154781494140625,0,0,1.98744
1.2620905189833138,0,0,-1.1372457885742187,0,0,-0.6115200000000001
1.2634769849828444,0,0,1.7525556152343749,0,0,-0.22932
1.2648637479869649,0,0,2.8467057739257813,0,0,1.98744
1.2662494359828997,0,0,3.5314474487304683,0,0,0.99372
1.2676359209872317,0,0,1.4772224243164063,0,0,1.2230400000000001
1.2690235909831244,0,0,0.06464344482421874,0,0,0.3822
1.2704091309860814,0,0,-0.51714755859375,0,0,-0.7644
1.2717972460086457,0,0,1.4891934326171874,0,0,-0.6115200000000001
1.2731826750095934,0,0,2.4588451049804685,0,0,1.5288
1.2745685859990772,0,0,2.4756045166015626,0,0,1.2994800000000002
1.2759547189925797,0,0,1.5107412475585937,0,0,1.45236
1.277339963009581,0,0,0.2825157958984375,0,0,-0.3822
1.27872628098703,0,0,-0.1149216796875,0,0,0.53508
1.2801335619878955,0,0,1.678335363769531,0,0,0.91728
1.2815194909926504,0,0,3.2058360229492187,0,0,2.36964
1.2829054569883738,0,0,2.1739351074218747,0,0,1.68168
1.2842936090019066,0,0,1.4030021728515625,0,0,1.2994800000000002
1.2856817420106381,0,0,-0.4644751220703125,0,0,-0.99372
1.2870697449834552,0,0,0.1388636962890625,0,0,0.22932
1.2884558409859892,0,0,2.212242333984375,0,0,1.68168
1.289841917983722,0,0,3.0741549316406247,0,0,1.37592
1.2912282180041075,0,0,2.1883003173828124,0,0,1.68168
1.2926141839998309,0,0,0.2154781494140625,0,0,1.45236
1.2940026499854866,0,0,-1.0630255371093749,0,0,-1.1465999999999998
1.295391413004836,0,0,1.3000515014648437,0,0,-0.3822
1.2967789160029497,0,0,2.1595698974609374,0,0,1.07016
1.2981653269962408,0,0,3.2225954345703123,0,0,1.60524
1.2995508669991978,0,0,2.003946789550781,0,0,2.14032
1.3009366109909024,0,0,0.679953271484375,0,0,1.83456
1.3023288550029974,0,0,-1.0510545288085937,0,0,8.71416
1.3037189879978541,0,0,0.9265560424804687,0,0,-0.68796
1.3051044729945716,0,0,2.1595698974609374,0,0,1.2994800000000002
1.3064908279920928,0,0,2.9664158569335934,0,0,1.5288
1.3078826089913491,0,0,2.5258827514648434,0,0,2.4460800000000003
1.3092679459950887,0,0,0.9241618408203125,0,0,0.3822
1.3106536710110959,0,0,-0.6464344482421874,0,0,0.0
1.3120416369929444,0,0,0.6584054565429687,0,0,0.45864
1.3134274180047214,0,0,2.7150246826171873,0,0,1.07016
1.3148139959957916,0,0,2.2385785522460937,0,0,1.83456
1.3162001289892942,0,0,2.2002713256835937,0,0,1.2230400000000001
1.3175859279872384,0,0,-0.28969840087890625,0,0,0.07644000000000001
1.3189718580106273,0,0,-0.13407529296874998,0,0,0.53508
1.3203586199961137,0,0,1.8842367065429686,0,0,1.2230400000000001
1.3217440859880298,0,0,2.6671406494140624,0,0,1.07016
1.3231296819867566,0,0,2.003946789550781,0,0,1.45236
1.324515555985272,0,0,1.0031704956054688,0,0,0.99372
1.3259010410110932,0,0,0.19393033447265623,0,0,-0.84084
1.3272886920021847,0,0,0.105344873046875,0,0,0.0
1.3286754360015038,0,0,2.061407629394531,0,0,1.60524
1.3300615510088392,0,0,2.5163059448242184,0,0,1.2994800000000002
1.331447147007566,0,0,1.5107412475585937,0,0,1.68168
1.332832612999482,0,0,0.5746083984375,0,0,0.6115200000000001
1.3342184310022276,0,0,-0.3447650390625,0,0,-1.37592
1.335605675005354,0,0,1.426944189453125,0,0,-0.68796
1.3369924190046731,0,0,1.9919757812499999,0,0,2.06388
1.3383779959985986,0,0,2.1021090576171875,0,0,2.4460800000000003
1.3397640550101642,0,0,2.128445275878906,0,0,2.36964
1.3411497620109003,0,0,1.3192051147460937,0,0,1.5288
1.3425353030033875,0,0,-0.47165772705078124,0,0,0.45864
1.3439217690029182,0,0,0.49320554199218747,0,0,0.07644000000000001
1.3453071060066577,0,0,1.5705962890624998,0,0,0.91728
1.346692830993561,0,0,2.913743420410156,0,0,1.68168
1.3480785379942972,0,0,2.7174188842773437,0,0,1.1465999999999998
1.349463671009289,0,0,0.02154781494140625,0,0,0.07644000000000001
1.3508490259991959,0,0,-0.4525041137695312,0,0,0.3822
1.3522360479983035,0,0,0.32082302246093747,0,0,0.3822
1.3536212370090652,0,0,2.0374656127929685,0,0,0.30576000000000003
1.3550073700025678,0,0,1.9752163696289062,0,0,1.07016
1.356393483991269,0,0,1.4149731811523436,0,0,1.1465999999999998
1.3577789129922166,0,0,0.4740519287109375,0,0,0.0
1.3591645089909434,0,0,0.2920926025390625,0,0,1.07016
1.3605502719874494,0,0,2.212242333984375,0,0,2.75184
1.3619358679861762,0,0,2.4253262817382812,0,0,1.45236
1.3633215560112149,0,0,1.0917559570312498,0,0,1.1465999999999998
1.3647074670006987,0,0,0.5123591552734374,0,0,0.7644
1.3660927480086684,0,0,0.1388636962890625,0,0,-0.99372
1.3674784179893322,0,0,1.905784521484375,0,0,0.22932
1.3688637730083428,0,0,2.5546131713867184,0,0,2.36964
1.37024772100267,0,0,3.057395520019531,0,0,2.14032
1.3717304639867507,0,0,1.0127473022460938,0,0,0.84084
1.3731177629961167,0,0,-0.03591302490234375,0,0,-0.22932
1.3745068959833588,0,0,-0.3016694091796875,0,0,-0.53508
1.3758959920087364,0,0,1.4173673828125,0,0,0.45864
1.3772817919962108,0,0,2.6431986328124997,0,0,1.68168
1.378668146993732,0,0,2.4013842651367185,0,0,1.98744
1.380055446003098,0,0,1.675941162109375,0,0,0.91728
1.3814414129883517,0,0,-0.086191259765625,0,0,0.84084
1.3828282679896802,0,0,-0.42377369384765623,0,0,0.53508
1.3842152529978193,0,0,0.9002198242187499,0,0,0.6115200000000001
1.3856018490041606,0,0,2.839523168945312,0,0,0.53508
1.3869877959950827,0,0,2.592920397949219,0,0,1.07016
1.3883743179903831,0,0,0.93852705078125,0,0,1.07016
1.3897607660037465,0,0,0.28012159423828126,0,0,-0.3822
1.3911472139880061,0,0,0.06464344482421874,0,0,1.2230400000000001
1.3925525500089861,0,0,1.3215993164062498,0,0,0.99372
1.3939386649872176,0,0,1.8148048583984373,0,0,-0.53508
1.3953254270018078,0,0,1.3838485595703125,0,0,0.6115200000000001
1.3967112269892823,0,0,1.3910311645507811,0,0,1.83456
1.3980969339900184,0,0,1.3718775512695311,0,0,0.84084
1.399482751992764,0,0,1.6352397338867186,0,0,1.2994800000000002
1.400872922007693,0,0,1.5777788940429687,0,0,1.75812
1.402259258000413,0,0,1.6543933471679686,0,0,-9.47856
1.4036461320065428,0,0,0.9911994873046874,0,0,0.07644000000000001
1.4050316349894274,0,0,0.852335791015625,0,0,1.07016
1.4064171570062172,0,0,1.01514150390625,0,0,0.22932
1.407803159992909,0,0,2.384624853515625,0,0,0.84084
1.4091880900086835,0,0,2.308010400390625,0,0,2.06388
1.410574000008637,0,0,1.16837041015625,0,0,1.5288
1.4119603740109596,0,0,0.36631285400390623,0,0,0.0
1.4133454140101094,0,0,-0.258573779296875,0,0,-0.22932
1.4147328069957439,0,0,0.2537853759765625,0,0,0.30576000000000003
1.416118994995486,0,0,2.310404602050781,0,0,0.6115200000000001
1.417504757991992,0,0,3.8235400512695312,0,0,2.2167600000000003
1.4188901679881383,0,0,2.829946362304687,0,0,2.06388
1.4202755049918778,0,0,-0.20350714111328125,0,0,1.60524
1.421661453001434,0,0,-1.4604630126953124,0,0,-0.91728
1.423048103984911,0,0,-1.3096283081054687,0,0,9.32568
1.4244353109970689,0,0,2.530671154785156,0,0,0.45864
1.4258210920088459,0,0,3.3973721557617185,0,0,1.1465999999999998
1.427207503002137,0,0,2.7269956909179687,0,0,1.5288
1.4285936550004408,0,0,0.6703764648437499,0,0,1.75812
1.4299795650003944,0,0,-0.51714755859375,0,0,0.07644000000000001
1.4313658459868748,0,0,0.9265560424804687,0,0,0.68796
1.4327523130050395,0,0,1.7477672119140624,0,0,0.99372
1.4341377230011858,0,0,2.499546533203125,0,0,0.45864
1.4355240970035084,0,0,1.8195932617187498,0,0,0.53508
1.436910082004033,0,0,0.97683427734375,0,0,0.91728
1.43829538099817,0,0,0.7900865478515624,0,0,0.22932
1.439696385001298,0,0,2.1835119140624997,0,0,1.2230400000000001
1.4410831469867844,0,0,2.901772412109375,0,0,1.911
1.4424688539875206,0,0,1.3766659545898436,0,0,1.37592
1.4438554869848303,0,0,0.5793968017578125,0,0,0.0
1.4452402679889929,0,0,-0.5602431884765625,0,0,-0.91728
1.4466268270043656,0,0,0.32082302246093747,0,0,-0.30576000000000003
1.4480136449856218,0,0,2.6312276245117188,0,0,0.84084
1.4493987599853426,0,0,3.1483751831054687,0,0,1.911
1.4507840779842809,0,0,2.0733786376953125,0,0,2.75184
1.45216971100308,0,0,0.7733271362304687,0,0,1.1465999999999998
1.453604473004816,0,0,-1.618480322265625,0,0,-1.911
1.455044956994243,0,0,-0.8595183959960937,0,0,-0.15288000000000002
1.456442866998259,0,0,3.6080619018554687,0,0,1.60524
1.4578305929899216,0,0,4.429273071289062,0,0,1.45236
1.4592162999906577,0,0,2.123656872558594,0,0,2.14032
1.4606027659901883,0,0,0.36152445068359373,0,0,2.52252
1.4619892140035518,0,0,-1.66636435546875,0,0,-1.45236
1.463376364990836,0,0,0.70868369140625,0,0,-0.6115200000000001
1.4647632949927356,0,0,2.4492682983398435,0,0,1.37592
1.466149187006522,0,0,3.4763808105468748,0,0,0.91728
1.467534727009479,0,0,2.0925322509765625,0,0,0.91728
1.4689225269830786,0,0,0.9720458740234375,0,0,1.45236
1.4703090300026815,0,0,-0.9169792358398436,0,0,-0.45864
1.4716968479915522,0,0,0.42377369384765623,0,0,9.47856
1.4730825370061211,0,0,1.3263877197265623,0,0,1.2230400000000001
1.474468133004848,0,0,2.5067291381835934,0,0,0.91728
1.4758541909977794,0,0,2.3223756103515623,0,0,0.68796
1.4772393429884687,0,0,0.23223756103515625,0,0,0.68796
1.478624901996227,0,0,0.11013327636718749,0,0,0.53508
1.4800116829865146,0,0,1.2928688964843749,0,0,0.53508
1.4813966309884563,0,0,2.7054478759765623,0,0,1.60524
1.4827819670026656,0,0,1.9919757812499999,0,0,1.60524
1.4841772849904373,0,0,0.9983820922851562,0,0,0.3822
1.4855656219879165,0,0,0.016759411621093748,0,0,-0.84084
1.486951920989668,0,0,-0.2825157958984375,0,0,0.68796
1.4883401650004089,0,0,2.31758720703125,0,0,1.68168
1.4897260759898927,0,0,3.172317199707031,0,0,1.2994800000000002
1.4911120239994489,0,0,2.480392919921875,0,0,1.98744
1.4925046380085405,0,0,0.39743747558593745,0,0,1.2994800000000002
1.4938942900043912,0,0,-1.1755530151367186,0,0,-1.98744
1.4952835339936428,0,0,0.6727706665039062,0,0,0.15288000000000002
1.4966790920007043,0,0,2.3511060302734372,0,0,1.45236
1.498065947991563,0,0,3.6679169433593746,0,0,1.83456
1.4994520809850655,0,0,2.73896669921875,0,0,1.98744
1.5008396389894187,0,0,1.3168109130859373,0,0,2.6754
1.5022257349919528,0,0,-1.7836802368164062,0,0,-1.2230400000000001
1.503645996999694,0,0,0.07900865478515624,0,0,-0.99372
1.5050347229989711,0,0,2.205059729003906,0,0,1.98744
1.506420485995477,0,0,3.821145849609375,0,0,1.07016
1.5078064700064715,0,0,2.6312276245117188,0,0,1.37592
1.5091966030013282,0,0,-0.7852981445312499,0,0,0.6115200000000001
1.5106101059936918,0,0,-1.93451494140625,0,0,9.47856
1.5120321459835395,0,0,-0.34237083740234375,0,0,0.22932
1.5134337969939224,0,0,2.2744915771484373,0,0,1.1465999999999998
1.5148203189892229,0,0,2.81558115234375,0,0,1.2994800000000002
1.5162245449901093,0,0,2.224213342285156,0,0,1.75812
1.5176117889932357,0,0,0.5123591552734374,0,0,0.30576000000000003
1.5189974030072335,0,0,-0.8667010009765624,0,0,0.6115200000000001
1.5203842949995305,0,0,2.0446482177734375,0,0,1.2230400000000001
1.5217700389912352,0,0,2.8754361938476563,0,0,1.60524
1.523202857002616,0,0,2.133233679199219,0,0,1.60524
1.5245896939886734,0,0,1.3215993164062498,0,0,1.07016
1.5259759559994563,0,0,0.031124621582031248,0,0,-1.2230400000000001
1.5273625149857253,0,0,0.7230489013671875,0,0,-0.22932
1.528748907003319,0,0,1.8650830932617186,0,0,0.99372
1.5301350590016227,0,0,2.442085693359375,0,0,0.91728
1.5315213209833018,0,0,1.889025109863281,0,0,1.37592
1.5329094729968347,0,0,0.7733271362304687,0,0,1.2994800000000002
1.5342948460020125,0,0,-1.0630255371093749,0,0,9.01992
1.5357031830062624,0,0,0.5003881469726562,0,0,0.45864
1.5370896669919603,0,0,2.8467057739257813,0,0,1.5288
1.538496781984577,0,0,2.961627453613281,0,0,1.68168
1.5398840999987442,0,0,2.6958710693359373,0,0,1.37592
1.5412733249831945,0,0,0.21068974609375,0,0,0.07644000000000001
1.5426601250073873,0,0,-0.8906430175781249,0,0,0.0
1.5440530169871636,0,0,0.41419688720703124,0,0,0.0
1.5454372800013516,0,0,2.4851813232421875,0,0,0.99372
1.5468230789992958,0,0,2.4899697265625,0,0,1.60524
1.5482226749882102,0,0,1.2569558715820313,0,0,1.2230400000000001
1.549608197005,0,0,0.03591302490234375,0,0,-1.1465999999999998
1.5509942559874617,0,0,-0.8403647827148437,0,0,0.30576000000000003
1.5523810739978217,0,0,1.2641384765625,0,0,0.99372
1.5537665029987693,0,0,2.1906945190429687,0,0,0.6115200000000001
1.555152579996502,0,0,2.2840683837890623,0,0,1.68168
1.5565385649970267,0,0,2.0829554443359375,0,0,2.4460800000000003
1.5579242350067943,0,0,0.9504980590820312,0,0,0.0
1.559309256990673,0,0,0.718260498046875,0,0,1.07016
1.560695371008478,0,0,1.5155296508789062,0,0,1.45236
1.562080892996164,0,0,1.7190367919921874,0,0,0.07644000000000001
1.5634660630021244,0,0,1.9871873779296874,0,0,-0.15288000000000002
1.564852529001655,0,0,1.7932570434570312,0,0,1.45236
1.56623827398289,0,0,-0.0383072265625,0,0,0.3822
1.56764312798623,0,0,0.97683427734375,0,0,0.07644000000000001
1.5690313910017721,0,0,1.3287819213867187,0,0,1.45236
1.5704167649964802,0,0,1.419761584472656,0,0,1.60524
1.5718030459829606,0,0,1.0271125122070313,0,0,0.45864
1.5731880679959431,0,0,0.6248866333007812,0,0,0.84084
1.574582219007425,0,0,0.565031591796875,0,0,0.6115200000000001
1.5759688889957033,0,0,2.2960393920898436,0,0,1.37592
1.5773543920076918,0,0,2.916137622070312,0,0,2.06388
1.5787395990046207,0,0,2.1930887207031247,0,0,2.6754
1.5801252509991173,0,0,0.49799394531249996,0,0,0.99372
1.5815109389950521,0,0,-0.55545478515625,0,0,-1.45236
1.5828982020029798,0,0,-0.8762778076171874,0,0,0.0
1.5842846120067406,0,0,2.446874096679687,0,0,0.07644000000000001
1.585670486005256,0,0,3.1603461914062496,0,0,0.68796
1.587056322983699,0,0,1.3263877197265623,0,0,2.14032
1.5884420479997061,0,0,0.3495534423828125,0,0,1.83456
1.589827496005455,0,0,-0.7230489013671875,0,0,-0.6115200000000001
1.5912203879852314,0,0,1.4053963745117186,0,0,0.84084
1.5926064660015982,0,0,2.1883003173828124,0,0,1.07016
1.593991912988713,0,0,2.923320227050781,0,0,1.2230400000000001
1.5953779720002785,0,0,1.6328455322265625,0,0,1.2230400000000001
1.5967858459916897,0,0,0.8762778076171874,0,0,2.4460800000000003
1.5981737750116736,0,0,-0.03591302490234375,0,0,-1.2230400000000001
1.599562536983285,0,0,1.687912170410156,0,0,9.555
1.6009506699920166,0,0,2.540247961425781,0,0,1.45236
1.6023431369976606,0,0,2.0781670410156248,0,0,0.99372
1.6037411949946545,0,0,1.2521674682617188,0,0,-8.867040000000001
1.6051327360037249,0,0,-0.15083470458984374,0,0,0.53508
1.6065216650022194,0,0,-0.3758896606445312,0,0,0.53508
1.6079104270029347,0,0,1.5298948608398437,0,0,0.0
1.6092968010052573,0,0,2.645592834472656,0,0,2.06388
1.6106835259997752,0,0,2.2601263671875,0,0,1.98744
1.6120713079872075,0,0,0.7781155395507812,0,0,1.37592
1.6134572550072335,0,0,-0.20829554443359374,0,0,-0.15288000000000002
1.6148451099870726,0,0,-0.033518823242187495,0,0,0.99372
1.6162330399965867,0,0,2.3918074584960936,0,0,0.68796
1.617619709984865,0,0,2.6815058593749996,0,0,1.45236
1.6190064719994552,0,0,1.4939818359375,0,0,1.07016
1.6203936050005723,0,0,0.6655880615234374,0,0,1.911
1.621780312008923,0,0,-0.201112939453125,0,0,-1.45236
1.6231683150108438,0,0,1.438915197753906,0,0,0.45864
1.6245559479866643,0,0,2.6431986328124997,0,0,0.68796
1.6259438960114494,0,0,3.220201232910156,0,0,1.37592
1.6273305290087592,0,0,1.3527239379882812,0,0,1.75812
1.6287174949829932,0,0,0.5267243652343749,0,0,1.37592
1.6301039239915553,0,0,-0.603338818359375,0,0,-0.3822
1.6314915200055111,0,0,1.637633935546875,0,0,0.15288000000000002
1.632893948990386,0,0,2.4444798950195312,0,0,1.83456
1.6342819709971081,0,0,2.6216508178710938,0,0,1.911
1.635705547989346,0,0,1.5442600708007812,0,0,1.2230400000000001
1.6370932919962797,0,0,-0.584185205078125,0,0,0.68796
1.6384810179879423,0,0,-0.7134720947265625,0,0,9.172799999999999
1.6398695019888692,0,0,1.3168109130859373,0,0,0.22932
1.6412560800090432,0,0,3.3111808959960936,0,0,1.83456
1.6426425089885015,0,0,2.39420166015625,0,0,1.37592
1.6440300680114888,0,0,0.08140285644531249,0,0,0.6115200000000001
1.6454163680027705,0,0,-0.9983820922851562,0,0,-0.6115200000000001
1.6468046490044799,0,0,-0.5363011718749999,0,0,0.99372
1.648192430002382,0,0,2.844311572265625,0,0,0.99372
1.6495793589856476,0,0,3.5601778686523438,0,0,1.68168
1.650965898996219,0,0,1.7836802368164062,0,0,2.14032
1.6523528840043582,0,0,0.612915625,0,0,1.60524
1.6537389240111224,0,0,-1.1348515869140625,0,0,-1.37592
1.655127039004583,0,0,1.0773907470703123,0,0,-0.22932
1.6565141720057,0,0,2.398990063476562,0,0,0.99372
1.6579009899869561,0,0,3.258508459472656,0,0,1.37592
1.659287955990294,0,0,2.205059729003906,0,0,1.68168
1.6606773670064285,0,0,1.5251064575195312,0,0,1.68168
1.6620640739856753,0,0,-1.1348515869140625,0,0,-0.84084
1.6634521140076686,0,0,0.5793968017578125,0,0,-0.7644
1.6648391729977448,0,0,1.924938134765625,0,0,1.75812
1.666226083994843,0,0,2.5330653564453125,0,0,1.75812
1.6676135130110197,0,0,1.8698714965820311,0,0,1.2230400000000001
1.6690004419942852,0,0,-0.5626373901367188,0,0,-8.48484
1.670404222997604,0,0,-1.1420341918945311,0,0,0.15288000000000002
1.671792707988061,0,0,0.6943184814453125,0,0,-0.68796
1.6731788959878031,0,0,3.009511486816406,0,0,1.68168
1.674565769993933,0,0,2.7174188842773437,0,0,2.2167600000000003
1.6759534399898257,0,0,1.7405846069335937,0,0,1.60524
1.6773392579925712,0,0,-0.055066638183593745,0,0,0.84084
1.678735464985948,0,0,-1.2737152832031249,0,0,1.37592
1.680123708996689,0,0,1.944091748046875,0,0,0.53508
1.6815105449932162,0,0,3.1579519897460937,0,0,1.1465999999999998
1.6828969010093715,0,0,2.8012159423828122,0,0,1.68168
1.6842834780109115,0,0,1.659181750488281,0,0,1.45236
1.6856793150072917,0,0,-0.09576806640624999,0,0,-1.2230400000000001
1.6870690399955492,0,0,0.2753331909179687,0,0,0.07644000000000001
1.6884575799922459,0,0,1.2234370483398436,0,0,0.53508
1.6898439539945684,0,0,2.6144682128906247,0,0,0.45864
1.691240068001207,0,0,2.683900061035156,0,0,1.45236
1.6926273859862704,0,0,1.8818425048828125,0,0,2.06388
1.694016482011648,0,0,-1.4341267944335936,0,0,-0.7644
1.6954064480087254,0,0,-0.06943184814453125,0,0,-0.99372
1.696796247997554,0,0,1.6256629272460936,0,0,1.911
1.6981834179896396,0,0,3.399766357421875,0,0,0.84084
1.6995849210070446,0,0,2.9376854370117185,0,0,1.37592
1.7009744429960847,0,0,-0.3136404174804687,0,0,1.83456
1.7023622049891856,0,0,-1.668758557128906,0,0,8.867040000000001
1.7037985599890817,0,0,-0.5267243652343749,0,0,-0.84084
1.705247378005879,0,0,2.839523168945312,0,0,1.98744
1.7066390840045642,0,0,3.289633081054687,0,0,1.2230400000000001
1.7080276799970306,0,0,1.8004396484374998,0,0,1.2994800000000002
1.709415238990914,0,0,0.29927520751953124,0,0,0.3822
1.7108024089829996,0,0,-0.9696516723632812,0,0,0.68796
1.7121912639995571,0,0,1.216254443359375,0,0,0.68796
1.7135781190008856,0,0,2.47081611328125,0,0,-0.6115200000000001
1.7149648999911733,0,0,2.77727392578125,0,0,2.5989600000000004
1.7163521260081325,0,0,1.85790048828125,0,0,1.5288
1.7177384810056537,0,0,0.3232172241210937,0,0,-0.68796
1.719125706993509,0,0,-0.1005564697265625,0,0,0.3822
1.7205139689904172,0,0,1.4149731811523436,0,0,0.22932
1.7219009170075879,0,0,2.9185318237304685,0,0,0.6115200000000001
1.723305919993436,0,0,2.6479870361328124,0,0,1.75812
1.7246928490058053,0,0,1.9943699829101562,0,0,2.4460800000000003
1.7260791669832543,0,0,-0.8978256225585937,0,0,9.40212
1.7274668739992194,0,0,-0.39264907226562495,0,0,0.0
1.7288545629999135,0,0,0.9720458740234375,0,0,1.5288
1.7302407509996556,0,0,2.5258827514648434,0,0,0.0
1.7316458289860748,0,0,2.5857377929687497,0,0,0.84084
1.7330333690042607,0,0,0.5506663818359374,0,0,1.37592
1.7344200199877378,0,0,-0.40462008056640625,0,0,0.30576000000000003
1.7358085789892357,0,0,0.5793968017578125,0,0,9.47856
1.7371952119865455,0,0,2.2768857788085937,0,0,1.83456
1.7385818639886566,0,0,2.389413256835937,0,0,1.45236
1.7399693109910004,0,0,1.8148048583984373,0,0,1.37592
1.741355611011386,0,0,0.354341845703125,0,0,-9.47856
1.7427430959942285,0,0,-0.612915625,0,0,0.53508
1.7441310430003796,0,0,1.4101847778320311,0,0,-0.22932
1.7455177869996987,0,0,2.4157494750976563,0,0,1.2230400000000001
1.746904456987977,0,0,2.195482922363281,0,0,2.36964
1.7482920899929013,0,0,1.687912170410156,0,0,1.5288
1.7496953709924128,0,0,0.258573779296875,0,0,0.15288000000000002
1.7510834670101758,0,0,-0.23223756103515625,0,0,0.0
1.7524717480118852,0,0,1.4317325927734375,0,0,0.99372
1.753858454991132,0,0,3.418919970703125,0,0,0.3822
1.7552450140065048,0,0,2.8514941772460936,0,0,2.4460800000000003
1.7566319989855401,0,0,2.2457611572265623,0,0,2.82828
1.7580205019912682,0,0,-0.7230489013671875,0,0,-0.30576000000000003
1.759408431011252,0,0,-0.8643067993164062,0,0,-0.53508
1.760800415999256,0,0,0.6967126831054687,0,0,0.0
1.7621874189935625,0,0,2.789244934082031,0,0,0.45864
1.7635876999993343,0,0,2.8107927490234372,0,0,1.2230400000000001
1.7649759069900028,0,0,0.8786720092773437,0,0,2.4460800000000003
1.7663702440040652,0,0,-0.22744915771484372,0,0,0.91728
1.7677658399916254,0,0,-0.10295067138671875,0,0,-0.30576000000000003
1.7691536759957671,0,0,1.714248388671875,0,0,1.1465999999999998
1.7705402910069097,0,0,2.2361843505859373,0,0,1.07016
1.7719281270110514,0,0,2.0302830078125,0,0,1.2994800000000002
1.7733142049983144,0,0,0.9169792358398436,0,0,1.1465999999999998
1.7747003000113182,0,0,0.258573779296875,0,0,0.91728
1.7760873780061956,0,0,1.8650830932617186,0,0,0.53508
1.777474047994474,0,0,2.398990063476562,0,0,0.84084
1.7788606440008152,0,0,1.429338391113281,0,0,1.98744
1.7802471840113867,0,0,0.9648632690429687,0,0,0.53508
1.781635371997254,0,0,-0.28490999755859375,0,0,-1.911
1.783023783005774,0,0,0.469263525390625,0,0,0.22932
1.7844112679886166,0,0,2.3678654418945313,0,0,0.22932
1.7857972529891413,0,0,2.9448680419921875,0,0,1.07016
1.7871839230065234,0,0,1.7429788085937499,0,0,2.14032
1.7885707590030506,0,0,1.1228805786132812,0,0,2.14032
1.789957189001143,0,0,-0.8259995727539062,0,0,-1.1465999999999998
1.7913451920030639,0,0,0.30406361083984373,0,0,-0.3822
1.7927328989899252,0,0,2.50912333984375,0,0,2.2931999999999997
1.794119791011326,0,0,3.0837317382812497,0,0,0.53508
1.7955069050076418,0,0,2.308010400390625,0,0,1.98744
1.7968936680117622,0,0,0.354341845703125,0,0,2.36964
1.7982801529869903,0,0,-0.7948749511718749,0,0,-0.6115200000000001
1.7996710629959125,0,0,-0.34237083740234375,0,0,-0.7644
1.8010595479863696,0,0,2.43250888671875,0,0,1.1465999999999998
1.8024466260103509,0,0,2.518700146484375,0,0,0.91728
1.803833924990613,0,0,1.6400281372070311,0,0,0.30576000000000003
1.8052199659869075,0,0,0.4955997436523437,0,0,1.5288
1.8066064690065105,0,0,-0.6464344482421874,0,0,1.1465999999999998
1.8080035829916596,0,0,1.4700398193359374,0,0,-0.15288000000000002
1.809390826994786,0,0,1.917755529785156,0,0,1.37592
1.8107837009883951,0,0,1.68551796875,0,0,1.68168
1.8121711669955403,0,0,1.5442600708007812,0,0,0.6115200000000001
1.813557485002093,0,0,0.5458779785156249,0,0,-0.91728
1.8149443400034215,0,0,1.4987702392578124,0,0,1.45236
1.816342509991955,0,0,2.808398547363281,0,0,1.45236
1.8177312169864308,0,0,2.93050283203125,0,0,0.99372
1.8191188309865538,0,0,1.2521674682617188,0,0,1.5288
1.8205063350033015,0,0,0.5482721801757812,0,0,1.37592
1.8219131710065994,0,0,-1.2473790649414063,0,0,6.879600000000001
1.8233045999950264,0,0,0.5626373901367188,0,0,0.07644000000000001
1.8246926039864775,0,0,2.8107927490234372,0,0,1.5288
1.826079939986812,0,0,3.1579519897460937,0,0,1.07016
1.8274668880039826,0,0,1.7525556152343749,0,0,1.98744
1.8288539839850273,0,0,-0.9337386474609375,0,0,1.98744
1.8302422279957682,0,0,-1.8100164550781248,0,0,-1.45236
1.8316478790075053,0,0,-0.5219359619140624,0,0,-0.45864
1.833036494004773,0,0,3.9983167724609374,0,0,2.6754
1.8344240520091262,0,0,4.127603662109375,0,0,0.99372
1.8358119819895364,0,0,1.7932570434570312,0,0,1.68168
1.8371979850053322,0,0,-0.47644613037109373,0,0,1.2994800000000002
1.8385858399851713,0,0,-1.9680337646484374,0,0,-1.1465999999999998
1.8399746580107603,0,0,1.3575123413085937,0,0,-0.45864
1.8413613839948084,0,0,3.191470812988281,0,0,1.2994800000000002
1.842748886992922,0,0,2.4947581298828125,0,0,1.5288
1.844181389984442,0,0,1.465251416015625,0,0,0.53508
1.8455703189829364,0,0,0.062249243164062495,0,0,-1.2230400000000001
1.8469589889864437,0,0,-0.5123591552734374,0,0,-0.15288000000000002
1.848348695988534,0,0,1.7022773803710936,0,0,0.15288000000000002
1.8497358839958906,0,0,3.124433166503906,0,0,0.7644
1.8511235910118558,0,0,1.9297265380859374,0,0,2.06388
1.8525105580047239,0,0,1.149216796875,0,0,1.68168
1.853908152988879,0,0,-1.1516109985351561,0,0,-0.84084
1.8552979709929787,0,0,-0.1867477294921875,0,0,0.3822
1.8566862150037196,0,0,2.683900061035156,0,0,1.5288
1.8580731629917864,0,0,4.07971962890625,0,0,1.45236
1.859460111008957,0,0,2.731784094238281,0,0,1.75812
1.860847244010074,0,0,-1.0486603271484374,0,0,1.5288
1.8622345429903362,0,0,-2.291250988769531,0,0,-1.60524
1.8636384349956643,0,0,-1.3263877197265623,0,0,-1.5288
1.8650269389909226,0,0,4.153939880371094,0,0,2.14032
1.8664209980051965,0,0,4.620809204101562,0,0,1.83456
1.8678101490077097,0,0,1.5682020874023437,0,0,1.1465999999999998
1.8691970229847357,0,0,-0.622492431640625,0,0,0.53508
1.8705848040117417,0,0,-2.5522189697265625,0,0,-1.5288
1.8719737330102362,0,0,-0.016759411621093748,0,0,-1.60524
1.8733611250063404,0,0,2.7916391357421872,0,0,0.68796
1.8747476279968396,0,0,3.201047619628906,0,0,1.68168
1.876134853984695,0,0,2.250549560546875,0,0,0.22932
1.8775218570081051,0,0,0.1197100830078125,0,0,1.45236
1.8789083049923647,0,0,-2.4133552734375,0,0,1.2994800000000002
1.8802965669892728,0,0,-0.43574470214843747,0,0,-1.1465999999999998
1.881684255989967,0,0,3.153163586425781,0,0,0.91728
1.8830711109912954,0,0,2.4971523315429685,0,0,0.30576000000000003
1.8844580400036648,0,0,1.9129671264648436,0,0,-0.30576000000000003
1.885852044011699,0,0,-0.8954314208984374,0,0,1.2994800000000002
1.8872413619828876,0,0,-2.001552587890625,0,0,-2.06388
1.8886298830038868,0,0,-0.7661445312499999,0,0,20
1.8900180530035868,0,0,1.9943699829101562,0,0,2.52252
1.8914047229918651,0,0,2.655169641113281,0,0,-0.53508
1.8927918929839507,0,0,1.7022773803710936,0,0,3.4398000000000004
1.8941810260002967,0,0,-0.5410895751953124,0,0,2.4460800000000003
1.8955833439831622,0,0,-0.9313444458007812,0,0,20
1.8969727359944955,0,0,1.1516109985351561,0,0,1.5288
1.898369739006739,0,0,2.693476867675781,0,0,8.48484
1.8997575390094426,0,0,3.6176387084960937,0,0,1.83456
1.901144394010771,0,0,1.7693150268554687,0,0,1.37592
1.902540193987079,0,0,0.9361328491210937,0,0,-20
1.9039298449933995,0,0,-2.2385785522460937,0,0,20
1.905317663011374,0,0,-2.0183119995117185,0,0,-4.12776
1.9067057780048344,0,0,2.7461493041992187,0,0,1.2230400000000001
1.9080928920011502,0,0,2.4779987182617185,0,0,9.32568
1.9094801179890055,0,0,2.748543505859375,0,0,2.2167600000000003
1.9108671580033842,0,0,0.040701428222656245,0,0,1.83456
1.9122545499994885,0,0,-0.10773907470703124,0,0,0.15288000000000002
1.9136419789865613,0,0,-0.9433154541015625,0,0,0.7644
1.915029889991274,0,0,-0.20350714111328125,0,0,6.95604
1.9164174670004286,0,0,2.0302830078125,0,0,2.4460800000000003
1.9178046559973154,0,0,3.0693665283203124,0,0,0.0
1.9191914740076754,0,0,2.8419173706054686,0,0,4.8921600000000005
1.9205785509839188,0,0,1.1037269653320312,0,0,-0.22932
1.9219665919954423,0,0,-0.8451531860351562,0,0,1.5288
1.9233546319883317,0,0,-2.0781670410156248,0,0,-4.2042
1.9248660599987488,0,0,1.0893617553710937,0,0,-1.2994800000000002
1.9262587669945788,0,0,1.5825672973632812,0,0,9.32568
1.9276613440015353,0,0,2.4492682983398435,0,0,1.68168
1.9290494399901945,0,0,1.1252747802734375,0,0,1.45236
1.9304366470023524,0,0,-0.06464344482421874,0,0,1.75812
1.9318255579855759,0,0,-1.2401964599609374,0,0,-0.45864
1.9332132269919384,0,0,-0.2609679809570312,0,0,0.0
1.9346015639894176,0,0,1.6208745239257811,0,0,20
1.9359898639959283,0,0,2.3487118286132813,0,0,0.07644000000000001
1.937376423011301,0,0,2.4516625,0,0,0.53508
1.9387633700098377,0,0,1.2473790649414063,0,0,0.99372
1.9401502620021347,0,0,0.7589619262695312,0,0,0.7644
1.9415846359916031,0,0,-0.4572925170898437,0,0,0.07644000000000001
1.942975434998516,0,0,-0.0909796630859375,0,0,-0.84084
1.9443641050020233,0,0,0.3758896606445312,0,0,-1.07016
1.9457512939989101,0,0,1.180341418457031,0,0,-0.68796
1.9471381120092701,0,0,0.9074024291992187,0,0,0.6115200000000001
1.9485281329834834,0,0,0.7422025146484375,0,0,0.0
1.9499146550078876,0,0,0.47165772705078124,0,0,0.53508
1.9513013440009672,0,0,0.5147533569335937,0,0,0.53508
1.9526827730005607,0,0,1.2713210815429687,0,0,1.1465999999999998
1.954080923984293,0,0,1.3096283081054687,0,0,0.84084
1.9555367970024236,0,0,1.1109095703125,0,0,0.99372
1.9569518929929473,0,0,0.8451531860351562,0,0,0.91728
1.9583392849890515,0,0,0.8020575561523438,0,0,9.32568
1.9597280290035997,0,0,0.8283937744140625,0,0,-0.6115200000000001
1.9611137729953043,0,0,0.8906430175781249,0,0,0.0
1.9625002210086677,0,0,0.4955997436523437,0,0,-0.99372
1.9638885940075852,0,0,0.8834604125976562,0,0,0.30576000000000003
1.9652747829968575,0,0,0.6823474731445313,0,0,1.2230400000000001
1.9666612680011895,0,0,-0.06464344482421874,0,0,0.07644000000000001
1.9680511229962576,0,0,0.46686932373046874,0,0,0.07644000000000001
1.969437663006829,0,0,0.076614453125,0,0,0.0
1.9708237219892908,0,0,0.9720458740234375,0,0,-0.30576000000000003
1.9722107810084708,0,0,1.8914193115234375,0,0,1.2230400000000001
1.9735965809959453,0,0,1.4987702392578124,0,0,0.7644
1.974982416984858,0,0,1.1372457885742187,0,0,0.45864
1.9763687349914107,0,0,0.622492431640625,0,0,0.22932
1.9777544789831154,0,0,-0.2561795776367187,0,0,-0.91728
1.9791419089888223,0,0,-0.32082302246093747,0,0,-0.07644000000000001
1.980541300988989,0,0,1.5777788940429687,0,0,0.0
1.9819271189917345,0,0,1.5394716674804687,0,0,1.5288
1.9833132149942685,0,0,0.6775590698242188,0,0,-0.22932
1.9846992180100642,0,0,0.40462008056640625,0,0,0.07644000000000001
1.9861126840114594,0,0,0.05027823486328125,0,0,0.6115200000000001
1.987518298003124,0,0,0.6584054565429687,0,0,-0.3822
1.9889237459865399,0,0,1.5777788940429687,0,0,1.37592
1.9903107300051488,0,0,2.2290017456054687,0,0,0.53508
1.991699862992391,0,0,1.180341418457031,0,0,1.2994800000000002
1.9930836629937403,0,0,0.38307226562499996,0,0,0.30576000000000003
1.9944694630103186,0,0,0.040701428222656245,0,0,0.0
1.9958572250034194,0,0,0.2657563842773437,0,0,-0.45864
1.9972442470025271,0,0,0.6272808349609375,0,0,-0.6115200000000001
1.9986306949867867,0,0,1.4604630126953124,0,0,0.30576000000000003
2.000018179009203,0,0,1.5251064575195312,0,0,0.45864
2.00140323798405,0,0,1.0797849487304687,0,0,0.6115200000000001
2.002789112011669,0,0,-0.20829554443359374,0,0,0.68796
2.0041773749981076,0,0,-0.51714755859375,0,0,0.0
2.005563673999859,0,0,0.9888052856445312,0,0,-0.6115200000000001
2.006949917995371,0,0,1.6400281372070311,0,0,0.07644000000000001
2.0083362179866526,0,0,1.7310078002929687,0,0,0.7644
2.0097222400072496,0,0,0.7972691528320313,0,0,0.68796
2.011112020991277,0,0,0.45968671875,0,0,0.84084
2.0125061350117903,0,0,0.6823474731445313,0,0,0.30576000000000003
2.013891563983634,0,0,0.9816226806640624,0,0,0.30576000000000003
2.0152776050090324,0,0,0.928950244140625,0,0,-0.22932
2.016669792996254,0,0,0.7996633544921875,0,0,0.3822
2.018054073996609,0,0,0.5291185668945312,0,0,0.0
2.0194395770085976,0,0,0.7757213378906249,0,0,0.0
2.0208257290069014,0,0,0.8834604125976562,0,0,0.15288000000000002
2.0222164359875023,0,0,0.9624690673828125,0,0,0.0
2.0236021429882385,0,0,0.143652099609375,0,0,-0.15288000000000002
2.024988608987769,0,0,-0.1484405029296875,0,0,0.30576000000000003
2.0263792980113067,0,0,0.277727392578125,0,0,0.45864
2.0277664299937896,0,0,1.3455413330078123,0,0,0.07644000000000001
2.0291656740009785,0,0,1.9632453613281249,0,0,0.91728
2.030551806994481,0,0,1.1731588134765625,0,0,1.1465999999999998
2.0319383849855512,0,0,0.6967126831054687,0,0,0.84084
2.0333228319941554,0,0,0.201112939453125,0,0,-0.07644000000000001
2.0347091880103108,0,0,0.12449848632812499,0,0,-0.3822
2.0360962279955857,0,0,0.814028564453125,0,0,-0.91728
2.0374817499832716,0,0,1.70467158203125,0,0,0.0
2.0388678640010767,0,0,1.6160861206054686,0,0,0.45864
2.040254792984342,0,0,1.139639990234375,0,0,0.22932
2.0416406489966903,0,0,-0.055066638183593745,0,0,0.84084
2.0430274670070503,0,0,-0.2920926025390625,0,0,9.555
2.0444209699926432,0,0,0.24660277099609373,0,0,0.0
2.0458065290004015,0,0,1.1611878051757811,0,0,0.3822
2.0471959210117348,0,0,1.4939818359375,0,0,0.7644
2.0485815909923986,0,0,1.0031704956054688,0,0,0.68796
2.0499671869911253,0,0,0.6584054565429687,0,0,0.45864
2.0513527459988836,0,0,0.23702596435546874,0,0,0.22932
2.0527388420014177,0,0,0.6177040283203125,0,0,0.0
2.054124160000356,0,0,0.8188169677734375,0,0,0.15288000000000002
2.0555098479962908,0,0,1.2497732666015624,0,0,0.45864
2.0568951109889895,0,0,1.0606313354492187,0,0,0.30576000000000003
2.0582808179897256,0,0,0.8212111694335937,0,0,9.631440000000001
2.0596686539938673,0,0,0.9744400756835937,0,0,0.07644000000000001
2.0610552319849376,0,0,0.7637503295898437,0,0,-0.22932
2.0624414199846797,0,0,0.7015010864257812,0,0,0.53508
2.0638279049890116,0,0,0.430956298828125,0,0,0.6115200000000001
2.065212668007007,0,0,0.38307226562499996,0,0,0.30576000000000003
2.066598208009964,0,0,1.3359645263671873,0,0,0.0
2.067984063003678,0,0,1.5035586425781249,0,0,0.53508
2.0693693259963766,0,0,0.9648632690429687,0,0,0.53508
2.070754496002337,0,0,0.507570751953125,0,0,0.22932
2.0721401659830008,0,0,0.699106884765625,0,0,0.68796
2.0735330210009124,0,0,1.2785036865234374,0,0,0.45864
2.074918191006873,0,0,1.5801730957031248,0,0,0.84084
2.076303915993776,0,0,1.407790576171875,0,0,1.2994800000000002
2.0776899750053417,0,0,1.177947216796875,0,0,1.45236
2.0790759779920336,0,0,0.9217676391601562,0,0,0.99372
2.0804616110108327,0,0,1.3096283081054687,0,0,0.91728
2.081847004010342,0,0,1.5921441040039062,0,0,0.6115200000000001
2.0832320069894195,0,0,1.7932570434570312,0,0,0.6115200000000001
2.08461736200843,0,0,1.4724340209960938,0,0,0.6115200000000001
2.086009032005677,0,0,1.0726023437499999,0,0,1.2230400000000001
2.0873945909843314,0,0,1.1061211669921875,0,0,0.53508
2.0887805199890863,0,0,1.1659762084960936,0,0,0.15288000000000002
2.090166448993841,0,0,1.6711527587890624,0,0,0.45864
2.0915516749955714,0,0,1.4221557861328125,0,0,0.99372
2.0929368450015318,0,0,1.388636962890625,0,0,0.99372
2.094323199999053,0,0,1.0797849487304687,0,0,0.7644
2.095743035984924,0,0,0.9911994873046874,0,0,0.84084
2.0971274290059227,0,0,1.1875240234375,0,0,0.3822
2.0985134500078857,0,0,1.4245499877929686,0,0,1.75812
2.099898916989332,0,0,1.6112977172851561,0,0,0.45864
2.101284123986261,0,0,1.5801730957031248,0,0,0.6115200000000001
2.1026810159964953,0,0,1.2761094848632812,0,0,0.91728
2.104067796986783,0,0,1.1707646118164061,0,0,0.84084
2.1054528189997654,0,0,1.1372457885742187,0,0,0.53508
2.1068386179977097,0,0,1.2497732666015624,0,0,1.2230400000000001
2.1082231769978534,0,0,1.3455413330078123,0,0,0.91728
2.1097097159945406,0,0,1.3575123413085937,0,0,0.99372
2.11113827500958,0,0,1.3934253662109375,0,0,1.07016
2.112610851007048,0,0,1.3168109130859373,0,0,1.1465999999999998
2.1140543909859844,0,0,1.1420341918945311,0,0,0.99372
2.11549085698789,0,0,1.2856862915039062,0,0,0.6115200000000001
2.1169657850114163,0,0,1.2880804931640624,0,0,0.99372
2.11843552798382,0,0,1.426944189453125,0,0,1.2230400000000001
2.119889900990529,0,0,1.3192051147460937,0,0,1.1465999999999998
2.1213331439939793,0,0,1.6256629272460936,0,0,0.84084
2.122779350989731,0,0,1.350329736328125,0,0,0.53508
2.1242426309909206,0,0,1.3192051147460937,0,0,0.3822
2.125686929997755,0,0,1.1156979736328125,0,0,0.7644
2.127825628995197,0,0,1.1420341918945311,0,0,0.07644000000000001
2.1292672239942476,0,0,1.3646949462890625,0,0,0.3822
2.130645356985042,0,0,1.5538368774414062,0,0,0.3822
2.1320950080116745,0,0,1.3934253662109375,0,0,0.91728
2.1334724930056836,0,0,1.3383587280273437,0,0,1.37592
2.134853495983407,0,0,1.1109095703125,0,0,1.1465999999999998
2.1362282400077675,0,0,1.1635820068359375,0,0,0.45864
2.137601855007233,0,0,1.2018892333984375,0,0,0.91728
2.138975025009131,0,0,1.5035586425781249,0,0,1.07016
2.1403513989935163,0,0,1.6472107421875,0,0,0.99372
2.141724865010474,0,0,1.484405029296875,0,0,0.99372
2.1430982569872867,0,0,1.1875240234375,0,0,0.84084
2.1444762609899044,0,0,1.1156979736328125,0,0,0.6115200000000001
2.1458496160048526,0,0,1.1444283935546875,0,0,0.84084
2.147222748986678,0,0,1.01514150390625,0,0,1.2994800000000002
2.148599197011208,0,0,1.2880804931640624,0,0,0.84084
2.149972329993034,0,0,1.3000515014648437,0,0,0.53508
2.1513453329971526,0,0,1.5729904907226562,0,0,0.68796
2.152720188983949,0,0,1.4604630126953124,0,0,0.53508
2.15409322900814,0,0,1.2785036865234374,0,0,0.84084
2.1554664919967763,0,0,1.209071838378906,0,0,1.2994800000000002
2.156840513984207,0,0,1.0702081420898437,0,0,0.53508
2.158213850983884,0,0,1.139639990234375,0,0,0.22932
2.1595941319828853,0,0,1.5203180541992187,0,0,0.68796
2.1609675610088743,0,0,1.618480322265625,0,0,0.84084
2.162363287003245,0,0,1.2665326782226562,0,0,0.91728
2.163745864003431,0,0,1.2593500732421874,0,0,1.1465999999999998
2.1651295339979697,0,0,1.0845733520507812,0,0,0.68796
2.166512759984471,0,0,1.0582371337890624,0,0,0.84084
2.1707946569949854,0,0,1.2928688964843749,0,0,0.84084
2.172286399989389,0,0,1.2378022583007813,0,0,0.7644
2.1736643479962368,0,0,1.22583125,0,0,0.6115200000000001
2.175038888002746,0,0,1.1468225952148436,0,0,0.6115200000000001
2.1764168179943226,0,0,1.2832920898437499,0,0,0.3822
2.1777903210022487,0,0,1.2856862915039062,0,0,1.45236
2.1791638059949037,0,0,1.2904746948242187,0,0,0.53508
2.180554254009621,0,0,1.2330138549804688,0,0,0.3822
2.1819276270107366,0,0,1.3910311645507811,0,0,0.53508
2.1833009640104137,0,0,1.2952630981445312,0,0,0.6115200000000001
2.184685152984457,0,0,1.3263877197265623,0,0,0.7644
2.18606822998845,0,0,1.16837041015625,0,0,1.1465999999999998
2.187451030011289,0,0,1.1372457885742187,0,0,0.84084
2.188833291991614,0,0,1.2401964599609374,0,0,0.0
2.190215887996601,0,0,1.5059528442382812,0,0,0.91728
2.1915994659939315,0,0,1.4987702392578124,0,0,0.7644
2.1929822099918965,0,0,1.5634136840820312,0,0,0.84084
2.194364527997095,0,0,1.4149731811523436,0,0,1.37592
2.1957484020094853,0,0,1.2378022583007813,0,0,0.68796
2.1971297939890064,0,0,1.2234370483398436,0,0,0.53508
2.1985118899901863,0,0,1.1755530151367186,0,0,0.91728
2.19989533800981,0,0,1.3575123413085937,0,0,1.1465999999999998
2.201276414998574,0,0,1.407790576171875,0,0,1.07016
2.202683807001449,0,0,1.455674609375,0,0,0.91728
2.2040681070066057,0,0,1.0773907470703123,0,0,0.68796
2.206126620993018,0,0,1.2018892333984375,0,0,0.68796
2.2076040680112783,0,0,1.2018892333984375,0,0,0.45864
2.2090081269852817,0,0,1.2593500732421874,0,0,0.53508
2.210412037005881,0,0,1.407790576171875,0,0,1.07016
2.2117982810013928,0,0,1.3766659545898436,0,0,0.6115200000000001
2.2131807839905377,0,0,1.4173673828125,0,0,0.91728
2.214563621004345,0,0,1.2473790649414063,0,0,0.84084
2.215948272991227,0,0,1.2138602416992186,0,0,0.68796
2.217330535000656,0,0,1.2593500732421874,0,0,0.53508
2.2187129269877914,0,0,1.2617442749023438,0,0,1.2994800000000002
2.2200982270005625,0,0,1.3455413330078123,0,0,0.84084
2.2214807859854773,0,0,1.2473790649414063,0,0,1.2994800000000002
2.2228628449956886,0,0,1.6065093139648436,0,0,0.99372
2.2242541259911377,0,0,1.3718775512695311,0,0,0.68796
2.2268697269901168,0,0,1.158793603515625,0,0,0.91728
2.2282684890087694,0,0,1.2018892333984375,0,0,0.84084
2.229642955993768,0,0,1.369483349609375,0,0,0.07644000000000001
2.2310164220107254,0,0,1.4628572143554686,0,0,0.3822
2.2323914250009693,0,0,1.5298948608398437,0,0,0.53508
2.233764559001429,0,0,1.388636962890625,0,0,1.07016
2.235137579991715,0,0,1.1372457885742187,0,0,1.45236
2.236513046984328,0,0,1.1085153686523437,0,0,0.84084
2.2378856430004817,0,0,1.0917559570312498,0,0,0.6115200000000001
2.2392584799963515,0,0,1.3168109130859373,0,0,1.2230400000000001
2.240643167984672,0,0,1.4796166259765624,0,0,0.91728
2.2420259680075105,0,0,1.3670891479492187,0,0,0.91728
2.243408823007485,0,0,1.3958195678710936,0,0,1.07016
2.244792512006825,0,0,1.3766659545898436,0,0,0.53508
2.2461750700022094,0,0,1.1635820068359375,0,0,0.30576000000000003
2.247557555005187,0,0,1.235408056640625,0,0,0.84084
2.248941539990483,0,0,1.0941501586914062,0,0,1.45236
2.2503237659984734,0,0,1.2713210815429687,0,0,0.6115200000000001
2.251707435993012,0,0,1.3575123413085937,0,0,0.30576000000000003
2.2530892720096745,0,0,1.458068811035156,0,0,0.6115200000000001
2.2544892570003867,0,0,1.2737152832031249,0,0,1.07016
2.2558727230061777,0,0,1.4891934326171874,0,0,0.99372
2.2572548929892946,0,0,1.235408056640625,0,0,1.07016
2.2586373969970737,0,0,1.16837041015625,0,0,0.84084
2.2600213999976404,0,0,1.2401964599609374,0,0,0.30576000000000003
2.261403162992792,0,0,1.2904746948242187,0,0,0.3822
2.2627860179927666,0,0,1.465251416015625,0,0,0.68796
2.2641689099837095,0,0,1.4030021728515625,0,0,1.2230400000000001
2.2655515240039676,0,0,1.3359645263671873,0,0,1.07016
2.2669339909916744,0,0,1.2904746948242187,0,0,0.84084
2.268317364010727,0,0,1.1061211669921875,0,0,0.53508
2.2696999789914116,0,0,1.0749965454101562,0,0,0.84084
2.2710823160014115,0,0,1.2856862915039062,0,0,0.7644
2.2724656150094233,0,0,1.2832920898437499,0,0,0.99372
2.273848488985095,0,0,1.4532804077148436,0,0,0.7644
2.2752312700031325,0,0,1.2976572998046874,0,0,0.45864
2.276614050992066,0,0,1.235408056640625,0,0,0.6115200000000001
2.2779966660018545,0,0,1.1420341918945311,0,0,0.53508
2.2793796689948067,0,0,1.1420341918945311,0,0,0.91728
2.2807627279835287,0,0,1.3766659545898436,0,0,0.07644000000000001
2.2821455459925346,0,0,1.2737152832031249,0,0,0.30576000000000003
2.283535752998432,0,0,1.5322890624999999,0,0,0.45864
2.284919181984151,0,0,1.3670891479492187,0,0,0.45864
2.286306870984845,0,0,1.3311761230468748,0,0,0.99372
2.2877115590090398,0,0,1.2617442749023438,0,0,1.07016
2.2890950989967678,0,0,1.3263877197265623,0,0,0.68796
2.290477714006556,0,0,1.2617442749023438,0,0,0.45864
2.2918566619919147,0,0,1.3431471313476562,0,0,0.3822
2.293229609989794,0,0,1.5442600708007812,0,0,0.91728
2.2946044279960915,0,0,1.484405029296875,0,0,1.07016
2.2959827650047373,0,0,1.3215993164062498,0,0,0.84084
2.297364046011353,0,0,1.0414777221679687,0,0,0.68796
2.298737881996203,0,0,1.1109095703125,0,0,0.3822
2.300133626005845,0,0,1.1851298217773436,0,0,0.99372
2.301506852003513,0,0,1.350329736328125,0,0,0.68796
2.302880114992149,0,0,1.2282254516601563,0,0,0.84084
2.304255044000456,0,0,1.4413093994140624,0,0,0.68796
2.30562893601018,0,0,1.1875240234375,0,0,0.53508
2.3070022180036176,0,0,1.3024457031249999,0,0,0.68796
2.3083836099831387,0,0,1.16837041015625,0,0,0.84084
2.309766613005195,0,0,1.2138602416992186,0,0,0.6115200000000001
2.31114911698387,0,0,1.438915197753906,0,0,0.0
2.3125455460103694,0,0,1.3479355346679687,0,0,-9.40212
2.3139311790000647,0,0,1.22583125,0,0,0.30576000000000003
2.3153144039970357,0,0,1.2138602416992186,0,0,0.7644
2.316697889007628,0,0,1.2737152832031249,0,0,1.1465999999999998
2.318072336987825,0,0,1.3311761230468748,0,0,1.1465999999999998
2.3194454509939533,0,0,1.1348515869140625,0,0,0.6115200000000001
2.320829120988492,0,0,1.1228805786132812,0,0,0.53508
2.3222125509928446,0,0,1.2904746948242187,0,0,0.7644
2.3235961839964148,0,0,1.3455413330078123,0,0,0.99372
2.324978482996812,0,0,1.6017209106445311,0,0,0.84084
2.3263616529875435,0,0,1.3862427612304686,0,0,0.6115200000000001
2.327745471993694,0,0,1.2521674682617188,0,0,0.30576000000000003
2.3291274379880633,0,0,1.2306196533203124,0,0,0.91728
2.3305159599985927,0,0,1.0989385620117187,0,0,1.07016
2.3318996480084024,0,0,1.1133037719726562,0,0,0.68796
2.333280613995157,0,0,1.2928688964843749,0,0,0.45864
2.334663487999933,0,0,1.4149731811523436,0,0,0.7644
2.3360474910004996,0,0,1.458068811035156,0,0,0.22932
2.3374291619984433,0,0,1.199495031738281,0,0,0.68796
2.3388134239939973,0,0,1.209071838378906,0,0,0.99372
2.3401971310086083,0,0,1.0989385620117187,0,0,0.7644
2.3415935419907328,0,0,1.2282254516601563,0,0,0.0
2.3429763409949373,0,0,1.2473790649414063,0,0,0.68796
2.344359548005741,0,0,1.4628572143554686,0,0,0.6115200000000001
2.345742014993448,0,0,1.4341267944335936,0,0,0.99372
2.3471245180116966,0,0,1.35990654296875,0,0,1.2230400000000001
2.3485084289859515,0,0,1.2306196533203124,0,0,0.91728
2.349890673009213,0,0,1.2976572998046874,0,0,0.6115200000000001
2.351273231994128,0,0,1.2665326782226562,0,0,0.7644
2.3526557910081465,0,0,1.3048399047851562,0,0,1.1465999999999998
2.3540388499968685,0,0,1.3479355346679687,0,0,0.91728
2.355421630985802,0,0,1.455674609375,0,0,0.99372
2.3568048010056373,0,0,1.3551181396484375,0,0,0.7644
2.3581872299837414,0,0,1.180341418457031,0,0,0.30576000000000003
2.3595836779859383,0,0,1.2138602416992186,0,0,0.84084
2.3609678290085867,0,0,1.1611878051757811,0,0,1.1465999999999998
2.3623502209957223,0,0,1.37906015625,0,0,0.6115200000000001
2.363733798993053,0,0,1.350329736328125,0,0,0.53508
2.3651155609986745,0,0,1.5275006591796874,0,0,0.53508
2.366498416988179,0,0,1.2641384765625,0,0,0.53508
2.3678813459991943,0,0,1.2306196533203124,0,0,0.91728
2.3692640159861185,0,0,1.1635820068359375,0,0,0.99372
2.370646964001935,0,0,1.0821791503906248,0,0,2.2167600000000003
2.372029874008149,0,0,1.369483349609375,0,0,0.0
2.373412618006114,0,0,1.4221557861328125,0,0,0.53508
2.374795602983795,0,0,1.2641384765625,0,0,0.45864
2.376177866011858,0,0,1.2737152832031249,0,0,0.7644
2.3775603320100345,0,0,1.3335703247070312,0,0,1.2994800000000002
2.3789438729872927,0,0,1.2928688964843749,0,0,0.91728
2.380327135004336,0,0,1.1827356201171875,0,0,0.45864
2.3817096760030836,0,0,1.2785036865234374,0,0,0.84084
2.383092456992017,0,0,1.3287819213867187,0,0,0.91728
2.3844835899944883,0,0,1.2521674682617188,0,0,1.07016
2.3858660559926648,0,0,1.5538368774414062,0,0,0.6115200000000001
2.387248669983819,0,0,1.3192051147460937,0,0,0.6115200000000001
2.3886319329903927,0,0,1.3096283081054687,0,0,0.53508
2.3900146769883577,0,0,1.177947216796875,0,0,0.84084
2.3913972539885435,0,0,1.1420341918945311,0,0,0.68796
2.392780127993319,0,0,1.1133037719726562,0,0,0.6115200000000001
2.3941626680025365,0,0,1.2282254516601563,0,0,0.30576000000000003
2.3955451349902432,0,0,1.438915197753906,0,0,0.53508
2.3969280830060598,0,0,1.3311761230468748,0,0,0.7644
2.3983106600062456,0,0,1.2880804931640624,0,0,0.68796
2.3997008849983104,0,0,1.158793603515625,0,0,0.91728
2.401083055010531,0,0,1.177947216796875,0,0,0.45864
2.402465447987197,0,0,1.2569558715820313,0,0,0.53508
2.403849413996795,0,0,1.2497732666015624,0,0,0.6115200000000001
2.4052315469889436,0,0,1.3263877197265623,0,0,0.6115200000000001
2.4066141799848992,0,0,1.5011644409179687,0,0,0.84084
2.40799764599069,0,0,1.4939818359375,0,0,1.2994800000000002
2.4093796309898607,0,0,1.2880804931640624,0,0,0.7644
2.410761931008892,0,0,1.1851298217773436,0,0,0.45864
2.4121451009996235,0,0,1.1180921752929687,0,0,1.45236
2.413528103992576,0,0,1.3096283081054687,0,0,0.91728
2.4149103479867335,0,0,1.2497732666015624,0,0,0.91728
2.4162928329897113,0,0,1.5394716674804687,0,0,0.68796
2.4176754470099695,0,0,1.218648645019531,0,0,-9.24924
2.4190590619982686,0,0,1.1468225952148436,0,0,0.22932
2.4204422869952396,0,0,1.218648645019531,0,0,1.07016
2.4218253279977944,0,0,1.24498486328125,0,0,0.6115200000000001
2.423407533002319,0,0,1.3168109130859373,0,0,0.3822
2.4247922580107115,0,0,1.2473790649414063,0,0,0.30576000000000003
2.426176150009269,0,0,1.4867992309570313,0,0,0.7644
2.427558986993972,0,0,1.2904746948242187,0,0,0.6115200000000001
2.42895502698957,0,0,1.197100830078125,0,0,1.07016
2.43033871598891,0,0,1.218648645019531,0,0,0.91728
2.4317194409959484,0,0,1.199495031738281,0,0,0.91728
2.433092425984796,0,0,1.2593500732421874,0,0,0.0
2.4344658000045456,0,0,1.3646949462890625,0,0,0.53508
2.4358466739940923,0,0,1.3551181396484375,0,0,0.84084
2.4372280109964777,0,0,1.2761094848632812,0,0,0.91728
2.438609754986828,0,0,1.254561669921875,0,0,1.5288
2.4399926839978434,0,0,1.1324573852539062,0,0,0.99372
2.441373576002661,0,0,1.177947216796875,0,0,0.53508
2.4427559500036296,0,0,1.16837041015625,0,0,0.68796
2.4441379350028,0,0,1.3383587280273437,0,0,1.1465999999999998
2.4455198089999612,0,0,1.3718775512695311,0,0,1.1465999999999998
2.4469015339855105,0,0,1.3814543579101561,0,0,1.07016
2.448283834004542,0,0,1.2952630981445312,0,0,0.53508
2.4496656889969017,0,0,1.3120225097656248,0,0,0.30576000000000003
2.4510469519882463,0,0,1.1372457885742187,0,0,0.6115200000000001
2.452428491989849,0,0,1.1755530151367186,0,0,0.99372
2.4538089770067018,0,0,1.2808978881835937,0,0,0.91728
2.455807177000679,0,0,1.3646949462890625,0,0,0.6115200000000001
2.4572729019855615,0,0,1.4413093994140624,0,0,0.84084
2.458707312005572,0,0,1.1133037719726562,0,0,0.91728
2.4601011670019943,0,0,1.1635820068359375,0,0,0.53508
2.46148809598526,0,0,1.2928688964843749,0,0,0.53508
2.462874691991601,0,0,1.0965443603515623,0,0,1.07016
2.464259806991322,0,0,1.3551181396484375,0,0,0.6115200000000001
2.4656437909870874,0,0,1.3575123413085937,0,0,0.22932
2.4670281279832125,0,0,1.5011644409179687,0,0,0.91728
2.4684315389895346,0,0,1.24498486328125,0,0,0.53508
2.469819411984645,0,0,1.1851298217773436,0,0,0.6115200000000001
2.4712067490036134,0,0,1.2689268798828124,0,0,0.91728
2.4726016960048582,0,0,1.3551181396484375,0,0,0.6115200000000001
2.473988865996944,0,0,1.2713210815429687,0,0,0.0
2.475376554997638,0,0,1.3192051147460937,0,0,0.3822
2.4767639839847106,0,0,1.4772224243164063,0,0,0.45864
2.4781500060053077,0,0,1.3311761230468748,0,0,0.99372
2.4795363979937974,0,0,1.2497732666015624,0,0,1.37592
2.4809223269985523,0,0,1.16837041015625,0,0,0.91728
2.4823080899950583,0,0,1.1468225952148436,0,0,0.68796
2.483694555994589,0,0,1.235408056640625,0,0,0.6115200000000001
2.485079540987499,0,0,1.388636962890625,0,0,0.91728
2.4864853220060468,0,0,1.3192051147460937,0,0,0.6115200000000001
2.4878780659928452,0,0,1.3263877197265623,0,0,0.84084
2.489264383999398,0,0,1.3263877197265623,0,0,0.7644
2.490650238993112,0,0,1.1228805786132812,0,0,0.6115200000000001
2.4920412240026053,0,0,1.1420341918945311,0,0,0.53508
2.493427042005351,0,0,1.1851298217773436,0,0,1.2230400000000001
2.4948175080062356,0,0,1.3623007446289062,0,0,0.53508
2.4962095860100817,0,0,1.2928688964843749,0,0,0.99372
2.497595293010818,0,0,1.5203180541992187,0,0,0.91728
2.4989812590065412,0,0,1.3048399047851562,0,0,0.6115200000000001
2.5003676319902297,0,0,1.3575123413085937,0,0,0.99372
2.501753579999786,0,0,1.1109095703125,0,0,0.91728
2.5031703420099802,0,0,1.2330138549804688,0,0,0.84084
2.504559752997011,0,0,1.254561669921875,0,0,0.3822
2.5059466079983395,0,0,1.369483349609375,0,0,0.30576000000000003
2.5073334260086995,0,0,1.448492004394531,0,0,0.6115200000000001
2.5087195039959624,0,0,1.3814543579101561,0,0,0.7644
2.5101051369856577,0,0,1.2737152832031249,0,0,1.2230400000000001
2.5114919359912165,0,0,1.20667763671875,0,0,1.07016
2.5128841059922706,0,0,1.1611878051757811,0,0,0.3822
2.5142702760058455,0,0,1.254561669921875,0,0,0.84084
2.515656742005376,0,0,1.4508862060546874,0,0,0.53508
2.5170658380084205,0,0,1.4820108276367188,0,0,0.84084
2.518451712006936,0,0,1.5035586425781249,0,0,0.84084
2.5198391219892073,0,0,1.3215993164062498,0,0,0.68796
2.5212242919951677,0,0,1.209071838378906,0,0,0.6115200000000001
2.522617517999606,0,0,1.1228805786132812,0,0,0.45864
2.5240047799889,0,0,1.2785036865234374,0,0,1.1465999999999998
2.5254103759943973,0,0,1.388636962890625,0,0,1.07016
2.5267981569922995,0,0,1.4006079711914061,0,0,0.91728
2.5281858459929936,0,0,1.5634136840820312,0,0,0.7644
2.5295721080037765,0,0,1.1372457885742187,0,0,0.45864
2.530958482006099,0,0,1.2665326782226562,0,0,0.30576000000000003
2.532344726001611,0,0,1.2641384765625,0,0,0.6115200000000001
2.5337303960113786,0,0,1.3024457031249999,0,0,0.91728
2.535115881008096,0,0,1.3359645263671873,0,0,0.30576000000000003
2.536501328984741,0,0,1.4891934326171874,0,0,0.3822
2.537887423997745,0,0,1.6304513305664061,0,0,0.45864
2.539272964990232,0,0,1.2689268798828124,0,0,0.68796
2.540659041987965,0,0,1.209071838378906,0,0,1.1465999999999998
2.542044842004543,0,0,1.1133037719726562,0,0,1.07016
2.5434305669914465,0,0,1.1516109985351561,0,0,0.6115200000000001
2.5448171999887563,0,0,1.2761094848632812,0,0,1.1465999999999998
2.54620335198706,0,0,1.3263877197265623,0,0,0.84084
2.5476248179911636,0,0,1.2401964599609374,0,0,1.07016
2.549015358003089,0,0,1.2904746948242187,0,0,0.7644
2.5504018609935883,0,0,1.2689268798828124,0,0,0.99372
2.551789363991702,0,0,1.2473790649414063,0,0,0.68796
2.5531739970028866,0,0,1.2401964599609374,0,0,0.45864
2.554559723008424,0,0,1.1228805786132812,0,0,1.2994800000000002
2.5559466340055224,0,0,1.369483349609375,0,0,1.2994800000000002
2.5573311549960636,0,0,1.2928688964843749,0,0,0.7644
2.558716954983538,0,0,1.5849614990234373,0,0,0.45864
2.560123142990051,0,0,1.2761094848632812,0,0,0.7644
2.5615131100057624,0,0,1.2832920898437499,0,0,0.6115200000000001
2.5629000019980595,0,0,1.1109095703125,0,0,0.7644
2.564284783002222,0,0,1.139639990234375,0,0,0.91728
2.5656683600100223,0,0,1.4532804077148436,0,0,0.3822
2.5670549559872597,0,0,1.4796166259765624,0,0,0.45864
2.5684575329942163,0,0,1.649604943847656,0,0,0.45864
2.569845258985879,0,0,1.3383587280273437,0,0,0.53508
2.5712322809849866,0,0,1.350329736328125,0,0,1.1465999999999998
2.572619209997356,0,0,1.0797849487304687,0,0,0.91728
2.574005564994877,0,0,1.1180921752929687,0,0,0.7644
2.5754033089906443,0,0,1.3263877197265623,0,0,0.22932
2.576790811988758,0,0,1.3814543579101561,0,0,0.53508
2.5781777229858562,0,0,1.4604630126953124,0,0,0.84084
2.5795647079939954,0,0,1.5442600708007812,0,0,1.07016
2.580965859000571,0,0,1.3096283081054687,0,0,1.37592
2.5823524550069124,0,0,1.2497732666015624,0,0,0.53508
2.583740031986963,0,0,1.22583125,0,0,0.0
2.5851258499897085,0,0,1.2785036865234374,0,0,1.2994800000000002
2.586512317007873,0,0,1.2880804931640624,0,0,0.91728
2.5879210229904857,0,0,1.2234370483398436,0,0,0.7644
2.5893087860022206,0,0,1.5849614990234373,0,0,0.99372
2.590696086001117,0,0,1.2832920898437499,0,0,0.45864
2.592084014991997,0,0,1.2378022583007813,0,0,0.6115200000000001
2.5934700740035623,0,0,1.1276689819335937,0,0,0.91728
2.5948564099962823,0,0,1.1540052001953125,0,0,0.91728
2.5962449320068117,0,0,1.2928688964843749,0,0,0.0
2.597632397984853,0,0,1.22583125,0,0,0.45864
2.5990186980052385,0,0,1.5801730957031248,0,0,0.7644
2.60040529401158,0,0,1.2904746948242187,0,0,0.6115200000000001
2.6017918160068803,0,0,1.2330138549804688,0,0,1.2230400000000001
2.603177837008843,0,0,1.1276689819335937,0,0,0.99372
2.604585525987204,0,0,1.3455413330078123,0,0,0.6115200000000001
2.6060372880019713,0,0,1.3072341064453123,0,0,0.30576000000000003
2.6074253830011003,0,0,1.5131354492187499,0,0,0.3822
2.6088124419911765,0,0,1.4125789794921875,0,0,0.6115200000000001
2.610198909009341,0,0,1.3646949462890625,0,0,0.84084
2.611586985993199,0,0,1.2928688964843749,0,0,1.1465999999999998
2.612973859999329,0,0,1.158793603515625,0,0,0.68796
2.6143650480080396,0,0,1.1540052001953125,0,0,0.53508
2.6157525879971217,0,0,1.2880804931640624,0,0,1.2994800000000002
2.6171384059998672,0,0,1.3479355346679687,0,0,0.68796
2.618525817000773,0,0,1.3359645263671873,0,0,0.91728
2.6199123759870417,0,0,1.438915197753906,0,0,0.99372
2.621298971993383,0,0,1.2713210815429687,0,0,0.3822
2.622685715992702,0,0,1.199495031738281,0,0,0.7644
2.624070201010909,0,0,1.22583125,0,0,0.91728
2.625447592989076,0,0,1.3120225097656248,0,0,0.68796
2.6268259299977217,0,0,1.3144167114257812,0,0,0.30576000000000003
2.6294687160116155,0,0,1.3383587280273437,0,0,0.3822
2.6308554410061333,0,0,1.3144167114257812,0,0,0.68796
2.6322419630014338,0,0,1.3575123413085937,0,0,1.07016
2.633627928997157,0,0,1.3455413330078123,0,0,1.1465999999999998
2.6350380619987845,0,0,1.1659762084960936,0,0,0.68796
2.636469027987914,0,0,1.2018892333984375,0,0,0.3822
2.6378604380006436,0,0,1.35990654296875,0,0,-9.09636
2.6392494419997092,0,0,1.2425906616210938,0,0,0.7644
2.6406361300032586,0,0,1.6041151123046875,0,0,0.84084
2.642021856008796,0,0,1.438915197753906,0,0,1.07016
2.6434072850097436,0,0,1.3168109130859373,0,0,0.53508
2.6447932879964355,0,0,1.1420341918945311,0,0,0.3822
2.6461787539883517,0,0,1.2880804931640624,0,0,1.2230400000000001
2.647564387007151,0,0,1.3766659545898436,0,0,0.84084
2.648965815984411,0,0,1.3096283081054687,0,0,0.99372
2.6503528940083925,0,0,1.4724340209960938,0,0,0.91728
2.651738638000097,0,0,1.3072341064453123,0,0,0.3822
2.6531248259998392,0,0,1.2689268798828124,0,0,0.45864
2.6545106440025847,0,0,1.1348515869140625,0,0,0.99372
2.655896980984835,0,0,1.1109095703125,0,0,0.53508
2.6572824099857826,0,0,1.3646949462890625,0,0,0.30576000000000003
2.658667765004793,0,0,1.3311761230468748,0,0,0.45864
2.6600542689848226,0,0,1.5179238525390624,0,0,0.7644
2.6614397910016123,0,0,1.4413093994140624,0,0,0.7644
2.6628256640105974,0,0,1.2425906616210938,0,0,1.2994800000000002
2.664210444985656,0,0,1.0917559570312498,0,0,1.07016
2.6655946520040743,0,0,1.3551181396484375,0,0,0.68796
2.6669784339901526,0,0,1.2952630981445312,0,0,0.3822
2.668378289003158,0,0,1.3910311645507811,0,0,0.99372
2.6697654029994737,0,0,1.47482822265625,0,0,0.68796
2.67115111000021,0,0,1.446097802734375,0,0,1.1465999999999998
2.672537539008772,0,0,1.0773907470703123,0,0,0.6115200000000001
2.6739235050044954,0,0,1.1827356201171875,0,0,0.68796
2.6753088609839324,0,0,1.3144167114257812,0,0,0.53508
2.676694678986678,0,0,1.2689268798828124,0,0,1.1465999999999998
2.6780801639833953,0,0,1.3359645263671873,0,0,-9.01992
2.6794665369961876,0,0,1.2569558715820313,0,0,1.1465999999999998
2.680852596007753,0,0,1.455674609375,0,0,0.7644
2.6822440440009814,0,0,1.3431471313476562,0,0,0.22932
2.6836440280021634,0,0,1.2928688964843749,0,0,0.68796
2.6850298089848366,0,0,1.3096283081054687,0,0,0.68796
2.686418478988344,0,0,1.2713210815429687,0,0,0.7644
2.6878154639853165,0,0,1.3527239379882812,0,0,0.07644000000000001
2.689199115993688,0,0,1.369483349609375,0,0,0.53508
2.6905851000046823,0,0,1.2832920898437499,0,0,0.22932
2.6919713630049955,0,0,1.2880804931640624,0,0,0.53508
2.693377347983187,0,0,1.3551181396484375,0,0,0.99372
2.6947660539881326,0,0,1.1324573852539062,0,0,1.1465999999999998
2.696153780008899,0,0,1.1875240234375,0,0,0.84084
2.697539449989563,0,0,1.3239935180664062,0,0,-9.172799999999999
2.698926601005951,0,0,1.3239935180664062,0,0,0.68796
2.700312845001463,0,0,1.22583125,0,0,1.07016
2.701698552002199,0,0,1.3120225097656248,0,0,0.68796
2.703084073989885,0,0,1.3455413330078123,0,0,1.07016
2.7044709479960147,0,0,1.2689268798828124,0,0,0.91728
2.705868618009845,0,0,1.1635820068359375,0,0,0.6115200000000001
2.7073471570038237,0,0,1.1156979736328125,0,0,0.68796
2.708767400996294,0,0,1.3215993164062498,0,0,0.99372
2.710154867003439,0,0,1.1180921752929687,0,0,0.99372
2.711540555988904,0,0,1.3814543579101561,0,0,1.07016
2.7129265590047,0,0,1.24498486328125,0,0,0.84084
2.7143118029925972,0,0,1.3144167114257812,0,0,0.30576000000000003
2.7156981400039513,0,0,1.3144167114257812,0,0,1.07016
2.717082994990051,0,0,1.2401964599609374,0,0,1.37592
2.7184688310080674,0,0,1.2569558715820313,0,0,0.3822
2.719855056988308,0,0,1.3024457031249999,0,0,0.45864
2.7212398379924707,0,0,1.3910311645507811,0,0,0.6115200000000001
2.7227550070092548,0,0,1.2114660400390624,0,0,0.45864
2.724143047002144,0,0,1.3766659545898436,0,0,0.91728
2.7255297169904225,0,0,1.216254443359375,0,0,0.68796
2.7269182940071914,0,0,1.1635820068359375,0,0,0.84084
2.7283047050004825,0,0,1.24498486328125,0,0,0.07644000000000001
2.7296902269881684,0,0,1.3192051147460937,0,0,0.30576000000000003
2.731075988995144,0,0,1.426944189453125,0,0,0.68796
2.7324619370047003,0,0,1.3814543579101561,0,0,0.84084
2.7338479770114645,0,0,1.369483349609375,0,0,1.2994800000000002
2.735233776998939,0,0,1.1947066284179686,0,0,0.99372
2.736654390988406,0,0,1.1013327636718748,0,0,0.3822
2.7380412649945356,0,0,1.2282254516601563,0,0,0.68796
2.7394268790085334,0,0,1.3407529296874998,0,0,0.68796
2.740814030985348,0,0,1.3910311645507811,0,0,0.99372
2.7421998489880934,0,0,1.4867992309570313,0,0,0.53508
2.7435867410094943,0,0,1.2880804931640624,0,0,0.68796
2.7449723549943883,0,0,1.235408056640625,0,0,0.7644
2.746357691998128,0,0,1.1516109985351561,0,0,0.84084
2.7477443059906363,0,0,1.2928688964843749,0,0,0.68796
2.749128791008843,0,0,1.3120225097656248,0,0,0.30576000000000003
2.750513590988703,0,0,1.3718775512695311,0,0,0.7644
2.751910371996928,0,0,1.5298948608398437,0,0,0.7644
2.7533332640014123,0,0,1.3096283081054687,0,0,0.53508
2.7547341370081995,0,0,1.2114660400390624,0,0,0.7644
2.756120511010522,0,0,1.1635820068359375,0,0,0.6115200000000001
2.7575064210104756,0,0,1.1923124267578125,0,0,0.84084
2.7588920170092024,0,0,1.2665326782226562,0,0,0.07644000000000001
2.7602808169904165,0,0,1.2401964599609374,0,0,0.45864
2.761666634993162,0,0,1.608903515625,0,0,0.68796
2.763052656984655,0,0,1.369483349609375,0,0,0.91728
2.764437067991821,0,0,1.2378022583007813,0,0,1.2994800000000002
2.76582092299941,0,0,1.139639990234375,0,0,0.91728
2.7672049819957465,0,0,1.35990654296875,0,0,0.30576000000000003
2.7686353730096016,0,0,1.4030021728515625,0,0,0.53508
2.7700223769934382,0,0,1.388636962890625,0,0,0.7644
2.771413084003143,0,0,1.2569558715820313,0,0,0.91728
2.7727982540091034,0,0,1.3646949462890625,0,0,0.91728
2.7741835530032404,0,0,1.3024457031249999,0,0,0.7644
2.7755903899960686,0,0,1.1013327636718748,0,0,0.3822
2.776977486006217,0,0,1.20667763671875,0,0,0.53508
2.7783627299941145,0,0,1.149216796875,0,0,1.2230400000000001
2.779748936998658,0,0,1.4245499877929686,0,0,0.84084
2.7811501800024416,0,0,1.2928688964843749,0,0,0.91728
2.782536868995521,0,0,1.407790576171875,0,0,0.68796
2.7839234090060927,0,0,1.218648645019531,0,0,0.6115200000000001
2.785308060992975,0,0,1.4413093994140624,0,0,0.7644
2.7866931750031654,0,0,1.1133037719726562,0,0,0.99372
2.788079566991655,0,0,1.2042834350585936,0,0,0.84084
2.789464997011237,0,0,1.0773907470703123,0,0,0.07644000000000001
2.7908504259830806,0,0,1.3958195678710936,0,0,0.3822
2.7922360220109113,0,0,1.6328455322265625,0,0,0.6115200000000001
2.7936216729867738,0,0,1.2737152832031249,0,0,0.84084
2.795006972999545,0,0,1.39821376953125,0,0,1.37592
2.7963923089846503,0,0,1.0917559570312498,0,0,0.84084
2.7977778679924086,0,0,0.9888052856445312,0,0,0.45864
2.7991630570031703,0,0,1.3192051147460937,0,0,0.30576000000000003
2.8005487640039064,0,0,1.4341267944335936,0,0,0.7644
2.8019365450018086,0,0,1.388636962890625,0,0,1.1465999999999998
2.8033463069878053,0,0,1.4628572143554686,0,0,0.84084
2.8047340879857074,0,0,1.3000515014648437,0,0,1.2230400000000001
2.806120535999071,0,0,1.2785036865234374,0,0,0.6115200000000001
2.8075066870078444,0,0,1.2401964599609374,0,0,0.53508
2.8088922649913,0,0,1.2904746948242187,0,0,1.1465999999999998
2.8103001010022126,0,0,1.3718775512695311,0,0,0.6115200000000001
2.81170073398971,0,0,1.2713210815429687,0,0,0.68796
2.8130886259896215,0,0,1.4413093994140624,0,0,0.68796
2.8144740739953704,0,0,1.4101847778320311,0,0,0.53508
2.815860300004715,0,0,1.3144167114257812,0,0,0.7644
2.81724463601131,0,0,1.1516109985351561,0,0,0.99372
2.818630658002803,0,0,1.0558429321289062,0,0,0.68796
2.820016271987697,0,0,1.3335703247070312,0,0,0.07644000000000001
2.821401313005481,0,0,1.4867992309570313,0,0,0.45864
2.8227868719841354,0,0,1.5538368774414062,0,0,0.7644
2.8241797820082866,0,0,1.4149731811523436,0,0,0.91728
2.825565970997559,0,0,1.2018892333984375,0,0,1.2230400000000001
2.826951269991696,0,0,1.1180921752929687,0,0,1.07016
2.828336810984183,0,0,1.3096283081054687,0,0,0.68796
2.829721961985342,0,0,1.3455413330078123,0,0,0.22932
2.831107465986861,0,0,1.3814543579101561,0,0,1.07016
2.8324936910066754,0,0,1.5945383056640625,0,0,0.6115200000000001
2.833878860983532,0,0,1.5251064575195312,0,0,0.45864
2.8352644380065612,0,0,1.22583125,0,0,1.1465999999999998
2.8366497379902285,0,0,1.1755530151367186,0,0,0.3822
2.838035407999996,0,0,1.1372457885742187,0,0,0.53508
2.83942126299371,0,0,1.2976572998046874,0,0,0.99372
2.8408072289894335,0,0,1.3646949462890625,0,0,0.99372
2.8421924730064347,0,0,1.2880804931640624,0,0,0.6115200000000001
2.843608809984289,0,0,1.5586252807617187,0,0,0.91728
2.8450222389947157,0,0,1.1755530151367186,0,0,0.53508
2.846408260986209,0,0,1.2713210815429687,0,0,0.53508
2.8477955049893353,0,0,1.1659762084960936,0,0,0.7644
2.8491849710117094,0,0,1.0773907470703123,0,0,0.6115200000000001
2.850570621987572,0,0,1.3431471313476562,0,0,0.07644000000000001
2.851957365986891,0,0,1.350329736328125,0,0,0.6115200000000001
2.8533430359966587,0,0,1.438915197753906,0,0,0.45864
2.8547287989931647,0,0,1.3838485595703125,0,0,0.84084
2.856114764988888,0,0,1.3120225097656248,0,0,1.2994800000000002
2.8575005829916336,0,0,1.0893617553710937,0,0,1.07016
2.858885938010644,0,0,1.1444283935546875,0,0,0.91728
2.860271904995898,0,0,1.350329736328125,0,0,0.99372
2.8616574819898233,0,0,1.3958195678710936,0,0,0.91728
2.863042521988973,0,0,1.2306196533203124,0,0,0.30576000000000003
2.864480229007313,0,0,1.3814543579101561,0,0,0.84084
2.865879251010483,0,0,1.3359645263671873,0,0,0.91728
2.8672642539895605,0,0,1.2737152832031249,0,0,0.7644
2.8686856089916546,0,0,1.2018892333984375,0,0,0.45864
2.87007455600542,0,0,1.1133037719726562,0,0,0.91728
2.871461559989257,0,0,1.388636962890625,0,0,0.91728
2.8728485069877934,0,0,1.3670891479492187,0,0,1.2230400000000001
2.874235139985103,0,0,1.4125789794921875,0,0,0.53508
2.8756396250100806,0,0,1.2713210815429687,0,0,0.53508
2.8770272019901313,0,0,1.3623007446289062,0,0,0.53508
2.8784135569876526,0,0,1.2042834350585936,0,0,0.84084
2.879797856992809,0,0,1.2234370483398436,0,0,0.84084
2.881175563990837,0,0,1.2521674682617188,0,0,0.53508
2.882554253010312,0,0,1.2904746948242187,0,0,0.91728
2.8851974270073697,0,0,1.446097802734375,0,0,0.7644
2.886595968011534,0,0,1.2976572998046874,0,0,1.2994800000000002
2.8879853039979935,0,0,1.0749965454101562,0,0,1.07016
2.889369270997122,0,0,1.1707646118164061,0,0,0.53508
2.8907549399882555,0,0,1.24498486328125,0,0,0.91728
2.8921411850024015,0,0,1.4053963745117186,0,0,0.91728
2.8935268729983363,0,0,1.4820108276367188,0,0,1.07016
2.8949142649944406,0,0,1.455674609375,0,0,1.1465999999999998
2.896305267990101,0,0,1.199495031738281,0,0,0.84084
2.897691124002449,0,0,1.0941501586914062,0,0,0.22932
2.899076626985334,0,0,1.0773907470703123,0,0,0.53508
2.9004621490021236,0,0,1.2641384765625,0,0,1.2230400000000001
2.901847411005292,0,0,1.3431471313476562,0,0,0.6115200000000001
2.9032329519977793,0,0,1.24498486328125,0,0,0.91728
2.904619435983477,0,0,1.5418658691406248,0,0,0.53508
2.9061108279856853,0,0,1.3000515014648437,0,0,0.68796
2.9075016459973995,0,0,1.216254443359375,0,0,0.30576000000000003
2.9088879080081824,0,0,1.1827356201171875,0,0,0.84084
2.910273077985039,0,0,1.1037269653320312,0,0,0.6115200000000001
2.9116589890036266,0,0,1.3192051147460937,0,0,0.15288000000000002
2.913061047991505,0,0,1.3311761230468748,0,0,0.30576000000000003
2.9144471059844363,0,0,1.6328455322265625,0,0,0.84084
2.915832701983163,0,0,1.407790576171875,0,0,0.91728
2.91721872400376,0,0,1.2808978881835937,0,0,0.91728
2.9186038199986797,0,0,1.1037269653320312,0,0,1.1465999999999998
2.9199900460080244,0,0,1.218648645019531,0,0,0.68796
2.921374141005799,0,0,1.3862427612304686,0,0,0.84084
2.92275920000975,0,0,1.4149731811523436,0,0,0.45864
2.924145036988193,0,0,1.1947066284179686,0,0,0.7644
2.9255307629937306,0,0,1.2737152832031249,0,0,0.68796
2.926916358002927,0,0,1.2713210815429687,0,0,1.2230400000000001
2.928308269008994,0,0,1.1061211669921875,0,0,0.84084
2.9297063279955182,0,0,1.2138602416992186,0,0,0.68796
2.931094016006682,0,0,1.1635820068359375,0,0,0.84084
2.932480185991153,0,0,1.2856862915039062,0,0,1.07016
2.9338661530055106,0,0,1.218648645019531,0,0,0.84084
2.935251971008256,0,0,1.4987702392578124,0,0,0.91728
2.9366375299869105,0,0,1.2210428466796874,0,0,0.7644
2.9380227740039118,0,0,1.3239935180664062,0,0,0.3822
2.939408239995828,0,0,1.3072341064453123,0,0,0.91728
2.9407939839875326,0,0,1.158793603515625,0,0,0.84084
2.942179228004534,0,0,1.2330138549804688,0,0,0.0
2.9435649160004687,0,0,1.3527239379882812,0,0,0.3822
2.944972067984054,0,0,1.426944189453125,0,0,0.91728
2.9463578120048624,0,0,1.2689268798828124,0,0,0.84084
2.947744278004393,0,0,1.2976572998046874,0,0,1.2230400000000001
2.9491289849975146,0,0,1.1324573852539062,0,0,0.7644
2.9505144139984623,0,0,1.2497732666015624,0,0,0.6115200000000001
2.951900954998564,0,0,1.2713210815429687,0,0,0.68796
2.9532857360027265,0,0,1.3431471313476562,0,0,0.68796
2.954671071987832,0,0,1.3168109130859373,0,0,1.07016
2.9560578530072235,0,0,1.5035586425781249,0,0,1.07016
2.957489949010778,0,0,1.2952630981445312,0,0,1.07016
2.9589444139855914,0,0,1.3144167114257812,0,0,-9.47856
2.9603469730063807,0,0,1.0893617553710937,0,0,0.68796
2.9617388469923753,0,0,1.2114660400390624,0,0,0.91728
2.963125720008975,0,0,1.120486376953125,0,0,0.7644
2.9645112050056923,0,0,1.3192051147460937,0,0,0.84084
2.9658946899871808,0,0,1.4700398193359374,0,0,0.84084
2.967278100986732,0,0,1.3287819213867187,0,0,0.68796
2.9686801219941117,0,0,1.2761094848632812,0,0,0.7644
2.970067365997238,0,0,1.3335703247070312,0,0,0.7644
2.9715199240017682,0,0,1.197100830078125,0,0,0.68796
2.972908149997238,0,0,1.2473790649414063,0,0,0.15288000000000002
2.974294004990952,0,0,1.2904746948242187,0,0,0.7644
2.9756981559912674,0,0,1.6017209106445311,0,0,0.7644
2.977083992998814,0,0,1.37906015625,0,0,0.99372
2.97846975599532,0,0,1.3335703247070312,0,0,0.68796
2.9798566850076895,0,0,1.2952630981445312,0,0,0.99372
2.981240909983171,0,0,1.2425906616210938,0,0,0.7644
2.9826263209979516,0,0,1.35990654296875,0,0,0.15288000000000002
2.984012601984432,0,0,1.350329736328125,0,0,0.15288000000000002
2.985397271986585,0,0,1.4604630126953124,0,0,0.45864
2.986802033992717,0,0,1.3335703247070312,0,0,0.91728
2.9881887969968375,0,0,1.2785036865234374,0,0,0.91728
2.9895748189883307,0,0,1.1276689819335937,0,0,0.84084
2.990960563009139,0,0,1.1731588134765625,0,0,0.7644
2.9923462879960425,0,0,1.3192051147460937,0,0,0.91728
2.993731920985738,0,0,1.3862427612304686,0,0,0.84084
2.995117387996288,0,0,1.3766659545898436,0,0,0.91728
2.9965047799923923,0,0,1.5418658691406248,0,0,0.68796
2.9978901720023714,0,0,1.350329736328125,0,0,0.3822
2.999275768001098,0,0,1.1923124267578125,0,0,0.53508
3.0006693080067635,0,0,1.24498486328125,0,0,0.68796
3.002055051998468,0,0,1.1827356201171875,0,0,0.68796
3.003440406988375,0,0,1.3958195678710936,0,0,0.84084
3.0048260589828715,0,0,1.4437036010742186,0,0,0.6115200000000001
3.006211469997652,0,0,1.5179238525390624,0,0,0.45864
3.007602047000546,0,0,1.2761094848632812,0,0,0.6115200000000001
3.0089876799902413,0,0,1.3718775512695311,0,0,0.68796
3.010373202007031,0,0,1.218648645019531,0,0,0.7644
3.0117593350005336,0,0,1.2306196533203124,0,0,0.7644
3.0131442270067055,0,0,1.2497732666015624,0,0,0.53508
3.0145297489943914,0,0,1.3287819213867187,0,0,0.6115200000000001
3.015916270989692,0,0,1.3383587280273437,0,0,0.7644
3.0173017740016803,0,0,1.3048399047851562,0,0,0.68796
3.018687609990593,0,0,1.2521674682617188,0,0,1.1465999999999998
3.020074094994925,0,0,1.2018892333984375,0,0,0.91728
3.0214598210004624,0,0,1.199495031738281,0,0,0.68796
3.022872119996464,0,0,1.3000515014648437,0,0,1.1465999999999998
3.0242603640072048,0,0,1.3551181396484375,0,0,0.84084
3.025646571011748,0,0,1.3192051147460937,0,0,0.91728
3.0270322779833805,0,0,1.6519991455078125,0,0,0.84084
3.0284184479969554,0,0,1.2785036865234374,0,0,0.99372
3.029804026009515,0,0,1.3455413330078123,0,0,0.53508
3.031190047011478,0,0,1.2521674682617188,0,0,0.91728
3.032575827994151,0,0,1.1635820068359375,0,0,0.6115200000000001
3.0339617209974676,0,0,1.2282254516601563,0,0,0.53508
3.0353470940026455,0,0,1.3431471313476562,0,0,0.45864
3.0367339680087753,0,0,1.5490484741210937,0,0,0.68796
3.0381194340006914,0,0,1.2306196533203124,0,0,0.84084
3.039504771004431,0,0,1.37906015625,0,0,1.07016
3.040891256008763,0,0,1.2138602416992186,0,0,1.1465999999999998
3.0422764999966603,0,0,1.139639990234375,0,0,0.6115200000000001
3.043662243988365,0,0,1.2808978881835937,0,0,0.22932
3.045070135995047,0,0,1.4341267944335936,0,0,0.53508
3.0464558429957833,0,0,1.4413093994140624,0,0,0.7644
3.047842161002336,0,0,1.2713210815429687,0,0,0.91728
3.0492269980022684,0,0,1.3623007446289062,0,0,1.2994800000000002
3.050612741993973,0,0,1.2282254516601563,0,0,0.53508
3.051998856011778,0,0,1.3120225097656248,0,0,0.3822
3.053383896010928,0,0,1.24498486328125,0,0,1.2994800000000002
3.054769417998614,0,0,1.465251416015625,0,0,1.2230400000000001
3.056154550984502,0,0,1.458068811035156,0,0,1.07016
3.0575397580105346,0,0,1.5729904907226562,0,0,0.7644
3.0589252979843877,0,0,1.2114660400390624,0,0,0.84084
3.060310394008411,0,0,1.22583125,0,0,0.53508
3.061696157004917,0,0,1.2880804931640624,0,0,0.53508
3.0630822709936183,0,0,1.1348515869140625,0,0,0.7644
3.0644667930027936,0,0,1.3742717529296875,0,0,0.53508
3.065853870997671,0,0,1.3311761230468748,0,0,0.15288000000000002
3.0672380960022565,0,0,1.5442600708007812,0,0,0.68796
3.068636025011074,0,0,1.2808978881835937,0,0,0.6115200000000001
3.0700222690065857,0,0,1.2832920898437499,0,0,0.84084
3.0714084949868266,0,0,1.1563994018554686,0,0,1.2230400000000001
3.0727940909855533,0,0,1.0726023437499999,0,0,0.68796
3.074179446004564,0,0,1.3575123413085937,0,0,0.0
3.0755648009944707,0,0,1.3311761230468748,0,0,0.6115200000000001
3.076967433997197,0,0,1.2689268798828124,0,0,0.68796
3.078353029995924,0,0,1.2521674682617188,0,0,0.99372
3.079740088986,0,0,1.180341418457031,0,0,1.2230400000000001
3.081124683987582,0,0,1.1755530151367186,0,0,0.68796
3.0825099470093846,0,0,1.2761094848632812,0,0,0.6115200000000001
3.083896394993644,0,0,1.1180921752929687,0,0,0.68796
3.085281509003835,0,0,1.3455413330078123,0,0,1.5288
3.086669604992494,0,0,1.2713210815429687,0,0,0.84084
3.088070052996045,0,0,1.5562310791015623,0,0,0.68796
3.089462536998326,0,0,1.2210428466796874,0,0,0.84084
3.090848152001854,0,0,1.350329736328125,0,0,0.6115200000000001
3.092233506991761,0,0,1.254561669921875,0,0,0.84084
3.0936188439955004,0,0,1.199495031738281,0,0,1.07016
3.095005957991816,0,0,1.2665326782226562,0,0,0.68796
3.09639340598369,0,0,1.3144167114257812,0,0,0.6115200000000001
3.097781502001453,0,0,1.35990654296875,0,0,0.3822
3.0991671349911485,0,0,1.149216796875,0,0,0.7644
3.100552952993894,0,0,1.3311761230468748,0,0,0.99372
3.1020946399949025,0,0,1.1540052001953125,0,0,0.91728
3.103498809010489,0,0,1.1180921752929687,0,0,0.68796
3.104886590008391,0,0,1.2330138549804688,0,0,0.30576000000000003
3.1062725379888434,0,0,1.3144167114257812,0,0,0.53508
3.1076585779956076,0,0,1.2952630981445312,0,0,0.45864
3.1090448040049523,0,0,1.5011644409179687,0,0,0.45864
3.1104303629836068,0,0,1.3862427612304686,0,0,1.2230400000000001
3.111817274009809,0,0,1.2497732666015624,0,0,1.07016
3.1132016099873,0,0,1.22583125,0,0,0.53508
3.1145875210058875,0,0,1.2569558715820313,0,0,0.91728
3.1159737829875667,0,0,1.3766659545898436,0,0,0.84084
3.1173587499943096,0,0,1.3072341064453123,0,0,1.2230400000000001
3.1187446049880236,0,0,1.4820108276367188,0,0,0.7644
3.1201302749977913,0,0,1.3934253662109375,0,0,0.91728
3.121515629987698,0,0,1.2665326782226562,0,0,0.3822
3.1229016149882227,0,0,1.0869675537109373,0,0,0.45864
3.124287821992766,0,0,1.2856862915039062,0,0,0.91728
3.1256732330075465,0,0,1.35990654296875,0,0,0.45864
3.1270591430075,0,0,1.35990654296875,0,0,0.7644
3.1284453499829397,0,0,1.5897499023437498,0,0,0.6115200000000001
3.1298311309947167,0,0,1.2569558715820313,0,0,0.68796
3.1312168939912226,0,0,1.1420341918945311,0,0,1.07016
3.1326097490091342,0,0,1.1133037719726562,0,0,0.6115200000000001
3.1339954379945993,0,0,1.1755530151367186,0,0,0.53508
3.1353816819901112,0,0,1.3000515014648437,0,0,0.3822
3.136767702992074,0,0,1.2737152832031249,0,0,0.45864
3.1381529289938044,0,0,1.4820108276367188,0,0,0.53508
3.1395381730108056,0,0,1.3575123413085937,0,0,1.07016
3.1409239170025103,0,0,1.2401964599609374,0,0,0.84084
3.1423097169899847,0,0,1.1923124267578125,0,0,0.7644
3.143696145998547,0,0,1.3551181396484375,0,0,0.3822
3.1450810749956872,0,0,1.2425906616210938,0,0,1.07016
3.146466356003657,0,0,1.3838485595703125,0,0,0.68796
3.1478530259919353,0,0,1.197100830078125,0,0,1.1465999999999998
3.1492373069922905,0,0,1.5275006591796874,0,0,0.91728
3.1506224400072824,0,0,1.3431471313476562,0,0,0.7644
3.1520083689829335,0,0,1.3263877197265623,0,0,0.45864
3.1533930389850866,0,0,1.2282254516601563,0,0,0.68796
3.154778375988826,0,0,1.1037269653320312,0,0,0.68796
3.156164879008429,0,0,1.3838485595703125,0,0,0.07644000000000001
3.157554604986217,0,0,1.3814543579101561,0,0,0.30576000000000003
3.1589400339871645,0,0,1.4796166259765624,0,0,0.68796
3.160325518983882,0,0,1.2761094848632812,0,0,0.84084
3.161719207011629,0,0,1.369483349609375,0,0,0.84084
3.1631047109840438,0,0,1.2665326782226562,0,0,0.84084
3.1644893439952284,0,0,1.1923124267578125,0,0,0.6115200000000001
3.1658730510098394,0,0,1.2401964599609374,0,0,0.45864
3.167257016990334,0,0,1.3575123413085937,0,0,0.53508
3.1686688349873293,0,0,1.2856862915039062,0,0,0.84084
3.1701896140002646,0,0,1.2689268798828124,0,0,0.7644
3.1716621720115654,0,0,1.2928688964843749,0,0,1.2230400000000001
3.1731644149986096,0,0,1.2761094848632812,0,0,0.84084
3.1746338619850576,0,0,1.2904746948242187,0,0,0.84084
3.1761562709871214,0,0,1.4006079711914061,0,0,-9.555
3.1777216430054978,0,0,1.4796166259765624,0,0,0.30576000000000003
3.179231015004916,0,0,1.5298948608398437,0,0,0.68796
3.180779757007258,0,0,1.3407529296874998,0,0,0.45864
3.182319073996041,0,0,1.3144167114257812,0,0,0.68796
3.1837949650071096,0,0,1.1707646118164061,0,0,0.68796
3.185266763990512,0,0,1.1827356201171875,0,0,1.2994800000000002
3.1867105629935395,0,0,1.3215993164062498,0,0,0.3822
3.1881177139875945,0,0,1.3144167114257812,0,0,0.53508
3.189504401991144,0,0,1.5634136840820312,0,0,0.3822
3.1908900910057127,0,0,1.4987702392578124,0,0,0.84084
3.1922759090084583,0,0,1.2378022583007813,0,0,0.91728
3.193661116005387,0,0,1.197100830078125,0,0,1.1465999999999998
3.195046637993073,0,0,1.2234370483398436,0,0,0.30576000000000003
3.196432325989008,0,0,1.2617442749023438,0,0,0.15288000000000002
3.1978173670067918,0,0,1.4796166259765624,0,0,0.6115200000000001
3.1992031850095373,0,0,1.458068811035156,0,0,0.53508
3.2005892809829675,0,0,1.419761584472656,0,0,0.84084
3.201975117000984,0,0,1.3359645263671873,0,0,1.45236
3.2033607689954806,0,0,1.1563994018554686,0,0,0.7644
3.204746920004254,0,0,1.2593500732421874,0,0,0.45864
3.2061314980091993,0,0,1.3383587280273437,0,0,1.07016
3.2075168160081375,0,0,1.3838485595703125,0,0,0.84084
3.2089591519907117,0,0,1.2808978881835937,0,0,1.07016
3.210388913983479,0,0,1.4987702392578124,0,0,0.68796
3.211831249995157,0,0,1.2785036865234374,0,0,0.99372
3.2132209010014776,0,0,1.197100830078125,0,0,0.7644
3.2146061079984065,0,0,1.1372457885742187,0,0,0.45864
3.2159927600005176,0,0,1.1875240234375,0,0,0.68796
3.2173781520104967,0,0,1.2473790649414063,0,0,0.3822
3.218763229000615,0,0,1.3311761230468748,0,0,0.45864
3.220149306987878,0,0,1.5801730957031248,0,0,0.68796
3.2215575689915568,0,0,1.5275006591796874,0,0,0.68796
3.222943758009933,0,0,1.3718775512695311,0,0,1.1465999999999998
3.2243293350038584,0,0,1.177947216796875,0,0,0.99372
3.2257180050073657,0,0,1.0989385620117187,0,0,0.68796
3.2271516929904465,0,0,1.350329736328125,0,0,0.45864
3.228544065990718,0,0,1.4317325927734375,0,0,0.45864
3.2299294589902274,0,0,1.350329736328125,0,0,0.45864
3.231314314005431,0,0,1.3120225097656248,0,0,1.07016
3.2327001320081763,0,0,1.3311761230468748,0,0,1.07016
3.234085005999077,0,0,1.0295067138671874,0,0,1.07016
3.2354697499831673,0,0,1.0941501586914062,0,0,0.3822
3.2368554940039758,0,0,1.1755530151367186,0,0,1.1465999999999998
3.238240885984851,0,0,1.446097802734375,0,0,1.07016
3.2396436299895868,0,0,1.2401964599609374,0,0,0.7644
3.2410293740103953,0,0,1.3239935180664062,0,0,0.6115200000000001
3.2424139879876748,0,0,1.2138602416992186,0,0,0.84084
3.243800121010281,0,0,1.2952630981445312,0,0,0.68796
3.245184995001182,0,0,1.189918225097656,0,0,0.53508
3.2465708320087288,0,0,1.1659762084960936,0,0,0.84084
3.2479568349954206,0,0,1.3455413330078123,0,0,0.15288000000000002
3.249341209011618,0,0,1.2880804931640624,0,0,0.6115200000000001
3.2507265270105563,0,0,1.3024457031249999,0,0,0.68796
3.2521240479836706,0,0,1.1875240234375,0,0,0.84084
3.2535094220074825,0,0,1.37906015625,0,0,1.2230400000000001
3.2548947219911497,0,0,1.2473790649414063,0,0,1.07016
3.2562798179860692,0,0,1.1923124267578125,0,0,0.53508
3.257664728007512,0,0,1.2425906616210938,0,0,0.30576000000000003
3.259050397988176,0,0,1.3862427612304686,0,0,0.3822
3.2604363090067636,0,0,1.484405029296875,0,0,0.53508
3.2618212009838317,0,0,1.5705962890624998,0,0,0.99372
3.263205908006057,0,0,1.235408056640625,0,0,0.91728
3.2646056709927507,0,0,1.2234370483398436,0,0,1.07016
3.2659895069955382,0,0,1.16837041015625,0,0,0.6115200000000001
3.2673735480057076,0,0,1.2282254516601563,0,0,0.7644
3.268773383984808,0,0,1.3551181396484375,0,0,0.91728
3.270159425010206,0,0,1.37906015625,0,0,0.6115200000000001
3.271544686984271,0,0,1.6304513305664061,0,0,0.7644
3.272929856990231,0,0,1.3192051147460937,0,0,0.53508
3.2743154719937593,0,0,1.180341418457031,0,0,0.3822
3.2757011789944954,0,0,1.218648645019531,0,0,0.53508
3.2770862739998847,0,0,1.2497732666015624,0,0,0.68796
3.2784713330038358,0,0,1.3742717529296875,0,0,0.99372
3.279877150984248,0,0,1.3072341064453123,0,0,0.45864
3.281262136006262,0,0,1.5969325073242187,0,0,0.91728
3.282647101994371,0,0,1.3383587280273437,0,0,0.68796
3.2840323460113723,0,0,1.2473790649414063,0,0,0.7644
3.2854170720092952,0,0,1.1085153686523437,0,0,0.99372
3.2868021489994135,0,0,1.1444283935546875,0,0,0.91728
3.288196097011678,0,0,1.3048399047851562,0,0,0.68796
3.2895821740094107,0,0,1.388636962890625,0,0,0.45864
3.2909675109840464,0,0,1.5777788940429687,0,0,0.53508
3.292352774005849,0,0,1.446097802734375,0,0,1.07016
3.2937377950001974,0,0,1.177947216796875,0,0,1.1465999999999998
3.2951259469846264,0,0,1.149216796875,0,0,0.6115200000000001
3.296511802007444,0,0,1.1611878051757811,0,0,0.6115200000000001
3.2978977499878965,0,0,1.24498486328125,0,0,1.07016
3.2992824940010905,0,0,1.35990654296875,0,0,0.91728
3.300667756004259,0,0,1.2880804931640624,0,0,1.1465999999999998
3.3020530189969577,0,0,1.467645617675781,0,0,0.7644
3.303438169998117,0,0,1.3718775512695311,0,0,0.7644
3.3048230260028504,0,0,1.3766659545898436,0,0,0.22932
3.3062082329997793,0,0,1.2330138549804688,0,0,0.68796
3.3075932539941277,0,0,1.1013327636718748,0,0,0.68796
3.3089874429861084,0,0,1.4125789794921875,0,0,0.30576000000000003
3.310373131011147,0,0,1.3934253662109375,0,0,0.30576000000000003
3.311758411990013,0,0,1.2330138549804688,0,0,0.3822
3.313143304985715,0,0,1.2593500732421874,0,0,1.2230400000000001
3.3145283079938963,0,0,1.3718775512695311,0,0,0.91728
3.3159396259870846,0,0,1.1923124267578125,0,0,1.07016
3.317325203010114,0,0,1.1228805786132812,0,0,0.6115200000000001
3.318711039988557,0,0,1.1635820068359375,0,0,0.3822
3.3200975799991284,0,0,1.3239935180664062,0,0,0.6115200000000001
3.321481897990452,0,0,1.3168109130859373,0,0,1.07016
3.3228871419851203,0,0,1.3359645263671873,0,0,0.99372
3.3242746820033062,0,0,1.3383587280273437,0,0,1.2230400000000001
3.325660038011847,0,0,1.3623007446289062,0,0,0.68796
3.3270453739969525,0,0,1.1947066284179686,0,0,0.22932
3.3284309890004806,0,0,1.22583125,0,0,1.1465999999999998
3.329816306999419,0,0,1.4604630126953124,0,0,1.07016
3.3312011619855184,0,0,1.3168109130859373,0,0,0.84084
3.332586906006327,0,0,1.4796166259765624,0,0,0.6115200000000001
3.333971705986187,0,0,1.2665326782226562,0,0,0.91728
3.3353568199963775,0,0,1.2617442749023438,0,0,0.6115200000000001
3.3367423599993344,0,0,1.149216796875,0,0,0.68796
3.3381397709890734,0,0,1.216254443359375,0,0,0.53508
3.3395249219902325,0,0,1.235408056640625,0,0,0.45864
3.3409101479919627,0,0,1.3551181396484375,0,0,0.45864
3.3422947250073776,0,0,1.47482822265625,0,0,0.68796
3.3437057840055786,0,0,1.4245499877929686,0,0,0.84084
3.3450917869922705,0,0,1.3431471313476562,0,0,1.07016
3.3464768280100543,0,0,1.16837041015625,0,0,0.99372
3.3478627009899355,0,0,1.120486376953125,0,0,0.7644
3.349247075006133,0,0,1.3120225097656248,0,0,0.15288000000000002
3.350632134010084,0,0,1.5035586425781249,0,0,0.45864
3.3520255819894373,0,0,1.6328455322265625,0,0,0.84084
3.353410862997407,0,0,1.5298948608398437,0,0,1.5288
3.354796013998566,0,0,1.177947216796875,0,0,0.84084
3.356181128998287,0,0,1.2114660400390624,0,0,0.6115200000000001
3.3575659100024495,0,0,1.0893617553710937,0,0,0.3822
3.358950856985757,0,0,1.2306196533203124,0,0,1.07016
3.3603357129904907,0,0,1.3910311645507811,0,0,0.68796
3.3617210119846277,0,0,1.2952630981445312,0,0,0.7644
3.3631062190106604,0,0,1.5251064575195312,0,0,0.68796
3.3644901670049876,0,0,1.3215993164062498,0,0,0.84084
3.365873262984678,0,0,1.2330138549804688,0,0,0.68796
3.3672567479952704,0,0,1.16837041015625,0,0,0.91728
3.368653103010729,0,0,1.1037269653320312,0,0,0.68796
3.3700389949954115,0,0,1.3670891479492187,0,0,0.22932
3.3714244430011604,0,0,1.2665326782226562,0,0,0.30576000000000003
3.37287705601193,0,0,1.6112977172851561,0,0,0.91728
3.3742642079887446,0,0,1.3383587280273437,0,0,0.91728
3.3756519150047097,0,0,1.3575123413085937,0,0,1.45236
3.377037400001427,0,0,1.1109095703125,0,0,0.91728
3.378422681009397,0,0,1.3335703247070312,0,0,0.6115200000000001
3.379810220998479,0,0,1.20667763671875,0,0,0.3822
3.3811937239952385,0,0,1.3862427612304686,0,0,0.99372
3.3825795429875143,0,0,1.2593500732421874,0,0,0.99372
3.383965786983026,0,0,1.446097802734375,0,0,1.1465999999999998
3.385350363998441,0,0,1.3311761230468748,0,0,0.99372
3.386735181993572,0,0,1.3479355346679687,0,0,0.53508
3.3881206669902895,0,0,1.2234370483398436,0,0,0.45864
3.38950578100048,0,0,1.1372457885742187,0,0,0.91728
3.3908905439893715,0,0,1.4053963745117186,0,0,0.68796
3.392276028986089,0,0,1.3527239379882812,0,0,0.6115200000000001
3.3936611429962795,0,0,1.5370774658203123,0,0,0.7644
3.395046386984177,0,0,1.2042834350585936,0,0,0.3822
3.3964494270039722,0,0,1.2713210815429687,0,0,0.84084
3.3978351340047084,0,0,1.3192051147460937,0,0,1.07016
3.399220638006227,0,0,1.1324573852539062,0,0,0.91728
3.4006059000093956,0,0,1.2880804931640624,0,0,0.45864
3.4021377169992775,0,0,1.2832920898437499,0,0,0.45864
3.4035244609985966,0,0,1.4915876342773438,0,0,0.3822
3.404910501005361,0,0,1.2497732666015624,0,0,0.68796
3.4062956160050817,0,0,1.3575123413085937,0,0,0.99372
3.4077043590077665,0,0,1.1851298217773436,0,0,1.07016
3.4090896399866324,0,0,1.1635820068359375,0,0,0.84084
3.4104745509976055,0,0,1.0749965454101562,0,0,0.68796
3.4118605539842974,0,0,1.2569558715820313,0,0,0.53508
3.413244909985224,0,0,1.3646949462890625,0,0,0.68796
3.4146298939886037,0,0,1.637633935546875,0,0,0.68796
3.416016971983481,0,0,1.3383587280273437,0,0,1.37592
3.417401846003486,0,0,1.1468225952148436,0,0,0.91728
3.418786608002847,0,0,1.1348515869140625,0,0,0.6115200000000001
3.4201715929957572,0,0,1.2593500732421874,0,0,0.7644
3.421556780987885,0,0,1.2689268798828124,0,0,1.07016
3.422941747994628,0,0,1.254561669921875,0,0,0.99372
3.424326676991768,0,0,1.4006079711914061,0,0,0.84084
3.4257119949907064,0,0,1.3120225097656248,0,0,0.84084
3.427105498005403,0,0,1.2330138549804688,0,0,0.45864
3.428489815996727,0,0,1.1372457885742187,0,0,0.99372
3.4298730790033005,0,0,1.2138602416992186,0,0,0.6115200000000001
3.431268766988069,0,0,1.3000515014648437,0,0,0.6115200000000001
3.432654086005641,0,0,1.3479355346679687,0,0,0.3822
3.4340395150065888,0,0,1.5586252807617187,0,0,0.6115200000000001
3.4354241479886696,0,0,1.4867992309570313,0,0,0.7644
3.436809576989617,0,0,1.2306196533203124,0,0,0.99372
3.438194468995789,0,0,1.1540052001953125,0,0,1.1465999999999998
3.4396024539892096,0,0,1.1133037719726562,0,0,0.6115200000000001
3.4409883089829236,0,0,1.3814543579101561,0,0,1.1465999999999998
3.4423729789850768,0,0,1.3646949462890625,0,0,0.68796
3.4437592409958597,0,0,1.5155296508789062,0,0,0.91728
3.4451435410010163,0,0,1.47482822265625,0,0,0.7644
3.4465283780009486,0,0,1.2856862915039062,0,0,1.2230400000000001
3.447913954994874,0,0,1.1635820068359375,0,0,0.53508
3.4492983290110715,0,0,1.0893617553710937,0,0,0.15288000000000002
3.450683016999392,0,0,1.1133037719726562,0,0,0.84084
3.452069186983863,0,0,1.3862427612304686,0,0,0.84084
3.4534529309894424,0,0,1.4030021728515625,0,0,0.68796
3.454844583000522,0,0,1.4963760375976562,0,0,1.07016
3.456230345007498,0,0,1.22583125,0,0,0.3822
3.4576150339853484,0,0,1.2521674682617188,0,0,0.53508
3.4590550549910404,0,0,1.24498486328125,0,0,0.84084
3.460508446005406,0,0,1.0965443603515623,0,0,1.07016
3.4619093569926918,0,0,1.350329736328125,0,0,0.53508
3.4632962119940203,0,0,1.3192051147460937,0,0,0.84084
3.4646812709979713,0,0,1.4939818359375,0,0,0.84084
3.4660643480019644,0,0,1.2569558715820313,0,0,0.91728
3.4674478890083265,0,0,1.2401964599609374,0,0,0.91728
3.4688519290066324,0,0,1.1540052001953125,0,0,1.07016
3.4702384319971316,0,0,1.1444283935546875,0,0,0.84084
3.471647434984334,0,0,1.1420341918945311,0,0,0.3822
3.4730333460029215,0,0,1.4173673828125,0,0,0.84084
3.4744180160050746,0,0,1.2832920898437499,0,0,0.68796
3.475803963985527,0,0,1.3623007446289062,0,0,0.99372
3.477189689001534,0,0,1.3263877197265623,0,0,1.1465999999999998
3.47857526698499,0,0,1.2330138549804688,0,0,0.22932
3.4799611959897447,0,0,1.254561669921875,0,0,0.68796
3.481346107000718,0,0,1.3096283081054687,0,0,0.91728
3.4827311289845966,0,0,1.3479355346679687,0,0,1.07016
3.484135539009003,0,0,1.3048399047851562,0,0,0.84084
3.485521302005509,0,0,1.6615759521484375,0,0,0.99372
3.4869065459934063,0,0,1.2330138549804688,0,0,0.6115200000000001
3.4882995859952644,0,0,1.189918225097656,0,0,-9.24924
3.4896874229889363,0,0,1.2306196533203124,0,0,0.53508
3.491072629985865,0,0,1.199495031738281,0,0,0.68796
3.4924585029948503,0,0,1.2617442749023438,0,0,0.07644000000000001
3.493850617989665,0,0,1.3455413330078123,0,0,0.45864
3.49523678800324,0,0,1.37906015625,0,0,0.68796
3.4966294390033,0,0,1.4700398193359374,0,0,0.53508
3.498015368008055,0,0,1.3000515014648437,0,0,1.2230400000000001
3.4994014459953178,0,0,1.20667763671875,0,0,0.84084
3.5007872639980633,0,0,1.1540052001953125,0,0,0.84084
3.5021725260012317,0,0,1.3072341064453123,0,0,0.45864
3.503557769989129,0,0,1.4963760375976562,0,0,0.6115200000000001
3.5049435700057074,0,0,1.4532804077148436,0,0,0.6115200000000001
3.5063380179926753,0,0,1.5753846923828123,0,0,0.68796
3.507726743002422,0,0,1.3072341064453123,0,0,1.2230400000000001
3.5091106909967493,0,0,1.1516109985351561,0,0,1.1465999999999998
3.5105530270084273,0,0,1.1540052001953125,0,0,0.45864
3.5119809930038173,0,0,1.3048399047851562,0,0,0.7644
3.513421235984424,0,0,1.5179238525390624,0,0,1.07016
3.5149957739922684,0,0,1.3000515014648437,0,0,0.91728
3.5164346290112007,0,0,1.3910311645507811,0,0,0.84084
3.517821761983214,0,0,1.3646949462890625,0,0,0.84084
3.5192082280118484,0,0,1.3431471313476562,0,0,0.6115200000000001
3.520597397990059,0,0,1.0989385620117187,0,0,0.45864
3.521983549988363,0,0,1.216254443359375,0,0,0.99372
3.5233691449975595,0,0,1.22583125,0,0,0.6115200000000001
3.5247545189922675,0,0,1.3120225097656248,0,0,0.84084
3.526140022004256,0,0,1.4820108276367188,0,0,0.7644
3.527542117983103,0,0,1.2665326782226562,0,0,0.45864
3.5289281029836275,0,0,1.2808978881835937,0,0,0.30576000000000003
3.5303133289853577,0,0,1.1252747802734375,0,0,1.07016
3.5316992579901125,0,0,1.1659762084960936,0,0,0.7644
3.5330836869834457,0,0,1.3527239379882812,0,0,-9.32568
3.5344710609933827,0,0,1.3814543579101561,0,0,0.45864
