Time,AccelX1,AccelY1,AccelZ1,AccelX2,AccelY2,AccelZ2
4.962988896295428e-06,0,0,1.3646949462890625,0,0,0.99372
0.003662308008642867,0,0,1.5083470458984374,0,0,0.7644
0.007994181010872126,0,0,1.3096283081054687,0,0,0.91728
0.011537656013388187,0,0,1.3120225097656248,0,0,0.6115200000000001
0.015057595010148361,0,0,1.2880804931640624,0,0,0.68796
0.018585626006824896,0,0,1.199495031738281,0,0,0.68796
0.022099657013313845,0,0,1.3575123413085937,0,0,0.53508
0.025622318004025146,0,0,1.2330138549804688,0,0,0.91728
0.029138090001652017,0,0,1.2832920898437499,0,0,0.99372
0.033014449989423156,0,0,1.2761094848632812,0,0,0.68796
0.03663355400203727,0,0,1.1875240234375,0,0,0.84084
0.040187714010244235,0,0,1.3096283081054687,0,0,0.99372
0.04369843099266291,0,0,1.1037269653320312,0,0,1.07016
0.047219091007718816,0,0,1.3623007446289062,0,0,0.45864
0.05074577100458555,0,0,1.1707646118164061,0,0,0.91728
0.054268617008347064,0,0,1.2952630981445312,0,0,0.45864
0.05788868400850333,0,0,1.3287819213867187,0,0,1.1465999999999998
0.061111404007533565,0,0,1.3670891479492187,0,0,0.91728
0.06423345798975788,0,0,1.3742717529296875,0,0,1.2230400000000001
0.06735616101650521,0,0,1.4915876342773438,0,0,1.07016
0.07081387800280936,0,0,1.2880804931640624,0,0,0.91728
0.07426481699803844,0,0,1.2401964599609374,0,0,0.68796
0.07743318600114435,0,0,1.5059528442382812,0,0,0.91728
0.0805547219933942,0,0,1.4101847778320311,0,0,0.91728
0.08367618400370702,0,0,1.4245499877929686,0,0,0.7644
0.08678557199891657,0,0,1.3024457031249999,0,0,0.45864
0.08992664501420222,0,0,1.2856862915039062,0,0,0.91728
0.09313745799590833,0,0,1.3670891479492187,0,0,0.68796
0.096263696992537,0,0,1.35990654296875,0,0,0.68796
0.0993829189974349,0,0,1.4628572143554686,0,0,0.91728
0.10253756499150768,0,0,1.3192051147460937,0,0,0.91728
0.10564689800958149,0,0,1.3407529296874998,0,0,-9.01992
0.10876893400563858,0,0,1.3311761230468748,0,0,1.1465999999999998
0.11188950701034628,0,0,1.3670891479492187,0,0,0.99372
0.11500776500906795,0,0,1.2569558715820313,0,0,1.07016
0.11811663501430303,0,0,1.2832920898437499,0,0,1.1465999999999998
0.12121163398842327,0,0,1.4532804077148436,0,0,1.2230400000000001
0.12433361398871057,0,0,1.2330138549804688,0,0,1.07016
0.12746857601450756,0,0,1.1372457885742187,0,0,0.6115200000000001
0.13058414901024662,0,0,1.254561669921875,0,0,0.7644
0.133700851991307,0,0,1.3575123413085937,0,0,0.53508
0.13700077499379404,0,0,1.3048399047851562,0,0,1.07016
0.14014706999296322,0,0,1.3383587280273437,0,0,0.84084
0.14326575401355512,0,0,1.3000515014648437,0,0,1.1465999999999998
0.14641406701412052,0,0,1.0869675537109373,0,0,0.84084
0.14963687999988906,0,0,1.3718775512695311,0,0,0.84084
0.15273780500865541,0,0,1.3287819213867187,0,0,1.2994800000000002
0.15594824799336493,0,0,1.2473790649414063,0,0,0.7644
0.15897343299002387,0,0,1.2282254516601563,0,0,0.22932
0.16177195400814526,0,0,1.3120225097656248,0,0,0.84084
0.16457288298988715,0,0,1.4101847778320311,0,0,0.91728
0.16739705199142918,0,0,1.0893617553710937,0,0,1.07016
0.17019772200728767,0,0,1.1180921752929687,0,0,0.7644
0.17299959500087425,0,0,1.2737152832031249,0,0,0.91728
0.17578367199166678,0,0,1.4628572143554686,0,0,0.7644
0.17875428398838267,0,0,1.1923124267578125,0,0,1.07016
0.181665342010092,0,0,1.3383587280273437,0,0,0.84084
0.18454458401538432,0,0,1.24498486328125,0,0,1.07016
0.1873499200155493,0,0,1.5083470458984374,0,0,0.84084
0.1901835710159503,0,0,1.426944189453125,0,0,0.84084
0.19298337001237087,0,0,1.2497732666015624,0,0,0.91728
0.19576939201215282,0,0,1.37906015625,0,0,1.07016
0.19856904301559553,0,0,1.4772224243164063,0,0,0.91728
0.2013788600161206,0,0,1.3766659545898436,0,0,0.6115200000000001
0.2041804559994489,0,0,1.3072341064453123,0,0,0.84084
0.20698273699963465,0,0,1.37906015625,0,0,1.07016
0.2097777769959066,0,0,1.455674609375,0,0,0.84084
0.21255603901227005,0,0,1.3766659545898436,0,0,2.4460800000000003
0.2153545790060889,0,0,1.2378022583007813,0,0,0.7644
0.21815452599548735,0,0,1.3144167114257812,0,0,0.7644
0.22095036300015636,0,0,1.0989385620117187,0,0,0.7644
0.2237498839967884,0,0,1.2689268798828124,0,0,0.7644
0.22654664600850083,0,0,1.2497732666015624,0,0,0.99372
0.22934535300009884,0,0,1.3239935180664062,0,0,0.84084
0.23214126299717464,0,0,1.1444283935546875,0,0,0.68796
0.23493761799181812,0,0,1.2880804931640624,0,0,0.6115200000000001
0.23773543600691482,0,0,1.2521674682617188,0,0,0.84084
0.24053471701336093,0,0,1.3024457031249999,0,0,0.84084
0.24334981199353933,0,0,1.1755530151367186,0,0,0.84084
0.24615424100193195,0,0,1.2665326782226562,0,0,1.07016
0.24895042899879627,0,0,1.484405029296875,0,0,0.68796
0.2517500240064692,0,0,1.5083470458984374,0,0,0.68796
0.25453999001183547,0,0,1.1372457885742187,0,0,0.7644
0.25747675099410117,0,0,1.3048399047851562,0,0,1.45236
0.2604512149991933,0,0,1.446097802734375,0,0,0.91728
0.26356708400999196,0,0,1.3072341064453123,0,0,0.91728
0.26670750899938866,0,0,1.2737152832031249,0,0,0.53508
0.26982145200599916,0,0,1.2425906616210938,0,0,1.07016
0.2729168029909488,0,0,1.4317325927734375,0,0,1.1465999999999998
0.27603708000970073,0,0,1.2330138549804688,0,0,0.7644
0.27915426398976706,0,0,1.3048399047851562,0,0,0.07644000000000001
0.28227659699041396,0,0,1.2425906616210938,0,0,1.07016
0.2853932619909756,0,0,1.0773907470703123,0,0,0.84084
0.2885129470087122,0,0,1.2952630981445312,0,0,0.6115200000000001
0.2916284459934104,0,0,1.3120225097656248,0,0,0.7644
0.2947445739991963,0,0,1.3215993164062498,0,0,0.3822
0.29786283301655203,0,0,1.369483349609375,0,0,0.7644
0.30097577601554804,0,0,1.2521674682617188,0,0,0.45864
0.3040919970080722,0,0,1.2689268798828124,0,0,0.68796
0.30720797801041044,0,0,1.1324573852539062,0,0,0.6115200000000001
0.310326698992867,0,0,1.3455413330078123,0,0,0.7644
0.3134701790113468,0,0,1.4772224243164063,0,0,0.91728
0.31658664101269096,0,0,1.3958195678710936,0,0,0.68796
0.319703788991319,0,0,1.2689268798828124,0,0,0.99372
0.3228199540171772,0,0,1.3072341064453123,0,0,0.84084
0.3259360090014525,0,0,1.2856862915039062,0,0,0.91728
0.32905034100986086,0,0,1.139639990234375,0,0,0.7644
0.33216485899174586,0,0,1.2521674682617188,0,0,0.84084
0.3352807839983143,0,0,1.2928688964843749,0,0,0.84084
0.3383983760140836,0,0,1.4915876342773438,0,0,0.7644
0.34159411399741657,0,0,1.3215993164062498,0,0,0.91728
0.3449466660094913,0,0,1.467645617675781,0,0,0.6115200000000001
0.34806646101060323,0,0,1.2378022583007813,0,0,0.91728
0.3511861090082675,0,0,1.3718775512695311,0,0,0.68796
0.3543287549982779,0,0,1.3168109130859373,0,0,0.91728
0.35753717899206094,0,0,1.5059528442382812,0,0,0.53508
0.36065969700575806,0,0,1.2832920898437499,0,0,0.91728
0.36377610301133245,0,0,1.2378022583007813,0,0,0.7644
0.36689351001405157,0,0,1.2569558715820313,0,0,0.84084
0.3700035090150777,0,0,1.5298948608398437,0,0,1.07016
0.37309928599279374,0,0,1.3359645263671873,0,0,1.07016
0.3762208590051159,0,0,1.3527239379882812,0,0,0.91728
0.3793375059904065,0,0,1.2593500732421874,0,0,0.7644
0.3824570419965312,0,0,1.0941501586914062,0,0,0.91728
0.3855780969897751,0,0,1.2425906616210938,0,0,0.91728
0.38869324399274774,0,0,1.458068811035156,0,0,0.7644
0.3918083540047519,0,0,1.2569558715820313,0,0,0.7644
0.394923760992242,0,0,1.2042834350585936,0,0,1.1465999999999998
0.398211721010739,0,0,1.2497732666015624,0,0,1.1465999999999998
0.40133244200842455,0,0,1.3431471313476562,0,0,0.84084
0.40445010701660067,0,0,1.189918225097656,0,0,0.30576000000000003
0.4075509399990551,0,0,1.35990654296875,0,0,0.99372
0.4106770690123085,0,0,1.2593500732421874,0,0,1.2230400000000001
0.41382741898996755,0,0,1.0893617553710937,0,0,1.07016
0.4169439180113841,0,0,1.1085153686523437,0,0,0.53508
0.42012647198862396,0,0,1.2808978881835937,0,0,0.99372
0.42323471201234497,0,0,1.369483349609375,0,0,1.1465999999999998
0.42634947001351975,0,0,1.2785036865234374,0,0,0.68796
0.42947543199989013,0,0,1.2617442749023438,0,0,0.45864
0.4325889679894317,0,0,1.2306196533203124,0,0,0.7644
0.4357048750098329,0,0,1.1013327636718748,0,0,0.7644
0.4388196140062064,0,0,1.2497732666015624,0,0,0.91728
0.44193416900816374,0,0,1.2497732666015624,0,0,0.91728
0.4450730009994004,0,0,1.3934253662109375,0,0,0.91728
0.4481907220033463,0,0,1.3168109130859373,0,0,0.7644
0.4513065920036752,0,0,1.350329736328125,0,0,1.07016
0.4544395350094419,0,0,1.3479355346679687,0,0,0.53508
0.4576342930085957,0,0,1.2952630981445312,0,0,0.68796
0.4607511429931037,0,0,1.235408056640625,0,0,1.1465999999999998
0.46386912401067093,0,0,1.465251416015625,0,0,0.91728
0.46698340101283975,0,0,1.3383587280273437,0,0,1.1465999999999998
0.47009804801200517,0,0,1.1707646118164061,0,0,0.99372
0.4732119360123761,0,0,1.3287819213867187,0,0,0.53508
0.4763273980061058,0,0,1.2401964599609374,0,0,0.91728
0.479478804016253,0,0,1.3646949462890625,0,0,0.84084
0.4825932100065984,0,0,1.2282254516601563,0,0,1.1465999999999998
0.4857118389918469,0,0,1.3551181396484375,0,0,0.91728
0.48882826400222257,0,0,1.2569558715820313,0,0,0.91728
0.49194387398893014,0,0,1.3000515014648437,0,0,0.91728
0.4950573919923045,0,0,1.3263877197265623,0,0,0.99372
0.49817279799026437,0,0,1.3479355346679687,0,0,0.99372
0.5013276300160214,0,0,1.2401964599609374,0,0,0.7644
0.5141948990058154,0,0,1.2401964599609374,0,0,0.99372
0.5174780260131229,0,0,1.4030021728515625,0,0,0.99372
0.5205984140047804,0,0,1.369483349609375,0,0,0.99372
0.5237036719918251,0,0,1.2569558715820313,0,0,0.30576000000000003
0.5268042460083961,0,0,1.2761094848632812,0,0,0.99372
0.5299037260119803,0,0,1.35990654296875,0,0,0.91728
0.5330001330003142,0,0,1.2976572998046874,0,0,0.91728
0.536291814991273,0,0,1.3383587280273437,0,0,0.7644
0.5394867949944455,0,0,1.3192051147460937,0,0,0.6115200000000001
0.5426176080072764,0,0,1.1707646118164061,0,0,1.07016
0.545730421988992,0,0,1.3048399047851562,0,0,0.7644
0.5488298849959392,0,0,1.3144167114257812,0,0,0.7644
0.5519288649957161,0,0,1.5011644409179687,0,0,0.68796
0.5550475679920055,0,0,1.3335703247070312,0,0,0.84084
0.5581740110064857,0,0,1.2832920898437499,0,0,0.7644
0.5611862340010703,0,0,1.5059528442382812,0,0,0.99372
0.5639718669990543,0,0,1.3407529296874998,0,0,1.07016
0.5667559439898469,0,0,1.0821791503906248,0,0,0.7644
0.5696258720126934,0,0,1.3311761230468748,0,0,0.68796
0.5724252450163476,0,0,1.2521674682617188,0,0,0.91728
0.5752511919999961,0,0,1.2569558715820313,0,0,0.7644
0.5780506950104609,0,0,1.3144167114257812,0,0,0.7644
0.5808552539965604,0,0,1.2425906616210938,0,0,0.84084
0.5836830890038982,0,0,1.2713210815429687,0,0,1.1465999999999998
0.586738737009,0,0,1.3024457031249999,0,0,0.84084
0.5896186280006077,0,0,1.2018892333984375,0,0,0.68796
0.5924801669898443,0,0,1.5346832641601562,0,0,1.1465999999999998
0.5953496319998521,0,0,1.3048399047851562,0,0,0.84084
0.5981558760104235,0,0,1.350329736328125,0,0,0.91728
0.6009502859960776,0,0,1.2880804931640624,0,0,1.2230400000000001
0.603895973006729,0,0,1.388636962890625,0,0,1.07016
0.6066875499964226,0,0,1.2641384765625,0,0,0.53508
0.6094725900038611,0,0,1.1516109985351561,0,0,0.99372
0.6122550000145566,0,0,1.3479355346679687,0,0,0.91728
0.6150466520048212,0,0,1.2856862915039062,0,0,0.7644
0.6181288360094186,0,0,1.2569558715820313,0,0,0.91728
0.6209397650090978,0,0,1.1420341918945311,0,0,0.7644
0.6237437119998503,0,0,1.4772224243164063,0,0,0.84084
0.6265435300010722,0,0,1.3215993164062498,0,0,1.07016
0.6293495880090632,0,0,1.4030021728515625,0,0,0.68796
0.6321308689948637,0,0,1.1180921752929687,0,0,0.84084
0.6349295199906919,0,0,1.438915197753906,0,0,0.7644
0.6377287819923367,0,0,1.3359645263671873,0,0,0.99372
0.64052384099341,0,0,1.3431471313476562,0,0,1.07016
0.6433223810163327,0,0,1.2473790649414063,0,0,2.4460800000000003
0.6466805810050573,0,0,1.438915197753906,0,0,0.84084
0.6495288610167336,0,0,1.3024457031249999,0,0,0.68796
0.6523600300133694,0,0,1.2473790649414063,0,0,0.91728
0.6551605699933134,0,0,1.2976572998046874,0,0,0.53508
0.6580460900149774,0,0,1.3335703247070312,0,0,0.84084
0.6609049260150641,0,0,1.3239935180664062,0,0,1.07016
0.6640256840037182,0,0,1.2665326782226562,0,0,0.84084
0.6671438500052318,0,0,1.4867992309570313,0,0,1.07016
0.6702609420171939,0,0,1.467645617675781,0,0,0.7644
0.6733757549955044,0,0,1.16837041015625,0,0,1.07016
0.6764756249904167,0,0,1.13006318359375,0,0,0.45864
0.6795929200015962,0,0,1.1875240234375,0,0,0.84084
0.6827082899981178,0,0,1.0893617553710937,0,0,0.68796
0.6858245480107144,0,0,1.2808978881835937,0,0,0.91728
0.6889363990048878,0,0,1.438915197753906,0,0,0.84084
0.6920502689899877,0,0,1.419761584472656,0,0,0.84084
0.6951653970172629,0,0,1.3670891479492187,0,0,0.7644
0.6989978880155832,0,0,1.254561669921875,0,0,0.91728
0.7021825709962286,0,0,1.3407529296874998,0,0,0.91728
0.705351457989309,0,0,1.3192051147460937,0,0,0.68796
0.7085086790029891,0,0,1.35990654296875,0,0,0.3822
0.7116111970099155,0,0,1.3120225097656248,0,0,0.91728
0.7147278439952061,0,0,1.350329736328125,0,0,0.68796
0.7178489729994908,0,0,1.3144167114257812,0,0,0.91728
0.7209649900032673,0,0,1.3192051147460937,0,0,0.84084
0.7240870080131572,0,0,1.3431471313476562,0,0,0.68796
0.7272450989985373,0,0,1.0893617553710937,0,0,0.91728
0.7303474310028832,0,0,1.1372457885742187,0,0,0.7644
0.7335783359885681,0,0,1.189918225097656,0,0,0.6115200000000001
0.736698038992472,0,0,1.1420341918945311,0,0,0.91728
0.7398148339998443,0,0,1.1228805786132812,0,0,1.1465999999999998
0.7429306480044033,0,0,1.4820108276367188,0,0,1.1465999999999998
0.7460472210077569,0,0,1.3934253662109375,0,0,0.68796
0.7491892389953136,0,0,1.1755530151367186,0,0,0.99372
0.7523064780107234,0,0,1.4604630126953124,0,0,0.7644
0.7554686990042683,0,0,1.3718775512695311,0,0,0.84084
0.7586439939914271,0,0,1.3766659545898436,0,0,0.91728
0.7617563449894078,0,0,1.5011644409179687,0,0,1.07016
0.7648526770062745,0,0,1.455674609375,0,0,0.99372
0.767951214016648,0,0,1.1947066284179686,0,0,0.91728
0.7710685830097646,0,0,1.2785036865234374,0,0,0.91728
0.7741893230122514,0,0,1.43652099609375,0,0,0.6115200000000001
0.7773307290044613,0,0,1.4221557861328125,0,0,1.07016
0.7804487840039656,0,0,1.3407529296874998,0,0,1.07016
0.7843229589925613,0,0,1.2785036865234374,0,0,0.7644
0.787625325989211,0,0,1.2401964599609374,0,0,0.91728
0.7907441029965412,0,0,1.35990654296875,0,0,0.68796
0.7938636390026659,0,0,1.3383587280273437,0,0,1.07016
0.7969775079982355,0,0,1.5131354492187499,0,0,0.7644
0.8001137659884989,0,0,1.1420341918945311,0,0,1.2230400000000001
0.8032617460121401,0,0,1.1348515869140625,0,0,0.53508
0.8063786900020204,0,0,1.3096283081054687,0,0,0.91728
0.8094934849941637,0,0,1.4963760375976562,0,0,0.99372
0.8127717970055528,0,0,1.2713210815429687,0,0,0.99372
0.816120311996201,0,0,1.3551181396484375,0,0,0.3822
0.8194167159963399,0,0,1.120486376953125,0,0,0.68796
0.8226656210026704,0,0,1.216254443359375,0,0,0.91728
0.8257991379941814,0,0,1.2785036865234374,0,0,1.2230400000000001
0.8289186189940665,0,0,1.5035586425781249,0,0,0.99372
0.8320393399917521,0,0,1.1947066284179686,0,0,1.37592
0.8351459869882092,0,0,1.139639990234375,0,0,0.84084
0.8382669860147871,0,0,1.3120225097656248,0,0,1.07016
0.8413938739977311,0,0,1.3479355346679687,0,0,0.91728
0.8446240939956624,0,0,1.3335703247070312,0,0,0.6115200000000001
0.8478033329884056,0,0,1.2665326782226562,0,0,0.99372
0.8509863310027868,0,0,1.5275006591796874,0,0,1.07016
0.8541190339892637,0,0,1.1420341918945311,0,0,1.07016
0.8572350699978415,0,0,1.3359645263671873,0,0,0.68796
0.860391680005705,0,0,1.3263877197265623,0,0,0.7644
0.863511808012845,0,0,1.4317325927734375,0,0,0.68796
0.8666313629946671,0,0,1.35990654296875,0,0,1.07016
0.8697520650166553,0,0,1.3383587280273437,0,0,0.68796
0.8728703790111467,0,0,1.3766659545898436,0,0,0.91728
0.8759899339929689,0,0,1.7956512451171873,0,0,1.83456
0.8791096369968727,0,0,2.3535002319335936,0,0,1.98744
0.8823288750136271,0,0,2.568978381347656,0,0,1.83456
0.8854599299957044,0,0,2.6336218261718747,0,0,2.4460800000000003
0.8885780400014482,0,0,1.4891934326171874,0,0,0.53508
0.8916967610130087,0,0,1.5658078857421873,0,0,1.37592
0.8948144080059137,0,0,1.6328455322265625,0,0,1.45236
0.8979393889894709,0,0,1.7381904052734374,0,0,1.2230400000000001
0.9010534429980908,0,0,2.070984436035156,0,0,1.75812
0.9041709610028192,0,0,1.7501614135742187,0,0,1.37592
0.9072882749896962,0,0,1.7693150268554687,0,0,1.37592
0.9104071999900043,0,0,1.6711527587890624,0,0,1.37592
0.9135584569885395,0,0,1.7166425903320313,0,0,1.911
0.9166562530153897,0,0,2.0757728393554684,0,0,1.60524
0.9197716590133496,0,0,1.5466542724609373,0,0,0.7644
0.9228865100012626,0,0,1.8363526733398436,0,0,1.5288
0.9260007690172642,0,0,1.7812860351562498,0,0,1.45236
0.9291144160088152,0,0,1.2665326782226562,0,0,1.45236
0.9322286559909116,0,0,2.068590234375,0,0,2.75184
0.9353413399949204,0,0,1.4604630126953124,0,0,1.45236
0.9384583020000719,0,0,1.8626888916015625,0,0,1.75812
0.9415747270104475,0,0,1.5873557006835937,0,0,1.911
0.9446882629999891,0,0,1.9488801513671874,0,0,0.7644
0.9478024840063881,0,0,1.8698714965820311,0,0,1.37592
0.9509164839982986,0,0,1.5107412475585937,0,0,1.2230400000000001
0.9540316860075109,0,0,1.1851298217773436,0,0,0.15288000000000002
0.9576811050064862,0,0,2.138022082519531,0,0,2.4460800000000003
0.9608266960131004,0,0,2.370259643554687,0,0,1.98744
0.9639283620053902,0,0,1.668758557128906,0,0,0.7644
0.9670322500169277,0,0,2.2002713256835937,0,0,1.60524
0.9701315830170643,0,0,2.059013427734375,0,0,1.68168
0.973228304006625,0,0,1.189918225097656,0,0,1.2230400000000001
0.9763260630134027,0,0,2.252943762207031,0,0,2.2931999999999997
0.9794640059990343,0,0,1.9871873779296874,0,0,1.1465999999999998
0.9825658200134058,0,0,1.6448165405273436,0,0,0.84084
0.9856773010105826,0,0,2.032677209472656,0,0,1.2230400000000001
0.9887935960141476,0,0,1.218648645019531,0,0,1.83456
0.9919091509946156,0,0,2.4061726684570313,0,0,1.2994800000000002
0.9950228900124785,0,0,1.9680337646484374,0,0,1.45236
0.9981393520138226,0,0,2.023100402832031,0,0,0.99372
1.001692013000138,0,0,1.2785036865234374,0,0,1.2230400000000001
1.004923250991851,0,0,1.446097802734375,0,0,2.2931999999999997
1.008165897015715,0,0,1.7118541870117185,0,0,0.53508
1.011408783000661,0,0,1.7764976318359373,0,0,0.15288000000000002
1.014661872992292,0,0,1.8842367065429686,0,0,1.60524
1.0179144449939486,0,0,1.0821791503906248,0,0,1.2230400000000001
1.0211466650071088,0,0,1.8507178833007811,0,0,1.37592
1.024380884016864,0,0,1.9704279663085937,0,0,0.99372
1.0275453270005528,0,0,2.0302830078125,0,0,0.30576000000000003
1.0307236590015236,0,0,1.2497732666015624,0,0,1.68168
1.0339058419922367,0,0,1.5251064575195312,0,0,2.5989600000000004
1.0370605819916818,0,0,1.7357962036132812,0,0,0.0
1.0402028769894969,0,0,0.82360537109375,0,0,0.7644
1.0433324130135588,0,0,2.0542250244140625,0,0,2.6754
1.046462430007523,0,0,3.4093431640625,0,0,0.6115200000000001
1.0495967809983995,0,0,0.181959326171875,0,0,-9.784320000000001
1.052724834997207,0,0,0.9720458740234375,0,0,2.14032
1.0558811489900108,0,0,2.7940333374023436,0,0,2.06388
1.0590234440169297,0,0,0.105344873046875,0,0,0.0
1.0622812370129395,0,0,3.0071172851562498,0,0,2.6754
1.0645931719918735,0,0,4.146757275390625,0,0,2.5989600000000004
1.0667534050007816,0,0,1.9728221679687499,0,0,0.99372
1.0689470630022697,0,0,-0.17477672119140625,0,0,-0.53508
1.0712139800016303,0,0,2.4851813232421875,0,0,0.84084
1.07353484100895,0,0,2.1930887207031247,0,0,0.3822
1.0757755170052405,0,0,-0.5458779785156249,0,0,-0.45864
1.0780454160121735,0,0,0.7206546997070312,0,0,0.84084
1.0802721660002135,0,0,2.501940734863281,0,0,1.60524
1.0831950939900707,0,0,1.0821791503906248,0,0,0.53508
1.085428343998501,0,0,-0.3806780639648437,0,0,0.22932
1.0876498729921877,0,0,2.4899697265625,0,0,2.2167600000000003
1.090257878007833,0,0,1.6998831787109374,0,0,1.2230400000000001
1.0924823509994894,0,0,-0.7589619262695312,0,0,-0.45864
1.0947882489999756,0,0,2.1883003173828124,0,0,1.75812
1.0970427579886746,0,0,2.7916391357421872,0,0,1.45236
1.0992761570087168,0,0,1.0438719238281249,0,0,0.0
1.1015401479962748,0,0,-1.0726023437499999,0,0,0.15288000000000002
1.1037632130028214,0,0,2.8706477905273435,0,0,1.60524
1.1059393350151367,0,0,2.1595698974609374,0,0,1.60524
1.1080712719995063,0,0,0.11731588134765625,0,0,-0.22932
1.1103306889999658,0,0,0.6775590698242188,0,0,1.1465999999999998
1.1124640699999873,0,0,1.9919757812499999,0,0,1.68168
1.114598896005191,0,0,1.5777788940429687,0,0,1.911
1.1167303510010242,0,0,-0.19871873779296872,0,0,1.1465999999999998
1.1188683809887152,0,0,2.6982652709960937,0,0,2.06388
1.1210004849999677,0,0,2.346317626953125,0,0,1.1465999999999998
1.1231340699887369,0,0,1.0558429321289062,0,0,0.0
1.1252650250098668,0,0,-0.1580173095703125,0,0,0.30576000000000003
1.1274005180166569,0,0,2.2936451904296873,0,0,1.60524
1.1295351209992077,0,0,1.5753846923828123,0,0,0.15288000000000002
1.131666002998827,0,0,0.1292868896484375,0,0,-0.99372
1.1338007359881885,0,0,0.8930372192382812,0,0,0.53508
1.1359330989944283,0,0,2.5713725830078125,0,0,2.4460800000000003
1.1380680540169124,0,0,2.0733786376953125,0,0,2.06388
1.1401992879982572,0,0,0.5530605834960938,0,0,-0.45864
1.14234753898927,0,0,1.005564697265625,0,0,0.53508
1.1445916230150033,0,0,2.655169641113281,0,0,1.83456
1.1467411149933469,0,0,1.3096283081054687,0,0,1.45236
1.1488878300006036,0,0,-0.9744400756835937,0,0,0.07644000000000001
1.1510359520034399,0,0,1.3024457031249999,0,0,0.84084
1.153180944005726,0,0,2.123656872558594,0,0,0.3822
1.1553211029968224,0,0,1.438915197753906,0,0,0.91728
1.157540965010412,0,0,0.13168109130859373,0,0,0.6115200000000001
1.1596882170124445,0,0,2.138022082519531,0,0,1.45236
1.16191285601235,0,0,1.7788918334960937,0,0,1.07016
1.1644302700005937,0,0,1.0342951171875,0,0,0.3822
1.1672573650139384,0,0,1.8171990600585937,0,0,1.2230400000000001
1.1700513680116273,0,0,1.0271125122070313,0,0,1.45236
1.172830668016104,0,0,-0.01915361328125,0,0,0.6115200000000001
1.1756367449997924,0,0,2.35589443359375,0,0,2.06388
1.1785365430114325,0,0,1.7334020019531249,0,0,0.53508
1.1814666549907997,0,0,-0.17956512451171874,0,0,0.7644
1.184753448003903,0,0,1.8435352783203125,0,0,0.22932
1.1875776179949753,0,0,0.9217676391601562,0,0,9.40212
1.1904120830004103,0,0,0.7805097412109374,0,0,1.1465999999999998
1.1932127900072373,0,0,1.2593500732421874,0,0,0.91728
1.1959975709905848,0,0,0.5410895751953124,0,0,0.99372
1.1987972219940275,0,0,2.8323405639648436,0,0,2.06388
1.201600205997238,0,0,0.9337386474609375,0,0,0.0
1.2043992269900627,0,0,0.7565677246093749,0,0,0.7644
1.207206915016286,0,0,2.5546131713867184,0,0,1.37592
1.2100035109906457,0,0,0.33039982910156246,0,0,0.99372
1.2127838289889041,0,0,-0.3112462158203125,0,0,0.7644
1.215591312997276,0,0,3.3686417358398435,0,0,1.37592
1.2183945199940354,0,0,1.7477672119140624,0,0,-8.63772
1.2211960410058964,0,0,-0.7422025146484375,0,0,0.3822
1.2239986000058707,0,0,2.6192566162109374,0,0,1.2994800000000002
1.2267980469914619,0,0,0.74699091796875,0,0,-0.22932
1.229599735001102,0,0,1.0989385620117187,0,0,1.60524
1.2323991270095576,0,0,2.863465185546875,0,0,0.68796
1.235214148007799,0,0,0.6464344482421874,0,0,-0.7644
1.2380194659926929,0,0,1.599326708984375,0,0,2.2931999999999997
1.2408169319969602,0,0,1.917755529785156,0,0,0.22932
1.243618601001799,0,0,-0.35194764404296874,0,0,-0.15288000000000002
1.246411475003697,0,0,1.5777788940429687,0,0,2.5989600000000004
1.24919114401564,0,0,2.3582886352539063,0,0,0.84084
1.2519939620106015,0,0,-0.6943184814453125,0,0,0.53508
1.2547952980094124,0,0,2.2026655273437497,0,0,2.4460800000000003
1.2575970239995513,0,0,1.5538368774414062,0,0,1.37592
1.2603959150146693,0,0,-0.22026655273437498,0,0,-0.3822
1.2633305279887281,0,0,1.9823989746093749,0,0,1.37592
1.2664112680067774,0,0,1.6208745239257811,0,0,-0.30576000000000003
1.2695655259885825,0,0,0.97683427734375,0,0,1.68168
1.2726857470115647,0,0,2.511517541503906,0,0,1.2230400000000001
1.2758053200086579,0,0,-0.39983167724609375,0,0,0.15288000000000002
1.2789256339892745,0,0,2.1643583007812497,0,0,1.98744
1.2820433739980217,0,0,1.7669208251953124,0,0,0.53508
1.2851603360031731,0,0,-0.9265560424804687,0,0,1.2994800000000002
1.2882800750085153,0,0,3.0933085449218747,0,0,1.83456
1.291395851993002,0,0,1.180341418457031,0,0,-1.1465999999999998
1.2945191480102949,0,0,1.908178723144531,0,0,1.68168
1.297638165007811,0,0,2.013523596191406,0,0,2.14032
1.3007524610147811,0,0,-1.3814543579101561,0,0,-0.68796
1.303872960008448,0,0,3.6727053466796873,0,0,1.5288
1.3069891990162432,0,0,2.0829554443359375,0,0,-0.6115200000000001
1.3101895680010784,0,0,-0.22026655273437498,0,0,0.91728
1.3133180669974536,0,0,2.612074011230469,0,0,0.7644
1.3164353430038318,0,0,-0.5147533569335937,0,0,0.07644000000000001
1.3195540650049224,0,0,2.31758720703125,0,0,1.1465999999999998
1.322670155990636,0,0,1.695094775390625,0,0,9.47856
1.3257847299973946,0,0,1.01514150390625,0,0,2.2931999999999997
1.328901450993726,0,0,2.0757728393554684,0,0,1.2994800000000002
1.3320168200007174,0,0,-0.0718260498046875,0,0,-0.53508
1.335135133995209,0,0,1.9105729248046874,0,0,2.14032
1.338252299989108,0,0,2.0302830078125,0,0,1.37592
1.3413988730171695,0,0,-0.26336218261718747,0,0,0.3822
1.3445790559926536,0,0,3.1555577880859373,0,0,1.45236
1.3477759989909828,0,0,0.8475473876953125,0,0,0.30576000000000003
1.350898459990276,0,0,0.40222587890625,0,0,0.0
1.3540146450104658,0,0,1.8028338500976562,0,0,0.53508
1.3575091949896887,0,0,1.0390835205078124,0,0,2.75184
1.3606528789969161,0,0,1.9393033447265624,0,0,0.3822
1.3637567670084536,0,0,0.5674257934570313,0,0,0.07644000000000001
1.3668600250093732,0,0,2.5617957763671875,0,0,1.5288
1.3699599129904527,0,0,1.369483349609375,0,0,1.2230400000000001
1.3730568200116977,0,0,-0.842758984375,0,0,0.0
1.3761620600125752,0,0,3.0071172851562498,0,0,1.75812
1.3792834659980144,0,0,1.7501614135742187,0,0,0.15288000000000002
1.3824026139918715,0,0,1.2641384765625,0,0,1.2994800000000002
1.385552871011896,0,0,1.455674609375,0,0,0.7644
1.3886692410160322,0,0,0.43574470214843747,0,0,0.68796
1.3917874619946815,0,0,1.7214309936523438,0,0,0.91728
1.3949066089990083,0,0,1.0223241088867188,0,0,-0.07644000000000001
1.3980338120018132,0,0,1.678335363769531,0,0,2.52252
1.4011576999910176,0,0,1.8100164550781248,0,0,0.7644
1.4042761250166222,0,0,0.47884033203125,0,0,0.3822
1.4073960870155133,0,0,2.530671154785156,0,0,1.68168
1.4105174010037445,0,0,0.2154781494140625,0,0,-0.3822
1.4136370290070772,0,0,0.8930372192382812,0,0,1.75812
1.4167514909931924,0,0,3.105279553222656,0,0,0.91728
1.4199000640073791,0,0,-0.507570751953125,0,0,0.53508
1.4231077099975664,0,0,2.4301146850585935,0,0,1.5288
1.4262283199932426,0,0,1.6711527587890624,0,0,0.3822
1.429345281998394,0,0,0.5770026000976562,0,0,1.5288
1.4324612630007323,0,0,2.5713725830078125,0,0,0.91728
1.4355855759931728,0,0,0.3184288208007812,0,0,0.15288000000000002
1.4387011310027447,0,0,2.770091320800781,0,0,1.60524
1.4418159819906577,0,0,1.1013327636718748,0,0,0.45864
1.4449300740088802,0,0,-0.0383072265625,0,0,1.1465999999999998
1.4480479060148355,0,0,2.8131869506835936,0,0,1.75812
1.4511637749965303,0,0,0.22744915771484372,0,0,-0.7644
1.4542845519899856,0,0,3.2225954345703123,0,0,2.4460800000000003
1.4574446059996262,0,0,1.93451494140625,0,0,1.83456
1.4605618829955347,0,0,-1.6112977172851561,0,0,-0.68796
1.46371791898855,0,0,3.5290532470703124,0,0,2.06388
1.4668332140136044,0,0,1.0989385620117187,0,0,-0.53508
1.46995080600027,0,0,-0.7254431030273437,0,0,2.14032
1.4730672680016141,0,0,2.935291235351562,0,0,1.2994800000000002
1.476182821992552,0,0,1.0342951171875,0,0,0.53508
1.4792991550057195,0,0,2.4157494750976563,0,0,1.1465999999999998
1.4824269129894674,0,0,1.5131354492187499,0,0,0.0
1.4855757080076728,0,0,0.040701428222656245,0,0,1.5288
1.4886903919978067,0,0,3.0526071166992184,0,0,1.45236
1.4918065019883215,0,0,-0.047884033203124995,0,0,9.40212
1.4949229269986972,0,0,1.8363526733398436,0,0,1.45236
1.4980385380040389,0,0,2.645592834472656,0,0,2.90472
1.5011505000002217,0,0,-1.1420341918945311,0,0,-0.15288000000000002
1.5042688690009527,0,0,4.242525341796875,0,0,2.6754
1.5073848869942594,0,0,0.603338818359375,0,0,-0.68796
1.5105290700157639,0,0,0.5865794067382812,0,0,0.53508
1.513647273008246,0,0,2.1452046874999997,0,0,2.14032
1.5167612170043867,0,0,0.00718260498046875,0,0,0.07644000000000001
1.5198777900077403,0,0,2.408566870117187,0,0,1.75812
1.5230026780045591,0,0,1.5466542724609373,0,0,-1.07016
1.5261228799936362,0,0,1.7956512451171873,0,0,1.2994800000000002
1.529237064998597,0,0,2.0446482177734375,0,0,1.37592
1.5323518789955415,0,0,-0.9145850341796874,0,0,0.07644000000000001
1.5354725439974573,0,0,2.4013842651367185,0,0,1.68168
1.5385872659971938,0,0,2.070984436035156,0,0,-9.784320000000001
1.5417046160146128,0,0,-0.7829039428710937,0,0,1.60524
1.5448212079936638,0,0,2.980781066894531,0,0,0.7644
1.5479362439946271,0,0,0.7805097412109374,0,0,0.07644000000000001
1.5510549840109888,0,0,1.1468225952148436,0,0,1.45236
1.5541710570105352,0,0,2.1260510742187497,0,0,1.37592
1.557819234993076,0,0,-0.5027823486328125,0,0,0.84084
1.5609314749890473,0,0,2.2840683837890623,0,0,0.22932
1.5640675110043958,0,0,0.3495534423828125,0,0,0.91728
1.567168676003348,0,0,1.4628572143554686,0,0,0.91728
1.5702967120159883,0,0,1.3575123413085937,0,0,-9.24924
1.5734595069952775,0,0,1.0438719238281249,0,0,2.2167600000000003
1.5765604320040438,0,0,2.370259643554687,0,0,0.45864
1.5796619130123872,0,0,0.4165910888671875,0,0,0.0
1.582778097013943,0,0,2.2840683837890623,0,0,1.5288
1.58589559601387,0,0,0.9265560424804687,0,0,1.37592
1.589008835988352,0,0,-0.3758896606445312,0,0,0.45864
1.5921262800111435,0,0,3.0454245117187497,0,0,1.83456
1.5953004079929087,0,0,0.430956298828125,0,0,9.172799999999999
1.598488924006233,0,0,1.9895815795898437,0,0,1.07016
1.60160783099127,0,0,1.5203180541992187,0,0,2.2931999999999997
1.6047202369954903,0,0,-0.0143652099609375,0,0,0.30576000000000003
1.607840570010012,0,0,2.291250988769531,0,0,1.2230400000000001
1.6109571979905013,0,0,1.0342951171875,0,0,-1.37592
1.6140793270024005,0,0,2.384624853515625,0,0,2.52252
1.6171924000082072,0,0,1.3718775512695311,0,0,1.45236
1.6203082510037348,0,0,-1.4053963745117186,0,0,-0.15288000000000002
1.6234415649960283,0,0,3.071760729980469,0,0,1.83456
1.6266110260039568,0,0,1.4173673828125,0,0,-0.84084
1.6297290250076912,0,0,-0.5698199951171875,0,0,1.37592
1.6328434690076392,0,0,3.4452561889648434,0,0,0.45864
1.6359586710168514,0,0,-0.7206546997070312,0,0,0.7644
1.6390750959981233,0,0,2.6096798095703124,0,0,0.84084
1.6421910029894207,0,0,0.584185205078125,0,0,0.0
1.6453291499929037,0,0,0.41898529052734373,0,0,1.1465999999999998
1.6484486120170914,0,0,3.4165257690429685,0,0,1.5288
1.6515641290170606,0,0,-0.2154781494140625,0,0,0.0
1.6546854249900207,0,0,2.003946789550781,0,0,0.91728
1.6578012570098508,0,0,2.1619640991210938,0,0,2.14032
1.660914681997383,0,0,-1.2713210815429687,0,0,-0.15288000000000002
1.6640662550053094,0,0,3.2513258544921873,0,0,1.98744
1.6672220499895047,0,0,0.7254431030273437,0,0,0.07644000000000001
1.6703482890152372,0,0,0.9504980590820312,0,0,1.37592
1.673470195994014,0,0,1.8267758666992187,0,0,1.98744
1.6765897689911071,0,0,-0.009576806640625,0,0,-0.7644
1.679714268015232,0,0,2.408566870117187,0,0,1.37592
1.682834470004309,0,0,1.8842367065429686,0,0,-0.84084
1.6859544320032,0,0,0.7972691528320313,0,0,2.14032
1.6890728390135337,0,0,2.128445275878906,0,0,1.98744
1.692191301001003,0,0,-0.7015010864257812,0,0,-1.1465999999999998
1.6953132810012903,0,0,2.463633508300781,0,0,0.91728
1.6984234839910641,0,0,2.4301146850585935,0,0,-9.555
1.7016301669937093,0,0,-1.7645266235351562,0,0,1.60524
1.7047503330104519,0,0,3.1364041748046874,0,0,1.45236
1.7078955169999972,0,0,-0.2705447875976562,0,0,-9.784320000000001
1.7110183679906186,0,0,2.1116858642578125,0,0,0.91728
1.7141369960154407,0,0,2.454056701660156,0,0,2.6754
1.7172517919971142,0,0,-1.3096283081054687,0,0,-0.22932
1.720373254007427,0,0,3.0813375366210938,0,0,1.2230400000000001
1.7234892529959325,0,0,1.6448165405273436,0,0,9.32568
1.7266575290123,0,0,0.0909796630859375,0,0,0.45864
1.729779860994313,0,0,2.375048046875,0,0,2.4460800000000003
1.7328960640006699,0,0,-0.6081272216796875,0,0,9.09636
1.7360143960104324,0,0,2.7557261108398436,0,0,1.98744
1.7391289139923174,0,0,1.4221557861328125,0,0,-1.5288
1.7422526910086162,0,0,0.38307226562499996,0,0,2.4460800000000003
1.7453674680145923,0,0,2.2074539306640624,0,0,2.5989600000000004
1.7484828929882497,0,0,0.033518823242187495,0,0,-0.99372
1.7516032060084399,0,0,1.9823989746093749,0,0,2.06388
1.7547140940150712,0,0,2.7916391357421872,0,0,0.0
1.7578675929980818,0,0,-0.5003881469726562,0,0,0.84084
1.7610091289971024,0,0,2.4157494750976563,0,0,1.2230400000000001
1.764152035000734,0,0,0.6272808349609375,0,0,0.91728
1.767254681995837,0,0,1.5897499023437498,0,0,0.68796
1.770356199995149,0,0,2.068590234375,0,0,0.30576000000000003
1.7734673290106002,0,0,-0.36391865234375,0,0,0.7644
1.7765676240087487,0,0,3.2321722412109373,0,0,0.30576000000000003
1.7796901050023735,0,0,0.7398083129882812,0,0,0.07644000000000001
1.7828580290079117,0,0,2.518700146484375,0,0,1.07016
1.7859801950107794,0,0,1.2306196533203124,0,0,2.14032
1.789094453008147,0,0,-0.7517793212890624,0,0,0.0
1.7922115080000367,0,0,3.2417490478515623,0,0,2.36964
1.7953278399945702,0,0,1.4724340209960938,0,0,-0.53508
1.7984467649948783,0,0,0.6248866333007812,0,0,1.1465999999999998
1.8015632269962225,0,0,1.7262193969726563,0,0,1.83456
1.8046821340103634,0,0,0.04548983154296875,0,0,0.22932
1.8078000959940255,0,0,2.731784094238281,0,0,1.83456
1.8109154280100483,0,0,1.0295067138671874,0,0,-1.60524
1.8140364270075224,0,0,1.3958195678710936,0,0,2.98116
1.817159796017222,0,0,2.1643583007812497,0,0,1.1465999999999998
1.8202762769942638,0,0,-0.7565677246093749,0,0,0.0
1.823394831008045,0,0,2.999934680175781,0,0,1.1465999999999998
1.826513664011145,0,0,1.3455413330078123,0,0,-0.68796
1.8296295889886096,0,0,-1.4963760375976562,0,0,1.07016
1.8327441430010367,0,0,3.0789433349609374,0,0,1.37592
1.8359142339904793,0,0,-0.7015010864257812,0,0,-0.7644
1.8390376589959487,0,0,2.501940734863281,0,0,0.30576000000000003
1.8421559359994717,0,0,2.0446482177734375,0,0,2.4460800000000003
1.8453711380134337,0,0,-1.7956512451171873,0,0,9.631440000000001
1.848624728008872,0,0,3.246537451171875,0,0,1.1465999999999998
1.8517445040051825,0,0,-0.00718260498046875,0,0,0.30576000000000003
1.8548610779980663,0,0,2.683900061035156,0,0,0.99372
1.8579780209984165,0,0,2.2194249389648437,0,0,1.1465999999999998
1.8610920200007968,0,0,-2.01112939453125,0,0,8.63772
1.8642461670096964,0,0,3.967192150878906,0,0,1.911
1.8673680550127756,0,0,0.7709329345703124,0,0,-1.2230400000000001
1.8705843120114878,0,0,-1.3718775512695311,0,0,0.68796
1.8737501070136204,0,0,2.9496564453125,0,0,2.2167600000000003
1.8768663649971131,0,0,-2.3726538452148436,0,0,-2.14032
1.8799886600172613,0,0,2.384624853515625,0,0,1.2230400000000001
1.8831043259997386,0,0,1.350329736328125,0,0,-9.32568
1.8862266770156566,0,0,-2.360682836914062,0,0,-0.84084
1.8893480830010958,0,0,3.1316157714843746,0,0,3.0576
1.8924660450138617,0,0,0.9864110839843749,0,0,-2.2167600000000003
1.895582191995345,0,0,-0.9696516723632812,0,0,0.84084
1.89869872800773,0,0,2.437297290039062,0,0,2.82828
1.9018178390106186,0,0,-2.446874096679687,0,0,-3.97488
1.9049361890065484,0,0,0.9840168823242187,0,0,0.45864
1.9080523370066658,0,0,2.655169641113281,0,0,3.0576
1.9111676320026163,0,0,-1.216254443359375,0,0,0.0
1.9142866310139652,0,0,0.23223756103515625,0,0,-8.943480000000001
1.917445258994121,0,0,3.785232824707031,0,0,-0.30576000000000003
1.9205625920149032,0,0,-1.1611878051757811,0,0,-2.2931999999999997
1.9236804800166283,0,0,1.0749965454101562,0,0,0.53508
1.9267951270157937,0,0,2.2266075439453124,0,0,2.82828
1.9299116999900434,0,0,-1.4245499877929686,0,0,-0.15288000000000002
1.9330272730148863,0,0,0.9409212524414062,0,0,0.45864
1.9361441239889245,0,0,2.262520568847656,0,0,1.5288
1.939258622995112,0,0,0.4572925170898437,0,0,0.22932
1.9423746959946584,0,0,-0.40940848388671874,0,0,-0.3822
1.945492547005415,0,0,1.0797849487304687,0,0,0.53508
1.9486072680156212,0,0,0.5410895751953124,0,0,0.68796
1.9517223779985216,0,0,1.5873557006835937,0,0,1.2230400000000001
1.9552792430040427,0,0,1.0462661254882812,0,0,-0.68796
1.958404092991259,0,0,0.16280571289062498,0,0,-0.7644
1.961792256013723,0,0,0.7852981445312499,0,0,0.91728
1.9649286990170367,0,0,-0.36391865234375,0,0,0.22932
1.9680307540111244,0,0,1.197100830078125,0,0,0.6115200000000001
1.9711323270166758,0,0,1.4700398193359374,0,0,0.7644
1.974232030013809,0,0,0.9816226806640624,0,0,0.6115200000000001
1.9773381400154904,0,0,0.07422025146484375,0,0,-1.1465999999999998
1.980457083991496,0,0,0.8379705810546875,0,0,9.40212
1.9835743049916346,0,0,1.0749965454101562,0,0,1.45236
1.9866890450066421,0,0,-0.19393033447265623,0,0,-0.3822
1.9898082849977072,0,0,1.3431471313476562,0,0,0.45864
1.9929211359994952,0,0,1.3455413330078123,0,0,0.6115200000000001
1.996036060998449,0,0,-0.27293898925781246,0,0,9.32568
1.9991587820113637,0,0,0.93852705078125,0,0,0.91728
2.0023322429915424,0,0,0.8188169677734375,0,0,0.3822
2.00548205699306,0,0,0.9864110839843749,0,0,0.68796
2.0086016849963926,0,0,0.5243301635742187,0,0,-0.22932
2.0117190180171747,0,0,1.4053963745117186,0,0,0.45864
2.014837313006865,0,0,0.27293898925781246,0,0,-0.30576000000000003
2.017957442003535,0,0,0.5458779785156249,0,0,0.3822
2.021070218994282,0,0,1.2641384765625,0,0,-0.30576000000000003
2.0241874030034523,0,0,0.09576806640624999,0,0,0.07644000000000001
2.02730325399898,0,0,1.2952630981445312,0,0,0.7644
2.030422586016357,0,0,0.39743747558593745,0,0,-0.30576000000000003
2.0336187510110904,0,0,0.4955997436523437,0,0,-9.40212
2.036742824013345,0,0,1.7693150268554687,0,0,1.07016
2.0399594880000222,0,0,0.239420166015625,0,0,-0.22932
2.0430797649896704,0,0,0.5195417602539062,0,0,0.07644000000000001
2.046195542003261,0,0,1.62805712890625,0,0,0.91728
2.049310800008243,0,0,0.09337386474609374,0,0,0.0
2.052424447989324,0,0,1.1563994018554686,0,0,0.15288000000000002
2.0555406130151823,0,0,1.3120225097656248,0,0,1.1465999999999998
2.0586550750012975,0,0,0.7206546997070312,0,0,-0.15288000000000002
2.062952245003544,0,0,0.6272808349609375,0,0,0.15288000000000002
2.066127521015005,0,0,1.3838485595703125,0,0,0.6115200000000001
2.0692448719928507,0,0,0.201112939453125,0,0,0.3822
2.0723652229935396,0,0,1.6615759521484375,0,0,0.99372
2.075474056007806,0,0,1.2713210815429687,0,0,0.99372
2.078590962017188,0,0,0.9361328491210937,0,0,1.1465999999999998
2.081711498001823,0,0,1.8195932617187498,0,0,0.99372
2.0848384040000383,0,0,1.2042834350585936,0,0,0.53508
2.087959774013143,0,0,1.3431471313476562,0,0,0.7644
2.091066254011821,0,0,1.4796166259765624,0,0,0.99372
2.0941815499973018,0,0,0.9433154541015625,0,0,0.30576000000000003
2.097392251016572,0,0,1.4820108276367188,0,0,0.91728
2.1005888050131034,0,0,1.0726023437499999,0,0,0.68796
2.1037122860143427,0,0,1.0917559570312498,0,0,-0.15288000000000002
2.106943246006267,0,0,1.4820108276367188,0,0,0.6115200000000001
2.1101331149984617,0,0,1.3575123413085937,0,0,0.84084
2.113352168002166,0,0,1.0941501586914062,0,0,1.07016
2.116620184009662,0,0,1.3718775512695311,0,0,0.68796
2.1198332560015842,0,0,1.5227122558593749,0,0,0.91728
2.1230453650059644,0,0,1.455674609375,0,0,0.91728
2.126308492006501,0,0,1.0295067138671874,0,0,0.53508
2.1295452490157913,0,0,1.2665326782226562,0,0,0.91728
2.1327708390017506,0,0,1.3096283081054687,0,0,0.91728
2.136034725001082,0,0,1.139639990234375,0,0,0.84084
2.139252722990932,0,0,1.5849614990234373,0,0,0.45864
2.142469924001489,0,0,1.4724340209960938,0,0,1.1465999999999998
2.1458086800121237,0,0,1.0031704956054688,0,0,0.45864
2.1489798449911177,0,0,1.3910311645507811,0,0,0.84084
2.152094232995296,0,0,1.458068811035156,0,0,0.99372
2.155196177016478,0,0,1.180341418457031,0,0,0.68796
2.158295453991741,0,0,1.1252747802734375,0,0,0.7644
2.161420860007638,0,0,1.4915876342773438,0,0,0.99372
2.1645157299935818,0,0,1.3646949462890625,0,0,0.91728
2.1676064700004645,0,0,1.139639990234375,0,0,0.53508
2.170211401011329,0,0,1.3144167114257812,0,0,0.45864
2.172729704005178,0,0,1.4867992309570313,0,0,0.84084
2.17525695101358,0,0,1.3311761230468748,0,0,1.2994800000000002
2.178359431010904,0,0,1.177947216796875,0,0,0.68796
2.181385728006717,0,0,1.2330138549804688,0,0,0.30576000000000003
2.1840872509928886,0,0,1.5059528442382812,0,0,0.99372
2.186687608016655,0,0,1.2282254516601563,0,0,1.1465999999999998
2.189218929008348,0,0,0.9983820922851562,0,0,0.45864
2.191751842008671,0,0,1.1731588134765625,0,0,0.3822
2.194300089002354,0,0,1.388636962890625,0,0,0.7644
2.1968277620035224,0,0,1.2952630981445312,0,0,0.84084
2.1993590829952154,0,0,0.928950244140625,0,0,0.91728
2.2018891999905463,0,0,1.13006318359375,0,0,-8.943480000000001
2.2044184840051457,0,0,1.5059528442382812,0,0,0.84084
2.2069476940087043,0,0,1.5777788940429687,0,0,1.07016
2.209526680991985,0,0,1.22583125,0,0,0.84084
2.2120697240170557,0,0,1.0797849487304687,0,0,0.99372
2.214612379000755,0,0,1.5011644409179687,0,0,0.7644
2.2171533849905245,0,0,1.47482822265625,0,0,0.7644
2.219695445994148,0,0,1.3335703247070312,0,0,0.45864
2.2222390820097644,0,0,1.1013327636718748,0,0,0.84084
2.2247766809887253,0,0,1.35990654296875,0,0,0.7644
2.227317020006012,0,0,1.5227122558593749,0,0,0.99372
2.229861656000139,0,0,1.1755530151367186,0,0,0.99372
2.2324008470168337,0,0,1.1611878051757811,0,0,0.6115200000000001
2.234942075010622,0,0,1.2617442749023438,0,0,-8.867040000000001
2.2375078769982792,0,0,1.5275006591796874,0,0,0.99372
2.240050346008502,0,0,1.22583125,0,0,1.07016
2.242591296992032,0,0,1.1635820068359375,0,0,0.30576000000000003
2.2451300990069285,0,0,1.3192051147460937,0,0,0.30576000000000003
2.2476715309894644,0,0,1.5155296508789062,0,0,0.84084
2.2502132590161636,0,0,1.24498486328125,0,0,0.6115200000000001
2.2527805239951704,0,0,1.1276689819335937,0,0,0.68796
2.2553226790041663,0,0,1.1133037719726562,0,0,0.68796
2.25786498101661,0,0,1.4221557861328125,0,0,0.84084
2.2604046720080078,0,0,1.4437036010742186,0,0,0.99372
2.262959845014848,0,0,1.216254443359375,0,0,0.84084
2.2655024440027773,0,0,1.1659762084960936,0,0,0.84084
2.268130651995307,0,0,1.448492004394531,0,0,0.68796
2.270908395992592,0,0,1.5682020874023437,0,0,1.07016
2.2737074730102904,0,0,1.3455413330078123,0,0,0.91728
2.276504234992899,0,0,1.0941501586914062,0,0,0.84084
2.2793013310001697,0,0,1.5897499023437498,0,0,0.7644
2.282098315015901,0,0,1.3311761230468748,0,0,0.99372
2.284892541007139,0,0,1.1540052001953125,0,0,0.6115200000000001
2.2876902839925606,0,0,1.209071838378906,0,0,0.53508
2.290486806014087,0,0,1.3670891479492187,0,0,0.7644
2.2933081969968043,0,0,1.0821791503906248,0,0,0.91728
2.296106421999866,0,0,1.1468225952148436,0,0,0.6115200000000001
2.298903518007137,0,0,1.2473790649414063,0,0,0.68796
2.3017508540069684,0,0,1.3263877197265623,0,0,0.84084
2.3045491710072383,0,0,1.2617442749023438,0,0,0.0
2.3073497299919836,0,0,1.0295067138671874,0,0,0.53508
2.3101471590052824,0,0,1.5083470458984374,0,0,0.6115200000000001
2.3129421430057846,0,0,1.5753846923828123,0,0,0.99372
2.31573786798981,0,0,1.13006318359375,0,0,0.68796
2.3185353339940775,0,0,1.1516109985351561,0,0,0.6115200000000001
2.3213332630111836,0,0,1.4987702392578124,0,0,0.6115200000000001
2.3241290070000105,0,0,1.426944189453125,0,0,0.68796
2.3269252690079156,0,0,1.2593500732421874,0,0,0.6115200000000001
2.3297226979921106,0,0,1.149216796875,0,0,0.99372
2.3325167750008404,0,0,1.407790576171875,0,0,0.84084
2.335311945003923,0,0,1.5705962890624998,0,0,0.7644
2.338109614007408,0,0,1.1755530151367186,0,0,0.84084
2.340905006014509,0,0,1.2401964599609374,0,0,0.7644
2.3436972130148206,0,0,1.43652099609375,0,0,0.91728
2.3480571969994344,0,0,1.2473790649414063,0,0,0.68796
2.3509223099972587,0,0,1.1540052001953125,0,0,0.91728
2.3537246829946525,0,0,1.4508862060546874,0,0,0.6115200000000001
2.356529167998815,0,0,1.6208745239257811,0,0,1.1465999999999998
2.3593264300143346,0,0,1.2234370483398436,0,0,0.84084
2.3621289700095076,0,0,1.1037269653320312,0,0,0.91728
2.3649249539885204,0,0,1.4101847778320311,0,0,0.6115200000000001
2.3678177889960352,0,0,1.4053963745117186,0,0,1.07016
2.3707505310012493,0,0,1.2593500732421874,0,0,0.22932
2.3738691229955293,0,0,1.22583125,0,0,0.6115200000000001
2.3769841589964926,0,0,1.4508862060546874,0,0,1.1465999999999998
2.380554392992053,0,0,1.0941501586914062,0,0,0.68796
2.3836853739921935,0,0,1.1156979736328125,0,0,0.53508
2.386846056993818,0,0,1.438915197753906,0,0,0.84084
2.3899609640066046,0,0,1.0726023437499999,0,0,0.91728
2.3930668150132988,0,0,0.9935936889648437,0,0,0.53508
2.3961757209908683,0,0,1.388636962890625,0,0,0.99372
2.399283053993713,0,0,1.5538368774414062,0,0,1.911
2.4024099970120005,0,0,1.209071838378906,0,0,0.91728
2.405637773015769,0,0,1.1755530151367186,0,0,0.30576000000000003
2.4087449020007625,0,0,1.4125789794921875,0,0,0.91728
2.411840493994532,0,0,1.1707646118164061,0,0,0.45864
2.41494543699082,0,0,1.2138602416992186,0,0,0.45864
2.4180507879937068,0,0,1.419761584472656,0,0,0.7644
2.421261379000498,0,0,1.4700398193359374,0,0,0.91728
2.4244183959963266,0,0,1.0989385620117187,0,0,0.68796
2.4275101730017923,0,0,1.2114660400390624,0,0,0.7644
2.4306193939992227,0,0,1.4604630126953124,0,0,0.7644
2.433724449016154,0,0,1.1444283935546875,0,0,0.7644
2.4368311889993493,0,0,1.1085153686523437,0,0,1.1465999999999998
2.4399399470130447,0,0,1.6041151123046875,0,0,0.7644
2.4430479840084445,0,0,1.3311761230468748,0,0,1.1465999999999998
2.4461582980002277,0,0,1.0941501586914062,0,0,0.6115200000000001
2.4494871089991648,0,0,1.2617442749023438,0,0,0.6115200000000001
2.4525962930056266,0,0,1.446097802734375,0,0,0.84084
2.455704774009064,0,0,1.1827356201171875,0,0,0.7644
2.4588123470020946,0,0,1.1156979736328125,0,0,0.45864
2.4619184200128075,0,0,1.448492004394531,0,0,0.99372
2.46502412299742,0,0,1.3766659545898436,0,0,-8.71416
2.4681664739910048,0,0,1.197100830078125,0,0,0.68796
2.471276805998059,0,0,1.5179238525390624,0,0,0.6115200000000001
2.4743864159972873,0,0,1.4006079711914061,0,0,1.1465999999999998
2.477531785989413,0,0,1.3670891479492187,0,0,0.99372
2.480639229004737,0,0,1.1540052001953125,0,0,0.15288000000000002
2.4837472469953354,0,0,1.438915197753906,0,0,0.99372
2.4868543019983917,0,0,1.1923124267578125,0,0,0.84084
2.489963541011093,0,0,1.1276689819335937,0,0,0.7644
2.4930672440095805,0,0,1.4891934326171874,0,0,0.99372
2.496172724990174,0,0,1.3718775512695311,0,0,0.91728
2.499280371994246,0,0,1.1444283935546875,0,0,0.53508
2.5024068529892247,0,0,1.22583125,0,0,0.22932
2.5055157960159704,0,0,1.429338391113281,0,0,0.6115200000000001
2.5086235360067803,0,0,1.2138602416992186,0,0,0.84084
2.5117324060120154,0,0,1.1659762084960936,0,0,0.84084
2.514841071999399,0,0,1.43652099609375,0,0,0.91728
2.517954497016035,0,0,1.3383587280273437,0,0,0.91728
2.5210581260034814,0,0,1.1851298217773436,0,0,0.68796
2.5241660510073416,0,0,1.3479355346679687,0,0,0.45864
2.5272735680046026,0,0,1.5227122558593749,0,0,0.91728
2.5303826419985853,0,0,1.197100830078125,0,0,0.0
2.5334894740080927,0,0,1.1635820068359375,0,0,0.99372
2.536601380998036,0,0,1.43652099609375,0,0,0.99372
2.539709306001896,0,0,1.216254443359375,0,0,0.91728
2.5429019890143536,0,0,1.1659762084960936,0,0,0.84084
2.5460773580125533,0,0,1.2976572998046874,0,0,0.3822
2.5491878380125854,0,0,1.438915197753906,0,0,0.7644
2.5522960780072026,0,0,1.1133037719726562,0,0,0.53508
2.5553956700023264,0,0,1.2042834350585936,0,0,0.3822
2.5585815389931668,0,0,1.3910311645507811,0,0,0.68796
2.561697852012003,0,0,1.218648645019531,0,0,0.6115200000000001
2.564810333016794,0,0,1.1085153686523437,0,0,0.6115200000000001
2.567928517004475,0,0,1.4628572143554686,0,0,1.07016
2.5710711459978484,0,0,1.5777788940429687,0,0,0.91728
2.574176015012199,0,0,1.1180921752929687,0,0,0.7644
2.577313996007433,0,0,1.1731588134765625,0,0,0.53508
2.5804193840012886,0,0,1.4101847778320311,0,0,0.84084
2.5835329010151327,0,0,1.2210428466796874,0,0,0.7644
2.58666077000089,0,0,1.20667763671875,0,0,0.7644
2.589767250989098,0,0,1.6615759521484375,0,0,0.91728
2.592871399014257,0,0,1.3814543579101561,0,0,0.99372
2.5959839900024235,0,0,1.1540052001953125,0,0,0.91728
2.6010611510137096,0,0,1.6232687255859375,0,0,0.99372
2.6041852789931,0,0,1.2976572998046874,0,0,0.7644
2.607648033008445,0,0,1.0749965454101562,0,0,0.53508
2.610778291011229,0,0,1.39821376953125,0,0,0.91728
2.613900141994236,0,0,1.388636962890625,0,0,0.84084
2.617018585995538,0,0,1.1324573852539062,0,0,0.84084
2.6201715100032743,0,0,1.1731588134765625,0,0,0.3822
2.6232920280017424,0,0,1.4149731811523436,0,0,0.91728
2.626409490010701,0,0,1.3263877197265623,0,0,0.7644
2.6295597290154546,0,0,1.1563994018554686,0,0,0.6115200000000001
2.6326763019897044,0,0,1.4341267944335936,0,0,0.45864
2.6358263379952405,0,0,1.3215993164062498,0,0,1.07016
2.638947041006759,0,0,1.1085153686523437,0,0,0.91728
2.6420657800044864,0,0,1.0726023437499999,0,0,0.84084
2.645181168016279,0,0,1.5011644409179687,0,0,0.84084
2.6483140749915037,0,0,1.3096283081054687,0,0,0.68796
2.6514403140172362,0,0,1.2018892333984375,0,0,1.2230400000000001
2.6545563880063128,0,0,1.3910311645507811,0,0,0.91728
2.6576741640164983,0,0,1.3527239379882812,0,0,1.2994800000000002
2.660790422989521,0,0,1.1731588134765625,0,0,0.45864
2.663905996014364,0,0,1.369483349609375,0,0,0.7644
2.6670208100113086,0,0,1.39821376953125,0,0,0.84084
2.6701747530023567,0,0,1.1947066284179686,0,0,0.68796
2.6733210849924944,0,0,1.1109095703125,0,0,0.6115200000000001
2.676440768991597,0,0,1.2832920898437499,0,0,0.53508
2.6795571010152344,0,0,1.180341418457031,0,0,0.7644
2.6827185259899125,0,0,1.189918225097656,0,0,0.53508
2.685840062011266,0,0,1.2713210815429687,0,0,0.84084
2.6889531539927702,0,0,1.6543933471679686,0,0,1.1465999999999998
2.6920688379905187,0,0,1.1085153686523437,0,0,0.84084
2.695184373995289,0,0,1.20667763671875,0,0,0.30576000000000003
2.6983011880074628,0,0,1.2617442749023438,0,0,0.68796
2.701445890008472,0,0,1.1372457885742187,0,0,0.6115200000000001
2.7045617410039995,0,0,1.3168109130859373,0,0,0.91728
2.707705203007208,0,0,1.4341267944335936,0,0,0.99372
2.7108251090103295,0,0,1.37906015625,0,0,0.91728
2.7139806630148087,0,0,1.1563994018554686,0,0,0.7644
2.71710197700304,0,0,1.2832920898437499,0,0,0.68796
2.7202203840133734,0,0,1.3718775512695311,0,0,0.91728
2.723325383005431,0,0,1.180341418457031,0,0,0.68796
2.7264850480132736,0,0,1.2641384765625,0,0,0.84084
2.7296297500142828,0,0,1.407790576171875,0,0,0.68796
2.7327467490104027,0,0,1.3024457031249999,0,0,0.7644
2.735862970992457,0,0,1.1755530151367186,0,0,0.6115200000000001
2.738979265996022,0,0,1.2713210815429687,0,0,0.68796
2.742093728011241,0,0,1.4772224243164063,0,0,0.68796
2.7452405969961546,0,0,1.1659762084960936,0,0,1.07016
2.748357411008328,0,0,1.22583125,0,0,0.30576000000000003
2.751470724993851,0,0,1.4221557861328125,0,0,0.84084
2.754597298015142,0,0,1.0965443603515623,0,0,0.84084
2.7577587040141225,0,0,1.180341418457031,0,0,0.6115200000000001
2.7608601659885608,0,0,1.455674609375,0,0,0.84084
2.7640026650042273,0,0,1.4987702392578124,0,0,0.7644
2.767134700989118,0,0,1.3287819213867187,0,0,0.7644
2.770275570015656,0,0,1.1468225952148436,0,0,0.45864
2.7733756430097856,0,0,1.2521674682617188,0,0,0.84084
2.776474031008547,0,0,1.177947216796875,0,0,0.6115200000000001
2.77959347498836,0,0,1.0797849487304687,0,0,0.68796
2.7827104369935114,0,0,1.407790576171875,0,0,1.1465999999999998
2.7858303250104655,0,0,1.4796166259765624,0,0,0.99372
2.7889439910068177,0,0,1.1563994018554686,0,0,0.7644
2.7920592119917274,0,0,1.254561669921875,0,0,0.68796
2.795174766011769,0,0,1.3407529296874998,0,0,0.7644
2.798291690996848,0,0,1.20667763671875,0,0,0.45864
2.801435967994621,0,0,1.0726023437499999,0,0,1.07016
2.804559615004109,0,0,1.388636962890625,0,0,0.7644
2.807672596012708,0,0,1.3048399047851562,0,0,1.07016
2.8107882240146864,0,0,0.97683427734375,0,0,0.68796
2.813905741990311,0,0,1.3287819213867187,0,0,0.30576000000000003
2.817057203996228,0,0,1.2521674682617188,0,0,1.1465999999999998
2.820233628008282,0,0,1.158793603515625,0,0,0.84084
2.8233562750101555,0,0,1.369483349609375,0,0,0.3822
2.8264765700150747,0,0,1.2378022583007813,0,0,0.99372
2.829595179995522,0,0,1.199495031738281,0,0,0.6115200000000001
2.832710660994053,0,0,1.0438719238281249,0,0,0.45864
2.835827678005444,0,0,1.484405029296875,0,0,0.68796
2.838945474009961,0,0,1.5921441040039062,0,0,0.84084
2.8420642690034583,0,0,1.1276689819335937,0,0,0.6115200000000001
2.845206138008507,0,0,1.3958195678710936,0,0,0.22932
2.848383117991034,0,0,1.3551181396484375,0,0,0.84084
2.8515671899949666,0,0,1.209071838378906,0,0,0.91728
2.854692041000817,0,0,1.3718775512695311,0,0,0.7644
2.857811502995901,0,0,1.62805712890625,0,0,0.7644
2.8609240209916607,0,0,1.5394716674804687,0,0,0.91728
2.864039298001444,0,0,1.1731588134765625,0,0,0.45864
2.8671541860094294,0,0,1.2737152832031249,0,0,0.6115200000000001
2.870301146991551,0,0,1.448492004394531,0,0,0.91728
2.8734484419983346,0,0,1.2952630981445312,0,0,0.53508
2.8765632930153515,0,0,1.24498486328125,0,0,0.91728
2.8796780520060565,0,0,1.4317325927734375,0,0,1.2994800000000002
2.882794531993568,0,0,1.216254443359375,0,0,0.91728
2.885917920008069,0,0,1.1252747802734375,0,0,0.99372
2.889029604004463,0,0,1.2976572998046874,0,0,0.7644
2.8921443810104392,0,0,1.5298948608398437,0,0,0.84084
2.8952591760025825,0,0,1.149216796875,0,0,0.7644
2.89866776499548,0,0,1.2378022583007813,0,0,0.45864
2.9018460779916495,0,0,1.350329736328125,0,0,0.6115200000000001
2.9049625580082648,0,0,1.177947216796875,0,0,0.68796
2.908079093991546,0,0,1.3072341064453123,0,0,0.68796
2.911195779015543,0,0,1.4006079711914061,0,0,1.07016
2.9143287960032467,0,0,1.3958195678710936,0,0,0.84084
2.91744401701726,0,0,1.1420341918945311,0,0,0.53508
2.9205583310103975,0,0,1.3455413330078123,0,0,0.30576000000000003
2.923672589007765,0,0,1.2665326782226562,0,0,0.91728
2.926787922013318,0,0,1.0845733520507812,0,0,0.6115200000000001
2.9299045510124415,0,0,1.0989385620117187,0,0,1.1465999999999998
2.9330169940076303,0,0,1.5131354492187499,0,0,0.6115200000000001
2.9361315490095876,0,0,1.2665326782226562,0,0,0.99372
2.9392465479904786,0,0,1.1635820068359375,0,0,0.6115200000000001
2.9424579160113353,0,0,1.5083470458984374,0,0,0.68796
2.945579841005383,0,0,1.467645617675781,0,0,0.68796
2.9486940070055425,0,0,1.0989385620117187,0,0,0.68796
2.9518074319930747,0,0,1.216254443359375,0,0,0.45864
2.9553003149922006,0,0,1.3263877197265623,0,0,0.6115200000000001
2.9584142960084137,0,0,1.0821791503906248,0,0,0.7644
2.9616757369949482,0,0,1.2018892333984375,0,0,0.68796
2.9648012180114165,0,0,1.419761584472656,0,0,1.2230400000000001
2.9679195130011067,0,0,1.4125789794921875,0,0,0.84084
2.971066289988812,0,0,1.1923124267578125,0,0,0.45864
2.9741858259949367,0,0,1.448492004394531,0,0,0.6115200000000001
2.9774033979920205,0,0,1.465251416015625,0,0,0.99372
2.9805620810075197,0,0,1.1372457885742187,0,0,0.84084
2.9836830619897228,0,0,1.1611878051757811,0,0,0.6115200000000001
2.986800172016956,0,0,1.3862427612304686,0,0,0.7644
2.9899178560008295,0,0,1.4987702392578124,0,0,1.1465999999999998
2.9930311889911536,0,0,1.1755530151367186,0,0,0.45864
2.9961479660123587,0,0,1.4796166259765624,0,0,0.84084
2.999263798003085,0,0,1.43652099609375,0,0,0.99372
3.0023832230072003,0,0,1.3383587280273437,0,0,0.3822
3.0054981480061542,0,0,1.199495031738281,0,0,0.53508
3.008612331992481,0,0,1.3000515014648437,0,0,0.91728
3.011727998004062,0,0,1.218648645019531,0,0,0.53508
3.0148428860120475,0,0,1.1037269653320312,0,0,0.68796
3.0179583480057772,0,0,1.39821376953125,0,0,0.68796
3.0210721990151796,0,0,1.4724340209960938,0,0,0.7644
3.0241880870016757,0,0,1.3287819213867187,0,0,0.7644
3.0273039750172757,0,0,1.1109095703125,0,0,0.6115200000000001
3.030448214005446,0,0,1.3766659545898436,0,0,1.07016
3.033568379993085,0,0,1.1516109985351561,0,0,0.68796
3.036682767997263,0,0,1.3646949462890625,0,0,0.99372
3.0397983599978033,0,0,1.4221557861328125,0,0,0.91728
3.0429279700038023,0,0,1.438915197753906,0,0,0.7644
3.046044802002143,0,0,1.1468225952148436,0,0,0.91728
3.049157319997903,0,0,1.4341267944335936,0,0,0.68796
3.0522723929898348,0,0,1.5011644409179687,0,0,0.68796
3.055386224994436,0,0,1.1659762084960936,0,0,0.84084
3.0585465760086663,0,0,1.13006318359375,0,0,0.99372
3.061664982000366,0,0,1.4724340209960938,0,0,0.68796
3.0647783140011597,0,0,1.3096283081054687,0,0,0.84084
3.0678909799898975,0,0,1.2880804931640624,0,0,0.45864
3.0710307199915405,0,0,1.4245499877929686,0,0,0.68796
3.0741510890075006,0,0,1.4508862060546874,0,0,0.99372
3.0772655330074485,0,0,1.1276689819335937,0,0,0.7644
3.080429568013642,0,0,1.2617442749023438,0,0,0.7644
3.0835458819929045,0,0,1.4724340209960938,0,0,0.99372
3.0866616959974635,0,0,1.0989385620117187,0,0,0.7644
3.089780490990961,0,0,1.199495031738281,0,0,0.53508
3.0928934900148306,0,0,1.438915197753906,0,0,0.84084
3.09600882299128,0,0,1.5298948608398437,0,0,0.68796
3.1007109319907613,0,0,1.0893617553710937,0,0,0.45864
3.103872022998985,0,0,1.4317325927734375,0,0,0.84084
3.106990633008536,0,0,1.3168109130859373,0,0,0.7644
3.110110262001399,0,0,1.180341418457031,0,0,0.53508
3.1132232430099975,0,0,1.2952630981445312,0,0,0.7644
3.116339186002733,0,0,1.2976572998046874,0,0,0.7644
3.1194589259976055,0,0,1.1659762084960936,0,0,0.68796
3.1225760919915047,0,0,1.0941501586914062,0,0,0.7644
3.12569368298864,0,0,1.4413093994140624,0,0,0.6115200000000001
3.128814219002379,0,0,1.5418658691406248,0,0,0.68796
3.1319298300077207,0,0,1.1731588134765625,0,0,0.3822
3.1350434950145427,0,0,1.4413093994140624,0,0,0.68796
3.1381598460138775,0,0,1.2928688964843749,0,0,0.7644
3.1413338819984347,0,0,1.0821791503906248,0,0,0.7644
3.144460509996861,0,0,1.3383587280273437,0,0,0.68796
3.1475905459956266,0,0,1.47482822265625,0,0,0.68796
3.1507060269941576,0,0,1.3024457031249999,0,0,0.91728
3.153823228989495,0,0,1.1156979736328125,0,0,0.53508
3.156942561996402,0,0,1.4700398193359374,0,0,0.6115200000000001
3.1600596719945315,0,0,1.39821376953125,0,0,0.68796
3.1631985970016103,0,0,1.180341418457031,0,0,0.6115200000000001
3.1663126700150315,0,0,1.2641384765625,0,0,0.53508
3.1696866099955514,0,0,1.4963760375976562,0,0,0.6115200000000001
3.1728187760163564,0,0,1.3718775512695311,0,0,0.6115200000000001
3.175935904000653,0,0,1.3072341064453123,0,0,1.07016
3.1793674739892595,0,0,1.5705962890624998,0,0,0.6115200000000001
3.1826753779896535,0,0,1.3862427612304686,0,0,0.53508
3.1867266620101873,0,0,1.1252747802734375,0,0,0.53508
3.1898462910030503,0,0,1.4173673828125,0,0,0.91728
3.1929464010172524,0,0,1.2282254516601563,0,0,0.84084
3.196044789016014,0,0,1.1061211669921875,0,0,0.68796
3.199166584003251,0,0,1.2785036865234374,0,0,0.91728
3.2023409160028677,0,0,1.2952630981445312,0,0,0.7644
3.205463210993912,0,0,1.1635820068359375,0,0,0.3822
3.20858715500799,0,0,1.3000515014648437,0,0,1.07016
3.211706375994254,0,0,1.429338391113281,0,0,0.84084
3.21482428201125,0,0,1.3551181396484375,0,0,0.7644
3.217943652009126,0,0,1.0845733520507812,0,0,0.6115200000000001
3.221058669005288,0,0,1.5298948608398437,0,0,0.84084
3.224176335002994,0,0,1.3623007446289062,0,0,1.2230400000000001
3.2272931490151677,0,0,1.24498486328125,0,0,0.53508
3.2304116479936056,0,0,1.0749965454101562,0,0,0.91728
3.2335597019991837,0,0,1.5275006591796874,0,0,0.91728
3.236655053013237,0,0,1.2473790649414063,0,0,0.6115200000000001
3.239785367011791,0,0,1.1516109985351561,0,0,0.68796
3.242933477013139,0,0,1.4508862060546874,0,0,0.6115200000000001
3.246050643007038,0,0,1.446097802734375,0,0,1.07016
3.249163642001804,0,0,1.1540052001953125,0,0,0.91728
3.2522786959889345,0,0,1.3527239379882812,0,0,0.3822
3.25539517699508,0,0,1.47482822265625,0,0,1.1465999999999998
3.2585132690146565,0,0,1.2234370483398436,0,0,0.6115200000000001
3.2616310820158105,0,0,1.1324573852539062,0,0,0.6115200000000001
3.264743545005331,0,0,1.5059528442382812,0,0,0.84084
3.267860340012703,0,0,1.4867992309570313,0,0,0.7644
3.2710839489882346,0,0,1.1276689819335937,0,0,0.68796
3.274034672009293,0,0,1.3646949462890625,0,0,0.45864
3.2768309529928956,0,0,1.2689268798828124,0,0,0.84084
3.2796306959935464,0,0,1.1755530151367186,0,0,0.99372
3.2824698660115246,0,0,1.1635820068359375,0,0,0.53508
3.285270683001727,0,0,1.350329736328125,0,0,0.6115200000000001
3.2881048709969036,0,0,1.2569558715820313,0,0,0.7644
3.2909017259953544,0,0,1.1851298217773436,0,0,0.6115200000000001
3.293726653995691,0,0,1.1420341918945311,0,0,0.45864
3.2965229169931263,0,0,1.3359645263671873,0,0,0.6115200000000001
3.29932104900945,0,0,1.3096283081054687,0,0,0.45864
3.302119625994237,0,0,1.1851298217773436,0,0,0.68796
3.3049161480157636,0,0,1.2593500732421874,0,0,0.68796
3.3077130210003816,0,0,1.4341267944335936,0,0,0.68796
3.310511449992191,0,0,1.3862427612304686,0,0,0.7644
3.3133098229882307,0,0,1.3575123413085937,0,0,0.30576000000000003
3.316106345009757,0,0,1.22583125,0,0,0.84084
3.3189021440048236,0,0,1.446097802734375,0,0,0.91728
3.321700258005876,0,0,1.369483349609375,0,0,0.68796
3.324495039007161,0,0,1.1444283935546875,0,0,0.7644
3.3272919860028196,0,0,1.3072341064453123,0,0,0.6115200000000001
3.3300910819962155,0,0,1.458068811035156,0,0,0.91728
3.3329003440157976,0,0,1.3646949462890625,0,0,0.68796
3.3356976060022134,0,0,1.199495031738281,0,0,0.84084
3.338493663992267,0,0,1.199495031738281,0,0,0.30576000000000003
3.341317018988775,0,0,1.388636962890625,0,0,0.91728
3.3441154480096884,0,0,1.216254443359375,0,0,0.91728
3.3469119879882783,0,0,1.1923124267578125,0,0,0.45864
3.349777619994711,0,0,1.484405029296875,0,0,0.6115200000000001
3.3526465100003406,0,0,1.4604630126953124,0,0,0.53508
3.3554863650060724,0,0,1.0965443603515623,0,0,0.99372
3.358277868013829,0,0,1.3096283081054687,0,0,0.7644
3.3610623519925866,0,0,1.4317325927734375,0,0,0.68796
3.3639056510000955,0,0,1.4101847778320311,0,0,0.91728
3.3669230960076675,0,0,1.3551181396484375,0,0,0.68796
3.3697176729911007,0,0,1.2928688964843749,0,0,0.91728
3.3725887490145396,0,0,1.5179238525390624,0,0,0.99372
3.3756395269883797,0,0,1.2593500732421874,0,0,1.68168
3.3787407299969345,0,0,1.2713210815429687,0,0,0.53508
3.3818434510030784,0,0,1.3192051147460937,0,0,0.45864
3.38493870999082,0,0,1.3048399047851562,0,0,0.6115200000000001
3.3880415789899416,0,0,1.3359645263671873,0,0,0.68796
3.391138022998348,0,0,1.1037269653320312,0,0,1.07016
3.394252152007539,0,0,1.4987702392578124,0,0,0.91728
3.3973711320140865,0,0,1.5131354492187499,0,0,0.99372
3.400487389997579,0,0,1.177947216796875,0,0,-9.09636
3.4036057600169443,0,0,1.438915197753906,0,0,0.84084
3.406721628998639,0,0,1.438915197753906,0,0,0.99372
3.4098486469883937,0,0,1.3024457031249999,0,0,0.7644
3.4129605159978382,0,0,1.3766659545898436,0,0,0.6115200000000001
3.416110532998573,0,0,1.37906015625,0,0,0.91728
3.4192258290131576,0,0,1.3359645263671873,0,0,0.7644
3.4224342340021394,0,0,1.120486376953125,0,0,0.6115200000000001
3.4255807700101286,0,0,1.429338391113281,0,0,0.99372
3.4287199169921223,0,0,1.5275006591796874,0,0,0.84084
3.4318225090100896,0,0,1.2713210815429687,0,0,0.6115200000000001
3.4349203600140754,0,0,1.3383587280273437,0,0,0.53508
3.438020266010426,0,0,1.2928688964843749,0,0,0.84084
3.4411152100074105,0,0,0.9528922607421875,0,0,0.84084
3.444234171998687,0,0,1.3383587280273437,0,0,0.91728
3.4473489859956317,0,0,1.4891934326171874,0,0,0.99372
3.450464577996172,0,0,1.0989385620117187,0,0,0.84084
3.453581187990494,0,0,1.0773907470703123,0,0,0.7644
3.4566940950171556,0,0,1.3359645263671873,0,0,0.6115200000000001
3.4598084820026997,0,0,1.429338391113281,0,0,0.91728
3.4629229819984175,0,0,1.177947216796875,0,0,0.84084
3.466038498998387,0,0,1.2018892333984375,0,0,0.99372
3.469150498014642,0,0,1.4700398193359374,0,0,0.68796
3.472345996007789,0,0,1.2713210815429687,0,0,0.7644
3.4754667920060456,0,0,1.0989385620117187,0,0,0.53508
3.478583846008405,0,0,1.455674609375,0,0,0.6115200000000001
3.4817004190117586,0,0,1.4053963745117186,0,0,0.68796
3.4848131040052976,0,0,1.3359645263671873,0,0,0.91728
3.4879293070116546,0,0,1.0773907470703123,0,0,0.30576000000000003
3.491043009009445,0,0,1.5083470458984374,0,0,0.99372
3.4941588419897016,0,0,1.149216796875,0,0,0.84084
3.497271489002742,0,0,1.2210428466796874,0,0,0.68796
3.5004635980003513,0,0,1.5083470458984374,0,0,0.6115200000000001
3.5035845050006174,0,0,1.5035586425781249,0,0,0.68796
3.506700041005388,0,0,1.0869675537109373,0,0,0.53508
3.509816484001931,0,0,1.1420341918945311,0,0,0.53508
3.5129283349961042,0,0,1.2832920898437499,0,0,0.84084
3.51604133399087,0,0,1.0821791503906248,0,0,0.7644
3.5191564630076755,0,0,1.2138602416992186,0,0,0.53508
3.522272609989159,0,0,1.467645617675781,0,0,0.99372
3.5254138500022236,0,0,1.2737152832031249,0,0,0.45864
3.528531053016195,0,0,1.3742717529296875,0,0,0.6115200000000001
3.531645089009544,0,0,1.3048399047851562,0,0,0.68796
3.534758994996082,0,0,1.3646949462890625,0,0,0.7644
3.5378731790115125,0,0,1.1731588134765625,0,0,0.84084
3.5409858819912188,0,0,1.2641384765625,0,0,0.6115200000000001
3.544114307005657,0,0,1.47482822265625,0,0,-9.01992
3.547655931004556,0,0,1.1731588134765625,0,0,0.45864
3.5507804109947756,0,0,1.1252747802734375,0,0,0.84084
3.5538978170079645,0,0,1.5083470458984374,0,0,1.07016
3.557359700993402,0,0,1.4820108276367188,0,0,0.84084
3.5604662190016825,0,0,1.158793603515625,0,0,0.68796
3.5637981040054,0,0,1.1228805786132812,0,0,1.07016
3.566900714999065,0,0,1.3000515014648437,0,0,0.84084
3.570012379990658,0,0,1.2114660400390624,0,0,0.68796
3.5731457869987935,0,0,1.1348515869140625,0,0,0.91728
3.5762441380065866,0,0,1.47482822265625,0,0,0.68796
3.5793606000079308,0,0,1.1468225952148436,0,0,0.91728
3.582561153016286,0,0,1.3575123413085937,0,0,0.53508
3.5856829489930533,0,0,1.3455413330078123,0,0,0.7644
3.5887974110082723,0,0,1.2976572998046874,0,0,0.7644
3.5919148540124297,0,0,1.218648645019531,0,0,0.7644
3.595044409012189,0,0,1.3144167114257812,0,0,0.30576000000000003
3.598160760011524,0,0,1.3024457031249999,0,0,1.1465999999999998
3.601339351007482,0,0,1.0749965454101562,0,0,0.53508
3.6045111269922927,0,0,1.1875240234375,0,0,0.30576000000000003
3.607629533013096,0,0,1.4173673828125,0,0,1.1465999999999998
3.610745420999592,0,0,1.5083470458984374,0,0,0.68796
3.6138643650047015,0,0,1.158793603515625,0,0,0.68796
3.616978308011312,0,0,1.2330138549804688,0,0,0.30576000000000003
3.6200927699974272,0,0,1.446097802734375,0,0,0.91728
3.6232077140011825,0,0,1.0941501586914062,0,0,0.7644
3.626358842011541,0,0,1.2521674682617188,0,0,0.53508
3.6294745079940185,0,0,1.4772224243164063,0,0,1.07016
3.6325894329929724,0,0,1.39821376953125,0,0,1.2994800000000002
3.635702653991757,0,0,1.3120225097656248,0,0,0.68796
3.638817505008774,0,0,1.235408056640625,0,0,0.68796
3.6419330410135444,0,0,1.2928688964843749,0,0,0.84084
3.6450447069946676,0,0,1.2042834350585936,0,0,0.6115200000000001
3.6481605579901952,0,0,1.0989385620117187,0,0,0.91728
3.6512749459943734,0,0,1.5179238525390624,0,0,0.84084
3.6543929819890764,0,0,1.2330138549804688,0,0,1.07016
3.657518722000532,0,0,1.180341418457031,0,0,0.6115200000000001
3.6606336839904543,0,0,1.369483349609375,0,0,0.84084
3.6637502200028393,0,0,1.2808978881835937,0,0,0.84084
3.6668998110108078,0,0,1.1851298217773436,0,0,0.99372
3.670020810008282,0,0,1.2737152832031249,0,0,1.07016
3.673172290000366,0,0,1.2521674682617188,0,0,0.91728
3.676639970013639,0,0,1.1875240234375,0,0,0.7644
3.679812727990793,0,0,1.139639990234375,0,0,0.6115200000000001
3.682930375012802,0,0,1.4245499877929686,0,0,0.91728
3.6860471699910704,0,0,1.3718775512695311,0,0,0.45864
3.689163261995418,0,0,1.149216796875,0,0,0.84084
3.6922798909945413,0,0,1.2665326782226562,0,0,0.6115200000000001
3.6953939080121927,0,0,1.2378022583007813,0,0,0.7644
3.698512536997441,0,0,1.1013327636718748,0,0,0.6115200000000001
3.701628498994978,0,0,1.199495031738281,0,0,1.07016
3.704740535002202,0,0,1.3958195678710936,0,0,0.7644
3.7080041430017445,0,0,1.3215993164062498,0,0,0.91728
3.71112693901523,0,0,1.0893617553710937,0,0,0.45864
3.7142465299984906,0,0,1.3311761230468748,0,0,0.68796
3.7173632699996233,0,0,1.419761584472656,0,0,0.7644
3.720480251009576,0,0,1.254561669921875,0,0,0.6115200000000001
3.7236198050086387,0,0,1.3096283081054687,0,0,0.68796
3.7267536190047394,0,0,1.5107412475585937,0,0,0.91728
3.7299182650167495,0,0,1.3383587280273437,0,0,0.6115200000000001
3.7330370050040074,0,0,1.1085153686523437,0,0,0.99372
3.7361555230163503,0,0,1.4317325927734375,0,0,0.84084
3.739272911014268,0,0,1.407790576171875,0,0,1.1465999999999998
3.7423915950057562,0,0,1.0941501586914062,0,0,0.84084
3.745503946003737,0,0,1.2425906616210938,0,0,0.68796
3.7486013890011236,0,0,1.4341267944335936,0,0,1.07016
3.7517177400004584,0,0,1.3192051147460937,0,0,0.7644
3.7552270680025686,0,0,1.20667763671875,0,0,0.91728
3.7583494930004235,0,0,1.6304513305664061,0,0,0.7644
3.7618873020110186,0,0,1.3335703247070312,0,0,0.99372
3.7649901529948693,0,0,1.1180921752929687,0,0,0.45864
3.7680889850016683,0,0,1.455674609375,0,0,0.99372
3.771189521998167,0,0,1.448492004394531,0,0,0.84084
3.774329242995009,0,0,1.2425906616210938,0,0,1.1465999999999998
3.777461963996757,0,0,1.2832920898437499,0,0,0.91728
3.780580091988668,0,0,1.3263877197265623,0,0,0.91728
3.7836969060008414,0,0,1.2976572998046874,0,0,0.53508
3.786813960992731,0,0,1.3718775512695311,0,0,0.53508
3.789933034015121,0,0,1.467645617675781,0,0,0.84084
3.7930481630028225,0,0,1.2832920898437499,0,0,0.84084
3.7961499580123927,0,0,1.1324573852539062,0,0,0.84084
3.799265050009126,0,0,1.3527239379882812,0,0,0.68796
3.802443399996264,0,0,1.455674609375,0,0,0.84084
3.8056066209974233,0,0,1.1228805786132812,0,0,0.91728
3.808720435015857,0,0,1.20667763671875,0,0,0.84084
3.8118723960069474,0,0,1.465251416015625,0,0,0.84084
3.814987951016519,0,0,1.1611878051757811,0,0,0.84084
3.8181052829895634,0,0,1.2713210815429687,0,0,0.53508
3.8212178190005943,0,0,1.2904746948242187,0,0,0.53508
3.8243477630021516,0,0,1.3096283081054687,0,0,0.84084
3.8274696140142623,0,0,1.1037269653320312,0,0,0.6115200000000001
3.830584501993144,0,0,1.2880804931640624,0,0,1.07016
3.8336999820021447,0,0,1.4413093994140624,0,0,0.7644
3.8368118520011194,0,0,1.189918225097656,0,0,0.84084
3.8399238320125733,0,0,1.0845733520507812,0,0,0.3822
3.843036498001311,0,0,1.4700398193359374,0,0,0.91728
3.8461524230078794,0,0,1.3814543579101561,0,0,0.91728
3.8492637549934443,0,0,1.16837041015625,0,0,0.53508
3.8538245699892286,0,0,1.5251064575195312,0,0,0.68796
3.8569674949976616,0,0,1.3934253662109375,0,0,0.91728
3.860087161010597,0,0,1.3263877197265623,0,0,0.84084
3.8632061970129143,0,0,1.3623007446289062,0,0,0.30576000000000003
3.8663222700124606,0,0,1.39821376953125,0,0,0.91728
3.869625822000671,0,0,1.0845733520507812,0,0,0.91728
3.872786357998848,0,0,1.2018892333984375,0,0,0.30576000000000003
3.8759057830029633,0,0,1.5011644409179687,0,0,1.1465999999999998
3.879023410991067,0,0,1.4317325927734375,0,0,0.68796
3.8821837620052975,0,0,1.0869675537109373,0,0,0.68796
3.8853326860116795,0,0,1.2737152832031249,0,0,1.07016
3.888457796012517,0,0,1.2761094848632812,0,0,0.22932
3.8915736289927736,0,0,1.1061211669921875,0,0,0.45864
3.8946887199999765,0,0,1.2617442749023438,0,0,0.99372
3.8978050159930717,0,0,1.3958195678710936,0,0,0.91728
3.900918219005689,0,0,1.2306196533203124,0,0,0.99372
3.9040333660086617,0,0,1.218648645019531,0,0,0.45864
3.907151754014194,0,0,1.2856862915039062,0,0,0.84084
3.9102672710141633,0,0,1.3766659545898436,0,0,0.84084
3.9133829190104734,0,0,1.2306196533203124,0,0,1.911
3.916498158010654,0,0,1.3455413330078123,0,0,0.68796
3.919613972015213,0,0,1.5035586425781249,0,0,0.99372
3.9227593780087773,0,0,1.2210428466796874,0,0,0.68796
3.925877544010291,0,0,1.2234370483398436,0,0,0.3822
3.9289907469938044,0,0,1.2880804931640624,0,0,0.7644
3.932104783016257,0,0,1.4939818359375,0,0,0.68796
3.935219467006391,0,0,1.1659762084960936,0,0,0.84084
3.9383360219944734,0,0,1.3192051147460937,0,0,0.68796
3.9414507430046797,0,0,1.4700398193359374,0,0,0.84084
3.944583650009008,0,0,1.3192051147460937,0,0,0.53508
3.9476987039961386,0,0,1.2808978881835937,0,0,0.7644
3.9508141849946696,0,0,1.4796166259765624,0,0,0.91728
3.9539297760056797,0,0,1.254561669921875,0,0,0.68796
3.9570514789957087,0,0,1.2234370483398436,0,0,0.6115200000000001
3.9601653490099125,0,0,1.2952630981445312,0,0,0.6115200000000001
3.963282903016079,0,0,1.4341267944335936,0,0,0.6115200000000001
3.966396199015435,0,0,1.1156979736328125,0,0,0.6115200000000001
3.969629047991475,0,0,1.2282254516601563,0,0,1.1465999999999998
3.9727514919941314,0,0,1.484405029296875,0,0,0.7644
3.9758749720058404,0,0,1.35990654296875,0,0,0.7644
3.978990748990327,0,0,1.1156979736328125,0,0,0.7644
3.9821097110107075,0,0,1.2832920898437499,0,0,0.68796
3.9852609320078045,0,0,1.3670891479492187,0,0,0.7644
3.9884245970170014,0,0,1.1133037719726562,0,0,0.7644
3.9915400769968983,0,0,1.209071838378906,0,0,0.84084
3.994655317015713,0,0,1.5203180541992187,0,0,1.07016
3.9977734640124254,0,0,0.9313444458007812,0,0,0.68796
4.00088644499192,0,0,1.0773907470703123,0,0,0.45864
4.004000240005553,0,0,1.5131354492187499,0,0,0.6115200000000001
4.0071149799914565,0,0,1.3646949462890625,0,0,0.84084
4.0102315160038415,0,0,1.1348515869140625,0,0,0.99372
4.013344719016459,0,0,1.2473790649414063,0,0,0.3822
4.016461810999317,0,0,1.4987702392578124,0,0,0.91728
4.01957530999789,0,0,1.120486376953125,0,0,0.7644
4.022718772001099,0,0,1.218648645019531,0,0,0.53508
4.02583401100128,0,0,1.4125789794921875,0,0,1.07016
4.028943937009899,0,0,1.5275006591796874,0,0,0.68796
4.03205758400145,0,0,1.16837041015625,0,0,0.53508
4.035172027011868,0,0,1.2497732666015624,0,0,0.68796
4.038300100015476,0,0,1.2928688964843749,0,0,0.53508
4.041455247002887,0,0,1.2042834350585936,0,0,0.53508
4.0445719310082495,0,0,1.2138602416992186,0,0,0.7644
4.047687634010799,0,0,1.467645617675781,0,0,0.91728
4.050800800003344,0,0,1.3575123413085937,0,0,0.99372
4.053915466007311,0,0,1.139639990234375,0,0,0.53508
4.05702650200692,0,0,1.3024457031249999,0,0,0.7644
4.060139797016745,0,0,1.3311761230468748,0,0,1.1465999999999998
4.0632538520148955,0,0,1.13006318359375,0,0,0.53508
4.066367851017276,0,0,1.1109095703125,0,0,0.99372
4.069603885989636,0,0,1.458068811035156,0,0,0.91728
4.072725698992144,0,0,1.1635820068359375,0,0,0.68796
4.075899827003013,0,0,1.218648645019531,0,0,0.45864
4.079018067015568,0,0,1.2880804931640624,0,0,0.84084
4.082134917989606,0,0,1.4604630126953124,0,0,0.68796
4.085249158000806,0,0,1.369483349609375,0,0,0.68796
4.088366026990116,0,0,1.216254443359375,0,0,0.3822
4.091481451992877,0,0,1.3742717529296875,0,0,0.91728
4.094595970003866,0,0,1.0726023437499999,0,0,0.91728
4.097708951012464,0,0,1.13006318359375,0,0,1.2994800000000002
4.101731809001649,0,0,1.2761094848632812,0,0,0.99372
4.106606620014645,0,0,1.3072341064453123,0,0,0.7644
4.109733952005627,0,0,1.3455413330078123,0,0,0.68796
4.11285222900915,0,0,1.4317325927734375,0,0,1.2994800000000002
4.115972116997,0,0,1.0869675537109373,0,0,0.6115200000000001
4.119091133994516,0,0,1.1659762084960936,0,0,0.53508
4.122242022014689,0,0,1.4508862060546874,0,0,0.6115200000000001
4.125358521007001,0,0,1.5035586425781249,0,0,0.53508
4.128476223995676,0,0,1.2306196533203124,0,0,0.6115200000000001
4.131592666992219,0,0,1.5179238525390624,0,0,0.53508
4.134710165992146,0,0,1.235408056640625,0,0,0.84084
4.137827777012717,0,0,1.218648645019531,0,0,0.91728
4.140941849997034,0,0,1.1755530151367186,0,0,0.6115200000000001
4.144058181991568,0,0,1.4317325927734375,0,0,0.84084
4.147173217992531,0,0,1.47482822265625,0,0,0.84084
4.150299975997768,0,0,1.2761094848632812,0,0,0.53508
4.153470827004639,0,0,1.2593500732421874,0,0,0.84084
4.156580715003656,0,0,1.3646949462890625,0,0,0.53508
4.159701732016401,0,0,1.2234370483398436,0,0,0.6115200000000001
4.162812657014001,0,0,1.0989385620117187,0,0,0.7644
4.165929470997071,0,0,1.455674609375,0,0,0.91728
4.169044025999028,0,0,1.3263877197265623,0,0,0.91728
4.172145857999567,0,0,1.0941501586914062,0,0,0.6115200000000001
4.175297431007493,0,0,1.2689268798828124,0,0,0.45864
4.178407597006299,0,0,1.4006079711914061,0,0,0.7644
4.181799685000442,0,0,1.3287819213867187,0,0,0.53508
4.185032776003936,0,0,1.2234370483398436,0,0,0.68796
4.18828053199104,0,0,1.4867992309570313,0,0,0.68796
4.191423809010303,0,0,1.1707646118164061,0,0,0.68796
4.194542567012832,0,0,1.2785036865234374,0,0,0.68796
4.197660233010538,0,0,1.419761584472656,0,0,0.7644
4.200776749989018,0,0,1.4987702392578124,0,0,0.99372
4.20389513799455,0,0,1.3359645263671873,0,0,0.7644
4.207012119004503,0,0,1.2641384765625,0,0,0.84084
4.210165432014037,0,0,1.3455413330078123,0,0,0.99372
4.213320467999438,0,0,1.1755530151367186,0,0,0.6115200000000001
4.216522428992903,0,0,1.1827356201171875,0,0,1.37592
4.219646076002391,0,0,1.2832920898437499,0,0,0.84084
4.222783481993247,0,0,1.2761094848632812,0,0,0.6115200000000001
4.225902889011195,0,0,1.0773907470703123,0,0,0.6115200000000001
4.229017017001752,0,0,1.3862427612304686,0,0,0.6115200000000001
4.232137682993198,0,0,1.2521674682617188,0,0,0.84084
4.235254460014403,0,0,1.1228805786132812,0,0,0.7644
4.238372274005087,0,0,1.3359645263671873,0,0,0.91728
4.241488383995602,0,0,1.4101847778320311,0,0,1.07016
4.244604623992927,0,0,1.2401964599609374,0,0,0.53508
4.247722992993658,0,0,1.01514150390625,0,0,0.45864
4.2508408070134465,0,0,1.4053963745117186,0,0,0.91728
4.25395873200614,0,0,1.4724340209960938,0,0,2.2931999999999997
4.257073193992255,0,0,1.2904746948242187,0,0,0.84084
4.260188971005846,0,0,1.2569558715820313,0,0,0.3822
4.263306637003552,0,0,1.2856862915039062,0,0,0.99372
4.266424709989224,0,0,1.1540052001953125,0,0,0.7644
4.269586042006267,0,0,1.3096283081054687,0,0,0.91728
4.272703096008627,0,0,1.6831237670898436,0,0,1.1465999999999998
4.275852373015368,0,0,1.4125789794921875,0,0,0.84084
4.278969778999453,0,0,1.3407529296874998,0,0,0.68796
4.282087611994939,0,0,1.35990654296875,0,0,0.53508
4.285202592000132,0,0,1.22583125,0,0,0.6115200000000001
4.288319295010297,0,0,1.369483349609375,0,0,0.53508
4.291464923007879,0,0,1.3311761230468748,0,0,1.07016
4.294580793008208,0,0,1.4987702392578124,0,0,1.07016
4.297697698988486,0,0,1.2378022583007813,0,0,1.07016
4.300811660999898,0,0,1.1468225952148436,0,0,0.3822
4.303927531000227,0,0,1.2497732666015624,0,0,0.68796
4.307043622015044,0,0,1.22583125,0,0,0.84084
4.310160399007145,0,0,1.0845733520507812,0,0,0.7644
4.313304194016382,0,0,1.2880804931640624,0,0,0.68796
4.316425730008632,0,0,1.3527239379882812,0,0,0.6115200000000001
4.319560766016366,0,0,1.20667763671875,0,0,0.68796
4.322677876014495,0,0,1.2952630981445312,0,0,0.68796
4.325794320000568,0,0,1.3527239379882812,0,0,0.84084
4.328908782015787,0,0,1.39821376953125,0,0,0.84084
4.332024466013536,0,0,1.1180921752929687,0,0,1.07016
4.335139558010269,0,0,1.1875240234375,0,0,0.07644000000000001
4.338257057010196,0,0,1.2928688964843749,0,0,0.7644
4.341391426016344,0,0,1.209071838378906,0,0,0.53508
4.344508462003432,0,0,1.2210428466796874,0,0,0.7644
4.347626442991896,0,0,1.39821376953125,0,0,0.91728
4.350748090015259,0,0,1.3862427612304686,0,0,1.07016
4.353967439004919,0,0,1.254561669921875,0,0,0.53508
4.357188955997117,0,0,1.467645617675781,0,0,0.7644
4.36030877000303,0,0,1.3455413330078123,0,0,0.6115200000000001
4.363441009016242,0,0,1.235408056640625,0,0,0.91728
4.366558248992078,0,0,1.350329736328125,0,0,1.07016
4.369681322015822,0,0,1.5346832641601562,0,0,0.84084
4.372794302995317,0,0,1.350329736328125,0,0,1.07016
4.375944152998272,0,0,1.1516109985351561,0,0,0.6115200000000001
4.379061004001414,0,0,1.2928688964843749,0,0,-8.943480000000001
4.382179225009168,0,0,1.3455413330078123,0,0,1.1465999999999998
4.385332131001633,0,0,1.2641384765625,0,0,0.99372
4.388455167005304,0,0,1.1540052001953125,0,0,0.99372
4.391569241008256,0,0,1.5131354492187499,0,0,0.7644
4.394683405989781,0,0,1.1324573852539062,0,0,0.91728
4.397800664999522,0,0,1.0917559570312498,0,0,0.6115200000000001
4.400923664012225,0,0,1.2521674682617188,0,0,0.84084
4.404039699991699,0,0,1.2761094848632812,0,0,0.91728
4.407162401999813,0,0,1.3431471313476562,0,0,0.91728
4.4102793089987244,0,0,1.2665326782226562,0,0,0.53508
4.413427307998063,0,0,1.254561669921875,0,0,1.07016
4.416545788000803,0,0,1.1707646118164061,0,0,0.68796
4.4196937500091735,0,0,1.1156979736328125,0,0,0.84084
4.422863804007648,0,0,1.5179238525390624,0,0,1.07016
4.42598054400878,0,0,1.3215993164062498,0,0,0.84084
4.429094969003927,0,0,1.1372457885742187,0,0,0.84084
4.432210133993067,0,0,1.2689268798828124,0,0,0.15288000000000002
4.43532735601184,0,0,1.3287819213867187,0,0,0.6115200000000001
4.438443021004787,0,0,1.1252747802734375,0,0,0.7644
4.44159061301616,0,0,1.1085153686523437,0,0,0.84084
4.444704833993455,0,0,1.5131354492187499,0,0,0.6115200000000001
4.4478188150096685,0,0,1.4963760375976562,0,0,1.07016
4.4509335909970105,0,0,1.2808978881835937,0,0,0.53508
4.454050628002733,0,0,1.2785036865234374,0,0,0.91728
4.457163015991682,0,0,1.4149731811523436,0,0,0.6115200000000001
4.460276847996283,0,0,1.1013327636718748,0,0,0.68796
4.4633914770092815,0,0,1.350329736328125,0,0,1.07016
4.466535420011496,0,0,1.5275006591796874,0,0,0.99372
4.4696499739948194,0,0,1.458068811035156,0,0,0.68796
4.472788954997668,0,0,1.1731588134765625,0,0,0.7644
4.475906212988775,0,0,1.5179238525390624,0,0,0.84084
4.4790544339921325,0,0,1.388636962890625,0,0,0.53508
4.482175673998427,0,0,1.3431471313476562,0,0,0.7644
4.485323691013036,0,0,1.2880804931640624,0,0,0.45864
4.488763889996335,0,0,1.407790576171875,0,0,0.68796
4.491883537004469,0,0,1.20667763671875,0,0,0.68796
4.4950002580008,0,0,1.189918225097656,0,0,0.53508
4.4981184609932825,0,0,1.5011644409179687,0,0,0.84084
