Time,AccelX1,AccelY1,AccelZ1,AccelX2,AccelY2,AccelZ2
4.7770154196769e-06,0,0,1.2856862915039062,0,0,0.84084
0.004018469015136361,0,0,1.2378022583007813,0,0,1.83456
0.007922866003355011,0,0,1.2425906616210938,0,0,0.45864
0.011556489014765248,0,0,1.43652099609375,0,0,0.68796
0.015082019992405549,0,0,1.3479355346679687,0,0,0.6115200000000001
0.018613366002682596,0,0,1.3144167114257812,0,0,0.68796
0.022114712017355487,0,0,1.1659762084960936,0,0,0.7644
0.025636261998442933,0,0,1.3670891479492187,0,0,0.91728
0.02944036401459016,0,0,1.4963760375976562,0,0,0.6115200000000001
0.03343607499846257,0,0,1.3311761230468748,0,0,0.6115200000000001
0.036976069008233026,0,0,1.2785036865234374,0,0,0.53508
0.04050089599331841,0,0,1.4796166259765624,0,0,0.6115200000000001
0.044010465004248545,0,0,1.2497732666015624,0,0,1.07016
0.04759408801328391,0,0,1.1827356201171875,0,0,0.6115200000000001
0.051117007998982444,0,0,1.4700398193359374,0,0,0.68796
0.05474248301470652,0,0,1.39821376953125,0,0,0.7644
0.05825890300911851,0,0,1.2976572998046874,0,0,0.45864
0.06177913799183443,0,0,1.2761094848632812,0,0,0.84084
0.06722066400106996,0,0,1.3048399047851562,0,0,0.6115200000000001
0.07090719399275258,0,0,1.2425906616210938,0,0,0.53508
0.07453044599969871,0,0,1.2425906616210938,0,0,0.7644
0.07804282900178805,0,0,1.2114660400390624,0,0,0.7644
0.0815505460195709,0,0,1.3072341064453123,0,0,0.7644
0.08504657700541429,0,0,1.2928688964843749,0,0,0.68796
0.08855031299754046,0,0,1.2593500732421874,0,0,0.84084
0.0920561219973024,0,0,1.2856862915039062,0,0,0.68796
0.0955686160014011,0,0,1.3718775512695311,0,0,0.84084
0.09907131400541402,0,0,1.2210428466796874,0,0,0.7644
0.1026824559958186,0,0,1.2473790649414063,0,0,0.91728
0.1056176979909651,0,0,1.484405029296875,0,0,0.91728
0.10840533100417815,0,0,1.4628572143554686,0,0,0.7644
0.11120837100315839,0,0,1.3024457031249999,0,0,0.53508
0.11400928100920282,0,0,1.0773907470703123,0,0,0.99372
0.11680891399737448,0,0,1.4508862060546874,0,0,0.68796
0.1196291200176347,0,0,1.3311761230468748,0,0,0.68796
0.1224172709917184,0,0,1.2808978881835937,0,0,0.99372
0.12520475601195358,0,0,1.2737152832031249,0,0,0.3822
0.12799594399984926,0,0,1.43652099609375,0,0,0.68796
0.1309393720002845,0,0,1.20667763671875,0,0,0.68796
0.13373985601356253,0,0,1.1635820068359375,0,0,0.45864
0.13653022999642417,0,0,1.3072341064453123,0,0,0.84084
0.13931830701767467,0,0,1.2737152832031249,0,0,0.6115200000000001
0.1421055140090175,0,0,1.2617442749023438,0,0,0.3822
0.14489273901563138,0,0,1.0749965454101562,0,0,0.45864
0.14768146400456317,0,0,1.3048399047851562,0,0,0.84084
0.1504695420153439,0,0,1.2737152832031249,0,0,0.68796
0.15325802599545568,0,0,1.2785036865234374,0,0,0.68796
0.1560468260140624,0,0,1.2808978881835937,0,0,0.84084
0.1588316620036494,0,0,1.5131354492187499,0,0,0.91728
0.16161974001443014,0,0,1.6615759521484375,0,0,1.07016
0.1644108910113573,0,0,1.3359645263671873,0,0,0.84084
0.16722468999796547,0,0,1.3383587280273437,0,0,1.75812
0.17001428600633517,0,0,1.3144167114257812,0,0,1.07016
0.17280301099526696,0,0,1.5155296508789062,0,0,0.53508
0.17562158801592886,0,0,1.2282254516601563,0,0,0.6115200000000001
0.17840907300706021,0,0,1.2210428466796874,0,0,0.3822
0.18119731699698605,0,0,1.3431471313476562,0,0,0.68796
0.18398433801485226,0,0,1.2138602416992186,0,0,0.91728
0.18676984100602567,0,0,1.3000515014648437,0,0,0.68796
0.18957417801721022,0,0,1.2282254516601563,0,0,0.68796
0.1923613109975122,0,0,1.3192051147460937,0,0,0.68796
0.19514679501298815,0,0,1.1875240234375,0,0,0.7644
0.19793463201494887,0,0,1.2521674682617188,0,0,0.7644
0.2008073000179138,0,0,1.3120225097656248,0,0,0.6115200000000001
0.20367919199634343,0,0,1.3575123413085937,0,0,0.91728
0.2067849320010282,0,0,1.3263877197265623,0,0,0.53508
0.2098908380139619,0,0,1.3742717529296875,0,0,0.53508
0.2129938380094245,0,0,1.3575123413085937,0,0,0.6115200000000001
0.21609891101252288,0,0,1.0869675537109373,0,0,1.07016
0.2191973919980228,0,0,1.0797849487304687,0,0,0.53508
0.22231477999594063,0,0,1.4700398193359374,0,0,0.84084
0.2254217610170599,0,0,1.467645617675781,0,0,0.53508
0.22852909300127067,0,0,1.5203180541992187,0,0,0.7644
0.231661425990751,0,0,1.3287819213867187,0,0,0.45864
0.23476438800571486,0,0,1.5107412475585937,0,0,0.91728
0.2378667950106319,0,0,1.2330138549804688,0,0,0.6115200000000001
0.24097044201334938,0,0,1.2976572998046874,0,0,0.84084
0.2440835339948535,0,0,1.5011644409179687,0,0,0.7644
0.24718547801603563,0,0,1.407790576171875,0,0,0.99372
0.25028925499645993,0,0,1.3263877197265623,0,0,0.7644
0.2534490870020818,0,0,1.254561669921875,0,0,2.36964
0.2566622699960135,0,0,1.3144167114257812,0,0,0.84084
0.2598035100090783,0,0,1.3527239379882812,0,0,0.84084
0.2629090830159839,0,0,1.3359645263671873,0,0,1.1465999999999998
0.2660138600040227,0,0,1.3383587280273437,0,0,0.91728
0.26911769300932065,0,0,1.1851298217773436,0,0,0.84084
0.27223337700706907,0,0,1.0893617553710937,0,0,0.84084
0.2753469689923804,0,0,1.4796166259765624,0,0,0.53508
0.27845272701233625,0,0,1.4963760375976562,0,0,0.6115200000000001
0.2815568380174227,0,0,1.2737152832031249,0,0,0.7644
0.2846630779968109,0,0,1.1444283935546875,0,0,0.45864
0.2877702620171476,0,0,1.4915876342773438,0,0,1.1465999999999998
0.29087218799395487,0,0,1.3311761230468748,0,0,0.68796
0.29397929800325073,0,0,1.2785036865234374,0,0,0.6115200000000001
0.2970836680033244,0,0,1.4508862060546874,0,0,0.91728
0.3001891669991892,0,0,1.4030021728515625,0,0,0.84084
0.30337127699749544,0,0,1.429338391113281,0,0,0.68796
0.30647477600723505,0,0,1.2785036865234374,0,0,0.30576000000000003
0.30957934900652617,0,0,1.3670891479492187,0,0,0.68796
0.31269218199304305,0,0,1.1348515869140625,0,0,0.91728
0.3159430310188327,0,0,1.2617442749023438,0,0,0.68796
0.3190866780059878,0,0,1.4053963745117186,0,0,0.84084
0.3221933440072462,0,0,1.4963760375976562,0,0,0.91728
0.32529749200330116,0,0,1.1061211669921875,0,0,0.7644
0.3284145829966292,0,0,1.2761094848632812,0,0,0.30576000000000003
0.33153721201233566,0,0,1.0749965454101562,0,0,0.84084
0.33465845201862976,0,0,1.1731588134765625,0,0,0.91728
0.33777884001028724,0,0,1.1420341918945311,0,0,1.1465999999999998
0.34089800601941533,0,0,1.4915876342773438,0,0,0.84084
0.3440208200190682,0,0,1.0917559570312498,0,0,0.99372
0.34713683699374087,0,0,1.2665326782226562,0,0,0.45864
0.35025428101653233,0,0,1.2856862915039062,0,0,0.68796
0.3533724099979736,0,0,1.484405029296875,0,0,0.68796
0.3564932610024698,0,0,1.35990654296875,0,0,0.84084
0.3596600739983842,0,0,1.2689268798828124,0,0,0.3822
0.36277835100190714,0,0,1.1109095703125,0,0,0.68796
0.36589673900743946,0,0,1.0941501586914062,0,0,0.6115200000000001
0.36901466400013305,0,0,1.2952630981445312,0,0,0.6115200000000001
0.37214853399200365,0,0,1.4341267944335936,0,0,0.45864
0.3752880690153688,0,0,1.4341267944335936,0,0,0.68796
0.37840934601263143,0,0,1.24498486328125,0,0,0.68796
0.3815267710015178,0,0,1.35990654296875,0,0,0.45864
0.3846451590070501,0,0,1.2282254516601563,0,0,0.53508
0.3877933800104074,0,0,1.2641384765625,0,0,0.68796
0.3909098610165529,0,0,1.1133037719726562,0,0,0.91728
0.3940284900018014,0,0,1.3958195678710936,0,0,0.84084
0.3973311720183119,0,0,1.3407529296874998,0,0,0.91728
0.4005392440012656,0,0,1.2665326782226562,0,0,0.6115200000000001
0.40369346499210224,0,0,1.3766659545898436,0,0,0.91728
0.4068167050136253,0,0,1.43652099609375,0,0,0.91728
0.40993616700870916,0,0,1.3575123413085937,0,0,0.7644
0.4130544069921598,0,0,1.149216796875,0,0,0.53508
0.4161739989940543,0,0,1.3958195678710936,0,0,0.7644
0.4192901650094427,0,0,1.22583125,0,0,0.84084
0.4224094040109776,0,0,1.35990654296875,0,0,0.6115200000000001
0.42552707000868395,0,0,1.3455413330078123,0,0,0.7644
0.42864594000275247,0,0,1.3623007446289062,0,0,0.91728
0.4317944759968668,0,0,1.3215993164062498,0,0,0.84084
0.434910864016274,0,0,1.4820108276367188,0,0,0.45864
0.4380275290168356,0,0,1.3168109130859373,0,0,1.07016
0.44114534300751984,0,0,1.209071838378906,0,0,0.6115200000000001
0.4442638799955603,0,0,1.3551181396484375,0,0,0.53508
0.4473793420183938,0,0,1.3766659545898436,0,0,0.84084
0.4505294150148984,0,0,1.4891934326171874,0,0,0.7644
0.4536810429999605,0,0,1.3359645263671873,0,0,0.99372
0.4568029119982384,0,0,1.2521674682617188,0,0,0.7644
0.4599138380144723,0,0,1.3766659545898436,0,0,0.6115200000000001
0.4630284850136377,0,0,1.3096283081054687,0,0,0.84084
0.4661429469997529,0,0,1.2473790649414063,0,0,1.2230400000000001
0.4692586130113341,0,0,1.4053963745117186,0,0,0.84084
0.47237522300565615,0,0,1.5203180541992187,0,0,0.68796
0.4755113889987115,0,0,1.3335703247070312,0,0,0.53508
0.4786269070173148,0,0,1.5275006591796874,0,0,0.53508
0.4817403130000457,0,0,1.4125789794921875,0,0,0.84084
0.4848565900174435,0,0,1.3287819213867187,0,0,0.53508
0.48797151501639746,0,0,1.1635820068359375,0,0,0.84084
0.4910877369984519,0,0,1.4724340209960938,0,0,0.91728
0.4942126990063116,0,0,1.3120225097656248,0,0,0.7644
0.4973271609924268,0,0,1.1324573852539062,0,0,0.6115200000000001
0.5004419010074344,0,0,1.3311761230468748,0,0,0.7644
0.5162260240176693,0,0,1.189918225097656,0,0,0.7644
0.5194654840161093,0,0,1.2593500732421874,0,0,0.99372
0.5225865390093531,0,0,1.4939818359375,0,0,1.07016
0.5257866480096709,0,0,1.3215993164062498,0,0,0.91728
0.528878611017717,0,0,1.24498486328125,0,0,0.7644
0.5321446640009526,0,0,1.2617442749023438,0,0,0.6115200000000001
0.5361835590156261,0,0,1.3168109130859373,0,0,0.91728
0.5395910360093694,0,0,1.1085153686523437,0,0,0.6115200000000001
0.542749404994538,0,0,1.5035586425781249,0,0,0.6115200000000001
0.5458776820159983,0,0,1.4891934326171874,0,0,0.84084
0.548979978018906,0,0,1.5203180541992187,0,0,0.84084
0.5520830140158068,0,0,1.2497732666015624,0,0,0.53508
0.555180477007525,0,0,1.4532804077148436,0,0,0.7644
0.5582816980022471,0,0,1.209071838378906,0,0,0.91728
0.5614041230001021,0,0,1.3527239379882812,0,0,0.53508
0.5645256410061847,0,0,1.4437036010742186,0,0,0.7644
0.5676461950060911,0,0,1.5298948608398437,0,0,0.68796
0.5707958980055992,0,0,1.3670891479492187,0,0,0.84084
0.5739159710064996,0,0,1.2761094848632812,0,0,0.68796
0.5770247670006938,0,0,1.455674609375,0,0,0.7644
0.5801348210079595,0,0,1.1851298217773436,0,0,0.53508
0.5834421520121396,0,0,1.0749965454101562,0,0,0.91728
0.5866317980107851,0,0,1.4341267944335936,0,0,0.91728
0.5897580560122151,0,0,1.2904746948242187,0,0,0.7644
0.5928770739992615,0,0,1.158793603515625,0,0,0.22932
0.5960272770025767,0,0,1.2641384765625,0,0,1.1465999999999998
0.5991427199915051,0,0,1.2665326782226562,0,0,0.7644
0.6023854030063376,0,0,1.254561669921875,0,0,0.7644
0.6053637189907022,0,0,1.2401964599609374,0,0,1.07016
0.6079092989966739,0,0,1.3407529296874998,0,0,0.6115200000000001
0.610451083019143,0,0,1.4437036010742186,0,0,0.7644
0.6129936070065014,0,0,1.350329736328125,0,0,0.7644
0.615538040001411,0,0,1.2856862915039062,0,0,0.53508
0.6181008419953287,0,0,1.3120225097656248,0,0,0.68796
0.6206553660158534,0,0,1.3335703247070312,0,0,0.7644
0.6231996870192233,0,0,1.16837041015625,0,0,0.7644
0.6257439530163538,0,0,1.2497732666015624,0,0,0.6115200000000001
0.6282864770037122,0,0,1.2713210815429687,0,0,0.68796
0.6308288169966545,0,0,1.22583125,0,0,0.6115200000000001
0.6333696930087171,0,0,1.254561669921875,0,0,0.84084
0.6359128850162961,0,0,1.216254443359375,0,0,0.6115200000000001
0.6384561500162818,0,0,1.369483349609375,0,0,0.53508
0.6409980640164576,0,0,1.3431471313476562,0,0,0.99372
0.6435521620151121,0,0,1.2976572998046874,0,0,0.91728
0.6461019089911133,0,0,1.2737152832031249,0,0,0.68796
0.6486447110073641,0,0,1.13006318359375,0,0,0.99372
0.651185347000137,0,0,1.455674609375,0,0,0.84084
0.6537269090185873,0,0,1.4700398193359374,0,0,0.84084
0.6562936739937868,0,0,1.2976572998046874,0,0,0.53508
0.6588351060054265,0,0,1.3311761230468748,0,0,0.6115200000000001
0.6613783710054122,0,0,1.3910311645507811,0,0,0.68796
0.6639214149909094,0,0,1.43652099609375,0,0,0.53508
0.6664615879999474,0,0,1.197100830078125,0,0,0.7644
0.6690022970142309,0,0,1.13006318359375,0,0,0.53508
0.6715452109929174,0,0,1.3862427612304686,0,0,0.7644
0.674087032006355,0,0,1.3646949462890625,0,0,0.68796
0.6766278340073768,0,0,1.1085153686523437,0,0,0.84084
0.6791693590057548,0,0,1.1252747802734375,0,0,0.91728
0.6817113280121703,0,0,1.2904746948242187,0,0,0.7644
0.6842543340171687,0,0,1.3742717529296875,0,0,0.84084
0.6867942110111471,0,0,1.0917559570312498,0,0,0.6115200000000001
0.6893357170047238,0,0,1.218648645019531,0,0,0.68796
0.6918785560119431,0,0,1.3215993164062498,0,0,0.7644
0.6944200629950501,0,0,1.1923124267578125,0,0,0.99372
0.6969609020161442,0,0,1.5059528442382812,0,0,0.84084
0.699534629995469,0,0,1.2401964599609374,0,0,0.6115200000000001
0.702078950998839,0,0,1.3000515014648437,0,0,0.91728
0.7047180490044411,0,0,1.2330138549804688,0,0,0.99372
0.7077967890072614,0,0,1.24498486328125,0,0,0.84084
0.7109185290173627,0,0,1.2473790649414063,0,0,0.6115200000000001
0.7140401579963509,0,0,1.3192051147460937,0,0,0.7644
0.7171668790106196,0,0,1.2473790649414063,0,0,0.3822
0.7202833780029323,0,0,1.2234370483398436,0,0,0.68796
0.7234001739998348,0,0,1.3024457031249999,0,0,0.45864
0.7265169320162386,0,0,1.1180921752929687,0,0,0.84084
0.7296365420043003,0,0,1.1635820068359375,0,0,0.99372
0.7327523190178908,0,0,1.3407529296874998,0,0,0.84084
0.7358694290160201,0,0,1.4413093994140624,0,0,1.07016
0.7389842430129647,0,0,1.429338391113281,0,0,0.7644
0.7420994279964361,0,0,1.158793603515625,0,0,0.7644
0.7452402790077031,0,0,1.2114660400390624,0,0,0.07644000000000001
0.7483590549963992,0,0,1.1755530151367186,0,0,0.84084
0.751473554992117,0,0,1.158793603515625,0,0,0.7644
0.7546943300112616,0,0,1.3551181396484375,0,0,1.07016
0.7578984030114952,0,0,1.5227122558593749,0,0,0.91728
0.7610205130185932,0,0,1.4437036010742186,0,0,0.68796
0.7641394750098698,0,0,1.350329736328125,0,0,0.7644
0.7672544739907607,0,0,1.2401964599609374,0,0,0.6115200000000001
0.7705725450068712,0,0,1.465251416015625,0,0,0.68796
0.7737164699938148,0,0,1.2497732666015624,0,0,0.68796
0.7768278020084836,0,0,1.1276689819335937,0,0,0.3822
0.7807534770108759,0,0,1.3192051147460937,0,0,0.7644
0.7839113090012688,0,0,1.0989385620117187,0,0,0.68796
0.7870109009963926,0,0,1.180341418457031,0,0,0.84084
0.7901383069984149,0,0,1.3910311645507811,0,0,0.91728
0.7932584540103562,0,0,1.189918225097656,0,0,0.91728
0.7963714350189548,0,0,1.2856862915039062,0,0,0.68796
0.7994655090151355,0,0,1.4724340209960938,0,0,0.84084
0.8025856559979729,0,0,1.3263877197265623,0,0,0.84084
0.8057461919961497,0,0,1.350329736328125,0,0,0.7644
0.8088635799940675,0,0,1.35990654296875,0,0,0.45864
0.8119826900074258,0,0,1.4341267944335936,0,0,0.84084
0.8150988559937105,0,0,1.2401964599609374,0,0,0.7644
0.8182226330100093,0,0,1.0749965454101562,0,0,0.68796
0.8219404210103676,0,0,1.4101847778320311,0,0,1.1465999999999998
0.8250597900187131,0,0,1.4867992309570313,0,0,0.68796
0.8281735299970023,0,0,1.2856862915039062,0,0,0.7644
0.8312893440015614,0,0,1.2665326782226562,0,0,0.91728
0.8344050100131426,0,0,1.4820108276367188,0,0,0.6115200000000001
0.8375245280039962,0,0,1.2569558715820313,0,0,0.7644
0.8406407120055519,0,0,1.3000515014648437,0,0,0.53508
0.8437918960116804,0,0,1.4101847778320311,0,0,0.84084
0.8469067840196658,0,0,1.2832920898437499,0,0,0.68796
0.8500231720099691,0,0,1.3048399047851562,0,0,0.45864
0.853140152990818,0,0,1.3958195678710936,0,0,0.68796
0.8562554300006013,0,0,1.446097802734375,0,0,0.7644
0.8593673740106169,0,0,1.180341418457031,0,0,0.68796
0.8624810390174389,0,0,1.1348515869140625,0,0,0.15288000000000002
0.8655933529953472,0,0,1.3168109130859373,0,0,0.6115200000000001
0.868840998999076,0,0,1.0917559570312498,0,0,0.91728
0.8719676460023038,0,0,1.3000515014648437,0,0,0.84084
0.8750840160064399,0,0,1.4221557861328125,0,0,1.45236
0.8782019590144046,0,0,1.5801730957031248,0,0,1.911
0.8813199030118994,0,0,2.020706201171875,0,0,1.83456
0.8844377910136245,0,0,2.370259643554687,0,0,2.06388
0.8875796600186732,0,0,2.8898014038085935,0,0,1.1465999999999998
0.8906963450135663,0,0,1.2832920898437499,0,0,0.3822
0.8938398619939107,0,0,1.5658078857421873,0,0,1.60524
0.8969581949932035,0,0,1.6328455322265625,0,0,1.5288
0.9000779899943154,0,0,1.7525556152343749,0,0,1.2994800000000002
0.9032202300149947,0,0,2.2457611572265623,0,0,1.2994800000000002
0.9063521549978759,0,0,1.7214309936523438,0,0,1.2230400000000001
0.9094697649998125,0,0,1.7788918334960937,0,0,1.1465999999999998
0.9125860420172103,0,0,1.5873557006835937,0,0,1.37592
0.9157980029995088,0,0,1.6998831787109374,0,0,1.68168
0.918904021003982,0,0,2.5522189697265625,0,0,1.75812
0.9220062420063186,0,0,1.4820108276367188,0,0,0.45864
0.9251066299912054,0,0,1.695094775390625,0,0,1.2994800000000002
0.9282187780190725,0,0,1.927332336425781,0,0,1.5288
0.9313344990077894,0,0,1.3742717529296875,0,0,1.5288
0.9344514980039094,0,0,2.346317626953125,0,0,1.68168
0.9375667569984216,0,0,1.43652099609375,0,0,1.1465999999999998
0.9406838860013522,0,0,1.68551796875,0,0,1.911
0.9437995140033308,0,0,1.6232687255859375,0,0,2.06388
0.9469133840175346,0,0,2.195482922363281,0,0,1.2994800000000002
0.9500693090085406,0,0,2.24097275390625,0,0,1.75812
0.9531870860082563,0,0,1.7956512451171873,0,0,1.83456
0.9563049180142116,0,0,1.4101847778320311,0,0,0.84084
0.9594187879993115,0,0,1.0869675537109373,0,0,1.2994800000000002
0.9625369900022633,0,0,1.9991583862304687,0,0,2.4460800000000003
0.965681397006847,0,0,2.346317626953125,0,0,0.15288000000000002
0.9687969330116175,0,0,1.5346832641601562,0,0,0.84084
0.9719127840071451,0,0,2.4133552734375,0,0,1.83456
0.975025394000113,0,0,1.0845733520507812,0,0,1.68168
0.9781402079970576,0,0,1.3168109130859373,0,0,1.5288
0.9812547450128477,0,0,2.4396914916992185,0,0,2.14032
0.9843725209939294,0,0,1.7022773803710936,0,0,1.2230400000000001
0.98751589099993,0,0,1.8507178833007811,0,0,0.68796
0.9906273710075766,0,0,1.6304513305664061,0,0,1.2994800000000002
0.9938363140099682,0,0,1.5322890624999999,0,0,1.68168
0.9969562200130895,0,0,1.936909143066406,0,0,0.7644
1.000071979011409,0,0,2.418143676757812,0,0,0.6115200000000001
1.0062202000117395,0,0,2.003946789550781,0,0,1.2994800000000002
1.009510105010122,0,0,2.360682836914062,0,0,1.45236
1.0127938610094134,0,0,2.2457611572265623,0,0,1.2230400000000001
1.0159990260144696,0,0,1.3215993164062498,0,0,2.4460800000000003
1.018965119990753,0,0,1.5514426757812498,0,0,2.2167600000000003
1.0219056580099277,0,0,1.0366893188476562,0,0,0.15288000000000002
1.024935658002505,0,0,2.499546533203125,0,0,1.1465999999999998
1.027928455005167,0,0,2.6886884643554687,0,0,2.14032
1.030810124007985,0,0,2.2553379638671873,0,0,1.45236
1.033756181015633,0,0,1.697488977050781,0,0,2.06388
1.0365715349907987,0,0,2.0829554443359375,0,0,3.36336
1.039376575005008,0,0,1.8602946899414061,0,0,2.2931999999999997
1.042180393007584,0,0,0.5315127685546874,0,0,-1.07016
1.045010229019681,0,0,1.9416975463867185,0,0,20
1.0478240470110904,0,0,3.7397429931640622,0,0,3.822
1.0506251800106838,0,0,1.7573440185546874,0,0,-0.68796
1.053552903002128,0,0,0.09337386474609374,0,0,-20
1.0563722950173542,0,0,3.19865341796875,0,0,3.2869200000000003
1.0591772240004502,0,0,2.1547814941406247,0,0,1.37592
1.062095096014673,0,0,0.13168109130859373,0,0,9.32568
1.064926765015116,0,0,4.077325427246094,0,0,3.51624
1.0678520259971265,0,0,2.1715409057617188,0,0,0.6115200000000001
1.0708532120042946,0,0,-0.26336218261718747,0,0,9.172799999999999
1.0738037500123028,0,0,2.817975354003906,0,0,1.37592
1.076776695001172,0,0,0.7661445312499999,0,0,0.15288000000000002
1.0798181770078372,0,0,-0.5722141967773438,0,0,0.68796
1.0827963259944227,0,0,2.6431986328124997,0,0,2.06388
1.0856757540022954,0,0,1.8770541015625,0,0,0.0
1.0885447740147356,0,0,-0.0047884033203125,0,0,1.45236
1.0913796290114988,0,0,3.1220389648437497,0,0,0.53508
1.094302408018848,0,0,0.2154781494140625,0,0,-1.2230400000000001
1.0971772439952474,0,0,1.3527239379882812,0,0,1.68168
1.1000493009923957,0,0,2.4779987182617185,0,0,1.83456
1.1029723400133662,0,0,-0.6392518432617187,0,0,0.07644000000000001
1.105918137007393,0,0,2.5258827514648434,0,0,1.911
1.1088336200045887,0,0,2.0542250244140625,0,0,0.91728
1.1105577849957626,0,0,0.9552864624023437,0,0,0.22932
1.1120140260027256,0,0,-0.7254431030273437,0,0,0.0
1.1134828790090978,0,0,1.177947216796875,0,0,0.45864
1.1148659920145292,0,0,2.109291662597656,0,0,0.91728
1.1162976960185915,0,0,1.915361328125,0,0,1.2230400000000001
1.117679365008371,0,0,1.5107412475585937,0,0,0.91728
1.119060052005807,0,0,-0.2609679809570312,0,0,0.0
1.1204759420070332,0,0,0.08858546142578125,0,0,0.91728
1.1218642210005783,0,0,2.81558115234375,0,0,2.4460800000000003
1.1232487600063905,0,0,2.8562825805664063,0,0,2.52252
1.1246317620098125,0,0,2.233790148925781,0,0,0.45864
1.126010745007079,0,0,0.8116343627929687,0,0,0.7644
1.1273900250089355,0,0,0.04548983154296875,0,0,-0.84084
1.128773397009354,0,0,2.0374656127929685,0,0,0.3822
1.1301530100172386,0,0,2.5761609863281247,0,0,1.60524
1.1315461409976706,0,0,2.379836450195312,0,0,1.2994800000000002
1.132926549995318,0,0,0.7134720947265625,0,0,0.3822
1.134305254992796,0,0,0.16998831787109375,0,0,0.0
1.1356857200153172,0,0,-0.430956298828125,0,0,-0.45864
1.1370667589944787,0,0,1.6160861206054686,0,0,0.07644000000000001
1.1384463900176343,0,0,2.4109610717773435,0,0,2.2931999999999997
1.139828411018243,0,0,2.1547814941406247,0,0,2.75184
1.1412074120016769,0,0,1.707065783691406,0,0,2.2167600000000003
1.1425867100188043,0,0,0.9074024291992187,0,0,0.53508
1.1439730639976915,0,0,-0.258573779296875,0,0,0.0
1.1453610100143123,0,0,1.7477672119140624,0,0,0.53508
1.146747566992417,0,0,3.1747114013671873,0,0,1.60524
1.1481340689933859,0,0,2.7437551025390623,0,0,1.75812
1.149538219004171,0,0,1.936909143066406,0,0,1.5288
1.1509423870011233,0,0,-0.7326257080078125,0,0,-0.6115200000000001
1.1523324809968472,0,0,-0.9600748657226562,0,0,0.0
1.1537203530024271,0,0,1.3838485595703125,0,0,0.45864
1.1551076140021905,0,0,2.0877438476562498,0,0,0.7644
1.1567222980083898,0,0,1.7190367919921874,0,0,0.68796
1.1581346140010282,0,0,1.2928688964843749,0,0,2.06388
1.1595251340186223,0,0,0.603338818359375,0,0,0.45864
1.1609347650082782,0,0,1.4628572143554686,0,0,-9.172799999999999
1.1623294340097345,0,0,1.8435352783203125,0,0,1.5288
1.1637188979948405,0,0,2.0638018310546875,0,0,1.2230400000000001
1.1651069369981997,0,0,1.8650830932617186,0,0,0.22932
1.1664946420060005,0,0,1.5514426757812498,0,0,0.53508
1.1678796439955477,0,0,0.09816226806640624,0,0,0.3822
1.169258701003855,0,0,1.4030021728515625,0,0,0.22932
1.1706395730143413,0,0,1.7525556152343749,0,0,1.2994800000000002
1.1720636489917524,0,0,1.429338391113281,0,0,0.3822
1.1734518349985592,0,0,1.0319009155273438,0,0,0.99372
1.1748391700093634,0,0,0.354341845703125,0,0,-0.15288000000000002
1.176227301999461,0,0,0.03591302490234375,0,0,0.68796
1.177615266002249,0,0,1.7118541870117185,0,0,1.911
1.179002174991183,0,0,2.24097275390625,0,0,1.83456
1.1803901400126051,0,0,2.0661960327148434,0,0,1.37592
1.1817782160069328,0,0,1.0438719238281249,0,0,1.45236
1.183165291993646,0,0,0.023942016601562498,0,0,-0.7644
1.1845465340011287,0,0,0.2920926025390625,0,0,0.84084
1.1859259060001932,0,0,2.3295582153320313,0,0,1.83456
1.1873048520064913,0,0,2.2098481323242187,0,0,1.37592
1.1886913540074602,0,0,1.1540052001953125,0,0,0.30576000000000003
1.1900763740122784,0,0,0.7781155395507812,0,0,1.37592
1.191460617003031,0,0,0.2059013427734375,0,0,0.07644000000000001
1.1928615070064552,0,0,1.7357962036132812,0,0,0.3822
1.194250157015631,0,0,1.8435352783203125,0,0,1.5288
1.1956383069918957,0,0,1.1755530151367186,0,0,1.45236
1.1970248449943028,0,0,0.8930372192382812,0,0,0.68796
1.1984124770096969,0,0,0.7924807495117187,0,0,0.84084
1.1998005339992233,0,0,0.699106884765625,0,0,0.53508
1.2012042200076394,0,0,2.602497204589844,0,0,1.911
1.2026150739984587,0,0,2.8514941772460936,0,0,2.5989600000000004
1.204003204999026,0,0,1.149216796875,0,0,1.07016
1.2053811880177818,0,0,0.6560112548828124,0,0,0.22932
1.2067605420015752,0,0,0.5434837768554687,0,0,-0.99372
1.2081503400113434,0,0,1.0893617553710937,0,0,0.53508
1.2095378410012927,0,0,2.767697119140625,0,0,1.75812
1.2109242320002522,0,0,2.1930887207031247,0,0,1.98744
1.2123113080160692,0,0,1.0630255371093749,0,0,0.45864
1.2136976610054262,0,0,-0.39743747558593745,0,0,1.2230400000000001
1.215085014991928,0,0,-0.5793968017578125,0,0,-1.37592
1.2164734980033245,0,0,0.13168109130859373,0,0,0.99372
1.2178594260185491,0,0,2.9089550170898435,0,0,2.06388
1.2192453159950674,0,0,3.1459809814453124,0,0,1.5288
1.2206321510020643,0,0,1.5753846923828123,0,0,0.84084
1.2220181339944247,0,0,0.9720458740234375,0,0,1.68168
1.2234040250186808,0,0,-0.27293898925781246,0,0,0.0
1.2247909709985834,0,0,1.4317325927734375,0,0,0.15288000000000002
1.226176899013808,0,0,1.886630908203125,0,0,1.37592
1.2275637710117735,0,0,2.6671406494140624,0,0,0.91728
1.2289501060149632,0,0,1.3024457031249999,0,0,0.07644000000000001
1.2303357920027338,0,0,0.9074024291992187,0,0,1.1465999999999998
1.2317222760175355,0,0,0.13646949462890623,0,0,0.53508
1.2331079069990665,0,0,1.5346832641601562,0,0,1.45236
1.2344936119916383,0,0,2.068590234375,0,0,1.98744
1.2358813550090417,0,0,1.35990654296875,0,0,0.91728
1.237266931013437,0,0,0.6919242797851562,0,0,0.3822
1.2386526910122484,0,0,0.4285620971679687,0,0,-0.53508
1.240039804019034,0,0,0.9337386474609375,0,0,1.07016
1.2414257689961232,0,0,2.4301146850585935,0,0,1.5288
1.2428119190153666,0,0,2.3822306518554686,0,0,1.83456
1.2441981800075155,0,0,1.16837041015625,0,0,0.84084
1.245584904012503,0,0,-0.19871873779296872,0,0,0.07644000000000001
1.2469718499924056,0,0,-0.354341845703125,0,0,9.01992
1.248360074008815,0,0,0.35194764404296874,0,0,0.3822
1.2497459830192383,0,0,3.3159692993164063,0,0,1.911
1.2511322619975545,0,0,3.385401147460937,0,0,2.06388
1.2525184669939335,0,0,1.908178723144531,0,0,0.91728
1.2539048210019246,0,0,-0.13646949462890623,0,0,1.1465999999999998
1.255382950999774,0,0,-0.9361328491210937,0,0,-0.45864
1.2568879140017089,0,0,1.6472107421875,0,0,0.22932
1.2582825270073954,0,0,2.808398547363281,0,0,2.4460800000000003
1.2598293969931547,0,0,2.403778466796875,0,0,1.98744
1.2612204540055245,0,0,1.2641384765625,0,0,1.07016
1.2626083450159058,0,0,-0.8738836059570312,0,0,-0.68796
1.2640006430156063,0,0,-0.5913678100585937,0,0,0.15288000000000002
1.2653877930133604,0,0,1.235408056640625,0,0,0.84084
1.2667750160035212,0,0,3.4644098022460934,0,0,2.36964
1.2681582219956908,0,0,2.2002713256835937,0,0,1.37592
1.2695372790039983,0,0,1.3814543579101561,0,0,0.91728
1.2709160590020474,0,0,-0.7493851196289062,0,0,-0.7644
1.2723055600072257,0,0,-0.4165910888671875,0,0,0.0
1.2736940440081526,0,0,2.5234885498046875,0,0,1.5288
1.2750816560001113,0,0,3.23696064453125,0,0,1.68168
1.2764690839976538,0,0,2.090138049316406,0,0,1.45236
1.277856567001436,0,0,0.5267243652343749,0,0,1.1465999999999998
1.279243643017253,0,0,-0.6584054565429687,0,0,-0.7644
1.280631922010798,0,0,1.5251064575195312,0,0,0.30576000000000003
1.28201946101035,0,0,2.7150246826171873,0,0,1.911
1.2834065550123341,0,0,3.478775012207031,0,0,1.68168
1.2847875200095586,0,0,1.465251416015625,0,0,0.7644
1.286166966019664,0,0,0.5746083984375,0,0,0.99372
1.2875961709942203,0,0,-0.36391865234375,0,0,0.0
1.28898274700623,0,0,1.1372457885742187,0,0,0.0
1.2903679340088274,0,0,2.4133552734375,0,0,2.36964
1.2917680090176873,0,0,2.24097275390625,0,0,1.98744
1.2931558630079962,0,0,1.5107412475585937,0,0,1.1465999999999998
1.2945436240115669,0,0,-0.9959878906249999,0,0,0.0
1.2959324769908562,0,0,-0.6775590698242188,0,0,-0.22932
1.2973202190187294,0,0,1.0654197387695312,0,0,1.07016
1.2987067210196983,0,0,3.478775012207031,0,0,2.14032
1.3000936669996008,0,0,2.7054478759765623,0,0,1.60524
1.301480521011399,0,0,1.8602946899414061,0,0,1.75812
1.302867096994305,0,0,-0.8978256225585937,0,0,-0.91728
1.3042597460153047,0,0,-1.1444283935546875,0,0,-0.53508
1.3056474890036043,0,0,2.346317626953125,0,0,0.6115200000000001
1.3070333980140276,0,0,3.6655227416992187,0,0,1.75812
1.3084193069953471,0,0,2.81558115234375,0,0,1.911
1.3099214179965202,0,0,1.2138602416992186,0,0,1.83456
1.3113084569922648,0,0,-0.5674257934570313,0,0,-0.84084
1.3126967549906112,0,0,0.6177040283203125,0,0,-0.7644
1.314088053011801,0,0,1.7693150268554687,0,0,1.37592
1.3154742580081802,0,0,2.7581203125,0,0,1.5288
1.316884371015476,0,0,2.185906115722656,0,0,1.2230400000000001
1.318264502013335,0,0,1.2617442749023438,0,0,1.2230400000000001
1.3196484110085294,0,0,-0.39264907226562495,0,0,0.07644000000000001
1.3210274680168368,0,0,0.9050082275390624,0,0,0.7644
1.322407285013469,0,0,1.8938135131835936,0,0,1.98744
1.3237880649976432,0,0,1.8459294799804686,0,0,1.83456
1.3251684920105617,0,0,1.9752163696289062,0,0,0.84084
1.326547513017431,0,0,0.29448680419921874,0,0,0.0
1.327928365994012,0,0,0.3399766357421875,0,0,0.3822
1.3293069979990833,0,0,1.2378022583007813,0,0,0.68796
1.3306864440091886,0,0,2.6815058593749996,0,0,2.14032
1.3320719450130127,0,0,1.656787548828125,0,0,1.2994800000000002
1.3334559469949454,0,0,1.1348515869140625,0,0,0.45864
1.3348903369915206,0,0,-0.2657563842773437,0,0,-0.53508
1.3362787830119487,0,0,-0.13407529296874998,0,0,-0.68796
1.3376613960135728,0,0,2.31758720703125,0,0,1.75812
1.3390411940054037,0,0,2.901772412109375,0,0,1.07016
1.3404280660033692,0,0,2.013523596191406,0,0,2.2931999999999997
1.3418144200113602,0,0,1.1061211669921875,0,0,2.14032
1.343200366012752,0,0,-0.4525041137695312,0,0,0.07644000000000001
1.3445868300041184,0,0,0.23223756103515625,0,0,-0.45864
1.345973777002655,0,0,1.7884686401367187,0,0,0.6115200000000001
1.3473601120058447,0,0,3.1076737548828124,0,0,1.07016
1.348749594995752,0,0,2.8945898071289062,0,0,1.1465999999999998
1.3501350959995762,0,0,2.032677209472656,0,0,2.2931999999999997
1.351522005017614,0,0,-0.8092401611328125,0,0,0.30576000000000003
1.3529110439994838,0,0,-0.24181436767578124,0,0,-0.22932
1.3542983240040485,0,0,0.5147533569335937,0,0,1.1465999999999998
1.3556850850000046,0,0,1.6519991455078125,0,0,0.30576000000000003
1.35707012299099,0,0,2.0757728393554684,0,0,0.53508
1.358455587993376,0,0,0.8571241943359375,0,0,1.07016
1.3598420899943449,0,0,0.4908113403320312,0,0,0.99372
1.361227109999163,0,0,1.3646949462890625,0,0,0.91728
1.3626129449985456,0,0,2.47081611328125,0,0,2.4460800000000003
1.3639993719989434,0,0,1.216254443359375,0,0,1.37592
1.3653848370013293,0,0,0.9050082275390624,0,0,0.68796
1.3667706540145446,0,0,0.4740519287109375,0,0,-1.07016
1.36815704399487,0,0,0.5865794067382812,0,0,-0.30576000000000003
1.3695436200068798,0,0,2.844311572265625,0,0,0.91728
1.37092965899501,0,0,3.1507693847656246,0,0,1.5288
1.3723159570072312,0,0,2.0781670410156248,0,0,1.5288
1.3737020879925694,0,0,0.011971008300781249,0,0,1.68168
1.3750878860009834,0,0,-0.6440402465820312,0,0,-0.84084
1.3764756100135855,0,0,0.7493851196289062,0,0,0.0
1.377861685003154,0,0,2.2098481323242187,0,0,1.1465999999999998
1.3792477429960854,0,0,3.1387983764648437,0,0,1.911
1.3806338930153288,0,0,1.9943699829101562,0,0,1.5288
1.3820198390167207,0,0,1.66636435546875,0,0,2.6754
1.3834052290185355,0,0,-0.15083470458984374,0,0,0.6115200000000001
1.384790898009669,0,0,0.5386953735351562,0,0,0.0
1.3861834730196279,0,0,1.4101847778320311,0,0,1.2994800000000002
1.387570863997098,0,0,1.7118541870117185,0,0,0.84084
1.388955383998109,0,0,1.5538368774414062,0,0,0.0
1.390339497011155,0,0,1.3551181396484375,0,0,1.07016
1.3917343690118287,0,0,0.47644613037109373,0,0,0.0
1.3931212780007627,0,0,1.1635820068359375,0,0,0.6115200000000001
1.3945077980170026,0,0,1.9536685546875,0,0,1.68168
1.39589457801776,0,0,1.149216796875,0,0,0.91728
1.3972800789924804,0,0,0.8810662109374999,0,0,1.37592
1.3986659880029038,0,0,0.8762778076171874,0,0,1.1465999999999998
1.4000534529914148,0,0,0.9409212524414062,0,0,1.37592
1.4014385660120752,0,0,2.389413256835937,0,0,1.5288
1.402824512013467,0,0,2.231395947265625,0,0,0.7644
1.4042106060078368,0,0,0.93852705078125,0,0,0.45864
1.4055965339939576,0,0,0.49799394531249996,0,0,0.7644
1.4069823129975703,0,0,0.6272808349609375,0,0,-0.7644
1.4083693890133873,0,0,1.7597382202148437,0,0,0.0
1.4097551869926974,0,0,2.528276953125,0,0,2.06388
1.411141837015748,0,0,2.7916391357421872,0,0,1.37592
1.4125282640161458,0,0,0.7781155395507812,0,0,0.3822
1.4139140990155283,0,0,0.07422025146484375,0,0,0.99372
1.4152996749908198,0,0,-0.43574470214843747,0,0,-0.6115200000000001
1.4166871400084347,0,0,1.70467158203125,0,0,0.22932
1.4180729009967763,0,0,3.009511486816406,0,0,2.52252
1.4194593470019754,0,0,2.748543505859375,0,0,1.83456
1.4208452370075975,0,0,1.5849614990234373,0,0,0.22932
1.4223148119926918,0,0,0.28969840087890625,0,0,0.68796
1.4237041099986527,0,0,-0.5578489868164063,0,0,0.0
1.4250908899994101,0,0,1.16837041015625,0,0,0.30576000000000003
1.4264770580048207,0,0,3.19865341796875,0,0,1.75812
1.4278638930118177,0,0,2.2266075439453124,0,0,1.2994800000000002
1.4292503200122155,0,0,1.2330138549804688,0,0,0.53508
1.4306360070186201,0,0,-0.1388636962890625,0,0,0.99372
1.4320405829930678,0,0,-0.181959326171875,0,0,0.84084
1.433427936019143,0,0,2.0973206542968748,0,0,0.99372
1.4348142530070618,0,0,2.8945898071289062,0,0,1.2994800000000002
1.4362006809969898,0,0,1.8602946899414061,0,0,0.99372
1.4375882190070115,0,0,0.8307879760742187,0,0,1.1465999999999998
1.4389743130013812,0,0,0.08140285644531249,0,0,-0.3822
1.4403613710019272,0,0,1.9656395629882812,0,0,0.84084
1.4417482610151637,0,0,3.0645781249999997,0,0,2.82828
1.4431342809984926,0,0,3.1004911499023438,0,0,1.2230400000000001
1.4445204870135058,0,0,0.8355763793945312,0,0,1.1465999999999998
1.445906951004872,0,0,-0.047884033203124995,0,0,-9.24924
1.4472941379935946,0,0,-0.5482721801757812,0,0,-1.07016
1.448681954992935,0,0,1.7310078002929687,0,0,0.6115200000000001
1.4500683819933329,0,0,2.7916391357421872,0,0,2.4460800000000003
1.4514545510173775,0,0,1.917755529785156,0,0,1.68168
1.4528404970187694,0,0,0.8355763793945312,0,0,0.15288000000000002
1.4542263869952876,0,0,-0.062249243164062495,0,0,0.68796
1.4556145000096876,0,0,-0.488417138671875,0,0,-0.15288000000000002
1.4570012430194765,0,0,1.6472107421875,0,0,0.53508
1.4583870590140577,0,0,3.9887399658203124,0,0,2.2931999999999997
1.4597740790050011,0,0,2.8371289672851563,0,0,2.2931999999999997
1.4611593400186393,0,0,1.7286135986328124,0,0,1.68168
1.4625450460007414,0,0,-0.9145850341796874,0,0,-0.30576000000000003
1.4639324730087537,0,0,-1.3455413330078123,0,0,-0.6115200000000001
1.4653187709918711,0,0,2.549824768066406,0,0,0.22932
1.4667050690040924,0,0,3.6846763549804686,0,0,1.83456
1.4680913299962413,0,0,2.7365724975585937,0,0,1.911
1.469478536018869,0,0,0.7805097412109374,0,0,1.07016
1.4708644259953871,0,0,-0.5291185668945312,0,0,-0.53508
1.4722519280039705,0,0,-0.9050082275390624,0,0,0.30576000000000003
1.4736381330003496,0,0,1.6807295654296874,0,0,1.2994800000000002
1.475023634993704,0,0,2.896984008789062,0,0,1.2230400000000001
1.4764096919971053,0,0,1.8770541015625,0,0,0.91728
1.4777958420163486,0,0,1.5682020874023437,0,0,1.68168
1.4791817319928668,0,0,0.5243301635742187,0,0,0.07644000000000001
1.4805675120151136,0,0,0.7565677246093749,0,0,0.6115200000000001
1.4819529209926259,0,0,1.7956512451171873,0,0,2.06388
1.4833386999962386,0,0,2.0566192260742184,0,0,0.91728
1.4847248689911794,0,0,1.5849614990234373,0,0,0.53508
1.4861104630108457,0,0,1.2713210815429687,0,0,1.37592
1.4874971870158333,0,0,-0.1484405029296875,0,0,-0.7644
1.4888831700081937,0,0,1.2018892333984375,0,0,0.07644000000000001
1.4902680609957315,0,0,3.27526787109375,0,0,2.14032
1.4916755070153158,0,0,2.70065947265625,0,0,1.68168
1.4930632680188864,0,0,1.675941162109375,0,0,1.07016
1.4944495660020038,0,0,-0.7972691528320313,0,0,0.07644000000000001
1.4958367889921647,0,0,-1.6041151123046875,0,0,-1.07016
1.4972233650041744,0,0,0.18435352783203124,0,0,0.0
1.4986096259963233,0,0,3.536235852050781,0,0,2.06388
1.5000003309978638,0,0,3.265691064453125,0,0,1.911
1.501404814014677,0,0,1.675941162109375,0,0,2.6754
1.502793316001771,0,0,-0.181959326171875,0,0,0.0
1.5041799290047493,0,0,-1.9536685546875,0,0,-0.7644
1.506480048992671,0,0,4.264073156738281,0,0,1.45236
1.5079074389941525,0,0,4.005499377441406,0,0,1.60524
1.5092969410179649,0,0,1.9129671264648436,0,0,1.5288
1.5106836649938487,0,0,-0.16519991455078123,0,0,-0.15288000000000002
1.5120725739980116,0,0,-1.9823989746093749,0,0,0.0
1.513459853013046,0,0,0.6488286499023437,0,0,9.24924
1.5148459100164473,0,0,2.0183119995117185,0,0,0.99372
1.5165056679979898,0,0,2.418143676757812,0,0,1.68168
1.5178900769969914,0,0,2.403778466796875,0,0,2.82828
1.519269931013696,0,0,-0.6296750366210937,0,0,0.0
1.5206538400088903,0,0,0.23223756103515625,0,0,0.0
1.5220333790057339,0,0,1.7693150268554687,0,0,2.52252
1.5234125840070192,0,0,2.5163059448242184,0,0,1.911
1.5247932150086854,0,0,1.8219874633789062,0,0,0.91728
1.5261723470175639,0,0,1.2689268798828124,0,0,-8.63772
1.528870166017441,0,0,0.55545478515625,0,0,-1.37592
1.530271666997578,0,0,3.028665100097656,0,0,1.2230400000000001
1.5316527800168842,0,0,2.6001030029296874,0,0,1.83456
1.5331064480124041,0,0,1.4221557861328125,0,0,1.1465999999999998
1.534601596009452,0,0,-0.3591302490234375,0,0,-0.30576000000000003
1.5361107630014885,0,0,-1.3335703247070312,0,0,0.0
1.5375444490055088,0,0,1.7980454467773437,0,0,1.5288
1.539076801011106,0,0,3.227383837890625,0,0,1.2994800000000002
1.5404733030009083,0,0,2.1356278808593747,0,0,1.45236
1.541861156001687,0,0,1.7501614135742187,0,0,2.6754
1.5432484729972202,0,0,-1.1420341918945311,0,0,-0.99372
1.5446384189999662,0,0,0.06464344482421874,0,0,-0.99372
1.5460258279927075,0,0,1.8315642700195311,0,0,1.911
1.5474125329928938,0,0,2.73896669921875,0,0,1.45236
1.5487936830031686,0,0,1.8626888916015625,0,0,-8.867040000000001
1.5501727029914036,0,0,0.2537853759765625,0,0,1.5288
1.551580074999947,0,0,-1.2114660400390624,0,0,-0.3822
1.5529692989948671,0,0,-0.02154781494140625,0,0,-0.99372
1.5543573930044658,0,0,2.664746447753906,0,0,1.2994800000000002
1.555742321012076,0,0,2.8227637573242186,0,0,1.75812
1.557121026009554,0,0,2.166752502441406,0,0,1.60524
1.558500195009401,0,0,1.0797849487304687,0,0,2.2931999999999997
1.5598858630110044,0,0,-0.3136404174804687,0,0,0.45864
1.5612739940115716,0,0,1.0606313354492187,0,0,0.0
1.5626793109986465,0,0,1.898601916503906,0,0,0.3822
1.5640675530012231,0,0,2.1452046874999997,0,0,0.53508
1.5654467770073097,0,0,2.090138049316406,0,0,1.5288
1.5668261490063742,0,0,1.4987702392578124,0,0,0.15288000000000002
1.568213113991078,0,0,0.36631285400390623,0,0,0.99372
1.569599153008312,0,0,1.24498486328125,0,0,1.68168
1.5709847469988745,0,0,1.7693150268554687,0,0,0.53508
1.572371062997263,0,0,0.9457096557617187,0,0,0.7644
1.573756694997428,0,0,1.2832920898437499,0,0,1.2230400000000001
1.5751430480158888,0,0,0.2920926025390625,0,0,-0.6115200000000001
1.5765307350084186,0,0,1.70467158203125,0,0,0.91728
1.577916403010022,0,0,2.7437551025390623,0,0,2.14032
1.5793024610029534,0,0,2.2002713256835937,0,0,1.68168
1.580688240006566,0,0,1.0271125122070313,0,0,0.45864
1.5820737419999205,0,0,0.6584054565429687,0,0,1.2230400000000001
1.583459984016372,0,0,-0.8667010009765624,0,0,-1.07016
1.584847374993842,0,0,1.1875240234375,0,0,-0.6115200000000001
1.5862337470171042,0,0,3.0166940917968748,0,0,2.2931999999999997
1.5876200450002216,0,0,2.3774422485351563,0,0,1.75812
1.5890144169970881,0,0,0.9504980590820312,0,0,0.68796
1.5903988810023293,0,0,-0.16519991455078123,0,0,0.07644000000000001
1.591801308997674,0,0,-0.33039982910156246,0,0,0.30576000000000003
1.593190218001837,0,0,2.5546131713867184,0,0,0.0
1.594576664007036,0,0,3.124433166503906,0,0,1.5288
1.5959637210180517,0,0,2.7437551025390623,0,0,1.60524
1.5973485560098197,0,0,0.8164227661132812,0,0,1.2230400000000001
1.5987340580031741,0,0,0.23223756103515625,0,0,0.15288000000000002
1.600120726012392,0,0,1.0103531005859374,0,0,0.30576000000000003
1.6015067090047523,0,0,2.099714855957031,0,0,0.45864
1.6028921559918672,0,0,2.6623522460937497,0,0,0.99372
1.6042782310105395,0,0,1.2665326782226562,0,0,1.37592
1.6056642330077011,0,0,1.0534487304687499,0,0,2.2931999999999997
1.607058068009792,0,0,0.3064578125,0,0,-0.30576000000000003
1.6084611809928901,0,0,1.0271125122070313,0,0,1.07016
1.609847145009553,0,0,2.094926452636719,0,0,1.98744
1.6112327949958853,0,0,2.269703173828125,0,0,1.07016
1.6126189450151287,0,0,1.1468225952148436,0,0,0.45864
1.6140047800145112,0,0,0.9265560424804687,0,0,1.37592
1.6153902820078656,0,0,-0.05027823486328125,0,0,-0.30576000000000003
1.6167774310160894,0,0,1.5969325073242187,0,0,0.30576000000000003
1.6181636550172698,0,0,2.8012159423828122,0,0,2.4460800000000003
1.6195511200057808,0,0,2.039859814453125,0,0,1.68168
1.620937177009182,0,0,0.9935936889648437,0,0,0.6115200000000001
1.6223234200151637,0,0,-0.5770026000976562,0,0,0.30576000000000003
1.623710679996293,0,0,-0.93852705078125,0,0,-0.45864
1.6250965899962466,0,0,2.9376854370117185,0,0,0.0
1.626482665014919,0,0,3.77326181640625,0,0,2.4460800000000003
1.627869499992812,0,0,3.1459809814453124,0,0,1.2230400000000001
1.6292546130134724,0,0,0.8044517578125,0,0,0.91728
1.630640688992571,0,0,-0.3711012573242187,0,0,-0.30576000000000003
1.6320288199931383,0,0,-1.2138602416992186,0,0,0.53508
1.6334153400093783,0,0,2.0446482177734375,0,0,0.0
1.6348013789975084,0,0,3.1364041748046874,0,0,1.37592
1.6361878809984773,0,0,1.70467158203125,0,0,0.84084
1.6375735490000807,0,0,1.1851298217773436,0,0,1.5288
1.6389595140062738,0,0,0.22266075439453123,0,0,20
1.640345571009675,0,0,0.6512228515624999,0,0,0.91728
1.6417310910183005,0,0,2.2553379638671873,0,0,1.98744
1.6431171300064307,0,0,2.3870190551757813,0,0,1.2230400000000001
1.6445033170166425,0,0,0.93852705078125,0,0,0.68796
1.6458889850182459,0,0,0.47884033203125,0,0,1.2230400000000001
1.647282282996457,0,0,-0.2609679809570312,0,0,-0.6115200000000001
1.648669432994211,0,0,1.3646949462890625,0,0,0.6115200000000001
1.65006200800417,0,0,3.373430139160156,0,0,2.52252
1.6514484180079307,0,0,2.674323254394531,0,0,1.83456
1.652834159991471,0,0,1.2617442749023438,0,0,0.6115200000000001
1.654219643009128,0,0,-0.6536170532226562,0,0,0.91728
1.6556065340118948,0,0,-1.0941501586914062,0,0,-0.22932
1.656992591015296,0,0,0.7733271362304687,0,0,-0.53508
1.658378463005647,0,0,3.641580725097656,0,0,2.14032
1.659764650015859,0,0,3.248931652832031,0,0,1.37592
1.661149726016447,0,0,1.4245499877929686,0,0,1.68168
1.6625349870009813,0,0,-0.34715924072265625,0,0,0.15288000000000002
1.663921803003177,0,0,-1.7621324218749999,0,0,0.07644000000000001
1.665307990013389,0,0,1.8148048583984373,0,0,0.0
1.6666933619999327,0,0,3.375824340820312,0,0,0.99372
1.6680792900151573,0,0,1.9895815795898437,0,0,1.45236
1.6694651620055083,0,0,1.4317325927734375,0,0,1.2994800000000002
1.6708507740113419,0,0,0.17477672119140625,0,0,-0.45864
1.6722366280155256,0,0,-0.296881005859375,0,0,0.15288000000000002
1.6736237220175099,0,0,1.24498486328125,0,0,0.91728
1.6750091309950221,0,0,2.5809493896484375,0,0,0.68796
1.6763946890132502,0,0,2.0446482177734375,0,0,1.37592
1.6777807640028186,0,0,2.2553379638671873,0,0,2.36964
1.6791658220172394,0,0,-0.5746083984375,0,0,-0.3822
1.6805525830131955,0,0,-0.13168109130859373,0,0,-0.3822
1.6819390839955304,0,0,1.8555062866210936,0,0,2.52252
1.683324771001935,0,0,2.5330653564453125,0,0,0.84084
1.6847103649924975,0,0,1.5825672973632812,0,0,0.68796
1.6860963299986906,0,0,0.622492431640625,0,0,1.45236
1.6874945720192045,0,0,-0.8092401611328125,0,0,0.0
1.6888802780013066,0,0,0.016759411621093748,0,0,-1.37592
1.6902649459952954,0,0,2.722207287597656,0,0,1.98744
1.6918250939925201,0,0,2.5737667846679684,0,0,1.2994800000000002
1.6932140029966831,0,0,2.0302830078125,0,0,1.98744
1.6946132080047391,0,0,0.354341845703125,0,0,0.15288000000000002
1.696000747004291,0,0,-0.6703764648437499,0,0,-0.3822
1.6973882110032719,0,0,1.675941162109375,0,0,9.40212
1.6987741390184965,0,0,3.526659045410156,0,0,1.45236
1.7001599550130777,0,0,2.592920397949219,0,0,1.45236
1.7015456980152521,0,0,1.886630908203125,0,0,2.14032
1.7029317370033823,0,0,0.181959326171875,0,0,-1.1465999999999998
1.7043184420035686,0,0,-1.4317325927734375,0,0,-0.99372
1.7057136470102705,0,0,0.8571241943359375,0,0,0.91728
1.7070995749963913,0,0,3.1004911499023438,0,0,0.6115200000000001
1.7084850020182785,0,0,2.5809493896484375,0,0,1.45236
1.7098706150136422,0,0,2.27927998046875,0,0,2.52252
1.7112565239949618,0,0,-0.7038952880859375,0,0,-0.45864
1.7126437110127881,0,0,-0.8116343627929687,0,0,-0.30576000000000003
1.7140303240157664,0,0,2.760514514160156,0,0,1.98744
1.7154159740020987,0,0,3.1675287963867187,0,0,1.75812
1.717020936019253,0,0,2.032677209472656,0,0,1.2994800000000002
1.718403456005035,0,0,0.9361328491210937,0,0,2.6754
1.7197864210174885,0,0,-0.8068459594726562,0,0,-0.6115200000000001
1.7214195679989643,0,0,1.2234370483398436,0,0,-0.07644000000000001
1.722805347002577,0,0,2.530671154785156,0,0,1.2230400000000001
1.7241869230056182,0,0,2.3319524169921872,0,0,2.14032
1.7255661470117047,0,0,1.8195932617187498,0,0,1.83456
1.7269460190145764,0,0,-0.97683427734375,0,0,-0.45864
1.7283287610043772,0,0,-1.2737152832031249,0,0,0.0
1.7297087820188608,0,0,1.0271125122070313,0,0,0.30576000000000003
1.7310877830022946,0,0,2.8323405639648436,0,0,0.68796
1.732475600001635,0,0,2.437297290039062,0,0,1.75812
1.7338622309907805,0,0,2.446874096679687,0,0,2.6754
1.7352482879941817,0,0,-0.3758896606445312,0,0,-0.3822
1.7366356420097873,0,0,-0.316034619140625,0,0,-9.784320000000001
1.7380370880127884,0,0,2.288856787109375,0,0,2.36964
1.739423552993685,0,0,2.446874096679687,0,0,0.53508
1.740809442999307,0,0,1.9009961181640624,0,0,1.2994800000000002
1.7421948150149547,0,0,0.9864110839843749,0,0,1.1465999999999998
1.7435815579956397,0,0,-0.4213794921875,0,0,-0.53508
1.7449691889923997,0,0,1.3479355346679687,0,0,-0.91728
1.7463556349975988,0,0,2.4588451049804685,0,0,2.36964
1.7477420630166307,0,0,2.5043349365234375,0,0,1.75812
1.749127250019228,0,0,1.714248388671875,0,0,1.5288
1.7505129550118,0,0,0.6775590698242188,0,0,0.99372
1.7518993449921254,0,0,-0.7781155395507812,0,0,9.555
1.753283994999947,0,0,1.3096283081054687,0,0,-0.6115200000000001
1.7546684780099895,0,0,2.882618798828125,0,0,0.6115200000000001
1.756845636991784,0,0,2.4564509033203126,0,0,1.2230400000000001
1.7582707870169543,0,0,0.9911994873046874,0,0,2.75184
1.7596648990001995,0,0,-0.4525041137695312,0,0,-0.84084
1.7610572160047013,0,0,0.4955997436523437,0,0,-1.2230400000000001
1.7624447730195243,0,0,1.7334020019531249,0,0,0.84084
1.7638337560056243,0,0,2.7533319091796873,0,0,0.91728
1.7652387760172132,0,0,2.418143676757812,0,0,1.37592
1.7666263699939009,0,0,1.3479355346679687,0,0,0.91728
1.768011631007539,0,0,-0.488417138671875,0,0,0.91728
1.7693916140124202,0,0,0.9313444458007812,0,0,0.07644000000000001
1.7708259490027558,0,0,1.9321207397460936,0,0,0.45864
1.7722187470062636,0,0,1.9033903198242186,0,0,1.1465999999999998
1.773606489005033,0,0,2.070984436035156,0,0,1.68168
1.7749939350178465,0,0,0.3447650390625,0,0,-0.99372
1.7763833260105457,0,0,-0.06943184814453125,0,0,0.68796
1.7777717529970687,0,0,1.5346832641601562,0,0,1.60524
1.779158459015889,0,0,2.370259643554687,0,0,0.91728
1.7805460340168793,0,0,1.2521674682617188,0,0,0.84084
1.781932684010826,0,0,0.2705447875976562,0,0,1.83456
1.7833327970001847,0,0,-0.6919242797851562,0,0,-1.5288
1.7847160389937926,0,0,-0.27293898925781246,0,0,-0.53508
1.786096615018323,0,0,3.2800562744140622,0,0,2.4460800000000003
1.7874756730161607,0,0,2.8658593872070313,0,0,1.1465999999999998
1.7888632850081194,0,0,1.2234370483398436,0,0,1.37592
1.7902477680181619,0,0,0.29927520751953124,0,0,1.45236
1.7917009550146759,0,0,-0.6296750366210937,0,0,-0.3822
1.7930910860013682,0,0,2.01112939453125,0,0,9.555
1.7944774389907252,0,0,3.2225954345703123,0,0,2.4460800000000003
1.7958646820043214,0,0,2.1452046874999997,0,0,2.2931999999999997
1.7972501089971047,0,0,2.138022082519531,0,0,0.99372
1.798635778017342,0,0,0.7852981445312499,0,0,0.45864
1.8000329270143993,0,0,-0.7422025146484375,0,0,-0.30576000000000003
1.8016147970047314,0,0,1.4891934326171874,0,0,0.84084
1.8030065950006247,0,0,2.3918074584960936,0,0,0.0
1.8043915230082348,0,0,1.2617442749023438,0,0,1.5288
1.80577550601447,0,0,1.35990654296875,0,0,1.68168
1.8071591560146771,0,0,-0.3687070556640625,0,0,-1.2230400000000001
1.8085443979944102,0,0,-0.239420166015625,0,0,0.7644
1.8099288810044527,0,0,2.6767174560546874,0,0,1.68168
1.8113113639992662,0,0,2.3511060302734372,0,0,0.68796
1.8126941999944393,0,0,1.4867992309570313,0,0,0.68796
1.8140789790195413,0,0,0.6464344482421874,0,0,2.4460800000000003
1.8154611290083267,0,0,-0.2920926025390625,0,0,-1.75812
1.8168546300148591,0,0,2.703053674316406,0,0,0.0
1.8182389099965803,0,0,3.4093431640625,0,0,3.2869200000000003
1.8196237820084207,0,0,3.1794998046874996,0,0,1.2230400000000001
1.8210042839928064,0,0,0.8786720092773437,0,0,0.84084
1.8223898599972017,0,0,-0.6081272216796875,0,0,0.07644000000000001
1.823792045994196,0,0,-0.59376201171875,0,0,20
1.8251747699978296,0,0,2.2960393920898436,0,0,-0.53508
1.826564198010601,0,0,3.5889082885742187,0,0,1.75812
1.8279480140190572,0,0,1.7334020019531249,0,0,1.68168
1.829329867992783,0,0,1.4772224243164063,0,0,1.911
1.8307118700176943,0,0,0.086191259765625,0,0,0.07644000000000001
1.8320958340191282,0,0,-1.0678139404296874,0,0,0.0
1.833479040011298,0,0,1.649604943847656,0,0,0.45864
1.8348613010020927,0,0,3.976768957519531,0,0,1.83456
1.8362437839969061,0,0,2.492363928222656,0,0,2.4460800000000003
1.8376257109921426,0,0,1.9752163696289062,0,0,2.98116
1.839007786998991,0,0,-1.3479355346679687,0,0,-1.1465999999999998
1.8403919739939738,0,0,-1.6065093139648436,0,0,-0.84084
1.8417757349961903,0,0,3.5410242553710933,0,0,9.631440000000001
1.8431574779970106,0,0,3.871424084472656,0,0,0.07644000000000001
1.844540368008893,0,0,2.214636535644531,0,0,1.2994800000000002
1.8459222590026911,0,0,0.033518823242187495,0,0,2.4460800000000003
1.8473035570059437,0,0,-1.197100830078125,0,0,-1.37592
1.8486925030010752,0,0,-1.4867992309570313,0,0,0.0
1.8500752270047087,0,0,2.916137622070312,0,0,2.06388
1.8514570250117686,0,0,3.459621398925781,0,0,0.45864
1.8528397670015693,0,0,1.714248388671875,0,0,0.6115200000000001
1.8542210099985823,0,0,0.4261678955078125,0,0,2.82828
1.855603992997203,0,0,-0.9720458740234375,0,0,-0.68796
1.8569872539956123,0,0,1.7764976318359373,0,0,0.0
1.8583695150155108,0,0,3.6248213134765623,0,0,2.90472
1.8597524609940592,0,0,2.5522189697265625,0,0,1.911
1.8611339070193935,0,0,1.6352397338867186,0,0,0.68796
1.862516057008179,0,0,-0.3064578125,0,0,-8.56128
1.8639002260169946,0,0,-1.5682020874023437,0,0,-1.07016
1.8652825980097987,0,0,1.3383587280273437,0,0,-0.91728
1.8666601180157159,0,0,3.8283284545898435,0,0,1.911
1.8680477860034443,0,0,2.375048046875,0,0,2.2931999999999997
1.8694300840143114,0,0,1.39821376953125,0,0,1.68168
1.8708200300170574,0,0,-1.8291700683593748,0,0,-0.68796
1.8722025320166722,0,0,-2.482787121582031,0,0,-1.37592
1.873604256019462,0,0,0.009576806640625,0,0,0.0
1.8749876279907767,0,0,4.580107775878906,0,0,0.84084
1.8763704820012208,0,0,2.91134921875,0,0,2.2931999999999997
1.8777522430173121,0,0,0.16759411621093748,0,0,1.5288
1.8791343180055264,0,0,-1.467645617675781,0,0,-1.2230400000000001
1.880517671990674,0,0,-2.8227637573242186,0,0,-1.2994800000000002
1.8819009140133858,0,0,1.8602946899414061,0,0,-1.911
1.8832927680050489,0,0,3.8091748413085935,0,0,0.84084
1.8846750840020832,0,0,2.6192566162109374,0,0,1.83456
1.8860564189963043,0,0,0.4860229370117187,0,0,0.53508
1.887438439996913,0,0,-1.20667763671875,0,0,0.0
1.888821275002556,0,0,-1.8698714965820311,0,0,9.01992
1.8902034799975809,0,0,1.0773907470703123,0,0,-1.75812
1.8916036110022105,0,0,2.511517541503906,0,0,2.75184
1.8929861130018253,0,0,1.6160861206054686,0,0,0.53508
1.8943681890086737,0,0,1.7381904052734374,0,0,0.15288000000000002
1.895751450007083,0,0,-0.3902548706054687,0,0,3.4398000000000004
1.8971332480141427,0,0,-1.5227122558593749,0,0,7.10892
1.8985161010059528,0,0,-0.1867477294921875,0,0,0.84084
1.8998998989991378,0,0,3.5338416503906247,0,0,1.75812
1.9012836049951147,0,0,3.852270471191406,0,0,0.07644000000000001
1.9026650320156477,0,0,1.668758557128906,0,0,2.6754
1.9040474600042216,0,0,-0.7757213378906249,0,0,-20
1.905430814018473,0,0,-1.8507178833007811,0,0,-1.2230400000000001
1.906813575013075,0,0,-1.1611878051757811,0,0,7.261800000000001
1.9081963539938442,0,0,1.8124106567382812,0,0,0.7644
1.9095782450167462,0,0,2.6048914062499997,0,0,0.7644
1.9109598950017244,0,0,1.3670891479492187,0,0,1.2230400000000001
1.9123416560178157,0,0,-0.5363011718749999,0,0,2.90472
1.913731934997486,0,0,-1.0893617553710937,0,0,-1.2994800000000002
1.9151144179922994,0,0,-0.2920926025390625,0,0,2.52252
1.916497624013573,0,0,0.062249243164062495,0,0,-2.4460800000000003
1.917888922005659,0,0,4.048595007324218,0,0,2.52252
1.9192710340139456,0,0,3.6727053466796873,0,0,-0.15288000000000002
1.9206544250191655,0,0,1.5729904907226562,0,0,3.21048
1.92203650099691,0,0,-0.9217676391601562,0,0,0.45864
1.9234192430158146,0,0,-1.3239935180664062,0,0,-0.99372
1.9248023930122145,0,0,-0.8188169677734375,0,0,6.879600000000001
1.9261847470188513,0,0,1.1228805786132812,0,0,-2.36964
1.9275671000068542,0,0,1.1156979736328125,0,0,0.0
1.9289490650116932,0,0,2.147598889160156,0,0,0.84084
1.9303306780057028,0,0,1.7669208251953124,0,0,1.60524
1.931713143014349,0,0,-0.49320554199218747,0,0,1.75812
1.9330953290045727,0,0,-1.484405029296875,0,0,-0.30576000000000003
1.9344776090001687,0,0,-0.6272808349609375,0,0,-0.3822
1.9358605180168524,0,0,1.637633935546875,0,0,-0.91728
1.937242612009868,0,0,2.528276953125,0,0,1.07016
1.9387489270011429,0,0,1.9488801513671874,0,0,0.7644
1.9401343000063207,0,0,1.16837041015625,0,0,1.37592
1.9415308750176337,0,0,0.948103857421875,0,0,0.15288000000000002
1.9429127470066305,0,0,0.04548983154296875,0,0,0.15288000000000002
1.9442950450174976,0,0,-0.009576806640625,0,0,-1.07016
1.9456783799978439,0,0,0.40462008056640625,0,0,-0.22932
1.9470611970173195,0,0,1.1420341918945311,0,0,-0.6115200000000001
1.948462347005261,0,0,1.2593500732421874,0,0,1.1465999999999998
1.9498441629984882,0,0,0.6943184814453125,0,0,0.53508
1.9512262200005352,0,0,0.19871873779296872,0,0,0.53508
1.9526088330021594,0,0,0.5602431884765625,0,0,0.07644000000000001
1.9539904830162413,0,0,1.24498486328125,0,0,1.07016
1.955372337019071,0,0,1.944091748046875,0,0,0.6115200000000001
1.956755190010881,0,0,1.467645617675781,0,0,1.07016
1.9581863950006664,0,0,0.6560112548828124,0,0,1.1465999999999998
1.9595693600131199,0,0,-0.06703764648437499,0,0,-0.7644
1.960953472997062,0,0,0.5386953735351562,0,0,-1.2230400000000001
1.9623359559918754,0,0,1.4820108276367188,0,0,0.30576000000000003
1.9637180319987237,0,0,0.9959878906249999,0,0,9.40212
1.965100589004578,0,0,0.5315127685546874,0,0,-0.15288000000000002
1.9664829050016124,0,0,-0.2442085693359375,0,0,0.22932
1.9678669630084187,0,0,-0.3112462158203125,0,0,-0.53508
1.969251667993376,0,0,0.833182177734375,0,0,0.6115200000000001
1.9706337620154954,0,0,1.455674609375,0,0,0.91728
1.9720278939930722,0,0,1.0702081420898437,0,0,0.7644
1.9734100619971287,0,0,1.0462661254882812,0,0,1.2994800000000002
1.9747918409993872,0,0,0.6081272216796875,0,0,0.15288000000000002
1.9761738250090275,0,0,0.82360537109375,0,0,0.30576000000000003
1.9775554380030371,0,0,1.4006079711914061,0,0,0.7644
1.9789372730010655,0,0,1.0582371337890624,0,0,0.0
1.9803200520109385,0,0,-0.01915361328125,0,0,0.0
1.9817019060137682,0,0,0.2753331909179687,0,0,-1.2994800000000002
1.983084500010591,0,0,0.689530078125,0,0,0.45864
1.984470613009762,0,0,0.51714755859375,0,0,-0.7644
1.9858523549919482,0,0,1.5514426757812498,0,0,0.91728
1.9872341900190804,0,0,1.2473790649414063,0,0,0.99372
1.988733042991953,0,0,-0.11731588134765625,0,0,-9.24924
1.9901221549953334,0,0,-0.1771709228515625,0,0,0.53508
1.99150750899571,0,0,0.6488286499023437,0,0,-0.3822
1.992891881003743,0,0,1.5370774658203123,0,0,0.7644
1.9942749009933323,0,0,1.2689268798828124,0,0,0.6115200000000001
1.9956592730013654,0,0,1.5418658691406248,0,0,0.3822
1.9970413859991822,0,0,0.9696516723632812,0,0,0.6115200000000001
1.9984241280180868,0,0,0.24181436767578124,0,0,-9.784320000000001
1.9998202779970597,0,0,-0.4908113403320312,0,0,-0.99372
2.0012106130016036,0,0,0.39983167724609375,0,0,-0.30576000000000003
2.0025943370128516,0,0,1.7190367919921874,0,0,0.3822
2.0039761349908076,0,0,1.0558429321289062,0,0,0.6115200000000001
2.005348822014639,0,0,0.4429273071289062,0,0,0.91728
2.00675804601633,0,0,0.679953271484375,0,0,0.6115200000000001
2.0083581560174935,0,0,0.9193734375,0,0,0.53508
2.009745287010446,0,0,0.7781155395507812,0,0,0.7644
2.011129288992379,0,0,0.6727706665039062,0,0,0.3822
2.0125137720024213,0,0,0.6847416748046875,0,0,0.0
2.0138967740058433,0,0,1.7094599853515624,0,0,0.53508
2.01528029399924,0,0,1.678335363769531,0,0,0.6115200000000001
2.016663888003677,0,0,0.5363011718749999,0,0,0.15288000000000002
2.018050704995403,0,0,-0.00718260498046875,0,0,0.07644000000000001
2.019435855007032,0,0,-0.15083470458984374,0,0,-0.6115200000000001
2.0208216159953736,0,0,0.699106884765625,0,0,0.30576000000000003
2.0222150619956665,0,0,1.3575123413085937,0,0,0.0
2.023645562992897,0,0,1.1851298217773436,0,0,0.68796
2.02502969399211,0,0,0.6847416748046875,0,0,0.68796
2.026412937004352,0,0,-0.04548983154296875,0,0,-0.45864
2.027800031006336,0,0,0.3902548706054687,0,0,-0.15288000000000002
2.029182772996137,0,0,0.97683427734375,0,0,0.30576000000000003
2.0305657570133917,0,0,1.5969325073242187,0,0,0.53508
2.031949961994542,0,0,1.1731588134765625,0,0,0.91728
2.033335129992338,0,0,0.6296750366210937,0,0,0.45864
2.0347178539959714,0,0,-0.08140285644531249,0,0,0.0
2.03610441100318,0,0,0.02154781494140625,0,0,-0.53508
2.0374886720092036,0,0,1.7453730102539062,0,0,0.15288000000000002
2.038872025994351,0,0,2.032677209472656,0,0,0.99372
2.0402616020001005,0,0,1.7453730102539062,0,0,0.99372
2.0416451590135694,0,0,0.6464344482421874,0,0,0.99372
2.043027826992329,0,0,0.0383072265625,0,0,0.0
2.0444048850040417,0,0,-0.296881005859375,0,0,-0.99372
2.0457987379922997,0,0,0.8595183959960937,0,0,-0.68796
2.047173777013086,0,0,1.438915197753906,0,0,0.0
2.0485577050130814,0,0,1.426944189453125,0,0,0.53508
2.0499406140006613,0,0,0.8690952026367187,0,0,0.68796
2.051323338004295,0,0,0.16041151123046873,0,0,0.07644000000000001
2.0527148760156706,0,0,-0.076614453125,0,0,0.0
2.054098766995594,0,0,0.33518823242187495,0,0,0.0
2.055495342996437,0,0,1.2952630981445312,0,0,0.3822
2.056878752016928,0,0,1.6160861206054686,0,0,0.3822
2.058304994017817,0,0,1.3168109130859373,0,0,1.1465999999999998
2.0596894769987557,0,0,0.7781155395507812,0,0,0.6115200000000001
2.061071238014847,0,0,0.5458779785156249,0,0,1.68168
2.0624544250022154,0,0,0.7757213378906249,0,0,0.07644000000000001
2.0638382410106715,0,0,0.9720458740234375,0,0,0.0
2.0652204469952267,0,0,0.7924807495117187,0,0,0.15288000000000002
2.066622726008063,0,0,0.9457096557617187,0,0,0.0
2.0681203739950433,0,0,1.35990654296875,0,0,0.91728
2.069506950007053,0,0,0.699106884765625,0,0,0.53508
2.0708905630162917,0,0,0.27293898925781246,0,0,0.30576000000000003
2.072274324018508,0,0,0.27293898925781246,0,0,0.30576000000000003
2.0736569369910285,0,0,0.9840168823242187,0,0,0.3822
2.0750404199934565,0,0,1.4006079711914061,0,0,0.6115200000000001
2.076423791993875,0,0,1.5370774658203123,0,0,0.99372
2.077806646004319,0,0,1.5610194824218748,0,0,1.2994800000000002
2.079190110001946,0,0,1.1875240234375,0,0,-8.63772
2.0805751309962943,0,0,1.0989385620117187,0,0,0.99372
2.0819587619917,0,0,1.2689268798828124,0,0,0.7644
2.0833416520035826,0,0,1.37906015625,0,0,0.99372
2.084726747008972,0,0,1.6400281372070311,0,0,0.7644
2.0861099710164126,0,0,1.5562310791015623,0,0,0.68796
2.0875093800132163,0,0,1.120486376953125,0,0,0.6115200000000001
2.088910769991344,0,0,1.20667763671875,0,0,0.6115200000000001
2.090294512017863,0,0,1.1276689819335937,0,0,0.6115200000000001
2.091677902993979,0,0,1.3024457031249999,0,0,0.53508
2.093060923012672,0,0,1.0917559570312498,0,0,0.91728
2.0944437950092833,0,0,1.16837041015625,0,0,0.6115200000000001
2.0958284820080735,0,0,1.2785036865234374,0,0,0.7644
2.0972105030086823,0,0,1.4820108276367188,0,0,0.84084
2.098592911992455,0,0,1.5107412475585937,0,0,0.99372
2.0999766910099424,0,0,1.668758557128906,0,0,0.7644
2.1013655819988344,0,0,1.3048399047851562,0,0,0.84084
2.102751602011267,0,0,1.3192051147460937,0,0,0.6115200000000001
2.1041351960157044,0,0,1.1875240234375,0,0,0.84084
2.105517920019338,0,0,1.1851298217773436,0,0,0.3822
2.106900774000678,0,0,1.2425906616210938,0,0,0.45864
2.10828383101034,0,0,1.4772224243164063,0,0,0.53508
2.1096668140089605,0,0,1.3910311645507811,0,0,0.3822
2.1110492419975344,0,0,1.3646949462890625,0,0,0.53508
2.1124332990148105,0,0,1.0654197387695312,0,0,0.99372
2.1142607030051295,0,0,1.1540052001953125,0,0,0.53508
2.1157036480144598,0,0,1.2952630981445312,0,0,0.91728
2.1171595939958934,0,0,1.3311761230468748,0,0,0.68796
2.1193133080087136,0,0,1.4772224243164063,0,0,0.84084
2.1208657520182896,0,0,1.2330138549804688,0,0,0.91728
2.123240649001673,0,0,1.2425906616210938,0,0,0.84084
2.1247057059954386,0,0,1.2832920898437499,0,0,0.45864
2.1261645950144157,0,0,1.1851298217773436,0,0,1.60524
2.1276784840156324,0,0,1.1444283935546875,0,0,0.6115200000000001
2.129127985012019,0,0,1.2808978881835937,0,0,0.3822
2.1305771530023776,0,0,1.3000515014648437,0,0,0.6115200000000001
2.132054468005663,0,0,1.39821376953125,0,0,0.6115200000000001
2.1339616120094433,0,0,1.4341267944335936,0,0,1.1465999999999998
2.135342836001655,0,0,1.1563994018554686,0,0,0.91728
2.1367376710113604,0,0,1.1923124267578125,0,0,0.84084
2.1381177279981785,0,0,1.218648645019531,0,0,0.68796
2.139509655011352,0,0,1.2928688964843749,0,0,0.6115200000000001
2.1408901390095707,0,0,1.2665326782226562,0,0,0.3822
2.1422688809980173,0,0,1.3431471313476562,0,0,0.7644
2.1436494200024754,0,0,1.3479355346679687,0,0,0.84084
2.145028161990922,0,0,1.2808978881835937,0,0,1.07016
2.146407201013062,0,0,1.0558429321289062,0,0,0.84084
2.1477949440013617,0,0,0.9744400756835937,0,0,0.84084
2.149180612002965,0,0,0.9959878906249999,0,0,0.45864
2.1505692249920685,0,0,1.4437036010742186,0,0,0.30576000000000003
2.151955152017763,0,0,1.3958195678710936,0,0,0.7644
2.1533400430053007,0,0,1.5945383056640625,0,0,0.68796
2.154726081993431,0,0,1.2569558715820313,0,0,0.99372
2.1561120460100938,0,0,1.2042834350585936,0,0,0.84084
2.157497751992196,0,0,0.9145850341796874,0,0,0.84084
2.1588833830028307,0,0,1.0390835205078124,0,0,0.3822
2.160269292013254,0,0,1.0941501586914062,0,0,-9.09636
2.1616573680075817,0,0,1.5849614990234373,0,0,0.6115200000000001
2.1630432580132037,0,0,1.4987702392578124,0,0,1.07016
2.1644292419950943,0,0,1.35990654296875,0,0,0.6115200000000001
2.165814039995894,0,0,1.216254443359375,0,0,1.1465999999999998
2.1671997260127682,0,0,1.1156979736328125,0,0,0.84084
2.168585580016952,0,0,1.1156979736328125,0,0,0.7644
2.1699706189974677,0,0,1.1324573852539062,0,0,0.68796
2.1713562679942697,0,0,1.429338391113281,0,0,0.68796
2.1727423440024722,0,0,1.5370774658203123,0,0,0.7644
2.1741276050161105,0,0,1.5251064575195312,0,0,0.91728
2.1755131620157044,0,0,1.3048399047851562,0,0,0.84084
2.1768993310106453,0,0,1.0893617553710937,0,0,0.99372
2.1783040540176444,0,0,1.1085153686523437,0,0,0.68796
2.1796967230038717,0,0,1.1085153686523437,0,0,0.7644
2.181082724011503,0,0,1.189918225097656,0,0,0.53508
2.182468004000839,0,0,1.4724340209960938,0,0,0.30576000000000003
2.1838540059980005,0,0,1.448492004394531,0,0,0.68796
2.1852398040064145,0,0,1.39821376953125,0,0,0.84084
2.1866250460152514,0,0,1.1444283935546875,0,0,1.07016
2.1880116219981574,0,0,1.16837041015625,0,0,0.7644
2.1894018829916604,0,0,1.024718310546875,0,0,0.68796
2.1908983640023507,0,0,1.158793603515625,0,0,0.68796
2.1923033840139396,0,0,1.3144167114257812,0,0,0.7644
2.1937315149989445,0,0,1.4772224243164063,0,0,0.7644
2.1951224980002735,0,0,1.4030021728515625,0,0,0.91728
2.1965106110146735,0,0,1.3742717529296875,0,0,0.99372
2.1978980200074147,0,0,1.199495031738281,0,0,1.1465999999999998
2.199285429000156,0,0,1.24498486328125,0,0,0.6115200000000001
2.2006722270161845,0,0,1.13006318359375,0,0,0.68796
2.202059655013727,0,0,1.3766659545898436,0,0,0.68796
2.203446305007674,0,0,1.2761094848632812,0,0,-9.01992
2.2048294730193447,0,0,1.3958195678710936,0,0,0.84084
2.206208604009589,0,0,1.3910311645507811,0,0,0.68796
2.2076323090004735,0,0,1.4173673828125,0,0,0.6115200000000001
2.209019828995224,0,0,1.2976572998046874,0,0,0.91728
2.2104071640060283,0,0,1.2808978881835937,0,0,0.7644
2.2117956110159867,0,0,1.2114660400390624,0,0,0.91728
2.213180872000521,0,0,1.1276689819335937,0,0,0.7644
2.214567707007518,0,0,1.3646949462890625,0,0,0.22932
2.2159552450175397,0,0,1.4030021728515625,0,0,0.6115200000000001
2.217340728006093,0,0,1.5059528442382812,0,0,0.68796
2.218727249011863,0,0,1.3742717529296875,0,0,0.91728
2.2201096389908344,0,0,1.3455413330078123,0,0,0.68796
2.2214883450069465,0,0,0.9911994873046874,0,0,0.84084
2.222867180011235,0,0,1.2114660400390624,0,0,0.45864
2.2242695699969772,0,0,1.37906015625,0,0,0.6115200000000001
2.22565694199875,0,0,1.467645617675781,0,0,0.53508
2.2270438699924853,0,0,1.3862427612304686,0,0,0.68796
2.2284261860186234,0,0,1.429338391113281,0,0,0.84084
2.2298045770148747,0,0,1.1851298217773436,0,0,0.84084
2.2311833940038923,0,0,1.2018892333984375,0,0,1.07016
2.232564061996527,0,0,1.0558429321289062,0,0,0.6115200000000001
2.233942619001027,0,0,1.0773907470703123,0,0,0.53508
2.2353206769912504,0,0,1.3766659545898436,0,0,1.2230400000000001
2.2367220300075132,0,0,1.47482822265625,0,0,0.45864
2.238108217017725,0,0,1.2856862915039062,0,0,0.7644
2.2395066439930815,0,0,1.426944189453125,0,0,0.91728
2.240891368011944,0,0,1.2689268798828124,0,0,2.36964
2.2424602940154728,0,0,1.180341418457031,0,0,0.84084
2.243847221019678,0,0,1.2018892333984375,0,0,0.7644
2.245238111994695,0,0,1.2976572998046874,0,0,0.6115200000000001
2.246621038997546,0,0,1.4628572143554686,0,0,0.45864
2.248005725996336,0,0,1.6256629272460936,0,0,0.84084
2.249387617019238,0,0,1.5298948608398437,0,0,0.84084
2.250769841019064,0,0,1.3575123413085937,0,0,0.84084
2.2521521570160985,0,0,1.189918225097656,0,0,1.07016
2.2535347329976503,0,0,1.0702081420898437,0,0,0.53508
2.254916734993458,0,0,1.0630255371093749,0,0,0.68796
2.2562994220061228,0,0,1.1659762084960936,0,0,0.68796
2.2577249229943845,0,0,1.4149731811523436,0,0,0.30576000000000003
2.259287997003412,0,0,1.3623007446289062,0,0,1.1465999999999998
2.260678609018214,0,0,1.5035586425781249,0,0,0.84084
2.2620613890176173,0,0,1.24498486328125,0,0,1.07016
2.263443631003611,0,0,1.1228805786132812,0,0,0.99372
2.264826429018285,0,0,0.9409212524414062,0,0,0.68796
2.26620869000908,0,0,1.2569558715820313,0,0,0.6115200000000001
2.267633821000345,0,0,1.3048399047851562,0,0,0.84084
2.2690171750145964,0,0,1.465251416015625,0,0,0.53508
2.2703997690114193,0,0,1.458068811035156,0,0,0.84084
2.2717823260172736,0,0,1.4053963745117186,0,0,0.68796
2.273169808991952,0,0,1.2928688964843749,0,0,0.91728
2.274552329996368,0,0,1.209071838378906,0,0,0.68796
2.275935350015061,0,0,1.0965443603515623,0,0,0.99372
2.2773159999924246,0,0,1.1372457885742187,0,0,0.6115200000000001
2.2786985940183513,0,0,1.24498486328125,0,0,0.53508
2.2800813550129533,0,0,1.3958195678710936,0,0,0.53508
2.2814630420180038,0,0,1.4963760375976562,0,0,0.7644
2.2828454700065777,0,0,1.4437036010742186,0,0,0.53508
2.2842278229945805,0,0,1.13006318359375,0,0,0.91728
2.2856096400064416,0,0,1.0510545288085937,0,0,0.84084
2.2869920119992457,0,0,1.0726023437499999,0,0,0.7644
2.28837481001392,0,0,1.2880804931640624,0,0,0.45864
2.289756867015967,0,0,1.4053963745117186,0,0,0.22932
2.2911387020139955,0,0,1.419761584472656,0,0,1.07016
2.2925217779993545,0,0,1.458068811035156,0,0,0.91728
2.2939037430041935,0,0,1.4341267944335936,0,0,0.7644
2.295294837007532,0,0,1.1180921752929687,0,0,1.07016
2.2966774870001245,0,0,1.1061211669921875,0,0,0.6115200000000001
2.298059174005175,0,0,1.13006318359375,0,0,0.84084
2.2994407869991846,0,0,1.3168109130859373,0,0,0.68796
2.300824639998609,0,0,1.4173673828125,0,0,0.3822
2.302206585998647,0,0,1.35990654296875,0,0,0.84084
2.303603142994689,0,0,1.618480322265625,0,0,0.84084
2.304985590017168,0,0,1.4508862060546874,0,0,0.7644
2.3063675909943413,0,0,1.2832920898437499,0,0,0.7644
2.307750481995754,0,0,1.1563994018554686,0,0,0.84084
2.3091317060170695,0,0,1.2689268798828124,0,0,-9.172799999999999
2.3105159850092605,0,0,1.2593500732421874,0,0,0.84084
2.3119075059948955,0,0,1.4700398193359374,0,0,0.68796
2.3132889150001574,0,0,1.5083470458984374,0,0,0.91728
2.314670991007006,0,0,1.5251064575195312,0,0,0.91728
2.3160531030152924,0,0,1.120486376953125,0,0,0.91728
2.3174351240159012,0,0,1.1540052001953125,0,0,0.91728
2.3188668279908597,0,0,1.0462661254882812,0,0,0.45864
2.320252886012895,0,0,1.1731588134765625,0,0,0.3822
2.321647147007752,0,0,1.3646949462890625,0,0,0.3822
2.3230296850088052,0,0,1.39821376953125,0,0,0.68796
2.324412261019461,0,0,1.4413093994140624,0,0,0.84084
2.325794614996994,0,0,1.2976572998046874,0,0,0.7644
2.3271772830048576,0,0,1.1276689819335937,0,0,0.99372
2.3285596370114945,0,0,1.1013327636718748,0,0,0.6115200000000001
2.32994197201333,0,0,1.1180921752929687,0,0,0.68796
2.3313234730158,0,0,1.22583125,0,0,0.53508
2.3327054750116076,0,0,1.4939818359375,0,0,0.22932
2.334088014002191,0,0,1.3479355346679687,0,0,0.7644
2.335469664016273,0,0,1.465251416015625,0,0,0.7644
2.3368608689925168,0,0,1.2761094848632812,0,0,0.91728
2.3382435380190145,0,0,1.2641384765625,0,0,1.1465999999999998
2.3396269280056003,0,0,1.2330138549804688,0,0,0.45864
2.34100829999079,0,0,1.0749965454101562,0,0,0.68796
2.3423903759976383,0,0,1.2713210815429687,0,0,0.68796
2.343773452012101,0,0,1.4867992309570313,0,0,0.22932
2.345154823997291,0,0,1.3862427612304686,0,0,0.84084
2.3465452330128755,0,0,1.4604630126953124,0,0,0.7644
2.3479288830130827,0,0,1.3024457031249999,0,0,0.84084
2.349311514000874,0,0,1.1611878051757811,0,0,0.7644
2.3506956830096897,0,0,1.177947216796875,0,0,0.7644
2.3520791660121176,0,0,1.1947066284179686,0,0,0.6115200000000001
2.3534715010027867,0,0,1.3000515014648437,0,0,1.07016
2.354860188002931,0,0,1.4604630126953124,0,0,0.30576000000000003
2.3562434670166112,0,0,1.3670891479492187,0,0,0.68796
2.3576257649983745,0,0,1.4341267944335936,0,0,0.3822
2.3590078960114624,0,0,1.0965443603515623,0,0,0.99372
2.3603910279925913,0,0,1.2330138549804688,0,0,0.53508
2.361772844014922,0,0,1.0821791503906248,0,0,0.7644
2.3631547350087203,0,0,1.1659762084960936,0,0,0.45864
2.3645372920145746,0,0,1.369483349609375,0,0,0.99372
2.365919053001562,0,0,1.5777788940429687,0,0,0.6115200000000001
2.3673009810154326,0,0,1.4173673828125,0,0,1.07016
2.3686837420100346,0,0,1.4987702392578124,0,0,0.6115200000000001
2.37006589199882,0,0,1.1731588134765625,0,0,0.91728
2.3714504679956008,0,0,1.1444283935546875,0,0,1.1465999999999998
2.3728320430091117,0,0,1.1635820068359375,0,0,0.84084
2.3743182469916064,0,0,1.3239935180664062,0,0,0.84084
2.375708064006176,0,0,1.37906015625,0,0,0.45864
2.377091472997563,0,0,1.3742717529296875,0,0,0.53508
2.378474808007013,0,0,1.4628572143554686,0,0,0.91728
2.3798587910132483,0,0,1.455674609375,0,0,1.07016
2.381243348994758,0,0,1.1563994018554686,0,0,0.91728
2.3826260910136625,0,0,1.0821791503906248,0,0,0.6115200000000001
2.3840105929994024,0,0,1.2952630981445312,0,0,0.6115200000000001
2.385393483011285,0,0,1.3192051147460937,0,0,0.84084
2.3867761520086788,0,0,1.3263877197265623,0,0,0.6115200000000001
2.388159875990823,0,0,1.3383587280273437,0,0,0.91728
2.389542821998475,0,0,1.429338391113281,0,0,0.99372
2.3909260270011146,0,0,1.3215993164062498,0,0,0.68796
2.3923098249942996,0,0,1.2210428466796874,0,0,0.7644
2.393692475015996,0,0,1.197100830078125,0,0,0.6115200000000001
2.3950755879923236,0,0,1.2808978881835937,0,0,0.45864
2.3964566079957876,0,0,1.3072341064453123,0,0,0.7644
2.397829980007373,0,0,1.4867992309570313,0,0,20
2.3992162969952915,0,0,1.3215993164062498,0,0,0.0
2.400600299006328,0,0,1.4317325927734375,0,0,0.91728
2.4019915040116757,0,0,1.177947216796875,0,0,0.68796
2.4033760240126867,0,0,1.2737152832031249,0,0,0.6115200000000001
2.404752656002529,0,0,1.1276689819335937,0,0,0.68796
2.4061260650050826,0,0,1.1013327636718748,0,0,0.53508
2.407511807017727,0,0,1.2785036865234374,0,0,0.45864
2.4088944760151207,0,0,1.4915876342773438,0,0,0.7644
2.410277181013953,0,0,1.3718775512695311,0,0,0.91728
2.4116715720156208,0,0,1.3838485595703125,0,0,0.99372
2.4130539070174564,0,0,1.1611878051757811,0,0,0.99372
2.4144368160050362,0,0,1.1540052001953125,0,0,0.91728
2.41582107701106,0,0,1.1156979736328125,0,0,0.7644
2.4172032450151164,0,0,1.2114660400390624,0,0,0.45864
2.4185860989964567,0,0,1.5251064575195312,0,0,0.45864
2.4199715449940413,0,0,1.3455413330078123,0,0,0.91728
2.4213439540180843,0,0,1.43652099609375,0,0,1.1465999999999998
2.4227179000154138,0,0,1.3239935180664062,0,0,0.91728
2.424137141992105,0,0,1.1755530151367186,0,0,1.07016
2.4255208850081544,0,0,1.216254443359375,0,0,20
2.426904331019614,0,0,1.0845733520507812,0,0,-9.784320000000001
2.428289647010388,0,0,1.2904746948242187,0,0,0.91728
2.429673464008374,0,0,1.4149731811523436,0,0,0.3822
2.4310561880120076,0,0,1.3168109130859373,0,0,0.99372
2.432454393012449,0,0,1.5179238525390624,0,0,0.91728
2.4338373210048303,0,0,1.3575123413085937,0,0,1.2230400000000001
2.435220045008464,0,0,1.1468225952148436,0,0,0.53508
2.4366034349950496,0,0,0.9959878906249999,0,0,0.6115200000000001
2.4379864190123044,0,0,1.3168109130859373,0,0,0.3822
2.4393690309952945,0,0,1.350329736328125,0,0,1.07016
2.4407523660047445,0,0,1.5394716674804687,0,0,0.45864
2.4421427010092884,0,0,1.3814543579101561,0,0,0.7644
2.4435265180072747,0,0,1.465251416015625,0,0,0.84084
2.4449090200068895,0,0,1.1180921752929687,0,0,0.68796
2.446292373002507,0,0,1.1372457885742187,0,0,0.84084
2.4476759860117454,0,0,1.1252747802734375,0,0,0.7644
2.449057988007553,0,0,1.3263877197265623,0,0,0.68796
2.450441156019224,0,0,1.4006079711914061,0,0,0.99372
2.4518253059941344,0,0,1.43652099609375,0,0,0.7644
2.4532073820009828,0,0,1.4939818359375,0,0,0.99372
2.4545900500088464,0,0,1.2761094848632812,0,0,0.84084
2.4559734590002336,0,0,1.197100830078125,0,0,0.91728
2.4573553499940317,0,0,1.2832920898437499,0,0,0.68796
2.4587383519974537,0,0,1.1085153686523437,0,0,0.53508
2.4601214269932825,0,0,1.3024457031249999,0,0,0.68796
2.4615040220087394,0,0,1.4939818359375,0,0,0.7644
2.4628870419983286,0,0,1.5179238525390624,0,0,0.6115200000000001
2.4642704330035485,0,0,1.4508862060546874,0,0,0.84084
2.4656532120134216,0,0,1.2976572998046874,0,0,0.84084
2.467035620997194,0,0,1.1037269653320312,0,0,0.99372
2.468418919015676,0,0,1.197100830078125,0,0,0.68796
2.4698089949961286,0,0,1.1156979736328125,0,0,0.53508
2.4711927190073766,0,0,1.3000515014648437,0,0,0.84084
2.472576869011391,0,0,1.4891934326171874,0,0,0.68796
2.473959704017034,0,0,1.3670891479492187,0,0,0.84084
2.475343113008421,0,0,1.3958195678710936,0,0,0.7644
2.4767264300026,0,0,1.3742717529296875,0,0,0.7644
2.4781093019992113,0,0,1.2234370483398436,0,0,0.91728
2.4795025619969238,0,0,1.1324573852539062,0,0,0.3822
2.480886712000938,0,0,1.1755530151367186,0,0,0.6115200000000001
2.4822696580085903,0,0,1.2832920898437499,0,0,20
2.483653900999343,0,0,1.4006079711914061,0,0,0.0
2.48503625500598,0,0,1.4628572143554686,0,0,0.99372
2.486426126997685,0,0,1.5083470458984374,0,0,0.84084
2.48781016501016,0,0,1.2497732666015624,0,0,0.99372
2.4891927409917116,0,0,1.13006318359375,0,0,0.53508
2.4905762060079724,0,0,1.0271125122070313,0,0,0.6115200000000001
2.4919601519941352,0,0,1.2976572998046874,0,0,0.6115200000000001
2.4933751719945576,0,0,1.458068811035156,0,0,0.84084
2.4947585070040077,0,0,1.467645617675781,0,0,0.6115200000000001
2.496136360015953,0,0,1.4867992309570313,0,0,0.91728
2.497510103014065,0,0,1.455674609375,0,0,0.91728
2.4988835680123884,0,0,1.2306196533203124,0,0,1.07016
2.5002671249967534,0,0,1.139639990234375,0,0,0.84084
2.5016499049961567,0,0,1.2114660400390624,0,0,0.99372
2.503032943001017,0,0,1.2042834350585936,0,0,0.7644
2.50441601901548,0,0,1.3814543579101561,0,0,0.68796
2.5057987250038423,0,0,1.6424223388671875,0,0,0.53508
2.5071819110016804,0,0,1.467645617675781,0,0,0.6115200000000001
2.508587376010837,0,0,1.4772224243164063,0,0,1.1465999999999998
2.510046784009319,0,0,1.254561669921875,0,0,0.6115200000000001
2.511436730012065,0,0,1.1827356201171875,0,0,0.7644
2.5128300090145785,0,0,1.199495031738281,0,0,0.99372
2.5142169000173453,0,0,1.3646949462890625,0,0,0.84084
2.5156334940111265,0,0,1.3814543579101561,0,0,0.30576000000000003
2.517018051003106,0,0,1.37906015625,0,0,0.91728
2.518409442011034,0,0,1.4700398193359374,0,0,0.84084
2.51979890599614,0,0,1.2593500732421874,0,0,0.68796
2.5211823339923285,0,0,1.2497732666015624,0,0,0.7644
2.522565316990949,0,0,1.0726023437499999,0,0,0.68796
2.523948949004989,0,0,1.2832920898437499,0,0,0.53508
2.5253323020006064,0,0,1.3814543579101561,0,0,0.91728
2.5267151370062493,0,0,1.4221557861328125,0,0,0.45864
2.528099139017286,0,0,1.3192051147460937,0,0,1.1465999999999998
2.5295046030078083,0,0,1.4987702392578124,0,0,0.7644
2.5308888269937597,0,0,1.1635820068359375,0,0,0.84084
2.5322724590077996,0,0,1.3383587280273437,0,0,0.45864
2.5337062739999965,0,0,1.158793603515625,0,0,0.68796
2.5352737180073746,0,0,1.2018892333984375,0,0,0.45864
2.538451772008557,0,0,1.2521674682617188,0,0,0.53508
2.539867903018603,0,0,1.4221557861328125,0,0,0.68796
2.541291311994428,0,0,1.177947216796875,0,0,0.84084
2.542680479993578,0,0,1.2761094848632812,0,0,0.91728
2.5440693339915015,0,0,1.1851298217773436,0,0,0.91728
2.545457261003321,0,0,1.2521674682617188,0,0,0.91728
2.546844169992255,0,0,1.467645617675781,0,0,0.99372
2.548227413004497,0,0,1.5370774658203123,0,0,0.91728
2.549606173997745,0,0,1.446097802734375,0,0,0.84084
2.5509852500108536,0,0,1.3311761230468748,0,0,0.84084
2.5533579619950615,0,0,1.3359645263671873,0,0,0.91728
2.554737722995924,0,0,1.1037269653320312,0,0,0.6115200000000001
2.5561240760143846,0,0,1.2234370483398436,0,0,0.53508
2.557510856015142,0,0,1.2713210815429687,0,0,0.99372
2.558897134993458,0,0,1.4772224243164063,0,0,0.6115200000000001
2.560283728991635,0,0,1.3934253662109375,0,0,1.07016
2.5616695460048504,0,0,1.5203180541992187,0,0,0.6115200000000001
2.563055233011255,0,0,1.1372457885742187,0,0,0.99372
2.5644591970194597,0,0,1.3120225097656248,0,0,0.7644
2.56584547701641,0,0,1.189918225097656,0,0,0.84084
2.5672314230178017,0,0,1.2473790649414063,0,0,0.45864
2.568632072012406,0,0,1.3335703247070312,0,0,0.91728
2.570012445008615,0,0,1.4820108276367188,0,0,0.84084
2.57139146499685,0,0,1.3072341064453123,0,0,0.68796
2.5727811329998076,0,0,1.2138602416992186,0,0,0.68796
2.5741690790164284,0,0,1.1635820068359375,0,0,0.84084
2.5755602850113064,0,0,1.0749965454101562,0,0,0.53508
2.576964970998233,0,0,1.2521674682617188,0,0,0.84084
2.578344306006329,0,0,1.2330138549804688,0,0,0.7644
2.579826528992271,0,0,1.5514426757812498,0,0,0.22932
2.581208568008151,0,0,1.4221557861328125,0,0,0.68796
2.5825881070049945,0,0,1.4772224243164063,0,0,0.68796
2.5839742380194366,0,0,1.177947216796875,0,0,0.7644
2.585360369004775,0,0,1.13006318359375,0,0,0.84084
2.5867589080007747,0,0,1.0558429321289062,0,0,0.84084
2.5881444650003687,0,0,1.1947066284179686,0,0,0.53508
2.5895285959995817,0,0,1.24498486328125,0,0,0.91728
2.59092452400364,0,0,1.465251416015625,0,0,0.45864
2.5923190629982855,0,0,1.3048399047851562,0,0,0.7644
2.5936984720174223,0,0,1.43652099609375,0,0,0.7644
2.5950773619988468,0,0,1.1372457885742187,0,0,0.99372
2.596477548999246,0,0,1.1156979736328125,0,0,0.84084
2.597864587994991,0,0,1.209071838378906,0,0,0.7644
2.5992517929989845,0,0,1.3359645263671873,0,0,0.53508
2.600639701995533,0,0,1.2880804931640624,0,0,0.84084
2.602089018007973,0,0,1.5035586425781249,0,0,0.68796
2.603479426994454,0,0,1.4724340209960938,0,0,0.99372
2.60489107601461,0,0,1.2952630981445312,0,0,0.7644
2.6062784480163828,0,0,1.2138602416992186,0,0,0.84084
2.607667043019319,0,0,1.0797849487304687,0,0,0.7644
2.609053321997635,0,0,1.1875240234375,0,0,0.53508
2.61044073101948,0,0,1.3072341064453123,0,0,0.30576000000000003
2.611825789004797,0,0,1.4820108276367188,0,0,0.45864
2.6132041050004773,0,0,1.5322890624999999,0,0,0.6115200000000001
2.614582698995946,0,0,1.3144167114257812,0,0,0.6115200000000001
2.6159684790181927,0,0,1.209071838378906,0,0,0.68796
2.617356350994669,0,0,1.0989385620117187,0,0,0.91728
2.6187435380124953,0,0,1.0486603271484374,0,0,0.53508
2.620140799001092,0,0,1.1228805786132812,0,0,0.68796
2.6215571330103558,0,0,1.3263877197265623,0,0,0.84084
2.6229483759962022,0,0,1.4245499877929686,0,0,0.53508
2.6243363590037916,0,0,1.2713210815429687,0,0,0.91728
2.625723878998542,0,0,1.388636962890625,0,0,0.6115200000000001
2.62711054700776,0,0,1.1085153686523437,0,0,0.68796
2.6284914379939437,0,0,1.0366893188476562,0,0,0.68796
2.629870032018516,0,0,1.1228805786132812,0,0,0.6115200000000001
2.6312480159976985,0,0,1.3144167114257812,0,0,0.45864
2.632636832015123,0,0,1.2378022583007813,0,0,0.7644
2.63402324100025,0,0,1.5658078857421873,0,0,0.99372
2.6354085210186895,0,0,1.4149731811523436,0,0,0.84084
2.6367947070102673,0,0,1.2832920898437499,0,0,0.68796
2.638180617010221,0,0,1.1540052001953125,0,0,0.91728
2.639567784994142,0,0,1.3407529296874998,0,0,0.6115200000000001
2.6409535089915153,0,0,1.1755530151367186,0,0,0.99372
2.642340103018796,0,0,1.0797849487304687,0,0,0.45864
2.643726270995103,0,0,1.4437036010742186,0,0,0.68796
2.645111829013331,0,0,1.4796166259765624,0,0,0.6115200000000001
2.646497959998669,0,0,1.3024457031249999,0,0,0.84084
2.6478848319966346,0,0,1.2569558715820313,0,0,0.6115200000000001
2.649283259001095,0,0,1.197100830078125,0,0,0.91728
2.6506699649908114,0,0,1.1180921752929687,0,0,0.6115200000000001
2.6520559480122756,0,0,1.2234370483398436,0,0,0.6115200000000001
2.6534423760022037,0,0,1.3455413330078123,0,0,0.6115200000000001
2.6548357660067268,0,0,1.407790576171875,0,0,0.3822
2.6562219530169386,0,0,1.5275006591796874,0,0,0.84084
2.657607992005069,0,0,1.3000515014648437,0,0,0.84084
2.6589936040109023,0,0,1.22583125,0,0,0.68796
2.660379773005843,0,0,1.218648645019531,0,0,1.07016
2.6617656080052257,0,0,1.158793603515625,0,0,0.45864
2.6631511650048196,0,0,1.2713210815429687,0,0,0.6115200000000001
2.6645472219970543,0,0,1.3335703247070312,0,0,20
2.665933002019301,0,0,1.4413093994140624,0,0,0.68796
2.66731902200263,0,0,1.3120225097656248,0,0,0.68796
2.668705374991987,0,0,1.465251416015625,0,0,0.91728
2.670091025007423,0,0,1.2306196533203124,0,0,0.7644
2.671476657007588,0,0,1.2641384765625,0,0,0.68796
2.672862288018223,0,0,1.13006318359375,0,0,0.53508
2.674246901005972,0,0,1.2330138549804688,0,0,0.6115200000000001
2.675871824991191,0,0,1.3838485595703125,0,0,0.7644
2.677259309013607,0,0,1.668758557128906,0,0,0.91728
2.678646162006771,0,0,1.5107412475585937,0,0,0.53508
2.680032886011759,0,0,1.3359645263671873,0,0,0.99372
2.681419016997097,0,0,0.9409212524414062,0,0,0.91728
2.6828049260075204,0,0,1.2210428466796874,0,0,0.68796
2.6841994090063963,0,0,1.1659762084960936,0,0,0.68796
2.685585744009586,0,0,1.3048399047851562,0,0,0.45864
2.6869717279914767,0,0,1.3479355346679687,0,0,0.53508
2.688356692000525,0,0,1.465251416015625,0,0,0.68796
2.6897410090023186,0,0,1.4820108276367188,0,0,0.53508
2.6911249550175853,0,0,1.3551181396484375,0,0,0.84084
2.692526992992498,0,0,1.3024457031249999,0,0,1.1465999999999998
2.6939142539922614,0,0,1.1180921752929687,0,0,0.68796
2.6953003120142967,0,0,1.2210428466796874,0,0,0.53508
2.696686536015477,0,0,1.2497732666015624,0,0,0.91728
2.698072703991784,0,0,1.4604630126953124,0,0,0.68796
2.6994585570064373,0,0,1.5705962890624998,0,0,0.7644
2.7008443740196526,0,0,1.5442600708007812,0,0,1.07016
2.7022524859930854,0,0,1.3407529296874998,0,0,0.91728
2.7036408580024727,0,0,1.1659762084960936,0,0,0.30576000000000003
2.705026027018903,0,0,1.0702081420898437,0,0,0.45864
2.7064124540193006,0,0,1.3048399047851562,0,0,0.45864
2.7078208079910837,0,0,1.3958195678710936,0,0,1.1465999999999998
2.7092066240147687,0,0,1.448492004394531,0,0,0.3822
2.7105930150137283,0,0,1.3263877197265623,0,0,0.6115200000000001
2.711979904997861,0,0,1.4413093994140624,0,0,0.84084
2.7133649259922095,0,0,1.3670891479492187,0,0,0.84084
2.7147515940014273,0,0,1.2928688964843749,0,0,0.91728
2.7161370770190842,0,0,1.2234370483398436,0,0,0.84084
2.717521170998225,0,0,1.1563994018554686,0,0,0.3822
2.718926414003363,0,0,1.455674609375,0,0,0.68796
2.720414320996497,0,0,1.5562310791015623,0,0,0.68796
2.7217945080192294,0,0,1.467645617675781,0,0,1.07016
2.7231735840032343,0,0,1.2761094848632812,0,0,0.68796
2.724554179003462,0,0,1.197100830078125,0,0,0.84084
2.7259329950029496,0,0,1.2138602416992186,0,0,0.6115200000000001
2.727311886003008,0,0,1.197100830078125,0,0,1.1465999999999998
2.728691925003659,0,0,1.2425906616210938,0,0,0.68796
2.7300703340151813,0,0,1.4221557861328125,0,0,0.45864
2.731449001992587,0,0,1.5059528442382812,0,0,0.7644
2.732828745007282,0,0,1.4245499877929686,0,0,0.99372
2.7342069869919214,0,0,1.3527239379882812,0,0,0.91728
2.7356017109996174,0,0,1.2114660400390624,0,0,0.91728
2.73698141600471,0,0,1.1372457885742187,0,0,0.7644
2.738359881012002,0,0,1.120486376953125,0,0,0.6115200000000001
2.739739939017454,0,0,1.3263877197265623,0,0,0.91728
2.741119106998667,0,0,1.4245499877929686,0,0,0.22932
2.742497811996145,0,0,1.2737152832031249,0,0,0.91728
2.7438814810011536,0,0,1.4796166259765624,0,0,1.2230400000000001
2.745267871010583,0,0,1.369483349609375,0,0,1.2230400000000001
2.7466531690151896,0,0,1.209071838378906,0,0,0.68796
2.748039614991285,0,0,1.1013327636718748,0,0,0.7644
2.7494254499906674,0,0,1.3335703247070312,0,0,0.68796
2.7508110259950627,0,0,1.4413093994140624,0,0,0.6115200000000001
2.75220865700976,0,0,1.5729904907226562,0,0,0.6115200000000001
2.753595029003918,0,0,1.2641384765625,0,0,0.84084
2.754980735015124,0,0,1.4101847778320311,0,0,0.53508
2.7563657370046712,0,0,1.3431471313476562,0,0,0.7644
2.7577499600010924,0,0,1.197100830078125,0,0,0.7644
2.759895138005959,0,0,1.2114660400390624,0,0,0.6115200000000001
2.7613422319991514,0,0,1.2114660400390624,0,0,0.7644
2.762731566996081,0,0,1.5777788940429687,0,0,0.7644
2.764120790991001,0,0,1.4125789794921875,0,0,0.99372
2.765507625997998,0,0,1.3766659545898436,0,0,0.91728
2.7669165340194013,0,0,1.1444283935546875,0,0,0.91728
2.768304591998458,0,0,1.199495031738281,0,0,0.84084
2.76969201900647,0,0,1.1228805786132812,0,0,0.91728
2.771140187018318,0,0,1.3646949462890625,0,0,0.45864
2.772524318017531,0,0,1.4245499877929686,0,0,0.7644
2.7739033570105676,0,0,1.5107412475585937,0,0,0.6115200000000001
2.775282081012847,0,0,1.3000515014648437,0,0,0.7644
2.776670268009184,0,0,1.2689268798828124,0,0,0.68796
2.778056287992513,0,0,1.1013327636718748,0,0,0.84084
2.7794425669999328,0,0,1.0558429321289062,0,0,0.84084
2.7808288840169553,0,0,1.158793603515625,0,0,0.68796
2.7822148489940446,0,0,1.2737152832031249,0,0,0.3822
2.7836025720171165,0,0,1.4125789794921875,0,0,0.7644
2.7849889259960037,0,0,1.5083470458984374,0,0,0.6115200000000001
2.7863749279931653,0,0,1.3623007446289062,0,0,0.91728
2.7877591520082206,0,0,1.2234370483398436,0,0,0.99372
2.789136690000305,0,0,1.189918225097656,0,0,0.84084
2.790515211003367,0,0,1.0486603271484374,0,0,0.53508
2.791915120003978,0,0,1.158793603515625,0,0,0.6115200000000001
2.7933042320073582,0,0,1.3527239379882812,0,0,0.84084
2.794691604009131,0,0,1.4867992309570313,0,0,0.53508
2.79610062399297,0,0,1.4604630126953124,0,0,0.91728
2.7974893299979158,0,0,1.3335703247070312,0,0,0.6115200000000001
2.7988759049912915,0,0,1.2425906616210938,0,0,0.84084
2.800263203011127,0,0,1.2330138549804688,0,0,0.91728
2.80165033499361,0,0,1.1611878051757811,0,0,0.53508
2.8030368729960173,0,0,1.216254443359375,0,0,0.68796
2.804424097004812,0,0,1.3120225097656248,0,0,0.6115200000000001
2.8058105249947403,0,0,1.4724340209960938,0,0,0.7644
2.8071978600055445,0,0,1.5155296508789062,0,0,1.37592
2.8085852320073172,0,0,1.4508862060546874,0,0,0.91728
2.8099721409962513,0,0,1.2042834350585936,0,0,1.07016
2.811359439016087,0,0,1.1444283935546875,0,0,0.45864
2.8127469590108376,0,0,1.1755530151367186,0,0,0.84084
2.814133665000554,0,0,1.2425906616210938,0,0,0.53508
2.8156171280134004,0,0,1.4891934326171874,0,0,0.68796
2.8170051670167595,0,0,1.429338391113281,0,0,0.45864
2.818391872016946,0,0,1.3646949462890625,0,0,0.84084
2.8197804109950084,0,0,1.2689268798828124,0,0,0.6115200000000001
2.8211662830144633,0,0,1.216254443359375,0,0,0.99372
2.822553339996375,0,0,1.1659762084960936,0,0,0.6115200000000001
2.823938101006206,0,0,1.197100830078125,0,0,0.84084
2.8253284539969172,0,0,1.2425906616210938,0,0,0.45864
2.826709529996151,0,0,1.3814543579101561,0,0,0.30576000000000003
2.828097235993482,0,0,1.5251064575195312,0,0,0.7644
2.8294842739996966,0,0,1.5155296508789062,0,0,0.7644
2.830871387006482,0,0,1.3287819213867187,0,0,0.68796
2.832260833005421,0,0,1.2018892333984375,0,0,1.07016
2.8336478720011655,0,0,1.0773907470703123,0,0,0.6115200000000001
2.835035133000929,0,0,1.2689268798828124,0,0,0.22932
2.8364176530158147,0,0,1.4221557861328125,0,0,0.84084
2.837796117994003,0,0,1.5203180541992187,0,0,0.6115200000000001
2.839174657012336,0,0,1.467645617675781,0,0,0.99372
2.840584546996979,0,0,1.458068811035156,0,0,0.84084
2.841972030000761,0,0,1.1276689819335937,0,0,0.6115200000000001
2.8433593650115654,0,0,1.254561669921875,0,0,0.68796
2.8447464219934773,0,0,1.149216796875,0,0,0.84084
2.846133701998042,0,0,1.2593500732421874,0,0,0.6115200000000001
2.847520851995796,0,0,1.3527239379882812,0,0,1.07016
2.8489082420128398,0,0,1.5275006591796874,0,0,0.6115200000000001
2.8502951510017738,0,0,1.2904746948242187,0,0,0.91728
2.8516799680073746,0,0,1.3718775512695311,0,0,0.53508
2.853058247012086,0,0,1.2832920898437499,0,0,0.84084
2.8544365820125677,0,0,1.1659762084960936,0,0,0.6115200000000001
2.855821584002115,0,0,1.1180921752929687,0,0,0.91728
2.857208492991049,0,0,1.1133037719726562,0,0,0.53508
2.858598680002615,0,0,1.3766659545898436,0,0,0.68796
2.859986885014223,0,0,1.4700398193359374,0,0,0.7644
2.861372665007366,0,0,1.39821376953125,0,0,0.7644
2.86275951800053,0,0,1.37906015625,0,0,0.99372
2.864146594016347,0,0,1.1276689819335937,0,0,0.7644
2.865533503005281,0,0,1.2210428466796874,0,0,0.7644
2.8669206160120666,0,0,1.1731588134765625,0,0,0.84084
2.8683028770028614,0,0,1.3096283081054687,0,0,0.45864
2.8696816010051407,0,0,1.4245499877929686,0,0,0.6115200000000001
2.8710599729965907,0,0,1.47482822265625,0,0,0.84084
2.872473399998853,0,0,1.407790576171875,0,0,0.7644
2.8738596430048347,0,0,1.3024457031249999,0,0,0.91728
2.8752455890062265,0,0,1.0821791503906248,0,0,0.91728
2.8766313130035996,0,0,1.1133037719726562,0,0,0.3822
2.878016889007995,0,0,1.2928688964843749,0,0,0.68796
2.8794030570134055,0,0,1.3670891479492187,0,0,0.84084
2.880789132992504,0,0,1.4341267944335936,0,0,0.6115200000000001
2.8821747449983377,0,0,1.4030021728515625,0,0,1.07016
2.88357602499309,0,0,1.5658078857421873,0,0,0.84084
2.8849548409925774,0,0,1.0797849487304687,0,0,0.7644
2.8863333619956393,0,0,1.2473790649414063,0,0,0.99372
2.8877260299923364,0,0,1.1707646118164061,0,0,1.07016
2.8891119390027598,0,0,1.3168109130859373,0,0,0.45864
2.890496236999752,0,0,1.4030021728515625,0,0,0.99372
2.8918915899994317,0,0,1.4006079711914061,0,0,0.53508
2.893279073992744,0,0,1.4772224243164063,0,0,0.84084
2.8946648160053883,0,0,1.455674609375,0,0,1.07016
2.8960513359925244,0,0,1.0797849487304687,0,0,0.7644
2.897437430015998,0,0,1.1420341918945311,0,0,0.53508
2.898824264993891,0,0,1.120486376953125,0,0,0.84084
2.9002100999932736,0,0,1.3551181396484375,0,0,0.30576000000000003
2.9015957319934387,0,0,1.4437036010742186,0,0,1.07016
2.9029815109970514,0,0,1.5346832641601562,0,0,0.53508
2.9043706800148357,0,0,1.4532804077148436,0,0,0.84084
2.905756421998376,0,0,1.3407529296874998,0,0,0.84084
2.9071423129935283,0,0,1.1707646118164061,0,0,0.68796
2.908528074010974,0,0,1.1611878051757811,0,0,0.68796
2.9099139269965235,0,0,1.1252747802734375,0,0,0.68796
2.9112998729979154,0,0,1.24498486328125,0,0,0.68796
2.9126855230133515,0,0,1.3575123413085937,0,0,0.45864
2.9140718019916676,0,0,1.4221557861328125,0,0,0.7644
2.9154625630180817,0,0,1.465251416015625,0,0,0.7644
2.9168469170108438,0,0,1.3144167114257812,0,0,0.84084
2.9183357510191854,0,0,1.1348515869140625,0,0,0.84084
2.919897471991135,0,0,1.0390835205078124,0,0,0.6115200000000001
2.9215211379923858,0,0,1.1827356201171875,0,0,0.68796
2.922903603001032,0,0,1.3455413330078123,0,0,0.91728
2.924284623004496,0,0,1.4963760375976562,0,0,0.53508
2.925663810019614,0,0,1.3215993164062498,0,0,0.6115200000000001
2.927042497001821,0,0,1.407790576171875,0,0,0.84084
2.9284399060124997,0,0,1.1228805786132812,0,0,0.6115200000000001
2.9298200189950876,0,0,1.0749965454101562,0,0,0.84084
2.931198742997367,0,0,1.209071838378906,0,0,0.99372
2.932579207001254,0,0,1.209071838378906,0,0,0.53508
2.9339577649952844,0,0,1.2761094848632812,0,0,0.84084
2.9353361740068067,0,0,1.3359645263671873,0,0,0.7644
2.936715749994619,0,0,1.2904746948242187,0,0,0.91728
2.938094881013967,0,0,1.3431471313476562,0,0,0.7644
2.9394735870009754,0,0,1.199495031738281,0,0,0.7644
2.940860792004969,0,0,1.3192051147460937,0,0,0.6115200000000001
2.9422557380166836,0,0,1.3239935180664062,0,0,0.84084
2.943643091013655,0,0,1.350329736328125,0,0,0.7644
2.9450286490027793,0,0,1.3551181396484375,0,0,0.53508
2.9464141500066034,0,0,1.3742717529296875,0,0,0.68796
2.947836428997107,0,0,1.3168109130859373,0,0,0.99372
2.949260616005631,0,0,1.1420341918945311,0,0,0.84084
2.950648877013009,0,0,1.2234370483398436,0,0,0.7644
2.952035860012984,0,0,1.13006318359375,0,0,0.53508
2.9534214540035464,0,0,1.3287819213867187,0,0,0.45864
2.954807863017777,0,0,1.2641384765625,0,0,1.07016
2.9561940870189574,0,0,1.438915197753906,0,0,0.6115200000000001
2.957579829992028,0,0,1.3192051147460937,0,0,0.99372
2.958965628000442,0,0,1.4173673828125,0,0,0.6115200000000001
2.9603520370146725,0,0,1.197100830078125,0,0,0.84084
2.9617377610120457,0,0,1.2497732666015624,0,0,0.6115200000000001
2.963124392001191,0,0,1.2234370483398436,0,0,0.6115200000000001
2.9645105600066017,0,0,1.3383587280273437,0,0,0.45864
2.965896376990713,0,0,1.2689268798828124,0,0,1.1465999999999998
2.9672819150146097,0,0,1.458068811035156,0,0,0.7644
2.96866813901579,0,0,1.3862427612304686,0,0,1.07016
2.9700532520073466,0,0,1.3838485595703125,0,0,0.7644
2.9714478090172634,0,0,1.1755530151367186,0,0,0.7644
2.9728365699993446,0,0,1.1133037719726562,0,0,0.7644
2.974221998010762,0,0,1.24498486328125,0,0,0.6115200000000001
2.9756082959938794,0,0,1.2785036865234374,0,0,0.7644
2.9769937050004955,0,0,1.3024457031249999,0,0,0.7644
2.978379687992856,0,0,1.3934253662109375,0,0,0.7644
2.9797655600123107,0,0,1.3192051147460937,0,0,1.07016
2.9811507650010753,0,0,1.180341418457031,0,0,0.7644
2.9825361559924204,0,0,1.1947066284179686,0,0,0.99372
2.98392249099561,0,0,1.24498486328125,0,0,0.45864
2.9853080670000054,0,0,1.180341418457031,0,0,0.7644
2.9866937170154415,0,0,1.3048399047851562,0,0,0.45864
2.9880778109945823,0,0,1.3335703247070312,0,0,0.30576000000000003
2.9894622020074166,0,0,1.35990654296875,0,0,0.53508
2.9908465369953774,0,0,1.4939818359375,0,0,0.84084
2.992244686000049,0,0,1.1037269653320312,0,0,1.1465999999999998
2.993632243014872,0,0,1.0917559570312498,0,0,0.84084
2.9950194300035946,0,0,0.967257470703125,0,0,0.53508
2.9964058579935227,0,0,1.2521674682617188,0,0,0.45864
2.997792100009974,0,0,1.2641384765625,0,0,0.99372
2.999178583995672,0,0,1.5538368774414062,0,0,0.53508
3.000574937002966,0,0,1.369483349609375,0,0,0.91728
3.0019853269914165,0,0,1.458068811035156,0,0,0.84084
3.003373643994564,0,0,1.1707646118164061,0,0,0.99372
3.004754811991006,0,0,1.3144167114257812,0,0,0.7644
3.006133424991276,0,0,1.1516109985351561,0,0,0.7644
3.007515945006162,0,0,1.3168109130859373,0,0,0.45864
3.008901188004529,0,0,1.4221557861328125,0,0,0.91728
3.011033068993129,0,0,1.419761584472656,0,0,0.7644
3.012538142997073,0,0,1.465251416015625,0,0,0.7644
3.013928311993368,0,0,1.1372457885742187,0,0,0.7644
3.0153161470079795,0,0,1.1827356201171875,0,0,0.99372
3.0167228700011037,0,0,1.1563994018554686,0,0,0.68796
3.0181098540197127,0,0,1.2330138549804688,0,0,0.45864
3.0194983550172765,0,0,1.4006079711914061,0,0,0.7644
3.020878042007098,0,0,1.4628572143554686,0,0,1.07016
3.0222618220141158,0,0,1.2641384765625,0,0,0.91728
3.0236472859978676,0,0,1.4532804077148436,0,0,0.3822
3.025034862017492,0,0,1.1635820068359375,0,0,0.91728
3.0264223080012016,0,0,1.2234370483398436,0,0,0.7644
3.0278101800067816,0,0,1.0893617553710937,0,0,0.7644
3.0291965150099713,0,0,1.3096283081054687,0,0,0.6115200000000001
3.0305835170147475,0,0,1.3934253662109375,0,0,0.53508
3.031971426011296,0,0,1.438915197753906,0,0,0.68796
3.0333576679986436,0,0,1.39821376953125,0,0,0.99372
3.0347448739921674,0,0,1.3168109130859373,0,0,0.53508
3.0361273380112834,0,0,1.2018892333984375,0,0,0.84084
3.0375059329962824,0,0,1.1875240234375,0,0,0.7644
3.0388848980073817,0,0,1.0989385620117187,0,0,0.7644
3.040271603007568,0,0,1.2928688964843749,0,0,0.53508
3.0416574190021493,0,0,1.5107412475585937,0,0,0.22932
3.04304382801638,0,0,1.5035586425781249,0,0,0.68796
3.0444298860093113,0,0,1.4341267944335936,0,0,0.91728
3.0458157760149334,0,0,1.2713210815429687,0,0,0.68796
3.0472018709988333,0,0,1.1635820068359375,0,0,0.7644
3.048587391007459,0,0,1.1013327636718748,0,0,0.53508
3.049973040993791,0,0,1.1468225952148436,0,0,0.6115200000000001
3.0513592649949715,0,0,1.2641384765625,0,0,0.53508
3.0527446180058178,0,0,1.446097802734375,0,0,0.45864
3.054130360018462,0,0,1.3215993164062498,0,0,0.6115200000000001
3.055517102999147,0,0,1.4820108276367188,0,0,0.68796
3.0569034380023368,0,0,1.1827356201171875,0,0,1.07016
3.058289180014981,0,0,1.235408056640625,0,0,0.53508
3.0596928110171575,0,0,1.149216796875,0,0,-9.172799999999999
3.06108005400165,0,0,1.2785036865234374,0,0,0.7644
3.0624663149937987,0,0,1.3335703247070312,0,0,0.91728
3.0638588720175903,0,0,1.388636962890625,0,0,0.6115200000000001
3.065243059012573,0,0,1.3910311645507811,0,0,0.84084
3.0676364930113778,0,0,1.3455413330078123,0,0,0.68796
3.0690426980145276,0,0,1.1659762084960936,0,0,0.91728
3.070432292006444,0,0,1.0893617553710937,0,0,0.7644
3.071818552998593,0,0,1.2808978881835937,0,0,0.3822
3.0731986470054835,0,0,1.3551181396484375,0,0,0.84084
3.0745782229932956,0,0,1.5083470458984374,0,0,0.84084
3.075965262018144,0,0,1.4963760375976562,0,0,1.2230400000000001
3.0773525040131062,0,0,1.39821376953125,0,0,0.99372
3.0787397650128696,0,0,1.0869675537109373,0,0,1.07016
3.0801263409957755,0,0,1.1659762084960936,0,0,-9.01992
3.081515138997929,0,0,1.1947066284179686,0,0,0.68796
3.082902455003932,0,0,1.2617442749023438,0,0,0.30576000000000003
3.084305789991049,0,0,1.3670891479492187,0,0,0.99372
3.0856943289982155,0,0,1.4628572143554686,0,0,0.6115200000000001
3.0870826079917606,0,0,1.448492004394531,0,0,0.91728
3.0884703689953312,0,0,1.3311761230468748,0,0,0.6115200000000001
3.0898577969928738,0,0,1.0726023437499999,0,0,-9.01992
3.0912455950165167,0,0,1.199495031738281,0,0,0.6115200000000001
3.092636818997562,0,0,1.209071838378906,0,0,0.91728
3.0940242650103755,0,0,1.3263877197265623,0,0,0.53508
3.095411692018388,0,0,1.4006079711914061,0,0,0.45864
3.096801231004065,0,0,1.3862427612304686,0,0,0.53508
3.0981879729952198,0,0,1.465251416015625,0,0,0.91728
3.0995759569923393,0,0,1.1875240234375,0,0,0.68796
3.100962699012598,0,0,1.1635820068359375,0,0,0.7644
3.10234994100756,0,0,1.2282254516601563,0,0,0.84084
3.10373762800009,0,0,1.2761094848632812,0,0,0.45864
3.1051435930130538,0,0,1.3838485595703125,0,0,0.6115200000000001
3.106531243014615,0,0,1.5370774658203123,0,0,0.68796
3.1079185779963154,0,0,1.5251064575195312,0,0,0.91728
3.109304746001726,0,0,1.43652099609375,0,0,0.99372
3.110691506997682,0,0,1.3120225097656248,0,0,0.84084
3.112080730992602,0,0,1.2785036865234374,0,0,0.53508
3.113467546994798,0,0,1.2282254516601563,0,0,0.6115200000000001
3.1148560490109958,0,0,1.2473790649414063,0,0,0.53508
3.116242662013974,0,0,1.3168109130859373,0,0,1.07016
3.1176292930031195,0,0,1.4006079711914061,0,0,0.68796
3.1190260910079814,0,0,1.2856862915039062,0,0,0.91728
3.120420480991015,0,0,1.4532804077148436,0,0,0.84084
3.1218082980194595,0,0,1.1252747802734375,0,0,0.91728
3.123195410007611,0,0,1.3048399047851562,0,0,0.84084
3.1245990970055573,0,0,1.0893617553710937,0,0,0.6115200000000001
3.1259862470033113,0,0,1.2521674682617188,0,0,0.53508
3.1273743039928377,0,0,1.3766659545898436,0,0,0.91728
3.128755436016945,0,0,1.4604630126953124,0,0,0.53508
3.130134622013429,0,0,1.3455413330078123,0,0,0.99372
3.1315285130112898,0,0,1.3958195678710936,0,0,0.53508
3.1329167550138664,0,0,1.209071838378906,0,0,0.91728
3.134303219994763,0,0,1.1923124267578125,0,0,0.6115200000000001
3.1356904070125893,0,0,1.197100830078125,0,0,0.6115200000000001
3.137077594001312,0,0,1.3000515014648437,0,0,0.6115200000000001
3.138464057992678,0,0,1.4030021728515625,0,0,0.53508
3.1398522079980467,0,0,1.5251064575195312,0,0,0.91728
3.141238042997429,0,0,1.407790576171875,0,0,0.7644
3.1426248229981866,0,0,1.2785036865234374,0,0,0.99372
3.144013306009583,0,0,1.1923124267578125,0,0,0.84084
3.1454003260005265,0,0,1.1707646118164061,0,0,0.84084
3.1467870130145457,0,0,1.3263877197265623,0,0,0.68796
3.1481842920184135,0,0,1.369483349609375,0,0,0.68796
3.149571960006142,0,0,1.47482822265625,0,0,0.53508
3.1509597770054825,0,0,1.3120225097656248,0,0,0.84084
3.152388945018174,0,0,1.4245499877929686,0,0,0.68796
3.1537785200052895,0,0,1.1755530151367186,0,0,0.84084
3.1557751999935135,0,0,1.1444283935546875,0,0,0.68796
3.1571675350132864,0,0,1.199495031738281,0,0,0.68796
3.158556239999598,0,0,1.2641384765625,0,0,0.84084
3.1599462419981137,0,0,1.4820108276367188,0,0,0.99372
3.1613332249980886,0,0,1.35990654296875,0,0,0.53508
3.162720338004874,0,0,1.3311761230468748,0,0,0.7644
3.164107969001634,0,0,1.2330138549804688,0,0,0.6115200000000001
3.165495193010429,0,0,1.2713210815429687,0,0,0.45864
3.1668818430043757,0,0,1.3359645263671873,0,0,0.6115200000000001
3.1682697150099557,0,0,1.20667763671875,0,0,0.53508
3.1696565310121514,0,0,1.20667763671875,0,0,0.7644
3.1710432000108995,0,0,1.3646949462890625,0,0,0.53508
3.1724297380133066,0,0,1.3551181396484375,0,0,0.84084
3.1738162960100453,0,0,1.4963760375976562,0,0,0.6115200000000001
3.1752030570060015,0,0,1.1563994018554686,0,0,0.99372
3.176589540002169,0,0,1.2018892333984375,0,0,0.7644
3.1779954860103317,0,0,1.1180921752929687,0,0,0.68796
3.1793827280052938,0,0,1.209071838378906,0,0,0.6115200000000001
3.18076943300548,0,0,1.2976572998046874,0,0,0.91728
3.1821561389951967,0,0,1.484405029296875,0,0,0.53508
3.1835597880126443,0,0,1.3168109130859373,0,0,1.07016
3.1849471050081775,0,0,1.4101847778320311,0,0,0.7644
3.186334162019193,0,0,1.235408056640625,0,0,1.07016
3.1877217190049123,0,0,1.1252747802734375,0,0,0.68796
3.1891073689912446,0,0,1.1635820068359375,0,0,0.6115200000000001
3.1904940560052637,0,0,1.3311761230468748,0,0,0.3822
3.191882020997582,0,0,1.4413093994140624,0,0,0.53508
3.193276689009508,0,0,1.3862427612304686,0,0,0.7644
3.194663653994212,0,0,1.2569558715820313,0,0,1.07016
3.1960500809946097,0,0,1.3192051147460937,0,0,0.68796
3.1974361010070425,0,0,1.1563994018554686,0,0,0.91728
3.1988222700019833,0,0,1.1468225952148436,0,0,0.6115200000000001
3.2002086419961415,0,0,1.216254443359375,0,0,0.68796
3.2015946250176057,0,0,1.2569558715820313,0,0,0.53508
3.2029806450009346,0,0,1.3383587280273437,0,0,0.3822
3.204367499012733,0,0,1.3455413330078123,0,0,0.53508
3.2057538150111213,0,0,1.3359645263671873,0,0,1.07016
3.2071400950080715,0,0,1.2234370483398436,0,0,0.84084
3.208526670001447,0,0,1.1037269653320312,0,0,0.84084
3.209912671998609,0,0,1.0821791503906248,0,0,0.99372
3.2112987659929786,0,0,1.1755530151367186,0,0,0.6115200000000001
3.2126880830037408,0,0,1.35990654296875,0,0,0.84084
3.2140742700139526,0,0,1.5227122558593749,0,0,0.68796
3.215460197010543,0,0,1.3168109130859373,0,0,0.84084
3.21684703201754,0,0,1.3048399047851562,0,0,0.91728
3.2182336449914146,0,0,1.1348515869140625,0,0,0.68796
3.2196208870154805,0,0,1.189918225097656,0,0,0.68796
3.2210058710188605,0,0,1.1133037719726562,0,0,0.99372
3.222427835018607,0,0,1.3551181396484375,0,0,0.91728
3.2238173730147537,0,0,1.369483349609375,0,0,1.1465999999999998
3.22520248600631,0,0,1.4772224243164063,0,0,0.91728
3.2265937470074277,0,0,1.2521674682617188,0,0,0.84084
3.227982508018613,0,0,1.3096283081054687,0,0,0.7644
3.229370306013152,0,0,1.1444283935546875,0,0,0.91728
3.2307566410163417,0,0,1.2306196533203124,0,0,0.6115200000000001
3.23214306900627,0,0,1.1659762084960936,0,0,0.91728
3.233529218006879,0,0,1.2832920898437499,0,0,0.30576000000000003
3.234915720007848,0,0,1.3958195678710936,0,0,0.6115200000000001
3.2363239440019242,0,0,1.4508862060546874,0,0,0.84084
3.2377109639928676,0,0,1.3024457031249999,0,0,0.91728
3.2390971510030795,0,0,1.209071838378906,0,0,0.7644
3.240484023001045,0,0,1.1348515869140625,0,0,0.91728
3.2418706729949918,0,0,1.1085153686523437,0,0,0.68796
3.243256971007213,0,0,1.2306196533203124,0,0,0.84084
3.2446429539995734,0,0,1.3144167114257812,0,0,0.91728
3.2460295670025516,0,0,1.5298948608398437,0,0,0.84084
3.2474156980169937,0,0,1.47482822265625,0,0,0.84084
3.2488020510063507,0,0,1.3958195678710936,0,0,-9.09636
3.2501889239938464,0,0,1.2306196533203124,0,0,0.84084
3.251576387992827,0,0,1.0749965454101562,0,0,0.68796
3.252962333994219,0,0,1.1061211669921875,0,0,0.6115200000000001
3.2543484840134624,0,0,1.24498486328125,0,0,0.68796
3.2557345970126335,0,0,1.426944189453125,0,0,0.53508
3.257121710019419,0,0,1.4437036010742186,0,0,0.45864
3.2585086000035517,0,0,1.3000515014648437,0,0,0.84084
3.259898082993459,0,0,1.4437036010742186,0,0,0.91728
3.261350954999216,0,0,1.3024457031249999,0,0,0.53508
3.262780566990841,0,0,1.3024457031249999,0,0,0.7644
3.2641737349913456,0,0,1.1659762084960936,0,0,0.6115200000000001
3.2655607920023613,0,0,1.2473790649414063,0,0,0.3822
3.2669480530021247,0,0,1.3431471313476562,0,0,0.99372
3.2683341660012957,0,0,1.5251064575195312,0,0,0.6115200000000001
3.269720853015315,0,0,1.3048399047851562,0,0,0.91728
3.2711081320012454,0,0,1.388636962890625,0,0,0.6115200000000001
3.272494597011246,0,0,1.2210428466796874,0,0,0.84084
3.273880821012426,0,0,1.20667763671875,0,0,0.6115200000000001
3.27526778599713,0,0,1.177947216796875,0,0,0.84084
3.276654860994313,0,0,1.3646949462890625,0,0,0.53508
3.278041067009326,0,0,1.3718775512695311,0,0,0.7644
3.2794276420027018,0,0,1.5275006591796874,0,0,0.68796
3.2808319769974332,0,0,1.4413093994140624,0,0,0.68796
3.2822183489915915,0,0,1.1707646118164061,0,0,0.7644
3.2836079809931107,0,0,1.1516109985351561,0,0,0.91728
3.2849942409957293,0,0,1.189918225097656,0,0,0.53508
3.2863798910111655,0,0,1.1037269653320312,0,0,0.7644
3.2877672080066986,0,0,1.3383587280273437,0,0,0.3822
3.2891523760044947,0,0,1.3263877197265623,0,0,0.53508
3.2905387670034543,0,0,1.4006079711914061,0,0,0.84084
3.291928138991352,0,0,1.458068811035156,0,0,1.07016
3.2933140660170466,0,0,1.1156979736328125,0,0,0.68796
3.294711549009662,0,0,1.216254443359375,0,0,0.45864
3.2960983100056183,0,0,1.1707646118164061,0,0,0.6115200000000001
3.2974847750156187,0,0,1.2785036865234374,0,0,0.45864
3.298870814003749,0,0,1.3431471313476562,0,0,0.7644
3.30025711201597,0,0,1.4820108276367188,0,0,0.68796
3.3016603910073172,0,0,1.407790576171875,0,0,0.68796
3.303047780995257,0,0,1.4987702392578124,0,0,0.68796
3.3044343939982355,0,0,1.35990654296875,0,0,0.7644
3.3058214700140525,0,0,1.2497732666015624,0,0,0.91728
3.307207545993151,0,0,1.177947216796875,0,0,0.6115200000000001
3.3085937139985617,0,0,1.2952630981445312,0,0,0.53508
3.309979845013004,0,0,1.3072341064453123,0,0,0.3822
3.3113660140079446,0,0,1.446097802734375,0,0,0.6115200000000001
3.3127525150193833,0,0,1.4508862060546874,0,0,0.53508
3.3141385359922424,0,0,1.37906015625,0,0,0.91728
3.3155247599934228,0,0,1.149216796875,0,0,0.45864
3.3169144279963803,0,0,1.218648645019531,0,0,0.68796
3.3183011889923364,0,0,1.1133037719726562,0,0,0.68796
3.3196889309911057,0,0,1.3670891479492187,0,0,0.53508
3.321082711016061,0,0,1.4437036010742186,0,0,0.53508
3.322469156992156,0,0,1.4772224243164063,0,0,0.68796
3.3238691030128393,0,0,1.5610194824218748,0,0,0.7644
3.3252557149971835,0,0,1.2761094848632812,0,0,0.7644
3.3266421250009444,0,0,1.1635820068359375,0,0,0.91728
3.328028218995314,0,0,1.1516109985351561,0,0,0.3822
3.3294137949997094,0,0,1.0893617553710937,0,0,0.68796
3.33080014801817,0,0,1.3431471313476562,0,0,0.53508
3.332186094019562,0,0,1.4891934326171874,0,0,0.6115200000000001
3.3335715029970743,0,0,1.458068811035156,0,0,0.91728
3.334957357001258,0,0,1.4173673828125,0,0,0.91728
3.336342266004067,0,0,1.2832920898437499,0,0,0.6115200000000001
3.3377518790075555,0,0,1.1875240234375,0,0,0.84084
3.3391402139968704,0,0,1.180341418457031,0,0,0.53508
3.340527993015712,0,0,1.350329736328125,0,0,0.91728
3.3419152350106742,0,0,1.4101847778320311,0,0,0.68796
3.3433028110011946,0,0,1.5107412475585937,0,0,0.68796
3.3446908309997525,0,0,1.3120225097656248,0,0,0.84084
3.3460781290195882,0,0,1.4700398193359374,0,0,0.99372
3.347465168015333,0,0,1.189918225097656,0,0,0.84084
3.348853039991809,0,0,1.20667763671875,0,0,0.91728
3.350240041996585,0,0,1.0319009155273438,0,0,0.6115200000000001
3.351628080010414,0,0,1.3168109130859373,0,0,0.45864
3.3530258779937867,0,0,1.3359645263671873,0,0,0.7644
3.354412917018635,0,0,1.438915197753906,0,0,0.68796
3.3558005850063637,0,0,1.3455413330078123,0,0,0.99372
3.357187679008348,0,0,1.3335703247070312,0,0,0.0
3.3585740890121087,0,0,1.1611878051757811,0,0,1.07016
3.3599619610176887,0,0,1.2737152832031249,0,0,0.68796
3.3613486099930014,0,0,1.3168109130859373,0,0,0.99372
3.3627378340170253,0,0,1.3335703247070312,0,0,0.45864
3.364127651002491,0,0,1.4341267944335936,0,0,0.53508
3.365514948993223,0,0,1.467645617675781,0,0,0.45864
3.3669017100182828,0,0,1.4796166259765624,0,0,0.91728
3.3682970450026914,0,0,1.254561669921875,0,0,0.84084
3.369685045996448,0,0,1.2306196533203124,0,0,1.07016
3.371071881003445,0,0,1.1875240234375,0,0,0.53508
3.372459197998978,0,0,1.1133037719726562,0,0,0.45864
3.3738463660120033,0,0,1.3383587280273437,0,0,0.68796
3.3752331460127607,0,0,1.438915197753906,0,0,0.53508
3.3766198320081457,0,0,1.3192051147460937,0,0,0.53508
3.378007001010701,0,0,1.455674609375,0,0,0.7644
3.379393501993036,0,0,1.3527239379882812,0,0,0.91728
3.380780745006632,0,0,1.2234370483398436,0,0,1.07016
3.3821679500106256,0,0,1.2234370483398436,0,0,0.53508
3.383555359003367,0,0,1.0917559570312498,0,0,0.68796
3.3849417500023264,0,0,1.369483349609375,0,0,0.7644
3.3863291770103388,0,0,1.5059528442382812,0,0,0.3822
3.3877161979908124,0,0,1.2425906616210938,0,0,1.2994800000000002
3.389101903012488,0,0,1.3910311645507811,0,0,0.68796
3.3904885340016335,0,0,1.1563994018554686,0,0,0.7644
3.3918778320075944,0,0,1.1851298217773436,0,0,0.53508
3.3932642599975225,0,0,1.1707646118164061,0,0,0.53508
3.3946511870017275,0,0,1.3910311645507811,0,0,0.45864
3.39603861499927,0,0,1.388636962890625,0,0,0.6115200000000001
3.39742519101128,0,0,1.4149731811523436,0,0,0.84084
3.3988118410052266,0,0,1.4006079711914061,0,0,0.91728
3.4001992309931666,0,0,1.2378022583007813,0,0,0.53508
3.4015858070051763,0,0,1.2593500732421874,0,0,0.84084
3.402972456999123,0,0,1.1252747802734375,0,0,0.6115200000000001
3.4043600510049146,0,0,1.0917559570312498,0,0,0.7644
3.405746608012123,0,0,1.3048399047851562,0,0,0.53508
3.4071332210151013,0,0,1.388636962890625,0,0,0.68796
3.408520204015076,0,0,1.438915197753906,0,0,0.6115200000000001
3.409906521002995,0,0,1.3455413330078123,0,0,0.7644
3.41130878101103,0,0,1.2785036865234374,0,0,0.53508
3.4126898940012325,0,0,1.2521674682617188,0,0,0.53508
3.4140688960033003,0,0,1.2521674682617188,0,0,0.99372
3.4154478239943273,0,0,1.1827356201171875,0,0,0.68796
3.4168387509998865,0,0,1.3407529296874998,0,0,0.53508
3.418225531000644,0,0,1.429338391113281,0,0,0.6115200000000001
3.4196128839976154,0,0,1.2880804931640624,0,0,0.68796
3.4209986639907584,0,0,1.350329736328125,0,0,0.84084
3.4223848140100017,0,0,1.197100830078125,0,0,0.99372
3.4237714820192195,0,0,1.2473790649414063,0,0,0.6115200000000001
3.4251575950183906,0,0,1.1156979736328125,0,0,0.68796
3.4265441700117663,0,0,1.1875240234375,0,0,0.68796
3.4279308569966815,0,0,1.2904746948242187,0,0,1.37592
3.4293191180040594,0,0,1.4532804077148436,0,0,0.91728
3.430705120001221,0,0,1.369483349609375,0,0,0.91728
3.4320919360034168,0,0,1.5442600708007812,0,0,-9.01992
3.433479568018811,0,0,1.2952630981445312,0,0,0.7644
3.434866088005947,0,0,1.2138602416992186,0,0,0.45864
3.436252867017174,0,0,1.20667763671875,0,0,0.68796
3.4376392209960613,0,0,1.3862427612304686,0,0,0.45864
3.439030036999611,0,0,1.419761584472656,0,0,0.91728
3.4404159460100345,0,0,1.5203180541992187,0,0,0.99372
3.4418023560137954,0,0,1.2521674682617188,0,0,-9.09636
3.44318909800495,0,0,1.388636962890625,0,0,0.68796
3.44457567401696,0,0,1.1851298217773436,0,0,0.91728
3.445962212019367,0,0,1.2904746948242187,0,0,0.6115200000000001
3.447348381014308,0,0,1.218648645019531,0,0,0.91728
3.4487367900146637,0,0,1.2713210815429687,0,0,0.3822
3.4501232920156326,0,0,1.3168109130859373,0,0,0.45864
3.4515108299965505,0,0,1.3287819213867187,0,0,0.68796
3.4528978500165977,0,0,1.4508862060546874,0,0,0.84084
3.4542837780027185,0,0,1.3168109130859373,0,0,0.7644
3.455678630998591,0,0,1.1731588134765625,0,0,0.91728
3.457064337009797,0,0,1.149216796875,0,0,0.91728
3.458450450008968,0,0,1.1156979736328125,0,0,0.53508
3.4598381179966964,0,0,1.3168109130859373,0,0,0.45864
3.461223805003101,0,0,1.4604630126953124,0,0,0.30576000000000003
3.4626101400062907,0,0,1.216254443359375,0,0,0.84084
3.46399769699201,0,0,1.3910311645507811,0,0,0.91728
3.465383421018487,0,0,1.3120225097656248,0,0,0.68796
3.4667699779965915,0,0,1.2401964599609374,0,0,0.91728
3.4681565170176327,0,0,1.216254443359375,0,0,0.84084
3.469550795998657,0,0,1.2928688964843749,0,0,0.91728
3.470937464997405,0,0,1.2521674682617188,0,0,0.91728
3.4723236889985856,0,0,1.429338391113281,0,0,0.53508
3.4737099490012042,0,0,1.2665326782226562,0,0,0.68796
3.4750958399963565,0,0,1.3958195678710936,0,0,0.84084
3.4764819710107986,0,0,1.218648645019531,0,0,0.7644
3.477868565998506,0,0,1.254561669921875,0,0,0.7644
3.4792549010016955,0,0,1.2234370483398436,0,0,0.7644
3.4806412360048853,0,0,1.1947066284179686,0,0,0.6115200000000001
3.4820278669940308,0,0,1.3000515014648437,0,0,0.84084
3.4834134980046656,0,0,1.3718775512695311,0,0,0.53508
3.4848000560014043,0,0,1.3024457031249999,0,0,1.2230400000000001
3.4861862980178557,0,0,1.4149731811523436,0,0,0.68796
3.4875735219975468,0,0,1.1923124267578125,0,0,0.91728
3.4889600980095565,0,0,1.1635820068359375,0,0,0.68796
3.490346395992674,0,0,1.1156979736328125,0,0,0.7644
3.4917328050069045,0,0,1.2138602416992186,0,0,0.6115200000000001
3.4931186030153185,0,0,1.2306196533203124,0,0,0.53508
3.494504900998436,0,0,1.3575123413085937,0,0,0.7644
3.495892791019287,0,0,1.3910311645507811,0,0,0.68796
3.49727851501666,0,0,1.4173673828125,0,0,0.84084
3.4986714429978747,0,0,1.1875240234375,0,0,0.84084
3.5000585920060985,0,0,1.1348515869140625,0,0,0.68796
3.5014446309942286,0,0,1.2904746948242187,0,0,0.7644
3.5028340030112304,0,0,1.2521674682617188,0,0,0.84084
3.504219041991746,0,0,1.2641384765625,0,0,0.45864
3.5056049700069707,0,0,1.2593500732421874,0,0,0.84084
3.5069911559985485,0,0,1.5155296508789062,0,0,0.68796
3.5083778430125676,0,0,1.1348515869140625,0,0,1.1465999999999998
3.509764067013748,0,0,1.1875240234375,0,0,0.68796
3.5111744760069996,0,0,1.1851298217773436,0,0,0.45864
3.5126203469990287,0,0,1.3096283081054687,0,0,0.53508
3.514037200016901,0,0,1.22583125,0,0,1.07016
3.515425071993377,0,0,1.47482822265625,0,0,0.7644
3.5168173520069104,0,0,1.2713210815429687,0,0,0.99372
3.5182043350068852,0,0,1.3910311645507811,0,0,0.68796
3.5196154479926918,0,0,1.1707646118164061,0,0,1.07016
3.521014282014221,0,0,1.1085153686523437,0,0,0.6115200000000001
3.5224120799975935,0,0,1.189918225097656,0,0,0.91728
3.523800693015801,0,0,1.216254443359375,0,0,0.68796
3.5251872870139778,0,0,1.2713210815429687,0,0,0.91728
3.526574048009934,0,0,1.3862427612304686,0,0,0.68796
3.527988309011562,0,0,1.3239935180664062,0,0,0.68796
3.5293755879974924,0,0,1.3359645263671873,0,0,0.53508
3.5307620899984613,0,0,1.235408056640625,0,0,0.84084
3.532148980011698,0,0,1.158793603515625,0,0,0.68796
3.5335490190191194,0,0,1.2617442749023438,0,0,0.6115200000000001
3.535088481992716,0,0,1.3455413330078123,0,0,0.45864
3.5366045370174106,0,0,1.5179238525390624,0,0,0.6115200000000001
3.538930231006816,0,0,1.2401964599609374,0,0,0.99372
3.5404340279928874,0,0,1.177947216796875,0,0,0.91728
3.541823381005088,0,0,1.2737152832031249,0,0,0.91728
3.5432124760118313,0,0,1.1037269653320312,0,0,0.53508
3.5446131810022052,0,0,1.2617442749023438,0,0,0.53508
3.5459930350189097,0,0,1.3383587280273437,0,0,1.1465999999999998
3.5473729990189895,0,0,1.39821376953125,0,0,0.68796
3.5487617969920393,0,0,1.2928688964843749,0,0,0.53508
3.5501487250148784,0,0,1.3838485595703125,0,0,0.99372
3.5515443560143467,0,0,1.180341418457031,0,0,0.6115200000000001
3.5529235799913295,0,0,1.2856862915039062,0,0,0.84084
3.5543029149994254,0,0,1.216254443359375,0,0,0.6115200000000001
3.5556883980170824,0,0,1.2713210815429687,0,0,0.6115200000000001
3.557075251999777,0,0,1.2641384765625,0,0,0.84084
3.5584620500158053,0,0,1.4820108276367188,0,0,0.68796
3.5598498659965117,0,0,1.3072341064453123,0,0,0.7644
3.561235608998686,0,0,1.467645617675781,0,0,0.84084
3.562622666009702,0,0,1.1228805786132812,0,0,0.91728
3.5640099449956324,0,0,1.1635820068359375,0,0,0.53508
3.565403465006966,0,0,1.2330138549804688,0,0,0.68796
3.5667906340095215,0,0,1.2952630981445312,0,0,0.3822
3.568173747014953,0,0,1.4221557861328125,0,0,0.68796
3.569553008012008,0,0,1.4820108276367188,0,0,0.99372
3.5709312690014485,0,0,1.2904746948242187,0,0,0.99372
3.5723130670085084,0,0,1.2497732666015624,0,0,0.91728
3.57369245699374,0,0,1.2018892333984375,0,0,0.7644
3.57507155201165,0,0,1.3742717529296875,0,0,0.7644
3.5777608520002104,0,0,1.2856862915039062,0,0,0.6115200000000001
3.579147632000968,0,0,1.4987702392578124,0,0,0.3822
