Time,AccelX1,AccelY1,AccelZ1,AccelX2,AccelY2,AccelZ2
4.851986886933446e-06,0,0,1.3311761230468748,0,0,0.53508
0.006876911997096613,0,0,1.158793603515625,0,0,0.84084
0.010769972985144705,0,0,1.3311761230468748,0,0,0.84084
0.014292352978372946,0,0,1.5275006591796874,0,0,0.0
0.01780997499008663,0,0,1.2761094848632812,0,0,0.6115200000000001
0.02132868897751905,0,0,1.2856862915039062,0,0,0.91728
0.024845476989867166,0,0,1.1013327636718748,0,0,0.91728
0.028378338989568874,0,0,1.13006318359375,0,0,0.84084
0.03209042098023929,0,0,1.5035586425781249,0,0,0.91728
0.03573246698942967,0,0,1.6232687255859375,0,0,0.6115200000000001
0.03925684798741713,0,0,1.0797849487304687,0,0,0.7644
0.04277302499394864,0,0,1.2808978881835937,0,0,0.99372
0.046286923985462636,0,0,1.5203180541992187,0,0,0.68796
0.0498021749954205,0,0,1.1252747802734375,0,0,0.3822
0.05331583399674855,0,0,1.3455413330078123,0,0,1.1465999999999998
0.056829454988474026,0,0,1.5059528442382812,0,0,0.99372
0.060342835990013555,0,0,1.0797849487304687,0,0,1.07016
0.06386530899908394,0,0,1.3335703247070312,0,0,0.68796
0.06738178298110142,0,0,1.4987702392578124,0,0,0.91728
0.0708966079982929,0,0,1.2593500732421874,0,0,0.91728
0.0745283939759247,0,0,1.4891934326171874,0,0,0.84084
0.07820490299491212,0,0,1.1947066284179686,0,0,0.84084
0.08185418898938224,0,0,1.2785036865234374,0,0,0.84084
0.08539001399185508,0,0,1.5227122558593749,0,0,0.6115200000000001
0.08894711697939783,0,0,1.3144167114257812,0,0,0.7644
0.09247275697998703,0,0,1.1037269653320312,0,0,0.15288000000000002
0.09599437797442079,0,0,1.3168109130859373,0,0,0.84084
0.09950729599222541,0,0,1.0941501586914062,0,0,0.7644
0.10314145297161303,0,0,1.2880804931640624,0,0,0.68796
0.10610309999901801,0,0,1.2378022583007813,0,0,0.45864
0.10892961898935027,0,0,1.1037269653320312,0,0,0.91728
0.1117310089757666,0,0,1.1180921752929687,0,0,0.84084
0.11452880699653178,0,0,1.3527239379882812,0,0,0.91728
0.11733182598254643,0,0,1.3431471313476562,0,0,1.07016
0.1201336789818015,0,0,1.2018892333984375,0,0,0.7644
0.12293042099918239,0,0,1.254561669921875,0,0,0.6115200000000001
0.12571584800025448,0,0,1.3215993164062498,0,0,0.6115200000000001
0.1285274049732834,0,0,1.4700398193359374,0,0,0.45864
0.131325960974209,0,0,1.254561669921875,0,0,0.7644
0.13424790499266237,0,0,1.2497732666015624,0,0,1.07016
0.13704801697167568,0,0,1.2401964599609374,0,0,0.91728
0.13985105499159545,0,0,1.254561669921875,0,0,0.91728
0.1426477969798725,0,0,1.180341418457031,0,0,0.7644
0.1454447609721683,0,0,1.235408056640625,0,0,0.91728
0.14824279997264966,0,0,1.3239935180664062,0,0,1.1465999999999998
0.15104567099479027,0,0,1.1252747802734375,0,0,0.53508
0.15384224598528817,0,0,1.2617442749023438,0,0,0.7644
0.15669224699377082,0,0,1.2282254516601563,0,0,0.68796
0.1595127469918225,0,0,1.3096283081054687,0,0,0.7644
0.16231026698369533,0,0,1.369483349609375,0,0,0.7644
0.16511969399289228,0,0,1.2569558715820313,0,0,1.45236
0.16794558297260664,0,0,1.2330138549804688,0,0,1.1465999999999998
0.1707418619771488,0,0,1.235408056640625,0,0,0.91728
0.17357186297886074,0,0,1.2042834350585936,0,0,0.7644
0.1763704199984204,0,0,1.369483349609375,0,0,0.3822
0.17920864297775552,0,0,1.3718775512695311,0,0,0.68796
0.18202371697407216,0,0,1.2138602416992186,0,0,0.45864
0.18481884797802195,0,0,1.2713210815429687,0,0,0.45864
0.18778397698770277,0,0,1.4149731811523436,0,0,0.6115200000000001
0.19064262497704476,0,0,1.2401964599609374,0,0,0.45864
0.19344484899193048,0,0,1.1444283935546875,0,0,0.68796
0.1962439239723608,0,0,1.2713210815429687,0,0,1.45236
0.19904288797988556,0,0,1.388636962890625,0,0,0.99372
0.20197938699857332,0,0,1.3575123413085937,0,0,0.91728
0.20495545997982845,0,0,1.3359645263671873,0,0,0.84084
0.20807701197918504,0,0,1.3192051147460937,0,0,0.45864
0.21118999097961932,0,0,1.5131354492187499,0,0,0.6115200000000001
0.21430682099889964,0,0,1.2569558715820313,0,0,0.6115200000000001
0.21742170699872077,0,0,1.1324573852539062,0,0,0.3822
0.2205395189812407,0,0,1.2713210815429687,0,0,0.91728
0.22365481199813075,0,0,1.0749965454101562,0,0,0.7644
0.22676984599092975,0,0,1.2713210815429687,0,0,1.83456
0.22988582498510368,0,0,1.4173673828125,0,0,0.99372
0.2330010999867227,0,0,1.3096283081054687,0,0,1.1465999999999998
0.23611646698554978,0,0,1.1468225952148436,0,0,0.84084
0.23922916798619553,0,0,1.3527239379882812,0,0,0.3822
0.24234268299187534,0,0,1.2737152832031249,0,0,0.7644
0.24546327299322002,0,0,1.3144167114257812,0,0,0.7644
0.24857951098238118,0,0,1.2569558715820313,0,0,0.30576000000000003
0.251695414975984,0,0,1.2593500732421874,0,0,0.91728
0.25481281999964267,0,0,1.0749965454101562,0,0,0.6115200000000001
0.2579276869946625,0,0,1.2880804931640624,0,0,1.2230400000000001
0.26104185098665766,0,0,1.4173673828125,0,0,0.6115200000000001
0.2641804029990453,0,0,1.3096283081054687,0,0,1.07016
0.26729323298786767,0,0,1.1563994018554686,0,0,0.7644
0.2704077859816607,0,0,1.1348515869140625,0,0,0.30576000000000003
0.2735220609756652,0,0,1.22583125,0,0,0.45864
0.2766380209941417,0,0,1.2234370483398436,0,0,0.6115200000000001
0.27975544397486374,0,0,1.254561669921875,0,0,0.53508
0.2828689779853448,0,0,1.2737152832031249,0,0,0.91728
0.28598106699064374,0,0,1.0726023437499999,0,0,0.68796
0.28913567497511394,0,0,1.1875240234375,0,0,0.99372
0.29225457899156027,0,0,1.5155296508789062,0,0,0.91728
0.2953703169769142,0,0,1.5251064575195312,0,0,0.99372
0.29848531397874467,0,0,1.1420341918945311,0,0,0.45864
0.3016246439947281,0,0,1.5251064575195312,0,0,0.7644
0.30474027097807266,0,0,1.6256629272460936,0,0,0.53508
0.30789087899029255,0,0,1.1755530151367186,0,0,0.6115200000000001
0.31100633897585794,0,0,1.218648645019531,0,0,0.53508
0.31412055797409266,0,0,1.1827356201171875,0,0,0.7644
0.31723772099940106,0,0,1.1037269653320312,0,0,0.7644
0.3203748289961368,0,0,1.3072341064453123,0,0,0.99372
0.3234913630003575,0,0,1.3934253662109375,0,0,0.30576000000000003
0.3266168599948287,0,0,1.0869675537109373,0,0,0.99372
0.32977296799072064,0,0,1.3192051147460937,0,0,0.3822
0.3329712229897268,0,0,1.455674609375,0,0,0.99372
0.3360907759924885,0,0,1.5682020874023437,0,0,0.68796
0.33920282797771506,0,0,1.0989385620117187,0,0,0.68796
0.34231675098999403,0,0,1.3263877197265623,0,0,0.7644
0.34543448899057694,0,0,1.2378022583007813,0,0,0.6115200000000001
0.348550874972716,0,0,1.3455413330078123,0,0,0.53508
0.35166690897312947,0,0,1.3215993164062498,0,0,0.22932
0.35478229497675784,0,0,1.3239935180664062,0,0,0.7644
0.35791160599910654,0,0,0.9600748657226562,0,0,0.7644
0.3610535849875305,0,0,1.2808978881835937,0,0,0.91728
0.36417180398711935,0,0,1.3000515014648437,0,0,0.7644
0.36730552298831753,0,0,1.5753846923828123,0,0,0.99372
0.3704210569849238,0,0,1.2952630981445312,0,0,0.91728
0.37353720198734663,0,0,1.254561669921875,0,0,0.99372
0.37665247698896565,0,0,1.3958195678710936,0,0,0.45864
0.37977695500012487,0,0,1.1468225952148436,0,0,0.53508
0.3829011929919943,0,0,1.37906015625,0,0,0.15288000000000002
0.3860126529762056,0,0,1.2785036865234374,0,0,0.53508
0.389161000988679,0,0,1.2114660400390624,0,0,0.7644
0.3922809059731662,0,0,1.2737152832031249,0,0,1.2230400000000001
0.3953955689794384,0,0,1.24498486328125,0,0,1.1465999999999998
0.39851178898243234,0,0,1.254561669921875,0,0,1.07016
0.4016905629832763,0,0,1.13006318359375,0,0,0.53508
0.404845632991055,0,0,1.2665326782226562,0,0,0.0
0.4079774819838349,0,0,1.4724340209960938,0,0,0.53508
0.4110895339981653,0,0,1.3766659545898436,0,0,0.53508
0.41420495699276216,0,0,1.3479355346679687,0,0,0.07644000000000001
0.41732039899216034,0,0,1.484405029296875,0,0,0.68796
0.4204370069783181,0,0,1.1563994018554686,0,0,0.68796
0.4235495779721532,0,0,1.3000515014648437,0,0,1.1465999999999998
0.42666429697419517,0,0,1.4604630126953124,0,0,0.84084
0.42978240599040873,0,0,1.2976572998046874,0,0,0.91728
0.4328971619834192,0,0,1.0821791503906248,0,0,0.6115200000000001
0.43601278797723353,0,0,1.2761094848632812,0,0,0.6115200000000001
0.4391260629927274,0,0,1.2928688964843749,0,0,0.68796
0.4422490419819951,0,0,1.3551181396484375,0,0,0.7644
0.44536596498801373,0,0,1.2689268798828124,0,0,0.22932
0.44848322100006044,0,0,1.1156979736328125,0,0,1.2230400000000001
0.45164514298085123,0,0,1.2713210815429687,0,0,1.1465999999999998
0.45476202899590135,0,0,1.2952630981445312,0,0,1.45236
0.45787724797264673,0,0,1.22583125,0,0,0.99372
0.4610081159917172,0,0,1.3766659545898436,0,0,0.68796
0.46412500098813325,0,0,1.0726023437499999,0,0,0.45864
0.4672376649978105,0,0,1.3048399047851562,0,0,0.53508
0.47035310699720867,0,0,1.5298948608398437,0,0,0.30576000000000003
0.4734673259954434,0,0,1.216254443359375,0,0,0.53508
0.476582729985239,0,0,1.3718775512695311,0,0,0.84084
0.4797138749854639,0,0,1.0869675537109373,0,0,0.91728
0.48283179799909703,0,0,1.0893617553710937,0,0,0.7644
0.48594242497347295,0,0,1.2665326782226562,0,0,0.84084
0.48908862497773953,0,0,1.4030021728515625,0,0,0.53508
0.49220688099740073,0,0,1.3000515014648437,0,0,0.84084
0.49531956398277543,0,0,1.4125789794921875,0,0,0.3822
0.49843396799406037,0,0,1.4437036010742186,0,0,0.99372
0.5015484649920836,0,0,1.6112977172851561,0,0,0.6115200000000001
0.5138619919889607,0,0,1.2306196533203124,0,0,0.7644
0.5172566709807143,0,0,1.2904746948242187,0,0,-8.867040000000001
0.5204038899973966,0,0,1.3144167114257812,0,0,0.53508
0.5235078679979779,0,0,1.1180921752929687,0,0,0.53508
0.5266111059754621,0,0,1.3646949462890625,0,0,0.68796
0.529716491990257,0,0,1.369483349609375,0,0,1.1465999999999998
0.5328415999829303,0,0,1.5083470458984374,0,0,0.84084
0.535942078975495,0,0,1.1156979736328125,0,0,0.99372
0.5391061309783254,0,0,1.1923124267578125,0,0,0.6115200000000001
0.5423674409976229,0,0,1.4820108276367188,0,0,0.6115200000000001
0.5454813079850283,0,0,1.350329736328125,0,0,0.53508
0.548599915986415,0,0,1.3766659545898436,0,0,0.45864
0.5517559129802976,0,0,1.3168109130859373,0,0,0.6115200000000001
0.5548809100000653,0,0,1.1372457885742187,0,0,0.45864
0.5579993699793704,0,0,1.3527239379882812,0,0,1.45236
0.5611301999888383,0,0,1.4867992309570313,0,0,0.84084
0.5642476779757999,0,0,1.2114660400390624,0,0,1.07016
0.5673956929822452,0,0,1.2401964599609374,0,0,0.7644
0.5705121719802264,0,0,1.446097802734375,0,0,0.84084
0.5736304649908561,0,0,1.5275006591796874,0,0,0.22932
0.5767487399862148,0,0,1.4101847778320311,0,0,0.7644
0.5798925889830571,0,0,1.3168109130859373,0,0,0.53508
0.5831917679752223,0,0,1.24498486328125,0,0,0.68796
0.5865156329819001,0,0,1.3144167114257812,0,0,0.45864
0.5897461099957582,0,0,1.3215993164062498,0,0,0.30576000000000003
0.5929063099902123,0,0,1.5203180541992187,0,0,0.6115200000000001
0.5960283629829064,0,0,1.218648645019531,0,0,0.6115200000000001
0.5991439709905535,0,0,1.3144167114257812,0,0,0.6115200000000001
0.6022675969870761,0,0,1.4317325927734375,0,0,1.1465999999999998
0.6054861859884113,0,0,1.5155296508789062,0,0,0.7644
0.6081102629832458,0,0,1.2497732666015624,0,0,0.68796
0.6106533229758497,0,0,1.1611878051757811,0,0,0.99372
0.6131958829937503,0,0,1.3024457031249999,0,0,0.91728
0.6157551090000197,0,0,1.5107412475585937,0,0,0.68796
0.6183218169899192,0,0,1.2569558715820313,0,0,0.7644
0.6208680069830734,0,0,1.2976572998046874,0,0,1.5288
0.6234133439720608,0,0,1.5011644409179687,0,0,0.91728
0.6259429039782844,0,0,1.5275006591796874,0,0,0.45864
0.6284838719875552,0,0,1.3072341064453123,0,0,0.68796
0.6310170059732627,0,0,1.2832920898437499,0,0,0.7644
0.6335760289803147,0,0,1.4341267944335936,0,0,0.84084
0.6361254219955299,0,0,1.4532804077148436,0,0,0.3822
0.6386655739916023,0,0,1.2952630981445312,0,0,0.68796
0.6412076709966641,0,0,1.2521674682617188,0,0,0.68796
0.6437503049965017,0,0,1.5155296508789062,0,0,0.53508
0.6462928099790588,0,0,1.5610194824218748,0,0,0.84084
0.6488346839905716,0,0,1.189918225097656,0,0,0.7644
0.6513759849767666,0,0,1.3359645263671873,0,0,0.53508
0.6539177119848318,0,0,1.5203180541992187,0,0,0.7644
0.6564858449855819,0,0,1.2473790649414063,0,0,0.7644
0.6590262389800046,0,0,1.1037269653320312,0,0,0.84084
0.6615677059744485,0,0,1.35990654296875,0,0,0.91728
0.6641097479732707,0,0,1.4245499877929686,0,0,0.68796
0.6666507699992508,0,0,1.3120225097656248,0,0,0.91728
0.6691913119866513,0,0,1.2928688964843749,0,0,0.53508
0.6717345569923054,0,0,1.2378022583007813,0,0,0.53508
0.6742753389989957,0,0,1.4437036010742186,0,0,0.84084
0.6768158439954277,0,0,1.3623007446289062,0,0,0.91728
0.679356384993298,0,0,1.1540052001953125,0,0,0.53508
0.6818980379903223,0,0,1.3168109130859373,0,0,0.84084
0.6844404309813399,0,0,1.3646949462890625,0,0,0.99372
0.687016378971748,0,0,1.3048399047851562,0,0,0.7644
0.6895623649761546,0,0,1.2880804931640624,0,0,0.6115200000000001
0.6921049059892539,0,0,1.3431471313476562,0,0,0.45864
0.6946449109818786,0,0,1.2832920898437499,0,0,0.68796
0.6971854339935817,0,0,1.3048399047851562,0,0,0.7644
0.6997561419848353,0,0,1.1420341918945311,0,0,0.7644
0.7023223119904287,0,0,1.2665326782226562,0,0,1.07016
0.7049125569756143,0,0,1.22583125,0,0,0.3822
0.707632225996349,0,0,1.1468225952148436,0,0,0.99372
0.7107559259748086,0,0,1.2617442749023438,0,0,0.99372
0.7138751819729805,0,0,1.2785036865234374,0,0,1.07016
0.7169930129894055,0,0,1.438915197753906,0,0,0.53508
0.720114231982734,0,0,1.1013327636718748,0,0,0.6115200000000001
0.7232283399789594,0,0,1.350329736328125,0,0,0.45864
0.7263454109779559,0,0,1.4508862060546874,0,0,0.84084
0.7294624639907852,0,0,1.6017209106445311,0,0,0.7644
0.7325792199990246,0,0,1.1420341918945311,0,0,0.91728
0.7356956609874032,0,0,1.235408056640625,0,0,0.07644000000000001
0.7388149359903764,0,0,1.3263877197265623,0,0,0.91728
0.7419552849896718,0,0,1.1372457885742187,0,0,0.91728
0.7450737999752164,0,0,1.3383587280273437,0,0,0.84084
0.7481915009848308,0,0,1.2904746948242187,0,0,0.6115200000000001
0.7513069419946987,0,0,1.1180921752929687,0,0,0.7644
0.754423346981639,0,0,1.2593500732421874,0,0,0.6115200000000001
0.75753982499009,0,0,1.4173673828125,0,0,0.91728
0.7606688779778779,0,0,1.5801730957031248,0,0,1.1465999999999998
0.7637850039754994,0,0,1.1755530151367186,0,0,0.53508
0.7669125009851996,0,0,1.2282254516601563,0,0,0.91728
0.7700276830000803,0,0,1.4724340209960938,0,0,1.07016
0.7731448099948466,0,0,1.2473790649414063,0,0,0.68796
0.7770303339930251,0,0,1.3311761230468748,0,0,0.84084
0.7801893679716159,0,0,1.3431471313476562,0,0,0.99372
0.7833113089727703,0,0,1.2018892333984375,0,0,0.84084
0.786431898974115,0,0,1.2832920898437499,0,0,0.84084
0.7895383399736602,0,0,1.39821376953125,0,0,0.6115200000000001
0.7929372959770262,0,0,1.0845733520507812,0,0,0.84084
0.7964446400001179,0,0,1.2976572998046874,0,0,1.45236
0.7998000599909574,0,0,1.4341267944335936,0,0,0.53508
0.803007833979791,0,0,1.0271125122070313,0,0,0.6115200000000001
0.8061506819794886,0,0,1.2713210815429687,0,0,0.84084
0.8092569389846176,0,0,1.3838485595703125,0,0,0.7644
0.8123614539799746,0,0,1.37906015625,0,0,0.7644
0.8154594149964396,0,0,1.1540052001953125,0,0,0.7644
0.8185780229978263,0,0,1.1947066284179686,0,0,0.68796
0.8216914089862257,0,0,1.158793603515625,0,0,0.84084
0.8248698120005429,0,0,1.2114660400390624,0,0,0.7644
0.8279846429941244,0,0,1.3623007446289062,0,0,0.45864
0.8311248249956407,0,0,1.3551181396484375,0,0,0.68796
0.8343542269722093,0,0,1.1659762084960936,0,0,0.68796
0.837591370975133,0,0,1.467645617675781,0,0,0.99372
0.8407144239754416,0,0,1.4891934326171874,0,0,0.84084
0.8438778269919567,0,0,1.3144167114257812,0,0,1.07016
0.846998064982472,0,0,1.3527239379882812,0,0,1.07016
0.8501012659980915,0,0,1.5107412475585937,0,0,0.99372
0.8532191889826208,0,0,1.2808978881835937,0,0,0.53508
0.8563397409743629,0,0,1.2928688964843749,0,0,0.6115200000000001
0.8594559979974292,0,0,1.0917559570312498,0,0,0.3822
0.8625736059912015,0,0,1.4173673828125,0,0,0.84084
0.865680157992756,0,0,1.189918225097656,0,0,0.45864
0.8687967299774755,0,0,1.2976572998046874,0,0,0.91728
0.871915651980089,0,0,1.484405029296875,0,0,0.53508
0.8750279269879684,0,0,1.2617442749023438,0,0,1.5288
0.8781429979717359,0,0,2.0757728393554684,0,0,2.2167600000000003
0.8814577519951854,0,0,2.0278888061523435,0,0,1.37592
0.8845681569946464,0,0,2.7964275390625,0,0,0.91728
0.8878090039943345,0,0,1.707065783691406,0,0,0.84084
0.8909183709765784,0,0,1.3910311645507811,0,0,0.99372
0.8941797919978853,0,0,1.4508862060546874,0,0,1.37592
0.8973340109805577,0,0,1.6735469604492186,0,0,1.5288
0.9004567119991407,0,0,2.04943662109375,0,0,1.2994800000000002
0.9035726349975448,0,0,1.8938135131835936,0,0,1.45236
0.9067254279798362,0,0,1.7310078002929687,0,0,1.07016
0.9098460729874205,0,0,1.7381904052734374,0,0,1.07016
0.912964495975757,0,0,1.9704279663085937,0,0,1.5288
0.9160847149905749,0,0,2.1021090576171875,0,0,1.83456
0.9191997299785726,0,0,1.7932570434570312,0,0,0.99372
0.9223169309843797,0,0,1.7262193969726563,0,0,1.45236
0.9254203909949865,0,0,2.1906945190429687,0,0,1.75812
0.928540480992524,0,0,1.2569558715820313,0,0,0.99372
0.931657347973669,0,0,2.0087351928710935,0,0,1.1465999999999998
0.9347704009851441,0,0,1.4508862060546874,0,0,1.1465999999999998
0.9378862679877784,0,0,1.6903063720703124,0,0,1.75812
0.9410009869898204,0,0,1.8435352783203125,0,0,1.60524
0.9441154469968751,0,0,2.5354595581054684,0,0,1.68168
0.947229110985063,0,0,1.9608511596679685,0,0,1.68168
0.9503441079868935,0,0,1.8076222534179687,0,0,1.1465999999999998
0.9534574749995954,0,0,1.5514426757812498,0,0,1.2230400000000001
0.9565736209915485,0,0,1.3551181396484375,0,0,2.36964
0.9596918769821059,0,0,2.0254946044921875,0,0,1.37592
0.9628194289980456,0,0,1.9800047729492187,0,0,0.6115200000000001
0.9659397779905703,0,0,1.9823989746093749,0,0,1.37592
0.9690608489909209,0,0,1.8267758666992187,0,0,0.7644
0.9721775869838893,0,0,0.7733271362304687,0,0,0.99372
0.9752902509935666,0,0,2.365471240234375,0,0,1.75812
0.9784059509984218,0,0,2.712630480957031,0,0,20
0.981521558976965,0,0,1.3024457031249999,0,0,0.91728
0.9846363529795781,0,0,2.281674182128906,0,0,1.68168
0.9879147369938437,0,0,1.2018892333984375,0,0,0.99372
0.9910396779887378,0,0,1.9776105712890624,0,0,1.68168
0.9941626379732043,0,0,1.7764976318359373,0,0,1.45236
0.9972804129938595,0,0,2.1308394775390624,0,0,1.1465999999999998
1.0004243539879099,0,0,1.5179238525390624,0,0,0.53508
1.0036854409845546,0,0,1.8938135131835936,0,0,1.2230400000000001
1.006952399999136,0,0,1.946485949707031,0,0,0.7644
1.0101925619819667,0,0,2.8514941772460936,0,0,0.84084
1.013447315985104,0,0,1.7764976318359373,0,0,1.75812
1.016690848977305,0,0,1.6352397338867186,0,0,2.2931999999999997
1.0200301199802198,0,0,1.2234370483398436,0,0,-9.24924
1.0232461899868213,0,0,1.889025109863281,0,0,3.2869200000000003
1.0292846679803915,0,0,1.9393033447265624,0,0,0.99372
1.032478089997312,0,0,1.2832920898437499,0,0,-9.631440000000001
1.035655346000567,0,0,2.70065947265625,0,0,0.6115200000000001
1.038787767989561,0,0,1.5634136840820312,0,0,1.60524
1.0419144879851956,0,0,1.0510545288085937,0,0,1.83456
1.045039206976071,0,0,2.607285607910156,0,0,2.4460800000000003
1.0481635739852209,0,0,2.3032219970703123,0,0,0.22932
1.051286681991769,0,0,0.239420166015625,0,0,-0.7644
1.0544688629743177,0,0,2.4133552734375,0,0,3.2869200000000003
1.0576061009778641,0,0,1.5969325073242187,0,0,-0.22932
1.0607419679872692,0,0,0.5746083984375,0,0,0.3822
1.063913963997038,0,0,4.070142822265625,0,0,2.06388
1.0670635529968422,0,0,1.7693150268554687,0,0,-0.22932
1.0702445679926313,0,0,0.0047884033203125,0,0,1.07016
1.0734613969980273,0,0,2.6192566162109374,0,0,0.53508
1.0767283369787037,0,0,-0.9816226806640624,0,0,-9.707880000000001
1.0799792769830674,0,0,2.099714855957031,0,0,1.68168
1.0841297599836253,0,0,0.9528922607421875,0,0,0.22932
1.0874738099810202,0,0,1.1276689819335937,0,0,1.37592
1.0906677499879152,0,0,1.89620771484375,0,0,0.53508
1.0938736539974343,0,0,-1.0342951171875,0,0,0.6115200000000001
1.097054723999463,0,0,2.6312276245117188,0,0,2.14032
1.1002216279739514,0,0,1.199495031738281,0,0,9.24924
1.1034006609988865,0,0,1.4891934326171874,0,0,0.84084
1.1067096739716362,0,0,2.272097375488281,0,0,0.45864
1.1098276889824774,0,0,-0.7637503295898437,0,0,-0.99372
1.111279744975036,0,0,0.679953271484375,0,0,9.47856
1.1127317819918972,0,0,2.5378537597656248,0,0,1.2230400000000001
1.1141753559932113,0,0,2.27927998046875,0,0,1.37592
1.1156755029805936,0,0,0.7589619262695312,0,0,0.84084
1.1170616339950357,0,0,0.0,0,0,-0.3822
1.118438208999578,0,0,-0.33039982910156246,0,0,0.7644
1.1198195979814045,0,0,2.243366955566406,0,0,2.4460800000000003
1.1211939509958029,0,0,3.0142998901367184,0,0,1.83456
1.1225702299852856,0,0,2.1308394775390624,0,0,1.83456
1.1239475269976538,0,0,1.2497732666015624,0,0,1.2230400000000001
1.125321860978147,0,0,0.181959326171875,0,0,-0.7644
1.1266969360003714,0,0,1.448492004394531,0,0,0.07644000000000001
1.1280737139750272,0,0,2.2457611572265623,0,0,1.60524
1.1294476599723566,0,0,2.3582886352539063,0,0,0.91728
1.1308305119746365,0,0,1.1420341918945311,0,0,-0.30576000000000003
1.132217401987873,0,0,0.27293898925781246,0,0,0.0
1.1336004949989729,0,0,-0.3854664672851562,0,0,-1.2230400000000001
1.1349848109821323,0,0,0.9648632690429687,0,0,9.631440000000001
1.136368200997822,0,0,1.8004396484374998,0,0,1.5288
1.137751293979818,0,0,2.231395947265625,0,0,2.36964
1.1391339059919119,0,0,1.9608511596679685,0,0,1.68168
1.1405527759925462,0,0,0.5027823486328125,0,0,0.07644000000000001
1.1419401099847164,0,0,-0.02154781494140625,0,0,0.6115200000000001
1.1433269069821108,0,0,1.1061211669921875,0,0,0.30576000000000003
1.1447116299823392,0,0,2.760514514160156,0,0,2.2167600000000003
1.1460963349964004,0,0,2.844311572265625,0,0,1.68168
1.1474806129990611,0,0,1.2737152832031249,0,0,1.37592
1.1488658549787942,0,0,0.105344873046875,0,0,0.0
1.150249651982449,0,0,-0.9145850341796874,0,0,-9.784320000000001
1.1516365229908843,0,0,1.0462661254882812,0,0,0.30576000000000003
1.1530213199730497,0,0,1.7621324218749999,0,0,0.53508
1.1544053389807232,0,0,2.0925322509765625,0,0,1.60524
1.1557891549891792,0,0,1.4724340209960938,0,0,1.37592
1.1571729889838025,0,0,1.0175357055664063,0,0,0.6115200000000001
1.1585571189934853,0,0,1.1109095703125,0,0,1.2230400000000001
1.1599674719909672,0,0,1.5897499023437498,0,0,1.98744
1.161351434973767,0,0,1.9297265380859374,0,0,0.45864
1.162742509972304,0,0,2.001552587890625,0,0,0.3822
1.1641425659763627,0,0,1.5777788940429687,0,0,1.45236
1.1655274559743702,0,0,0.19393033447265623,0,0,-0.30576000000000003
1.166914770990843,0,0,1.0773907470703123,0,0,0.53508
1.1682989199762233,0,0,1.4796166259765624,0,0,1.37592
1.1696825319959316,0,0,1.3000515014648437,0,0,1.07016
1.171066606999375,0,0,0.9409212524414062,0,0,0.0
1.1724506819737144,0,0,0.507570751953125,0,0,0.53508
1.1738355159759521,0,0,-0.181959326171875,0,0,0.0
1.1752198679896537,0,0,1.4939818359375,0,0,1.07016
1.1766042209928855,0,0,2.0757728393554684,0,0,1.2994800000000002
1.1779882029804867,0,0,2.2098481323242187,0,0,1.83456
1.1794503879791591,0,0,1.2378022583007813,0,0,1.1465999999999998
1.180841369990958,0,0,0.46686932373046874,0,0,-0.15288000000000002
1.1822264449729118,0,0,-0.0430956298828125,0,0,0.53508
1.1836121309897862,0,0,2.2266075439453124,0,0,0.45864
1.184997668984579,0,0,2.29843359375,0,0,1.2230400000000001
1.1863820769940503,0,0,2.1260510742187497,0,0,0.45864
1.1877680769830476,0,0,0.8738836059570312,0,0,1.60524
1.1891529299900867,0,0,0.16998831787109375,0,0,-0.30576000000000003
1.1905382089898922,0,0,1.158793603515625,0,0,0.7644
1.1919222829747014,0,0,1.6232687255859375,0,0,1.75812
1.193306468980154,0,0,1.7166425903320313,0,0,0.3822
1.1946901549817994,0,0,0.9816226806640624,0,0,0.7644
1.1960739149944857,0,0,0.93852705078125,0,0,1.2230400000000001
1.1974578969820868,0,0,0.3902548706054687,0,0,0.0
1.1988414349907544,0,0,1.7836802368164062,0,0,1.60524
1.200225287990179,0,0,2.710236279296875,0,0,2.2931999999999997
1.2016091589757707,0,0,1.7741034301757812,0,0,0.7644
1.2029927339754067,0,0,1.0630255371093749,0,0,-0.6115200000000001
1.2043779199884739,0,0,0.7829039428710937,0,0,0.6115200000000001
1.2057613279903308,0,0,0.9816226806640624,0,0,-0.45864
1.2071453659737017,0,0,2.3032219970703123,0,0,0.7644
1.2085292919946369,0,0,1.9991583862304687,0,0,2.6754
1.209912866994273,0,0,1.37906015625,0,0,1.37592
1.2112969419977162,0,0,0.42377369384765623,0,0,-9.707880000000001
1.2126744239940308,0,0,-0.29927520751953124,0,0,-0.22932
1.214050035981927,0,0,-0.00718260498046875,0,0,0.6115200000000001
1.215424758993322,0,0,2.6599580444335937,0,0,0.91728
1.216812852973817,0,0,3.3159692993164063,0,0,3.21048
1.218218537978828,0,0,2.319981408691406,0,0,1.98744
1.2196042609866709,0,0,0.7781155395507812,0,0,1.2230400000000001
1.2209877249842975,0,0,-0.19393033447265623,0,0,-0.6115200000000001
1.2223733739810996,0,0,-0.6416460449218749,0,0,-9.555
1.223758744978113,0,0,2.31758720703125,0,0,0.53508
1.2251407089934219,0,0,2.980781066894531,0,0,1.5288
1.2265380609896965,0,0,1.7884686401367187,0,0,1.2994800000000002
1.2279243949742522,0,0,0.8954314208984374,0,0,1.2994800000000002
1.2293164329894353,0,0,-0.19632453613281248,0,0,-0.68796
1.2307008589850739,0,0,1.0103531005859374,0,0,0.30576000000000003
1.2322751539759338,0,0,1.9823989746093749,0,0,1.911
1.2336698769940995,0,0,2.43250888671875,0,0,1.68168
1.2350596179894637,0,0,1.6065093139648436,0,0,0.15288000000000002
1.2364487489976455,0,0,0.2657563842773437,0,0,0.3822
1.2378374159743544,0,0,0.239420166015625,0,0,0.7644
1.2392273979785386,0,0,1.5155296508789062,0,0,1.07016
1.240609490982024,0,0,2.272097375488281,0,0,1.911
1.241988917987328,0,0,2.118868469238281,0,0,1.2230400000000001
1.2433685489813797,0,0,0.5099649536132812,0,0,0.15288000000000002
1.2447586599737406,0,0,0.0383072265625,0,0,-0.99372
1.2461486609827261,0,0,0.12449848632812499,0,0,0.7644
1.2475367539736908,0,0,2.9855694702148434,0,0,1.2994800000000002
1.2489246069744695,0,0,3.0238766967773434,0,0,2.06388
1.2503121999907307,0,0,2.327164013671875,0,0,1.60524
1.2517177749832626,0,0,0.2442085693359375,0,0,0.6115200000000001
1.2531062380003277,0,0,-0.7565677246093749,0,0,-1.2994800000000002
1.2544967949797865,0,0,1.3000515014648437,0,0,0.7644
1.2558859429846052,0,0,2.674323254394531,0,0,1.37592
1.2572725549980532,0,0,3.5027170288085934,0,0,2.82828
1.2586603889940307,0,0,1.7214309936523438,0,0,2.36964
1.2600490379845724,0,0,0.622492431640625,0,0,1.83456
1.261435927997809,0,0,-1.2880804931640624,0,0,-0.84084
1.262825094978325,0,0,0.7158662963867187,0,0,0.0
1.2642139479867183,0,0,2.085349645996094,0,0,1.5288
1.2656013559899293,0,0,3.4452561889648434,0,0,1.83456
1.266988892981317,0,0,2.2026655273437497,0,0,1.45236
1.2683769679861143,0,0,-0.33758243408203126,0,0,0.84084
1.2697651539929211,0,0,-0.9864110839843749,0,0,8.48484
1.2711533209949266,0,0,0.5506663818359374,0,0,0.07644000000000001
1.2725426739780232,0,0,2.645592834472656,0,0,1.68168
1.2739300079992972,0,0,2.418143676757812,0,0,1.1465999999999998
1.275317545980215,0,0,0.93852705078125,0,0,0.22932
1.2767056019802112,0,0,-0.009576806640625,0,0,0.0
1.2780935099872295,0,0,-0.41898529052734373,0,0,0.91728
1.279481436999049,0,0,2.243366955566406,0,0,0.99372
1.280869622976752,0,0,2.980781066894531,0,0,2.14032
1.2822603639797308,0,0,2.7174188842773437,0,0,2.06388
1.2836589389771689,0,0,1.0127473022460938,0,0,1.2230400000000001
1.28504653199343,0,0,-0.2609679809570312,0,0,-0.3822
1.286435587971937,0,0,1.0582371337890624,0,0,0.0
1.287821329984581,0,0,2.0446482177734375,0,0,1.60524
1.2892012929951306,0,0,3.4835634155273434,0,0,1.83456
1.2905800719745457,0,0,1.8555062866210936,0,0,1.1465999999999998
1.291976201988291,0,0,0.842758984375,0,0,0.84084
1.2933716839761473,0,0,-1.4508862060546874,0,0,-1.45236
1.2947601849737111,0,0,0.10295067138671875,0,0,-0.7644
1.2961477229837328,0,0,1.5729904907226562,0,0,1.37592
1.2975360749987885,0,0,3.296815686035156,0,0,1.98744
1.2989236319845077,0,0,2.530671154785156,0,0,1.68168
1.3003108909761067,0,0,-0.12449848632812499,0,0,1.1465999999999998
1.30169839199516,0,0,-1.1348515869140625,0,0,0.15288000000000002
1.3030861519800965,0,0,0.11013327636718749,0,0,-0.22932
1.3044736529991496,0,0,3.066972326660156,0,0,1.911
1.3058617649949156,0,0,3.239354846191406,0,0,2.2167600000000003
1.3072740799980238,0,0,2.0254946044921875,0,0,1.83456
1.308662857976742,0,0,0.12689268798828124,0,0,0.7644
1.3100497849809472,0,0,-0.3112462158203125,0,0,0.53508
1.3114390449773055,0,0,1.1659762084960936,0,0,0.45864
1.3128265269915573,0,0,2.1021090576171875,0,0,0.68796
1.3142137309769168,0,0,2.1404162841796874,0,0,0.84084
1.3156030279933475,0,0,1.254561669921875,0,0,0.30576000000000003
1.316989991988521,0,0,0.23702596435546874,0,0,-1.2994800000000002
1.318377641000552,0,0,0.833182177734375,0,0,0.45864
1.3197658819844946,0,0,1.956062756347656,0,0,2.06388
1.3211524759826716,0,0,2.748543505859375,0,0,1.45236
1.3225389209983405,0,0,1.8028338500976562,0,0,1.83456
1.323926995974034,0,0,1.1563994018554686,0,0,1.07016
1.325313681998523,0,0,-0.22505495605468748,0,0,-0.84084
1.3267021639912855,0,0,1.0031704956054688,0,0,0.30576000000000003
1.3280901459802408,0,0,2.2361843505859373,0,0,2.06388
1.3294764239981305,0,0,2.6048914062499997,0,0,1.911
1.3308627949736547,0,0,2.0350714111328125,0,0,0.84084
1.3333277450001333,0,0,-0.7589619262695312,0,0,-1.1465999999999998
1.3347280239977408,0,0,0.21787235107421873,0,0,-0.68796
1.3361265059793368,0,0,1.3120225097656248,0,0,1.2230400000000001
1.3375140799907967,0,0,2.683900061035156,0,0,1.45236
1.3389010069950018,0,0,2.5713725830078125,0,0,1.5288
1.3402882669761311,0,0,0.7733271362304687,0,0,1.83456
1.3416767119779252,0,0,-0.373495458984375,0,0,0.6115200000000001
1.3430640829901677,0,0,-0.38786066894531246,0,0,0.0
1.3444517139869276,0,0,2.059013427734375,0,0,1.2994800000000002
1.3458399359951727,0,0,2.806004345703125,0,0,1.07016
1.3472266959724948,0,0,2.4899697265625,0,0,1.37592
1.3486132899997756,0,0,1.1947066284179686,0,0,0.91728
1.3499993639998138,0,0,-0.10773907470703124,0,0,0.6115200000000001
1.3513866239809431,0,0,0.8906430175781249,0,0,0.30576000000000003
1.3527732549991924,0,0,1.197100830078125,0,0,0.91728
1.3541591439861804,0,0,1.5490484741210937,0,0,0.6115200000000001
1.3555452559958212,0,0,1.446097802734375,0,0,0.30576000000000003
1.3569329419988208,0,0,0.6177040283203125,0,0,0.07644000000000001
1.3583194239763543,0,0,1.1324573852539062,0,0,0.99372
1.3597074989811517,0,0,2.4516625,0,0,2.4460800000000003
1.361093962972518,0,0,2.521094348144531,0,0,1.68168
1.3624887229816522,0,0,0.9433154541015625,0,0,2.06388
1.3638766489748377,0,0,0.5434837768554687,0,0,1.07016
1.3652639829961117,0,0,-0.02633621826171875,0,0,-1.07016
1.3666555209783837,0,0,1.0869675537109373,0,0,0.15288000000000002
1.3680403549806215,0,0,2.5665841796874997,0,0,1.911
1.3694194299750961,0,0,2.8945898071289062,0,0,2.14032
1.370809226995334,0,0,1.7334020019531249,0,0,1.68168
1.3721983569848817,0,0,-0.2825157958984375,0,0,1.45236
1.3735863579786383,0,0,-1.0295067138671874,0,0,-1.2230400000000001
1.3749754699820187,0,0,0.09816226806640624,0,0,-0.53508
1.376358988985885,0,0,2.612074011230469,0,0,1.45236
1.37773819299764,0,0,2.612074011230469,0,0,0.84084
1.3791177869716194,0,0,1.9919757812499999,0,0,-8.63772
1.3805048429931048,0,0,0.7852981445312499,0,0,1.1465999999999998
1.3818915849842597,0,0,-0.08858546142578125,0,0,0.53508
1.383281881979201,0,0,1.369483349609375,0,0,0.22932
1.3846691039798316,0,0,2.252943762207031,0,0,1.75812
1.3860555869759992,0,0,2.3726538452148436,0,0,1.37592
1.3874422359804157,0,0,1.2785036865234374,0,0,0.3822
1.3888300139806233,0,0,0.699106884765625,0,0,0.84084
1.3902168849890586,0,0,0.9050082275390624,0,0,0.84084
1.3916050150000956,0,0,1.687912170410156,0,0,1.45236
1.3929917379864492,0,0,2.176329309082031,0,0,1.1465999999999998
1.3943780909758061,0,0,1.2425906616210938,0,0,1.2230400000000001
1.395764609973412,0,0,1.1923124267578125,0,0,1.83456
1.3971506849920843,0,0,0.4740519287109375,0,0,0.0
1.3985373149916995,0,0,1.2785036865234374,0,0,0.53508
1.3999244829756208,0,0,2.2673089721679687,0,0,1.60524
1.4013098719879054,0,0,1.7118541870117185,0,0,0.3822
1.4026962619973347,0,0,0.8714894042968749,0,0,0.45864
1.404083762987284,0,0,0.8355763793945312,0,0,0.99372
1.405469559977064,0,0,0.5243301635742187,0,0,0.0
1.4068560789746698,0,0,1.197100830078125,0,0,0.91728
1.408242616977077,0,0,2.3630770385742186,0,0,2.06388
1.4096289689769037,0,0,2.0302830078125,0,0,1.98744
1.411015358986333,0,0,1.0702081420898437,0,0,0.45864
1.412402766989544,0,0,-0.28490999755859375,0,0,0.22932
1.4137904159724712,0,0,-0.07422025146484375,0,0,0.15288000000000002
1.4151782309927512,0,0,2.568978381347656,0,0,0.53508
1.4165642320003826,0,0,3.402160559082031,0,0,2.52252
1.4179505659849383,0,0,3.284844677734375,0,0,1.98744
1.4193373809976038,0,0,0.7996633544921875,0,0,0.45864
1.4207236599759199,0,0,-0.5219359619140624,0,0,-1.2994800000000002
1.422110919986153,0,0,-0.00239420166015625,0,0,-0.22932
1.4234985869843513,0,0,2.1021090576171875,0,0,0.0
1.4248850509757176,0,0,2.9927520751953125,0,0,1.1465999999999998
1.4262708289898,0,0,1.9847931762695312,0,0,1.37592
1.42765821897774,0,0,1.0893617553710937,0,0,1.07016
1.4290447199891787,0,0,-0.031124621582031248,0,0,0.0
1.4304313129978254,0,0,0.2537853759765625,0,0,1.2994800000000002
1.4318186839809641,0,0,1.7573440185546874,0,0,1.83456
1.4332041479938198,0,0,2.5809493896484375,0,0,1.1465999999999998
1.4345898339815903,0,0,1.9488801513671874,0,0,1.5288
1.4359763529791962,0,0,1.1947066284179686,0,0,1.2230400000000001
1.437361760996282,0,0,0.09337386474609374,0,0,-0.68796
1.4387482249876484,0,0,1.1348515869140625,0,0,0.99372
1.4401393739972264,0,0,2.6048914062499997,0,0,2.06388
1.441526503971545,0,0,2.370259643554687,0,0,0.3822
1.4429125229944475,0,0,1.2641384765625,0,0,-0.15288000000000002
1.4442992089898326,0,0,-0.23702596435546874,0,0,0.45864
1.4456864690000657,0,0,-0.028730419921875,0,0,-0.53508
1.44707332199323,0,0,2.7844565307617186,0,0,0.84084
1.448459766979795,0,0,2.901772412109375,0,0,2.36964
1.4498459159804042,0,0,2.5713725830078125,0,0,1.75812
1.4512320639914833,0,0,0.1197100830078125,0,0,0.99372
1.4526188989984803,0,0,-0.852335791015625,0,0,0.45864
1.4540056209953036,0,0,-0.8259995727539062,0,0,-0.30576000000000003
1.4553925479995087,0,0,3.318363500976562,0,0,0.6115200000000001
1.456778455991298,0,0,3.84987626953125,0,0,2.5989600000000004
1.4581649749889039,0,0,2.0638018310546875,0,0,2.98116
1.459551031992305,0,0,0.7589619262695312,0,0,1.1465999999999998
1.4609371989790816,0,0,-1.1468225952148436,0,0,-1.68168
1.4623250699951313,0,0,-0.16998831787109375,0,0,-0.99372
1.4637125149893109,0,0,2.4851813232421875,0,0,0.7644
1.4650980719889048,0,0,3.9624037475585934,0,0,1.45236
1.466484053991735,0,0,2.3127988037109373,0,0,1.98744
1.4678708139981609,0,0,1.177947216796875,0,0,1.60524
1.4692562959971838,0,0,-1.6519991455078125,0,0,-0.45864
1.4706437040003948,0,0,-0.7302315063476562,0,0,-9.555
1.4720325379748829,0,0,1.3623007446289062,0,0,1.98744
1.4734190199815203,0,0,3.5146880371093747,0,0,1.45236
1.4748055769887287,0,0,2.4851813232421875,0,0,2.2167600000000003
1.476192058995366,0,0,0.6153098266601562,0,0,2.2167600000000003
1.477578910999,0,0,-0.7110778930664062,0,0,0.0
1.4789654489723034,0,0,-0.28490999755859375,0,0,0.15288000000000002
1.4803520419809502,0,0,2.3295582153320313,0,0,1.83456
1.4817380619933829,0,0,2.6048914062499997,0,0,1.60524
1.483124135993421,0,0,1.9632453613281249,0,0,-0.30576000000000003
1.484510877984576,0,0,0.6536170532226562,0,0,1.37592
1.485896859987406,0,0,-0.201112939453125,0,0,9.32568
1.4872833979898132,0,0,1.5969325073242187,0,0,0.84084
1.4886745469993912,0,0,2.4109610717773435,0,0,2.14032
1.4900606949813664,0,0,2.042254016113281,0,0,1.98744
1.4914467889757361,0,0,1.1563994018554686,0,0,0.91728
1.4928333269781433,0,0,-0.22744915771484372,0,0,-0.91728
1.4942201979865786,0,0,-0.354341845703125,0,0,-0.15288000000000002
1.495607716991799,0,0,1.7693150268554687,0,0,0.45864
1.496994717977941,0,0,3.1220389648437497,0,0,1.5288
1.4983806259988341,0,0,2.767697119140625,0,0,2.36964
1.4997678669751622,0,0,1.9033903198242186,0,0,2.82828
1.5011535529920366,0,0,-1.5634136840820312,0,0,-0.68796
1.5025405349733774,0,0,-1.3958195678710936,0,0,-0.7644
1.5039283509831876,0,0,1.4101847778320311,0,0,0.15288000000000002
1.5053143699769862,0,0,4.513070129394531,0,0,1.1465999999999998
1.506700333993649,0,0,3.4668040039062498,0,0,1.83456
1.508087094000075,0,0,-0.1484405029296875,0,0,2.06388
1.5094726129900664,0,0,-1.9704279663085937,0,0,-1.2230400000000001
1.5108597249782179,0,0,-1.8195932617187498,0,0,-0.45864
1.512247076985659,0,0,1.5849614990234373,0,0,0.53508
1.5136327449872624,0,0,2.8562825805664063,0,0,0.99372
1.5150189489941113,0,0,2.5450363647460934,0,0,2.06388
1.5164571899804287,0,0,1.3551181396484375,0,0,2.06388
1.517845578986453,0,0,-0.14125789794921875,0,0,0.30576000000000003
1.5192339319910388,0,0,1.2617442749023438,0,0,0.68796
1.5206226729787886,0,0,2.3151930053710936,0,0,1.83456
1.5220098959980533,0,0,2.3367408203125,0,0,2.14032
1.5233971749839839,0,0,1.7717092285156248,0,0,0.99372
1.524778767983662,0,0,0.9720458740234375,0,0,-0.15288000000000002
1.526187082985416,0,0,-0.02154781494140625,0,0,0.0
1.5275703799852636,0,0,1.7286135986328124,0,0,0.6115200000000001
1.5289602509874385,0,0,2.152387292480469,0,0,0.53508
1.5303473079984542,0,0,1.8339584716796873,0,0,1.75812
1.5317539559910074,0,0,1.2497732666015624,0,0,1.37592
1.5331379569834098,0,0,-0.9361328491210937,0,0,-1.1465999999999998
1.5345663089829031,0,0,-0.3902548706054687,0,0,0.07644000000000001
1.5359683279821184,0,0,2.308010400390625,0,0,1.2994800000000002
1.5373475509986747,0,0,3.153163586425781,0,0,1.07016
1.5387273669766728,0,0,2.7437551025390623,0,0,1.83456
1.5401130159734748,0,0,0.93852705078125,0,0,2.52252
1.5415614789817482,0,0,-0.6344634399414062,0,0,-0.53508
1.5429912559920922,0,0,0.9959878906249999,0,0,-0.53508
1.5443922569975257,0,0,2.1619640991210938,0,0,1.2994800000000002
1.5457797389826737,0,0,3.1675287963867187,0,0,1.60524
1.547167072974844,0,0,1.879448303222656,0,0,0.99372
1.548556721973,0,0,1.1540052001953125,0,0,0.7644
1.5499436119862366,0,0,-0.7302315063476562,0,0,0.0
1.5513392969733104,0,0,0.7015010864257812,0,0,-0.6115200000000001
1.552729945979081,0,0,1.5921441040039062,0,0,0.53508
1.5541171319782734,0,0,2.3151930053710936,0,0,1.37592
1.5555036699806806,0,0,2.442085693359375,0,0,1.07016
1.5568908369750716,0,0,1.848323681640625,0,0,1.2994800000000002
1.5582775789953303,0,0,0.2154781494140625,0,0,1.45236
1.5596652279782575,0,0,0.9624690673828125,0,0,0.30576000000000003
1.5610545429808553,0,0,1.889025109863281,0,0,0.0
1.5624439879902638,0,0,1.7860744384765623,0,0,0.68796
1.563831804000074,0,0,2.1068974609374997,0,0,1.45236
1.5652331189776305,0,0,0.45489831542968745,0,0,-0.15288000000000002
1.5666246569890063,0,0,0.4381389038085937,0,0,1.45236
1.5680093609844334,0,0,1.4796166259765624,0,0,1.83456
1.569388824980706,0,0,1.8818425048828125,0,0,1.07016
1.5707678439794108,0,0,0.948103857421875,0,0,0.53508
1.5721653629734647,0,0,0.82360537109375,0,0,1.45236
1.5735535860003438,0,0,0.4165910888671875,0,0,-0.30576000000000003
1.5749416049802676,0,0,2.5953145996093747,0,0,0.3822
1.576335827994626,0,0,2.8730419921875,0,0,1.75812
1.5777229219966102,0,0,2.9568390502929685,0,0,1.98744
1.579109995975159,0,0,1.158793603515625,0,0,0.99372
1.5804926269920543,0,0,0.18914193115234373,0,0,0.45864
1.5818877379933838,0,0,-0.7924807495117187,0,0,-9.784320000000001
1.584269596991362,0,0,2.5067291381835934,0,0,1.5288
1.5856827819952741,0,0,2.839523168945312,0,0,1.45236
1.5870716529898345,0,0,1.1276689819335937,0,0,0.3822
1.5884603949962184,0,0,0.28730419921875,0,0,0.6115200000000001
1.5898477469745558,0,0,-0.373495458984375,0,0,0.68796
1.5912563589808997,0,0,1.7669208251953124,0,0,0.15288000000000002
1.5926436739973724,0,0,2.4444798950195312,0,0,1.68168
1.5940308419812936,0,0,1.7310078002929687,0,0,1.2994800000000002
1.59542386099929,0,0,1.2330138549804688,0,0,0.6115200000000001
1.5968103249906562,0,0,0.6655880615234374,0,0,0.84084
1.59819699198124,0,0,0.6751648681640625,0,0,0.3822
1.5995837699738331,0,0,2.2002713256835937,0,0,0.53508
1.6009867149987258,0,0,2.437297290039062,0,0,0.99372
1.602373900997918,0,0,1.4820108276367188,0,0,1.68168
1.6037621059804223,0,0,1.0486603271484374,0,0,1.45236
1.605147735972423,0,0,-0.29927520751953124,0,0,-0.7644
1.6065593659877777,0,0,0.43574470214843747,0,0,1.75812
1.6079504219815135,0,0,2.5570073730468748,0,0,1.83456
1.6093490899947938,0,0,2.5953145996093747,0,0,1.1465999999999998
1.6107363679911941,0,0,1.9512743530273435,0,0,1.1465999999999998
1.6121404059813358,0,0,0.13168109130859373,0,0,1.45236
1.6135272029787302,0,0,-0.4070142822265625,0,0,-0.7644
1.6149152219877578,0,0,2.5163059448242184,0,0,0.53508
1.6163037219957914,0,0,2.710236279296875,0,0,1.60524
1.617690667975694,0,0,3.0047230834960934,0,0,1.2230400000000001
1.6190772049885709,0,0,1.024718310546875,0,0,0.45864
1.6204641499789432,0,0,0.11731588134765625,0,0,0.6115200000000001
1.6218508549791295,0,0,-0.8762778076171874,0,0,0.07644000000000001
1.6232385219773278,0,0,2.2194249389648437,0,0,0.0
1.6246255969745107,0,0,3.0214824951171875,0,0,2.36964
1.6260120419901796,0,0,1.838746875,0,0,1.75812
1.6273982469865587,0,0,0.9864110839843749,0,0,1.911
1.628785524982959,0,0,-0.28012159423828126,0,0,-0.45864
1.63017293298617,0,0,0.09337386474609374,0,0,0.53508
1.631559544999618,0,0,2.3774422485351563,0,0,0.0
1.63294636097271,0,0,3.2441432495117186,0,0,1.2994800000000002
1.6343329539813567,0,0,1.9033903198242186,0,0,1.2994800000000002
1.6357199359918013,0,0,1.35990654296875,0,0,0.3822
1.6371059179946315,0,0,-0.8834604125976562,0,0,-1.2994800000000002
1.638494066981366,0,0,0.181959326171875,0,0,0.53508
1.6398811229737476,0,0,2.932897033691406,0,0,1.5288
1.6412665129755624,0,0,3.3207577026367185,0,0,1.07016
1.6426533279882278,0,0,1.6256629272460936,0,0,1.07016
1.644042810978135,0,0,-0.6153098266601562,0,0,0.91728
1.645429810974747,0,0,-0.948103857421875,0,0,-1.37592
1.6468175339978188,0,0,2.5378537597656248,0,0,0.15288000000000002
1.6482041089911945,0,0,3.430890979003906,0,0,2.6754
1.6496021099737845,0,0,3.718195178222656,0,0,1.98744
1.6509889439912513,0,0,1.216254443359375,0,0,1.5288
1.6523756299866363,0,0,-0.22266075439453123,0,0,0.3822
1.6537700009939726,0,0,-1.5682020874023437,0,0,-0.3822
1.6551577609789092,0,0,2.0925322509765625,0,0,-0.45864
1.656561834999593,0,0,3.0358477050781247,0,0,1.60524
1.6579486139817163,0,0,2.501940734863281,0,0,1.911
1.6593358179961797,0,0,2.1260510742187497,0,0,0.99372
1.6607223189785145,0,0,0.37828386230468747,0,0,-8.867040000000001
1.6621093189751264,0,0,-0.9074024291992187,0,0,0.68796
1.6634965979901608,0,0,1.1085153686523437,0,0,-0.53508
1.6648840989801101,0,0,3.5865140869140624,0,0,0.84084
1.6662714699923526,0,0,2.408566870117187,0,0,1.37592
1.6677212289941963,0,0,2.070984436035156,0,0,1.68168
1.6691122479969636,0,0,-0.928950244140625,0,0,-0.30576000000000003
1.6705436739721335,0,0,-0.6488286499023437,0,0,0.0
1.6721377649810165,0,0,1.9823989746093749,0,0,1.5288
1.6735280989960302,0,0,3.0621839233398433,0,0,0.84084
1.674917635973543,0,0,2.375048046875,0,0,1.2230400000000001
1.6763091739849187,0,0,0.9840168823242187,0,0,2.4460800000000003
1.677697803999763,0,0,-0.30406361083984373,0,0,0.0
1.6790874159778468,0,0,1.3431471313476562,0,0,0.07644000000000001
1.680471083993325,0,0,2.375048046875,0,0,1.911
1.6818509179865941,0,0,1.89620771484375,0,0,1.07016
1.6832303259870969,0,0,2.35589443359375,0,0,0.91728
1.684617659979267,0,0,1.0893617553710937,0,0,0.0
1.686002512986306,0,0,-0.5003881469726562,0,0,0.45864
1.6873885129753035,0,0,1.0031704956054688,0,0,-0.45864
1.6888013649731874,0,0,2.7174188842773437,0,0,1.07016
1.6901960329851136,0,0,1.9584569580078124,0,0,1.1465999999999998
1.691583403997356,0,0,2.3965958618164063,0,0,1.60524
1.6929964229930192,0,0,-0.33039982910156246,0,0,-0.84084
1.6943874049757142,0,0,-0.689530078125,0,0,-0.15288000000000002
1.6957744609971996,0,0,2.2290017456054687,0,0,0.91728
1.697172720974777,0,0,3.1387983764648437,0,0,1.07016
1.6985524619813077,0,0,2.3822306518554686,0,0,2.14032
1.6999377219763119,0,0,0.6679822631835937,0,0,2.4460800000000003
1.7013247969734948,0,0,-0.8954314208984374,0,0,-0.84084
1.7027121129794978,0,0,-1.199495031738281,0,0,-0.53508
1.7041001509933267,0,0,2.327164013671875,0,0,1.911
1.7054862809891347,0,0,3.162740393066406,0,0,0.6115200000000001
1.7068727259756997,0,0,2.2553379638671873,0,0,1.68168
1.7082678379956633,0,0,0.9911994873046874,0,0,1.98744
1.7096541529754177,0,0,-0.49799394531249996,0,0,20
1.7110411539906636,0,0,0.9050082275390624,0,0,-0.7644
1.712428265978815,0,0,2.138022082519531,0,0,1.68168
1.7138144329946954,0,0,3.21780703125,0,0,1.60524
1.7152004889794625,0,0,2.5570073730468748,0,0,1.37592
1.716586822993122,0,0,1.13006318359375,0,0,1.45236
1.7179732129734475,0,0,-1.1635820068359375,0,0,0.0
1.7193602319748607,0,0,0.44532150878906246,0,0,-0.68796
1.7207473259768449,0,0,2.834734765625,0,0,1.75812
1.722133548988495,0,0,2.592920397949219,0,0,2.06388
1.7235191419895273,0,0,2.319981408691406,0,0,1.07016
1.7249048829835374,0,0,0.17477672119140625,0,0,0.45864
1.7262912359728944,0,0,-0.7996633544921875,0,0,0.68796
1.727678865980124,0,0,0.737414111328125,0,0,0.68796
1.7290647929767147,0,0,2.3247698120117186,0,0,0.45864
1.730450237984769,0,0,1.8555062866210936,0,0,1.911
1.7318372569861822,0,0,1.3168109130859373,0,0,1.37592
1.7332241099793464,0,0,0.076614453125,0,0,-1.2994800000000002
1.7346109439968131,0,0,0.047884033203124995,0,0,0.22932
1.7359982219932135,0,0,1.8555062866210936,0,0,0.99372
1.737383592990227,0,0,2.549824768066406,0,0,0.6115200000000001
1.738769464980578,0,0,2.0781670410156248,0,0,1.68168
1.7401558169804048,0,0,0.9217676391601562,0,0,1.68168
1.741549132973887,0,0,-0.047884033203124995,0,0,-0.68796
1.7429360409732908,0,0,1.0342951171875,0,0,-0.6115200000000001
1.744322837999789,0,0,1.8028338500976562,0,0,2.14032
1.7457088379887864,0,0,2.1404162841796874,0,0,0.91728
1.7470945429813582,0,0,2.252943762207031,0,0,1.60524
1.7484805989952292,0,0,0.9816226806640624,0,0,1.2230400000000001
1.7498656739771832,0,0,-0.9193734375,0,0,-0.22932
1.7512530259846244,0,0,0.3136404174804687,0,0,8.867040000000001
1.7526392489962745,0,0,1.879448303222656,0,0,1.2994800000000002
1.7542209509992972,0,0,2.6719290527343746,0,0,2.98116
1.7556137299980037,0,0,2.93050283203125,0,0,2.2167600000000003
1.7570005449815653,0,0,0.25139117431640623,0,0,0.30576000000000003
1.7583870089729317,0,0,-0.7733271362304687,0,0,0.3822
1.759775083977729,0,0,1.120486376953125,0,0,0.0
1.7611590099986643,0,0,2.147598889160156,0,0,-0.30576000000000003
1.7625730849977117,0,0,2.24097275390625,0,0,1.75812
1.7639584559947252,0,0,1.6136919189453125,0,0,2.2931999999999997
1.7653525679779705,0,0,0.33518823242187495,0,0,-0.3822
1.766765234991908,0,0,0.7493851196289062,0,0,0.91728
1.7681562539946754,0,0,1.5394716674804687,0,0,1.68168
1.7695364769897424,0,0,2.39420166015625,0,0,1.07016
1.7709156629862264,0,0,1.9656395629882812,0,0,0.53508
1.7722967749868985,0,0,1.0797849487304687,0,0,2.52252
1.773675997974351,0,0,0.11013327636718749,0,0,8.56128
1.7750552209909074,0,0,1.467645617675781,0,0,0.3822
1.7764404989720788,0,0,2.310404602050781,0,0,2.36964
1.7778197409934364,0,0,1.6472107421875,0,0,1.2230400000000001
1.779198500997154,0,0,1.4604630126953124,0,0,0.6115200000000001
1.7805791309801862,0,0,0.30885201416015623,0,0,0.07644000000000001
1.7819581689836923,0,0,-0.6727706665039062,0,0,-0.6115200000000001
1.7833391329913866,0,0,1.4030021728515625,0,0,-0.3822
1.78473333697184,0,0,3.2441432495117186,0,0,2.14032
1.7861189859977458,0,0,1.9776105712890624,0,0,2.4460800000000003
1.7875034129829146,0,0,1.6041151123046875,0,0,1.37592
1.788904098997591,0,0,-0.4070142822265625,0,0,-9.555
1.7902925989765208,0,0,-0.5434837768554687,0,0,1.07016
1.791680099995574,0,0,2.540247961425781,0,0,0.45864
1.7930662489961833,0,0,3.248931652832031,0,0,0.99372
1.7945719889830798,0,0,2.379836450195312,0,0,2.4460800000000003
1.7960838209837675,0,0,1.2138602416992186,0,0,2.2931999999999997
1.7979031869908795,0,0,-0.5913678100585937,0,0,-0.30576000000000003
1.7993879639834631,0,0,0.7996633544921875,0,0,0.0
1.8009138149791397,0,0,2.6791116577148437,0,0,0.22932
1.8024247579742223,0,0,1.7525556152343749,0,0,2.4460800000000003
1.803942627971992,0,0,0.8020575561523438,0,0,2.4460800000000003
1.805441978998715,0,0,0.26336218261718747,0,0,-0.6115200000000001
1.8069966439798009,0,0,1.4341267944335936,0,0,0.30576000000000003
1.8084599399880972,0,0,2.3870190551757813,0,0,1.83456
1.809924865985522,0,0,1.707065783691406,0,0,1.37592
1.8113595689937938,0,0,1.407790576171875,0,0,1.07016
1.8127798099885695,0,0,-0.1388636962890625,0,0,0.0
1.8141636999789625,0,0,-0.08858546142578125,0,0,1.45236
1.8155839779938105,0,0,2.2577321655273437,0,0,1.45236
1.8169892929727212,0,0,3.287238879394531,0,0,1.37592
1.8183684979740065,0,0,2.128445275878906,0,0,2.36964
1.81975723899086,0,0,-0.1197100830078125,0,0,1.45236
1.8211409809882753,0,0,-1.2904746948242187,0,0,-2.2167600000000003
1.8225951099884696,0,0,-1.139639990234375,0,0,0.45864
1.8239799439907074,0,0,3.208230224609375,0,0,0.91728
1.825364037998952,0,0,3.8953661010742184,0,0,0.22932
1.8267865749949124,0,0,1.4604630126953124,0,0,1.60524
1.8281875760003459,0,0,0.5386953735351562,0,0,2.2931999999999997
1.829574427974876,0,0,-0.9337386474609375,0,0,-1.2230400000000001
1.8309730579785537,0,0,1.1228805786132812,0,0,0.0
1.8323611329833511,0,0,2.8131869506835936,0,0,2.4460800000000003
1.8337947259715293,0,0,2.6623522460937497,0,0,1.68168
1.8353350209945347,0,0,1.915361328125,0,0,1.2994800000000002
1.8367408179910854,0,0,-0.9888052856445312,0,0,0.30576000000000003
1.838131465978222,0,0,-1.4413093994140624,0,0,-0.45864
1.8395323739969172,0,0,0.8403647827148437,0,0,-0.68796
1.840922244999092,0,0,3.9528269409179684,0,0,0.91728
1.842346319986973,0,0,2.6240450195312497,0,0,2.5989600000000004
1.8438127449771855,0,0,0.3016694091796875,0,0,1.68168
1.8452010979817715,0,0,-1.0678139404296874,0,0,-1.2994800000000002
1.8465996349987108,0,0,0.7924807495117187,0,0,0.15288000000000002
1.8479891359747853,0,0,2.636016027832031,0,0,0.68796
1.8493764519807883,0,0,3.840299462890625,0,0,0.53508
1.8507643409830052,0,0,1.956062756347656,0,0,1.911
1.8521527489938308,0,0,0.4572925170898437,0,0,2.82828
1.8535396389779635,0,0,-1.1228805786132812,0,0,-1.911
1.854928842978552,0,0,0.7613561279296874,0,0,-0.15288000000000002
1.8563119739992544,0,0,3.0693665283203124,0,0,1.75812
1.857691047975095,0,0,3.5769372802734374,0,0,0.99372
1.8590702159854118,0,0,2.5234885498046875,0,0,1.68168
1.860458827984985,0,0,0.7493851196289062,0,0,1.68168
1.8619839009770658,0,0,-2.2864625854492187,0,0,8.4084
1.863373549975222,0,0,-0.1149216796875,0,0,-1.45236
1.8647636429814156,0,0,4.096479040527344,0,0,2.06388
1.8661506439966615,0,0,3.385401147460937,0,0,2.4460800000000003
1.8675380329950713,0,0,2.6862942626953124,0,0,1.45236
1.8689259229868185,0,0,-1.1707646118164061,0,0,-0.30576000000000003
1.87031481199665,0,0,-2.4061726684570313,0,0,-0.6115200000000001
1.8717171649914235,0,0,1.5849614990234373,0,0,8.0262
1.8730972209887113,0,0,3.7229835815429686,0,0,0.53508
1.874495146999834,0,0,3.5865140869140624,0,0,2.2931999999999997
1.8758823329990264,0,0,0.8451531860351562,0,0,0.84084
1.8772691299964208,0,0,-0.6847416748046875,0,0,20
1.8786568159994204,0,0,-1.5562310791015623,0,0,0.0
1.880044816993177,0,0,1.0079588989257813,0,0,-1.1465999999999998
1.8814300029771402,0,0,2.4851813232421875,0,0,-9.172799999999999
1.8828168919717427,0,0,1.8171990600585937,0,0,1.45236
1.8842019669828005,0,0,1.0271125122070313,0,0,0.0
1.885602652997477,0,0,-1.7932570434570312,0,0,-0.22932
1.8869893759838305,0,0,-1.9704279663085937,0,0,0.0
1.8883913019963074,0,0,1.1372457885742187,0,0,-1.45236
1.889772821974475,0,0,3.4428619873046875,0,0,3.4398000000000004
1.8911522849812172,0,0,2.2098481323242187,0,0,0.91728
1.8925411559757777,0,0,0.4477157104492187,0,0,0.7644
1.8939355089969467,0,0,-1.3670891479492187,0,0,2.6754
1.8953240649716463,0,0,-1.2976572998046874,0,0,6.72672
1.8967117879947182,0,0,2.442085693359375,0,0,0.53508
1.8980984929949045,0,0,3.1387983764648437,0,0,0.99372
1.899485714995535,0,0,4.283226770019531,0,0,0.45864
1.9008666609879583,0,0,1.6041151123046875,0,0,2.4460800000000003
1.9022450869961176,0,0,-0.239420166015625,0,0,-2.06388
1.9037666599906515,0,0,-2.47081611328125,0,0,-1.37592
1.9051780499867164,0,0,-1.9608511596679685,0,0,-1.68168
1.906575309985783,0,0,2.5953145996093747,0,0,-0.22932
1.9079657179827336,0,0,2.5953145996093747,0,0,2.36964
1.9093515329877846,0,0,2.1691467041015624,0,0,1.2994800000000002
1.9107387559779454,0,0,0.3854664672851562,0,0,4.12776
1.9121437199937645,0,0,-0.7398083129882812,0,0,-2.4460800000000003
1.9135332199803088,0,0,0.0430956298828125,0,0,1.37592
1.9149197019869462,0,0,0.5267243652343749,0,0,-1.2994800000000002
1.91630342497956,0,0,3.7421371948242186,0,0,2.2167600000000003
1.9176822409790475,0,0,3.0909143432617188,0,0,0.84084
1.9190762419893872,0,0,2.5450363647460934,0,0,3.66912
1.9204670389881358,0,0,0.1292868896484375,0,0,1.37592
1.9218545759795234,0,0,-1.235408056640625,0,0,-1.83456
1.923242744000163,0,0,-1.936909143066406,0,0,-1.98744
1.924630929977866,0,0,0.9241618408203125,0,0,7.10892
1.9260180599812884,0,0,2.085349645996094,0,0,1.2994800000000002
1.9274051529937424,0,0,2.7629087158203123,0,0,1.5288
1.9287928949925117,0,0,0.7541735229492187,0,0,1.98744
1.9301796919899061,0,0,-0.26815058593749996,0,0,0.6115200000000001
1.9315668779890984,0,0,-0.4477157104492187,0,0,-0.15288000000000002
1.9329486189817544,0,0,0.430956298828125,0,0,-1.1465999999999998
1.9343278239830397,0,0,1.1156979736328125,0,0,-0.45864
1.935722916998202,0,0,2.224213342285156,0,0,0.99372
1.937109750986565,0,0,2.0183119995117185,0,0,0.45864
1.9384956769936252,0,0,0.9935936889648437,0,0,1.68168
1.9398825489915907,0,0,0.16998831787109375,0,0,0.0
1.9412679199886043,0,0,-0.5291185668945312,0,0,-0.22932
1.9428012699936517,0,0,0.14604630126953125,0,0,-0.53508
1.9442065119801555,0,0,0.5363011718749999,0,0,0.30576000000000003
1.945593974989606,0,0,0.8595183959960937,0,0,-0.53508
1.9469808459980413,0,0,0.6847416748046875,0,0,0.0
1.9483671249763574,0,0,0.258573779296875,0,0,0.0
1.949753550987225,0,0,0.7302315063476562,0,0,-0.30576000000000003
1.9511400339833926,0,0,1.1827356201171875,0,0,0.68796
1.9525260529771913,0,0,1.7405846069335937,0,0,0.91728
1.953912164986832,0,0,1.2234370483398436,0,0,0.91728
1.9552978139836341,0,0,0.86191259765625,0,0,0.6115200000000001
1.95668457399006,0,0,0.70868369140625,0,0,0.45864
1.958071036991896,0,0,0.33758243408203126,0,0,-0.3822
1.9594571679772343,0,0,1.1061211669921875,0,0,0.0
1.960842241998762,0,0,1.1085153686523437,0,0,-0.30576000000000003
1.9622728169779293,0,0,0.4477157104492187,0,0,0.6115200000000001
1.9636867979716044,0,0,0.8403647827148437,0,0,0.22932
1.965082242997596,0,0,0.3399766357421875,0,0,0.84084
1.9664782259787899,0,0,0.04548983154296875,0,0,0.6115200000000001
1.9678597819874994,0,0,0.28490999755859375,0,0,0.3822
1.9692396719765384,0,0,0.07422025146484375,0,0,0.07644000000000001
1.970618912979262,0,0,1.455674609375,0,0,20
1.9720016359933652,0,0,2.0159177978515626,0,0,0.6115200000000001
1.9733817849773914,0,0,1.8914193115234375,0,0,1.07016
1.9747607119788881,0,0,1.3072341064453123,0,0,0.99372
1.9761416939727496,0,0,0.7278373046875,0,0,0.99372
1.9775207319762558,0,0,-0.8164227661132812,0,0,-2.14032
1.9789026769867633,0,0,-0.009576806640625,0,0,-0.45864
1.980285029974766,0,0,1.177947216796875,0,0,0.22932
1.9816637899784837,0,0,1.675941162109375,0,0,1.07016
1.9830422169761732,0,0,0.47644613037109373,0,0,1.07016
1.9844268099986948,0,0,0.3495534423828125,0,0,0.22932
1.9858107369800564,0,0,0.04548983154296875,0,0,1.07016
1.9871944969927426,0,0,-0.0143652099609375,0,0,-0.3822
1.988651032996131,0,0,1.6472107421875,0,0,0.84084
1.9900390709808562,0,0,1.8315642700195311,0,0,0.6115200000000001
1.9914261089870706,0,0,0.8930372192382812,0,0,0.22932
1.9928140539850574,0,0,0.5602431884765625,0,0,0.3822
1.9942010919912718,0,0,0.7517793212890624,0,0,-0.45864
1.9956040369870607,0,0,0.4644751220703125,0,0,0.0
1.9969926489866339,0,0,0.507570751953125,0,0,-0.45864
1.9983798529719934,0,0,0.9864110839843749,0,0,0.15288000000000002
1.9997679649968632,0,0,1.0223241088867188,0,0,0.15288000000000002
2.0011540769774,0,0,0.9361328491210937,0,0,0.45864
2.0025405589840375,0,0,0.06464344482421874,0,0,0.15288000000000002
2.003939021989936,0,0,0.143652099609375,0,0,0.30576000000000003
2.0053260419808794,0,0,0.9576806640625,0,0,0.45864
2.006719893979607,0,0,1.4604630126953124,0,0,1.07016
2.0081078209914267,0,0,1.2042834350585936,0,0,0.91728
2.00949459898402,0,0,0.48123453369140623,0,0,0.15288000000000002
2.0108810999954585,0,0,0.4955997436523437,0,0,0.0
2.0122681929788087,0,0,1.197100830078125,0,0,0.0
2.013655637972988,0,0,1.2210428466796874,0,0,0.45864
2.0150428239721805,0,0,0.9648632690429687,0,0,0.0
2.016435694997199,0,0,0.33039982910156246,0,0,0.0
2.017822139983764,0,0,0.5147533569335937,0,0,-0.30576000000000003
2.019209547986975,0,0,0.70868369140625,0,0,0.15288000000000002
2.020596881979145,0,0,1.0223241088867188,0,0,0.3822
2.0219839199853595,0,0,0.9121908325195311,0,0,0.07644000000000001
2.023370864975732,0,0,-0.00239420166015625,0,0,0.0
2.024758439976722,0,0,0.13646949462890623,0,0,0.0
2.026144958974328,0,0,0.8882488159179687,0,0,0.07644000000000001
2.027532052976312,0,0,1.5538368774414062,0,0,1.1465999999999998
2.028919126983965,0,0,1.5131354492187499,0,0,1.07016
2.030306461994769,0,0,1.1875240234375,0,0,1.07016
2.0317081659741234,0,0,0.277727392578125,0,0,0.6115200000000001
2.0330953519733157,0,0,0.023942016601562498,0,0,-0.6115200000000001
2.034482722985558,0,0,0.6967126831054687,0,0,-0.22932
2.0358727049897425,0,0,1.6328455322265625,0,0,0.30576000000000003
2.0372586129815318,0,0,1.6831237670898436,0,0,0.84084
2.038646113971481,0,0,1.0390835205078124,0,0,0.53508
2.0400339479965623,0,0,0.45968671875,0,0,0.30576000000000003
2.041420985973673,0,0,-0.22266075439453123,0,0,-0.6115200000000001
2.0428094119997695,0,0,0.229843359375,0,0,-0.68796
2.0441965049831197,0,0,0.7757213378906249,0,0,0.0
2.0455781539785676,0,0,1.5298948608398437,0,0,0.3822
2.046956821985077,0,0,1.5107412475585937,0,0,0.91728
2.0494528639828786,0,0,0.15322890625,0,0,0.53508
2.0508526239718776,0,0,0.2154781494140625,0,0,0.15288000000000002
2.0522394019935746,0,0,0.49799394531249996,0,0,0.3822
2.0536256069899537,0,0,1.4437036010742186,0,0,-0.30576000000000003
2.0550126069865655,0,0,1.2641384765625,0,0,0.53508
2.0563986269989982,0,0,1.2880804931640624,0,0,0.6115200000000001
2.057784886972513,0,0,0.74699091796875,0,0,0.0
2.059170868975343,0,0,0.63206923828125,0,0,0.68796
2.0605575729859993,0,0,0.507570751953125,0,0,-0.15288000000000002
2.0619519999891054,0,0,0.7733271362304687,0,0,0.07644000000000001
2.063338185980683,0,0,0.6967126831054687,0,0,0.30576000000000003
2.06472429697169,0,0,0.8020575561523438,0,0,-9.707880000000001
2.066110501997173,0,0,0.6416460449218749,0,0,0.53508
2.0674962060002144,0,0,1.158793603515625,0,0,0.45864
2.0688821509829722,0,0,0.5913678100585937,0,0,0.7644
2.0702688559831586,0,0,0.43574470214843747,0,0,0.3822
2.0716560969885904,0,0,0.8810662109374999,0,0,0.30576000000000003
2.073042338975938,0,0,1.0821791503906248,0,0,0.6115200000000001
2.0744286169938277,0,0,1.6903063720703124,0,0,0.30576000000000003
2.0758157659729477,0,0,1.2282254516601563,0,0,1.2230400000000001
2.077201044972753,0,0,1.254561669921875,0,0,1.07016
2.078587192983832,0,0,0.8882488159179687,0,0,0.45864
2.079974193999078,0,0,1.1755530151367186,0,0,0.3822
2.08135965798283,0,0,1.5442600708007812,0,0,0.6115200000000001
2.082745787978638,0,0,1.6304513305664061,0,0,0.91728
2.084202917991206,0,0,1.599326708984375,0,0,0.6115200000000001
2.0856730839877855,0,0,1.369483349609375,0,0,0.7644
2.0870603069779463,0,0,1.2042834350585936,0,0,0.45864
2.0884648629871663,0,0,1.2378022583007813,0,0,0.3822
2.0898538819747046,0,0,1.2761094848632812,0,0,0.84084
2.0912416979845148,0,0,1.235408056640625,0,0,0.99372
2.092629531980492,0,0,1.0869675537109373,0,0,0.99372
2.0940163289778866,0,0,1.216254443359375,0,0,1.1465999999999998
2.0954216809768695,0,0,1.5227122558593749,0,0,0.7644
2.0968027929775417,0,0,1.4413093994140624,0,0,0.84084
2.0981816459971014,0,0,1.5322890624999999,0,0,1.07016
2.099559905997012,0,0,1.1276689819335937,0,0,0.84084
2.1009487949777395,0,0,1.199495031738281,0,0,0.84084
2.102335443982156,0,0,1.1324573852539062,0,0,0.45864
2.1037224819883704,0,0,1.22583125,0,0,0.3822
2.1051082969934214,0,0,1.3048399047851562,0,0,0.0
2.106494149978971,0,0,1.3766659545898436,0,0,0.53508
2.1078814099892043,0,0,1.2378022583007813,0,0,0.45864
2.109271262976108,0,0,1.1348515869140625,0,0,0.68796
2.110657484998228,0,0,1.20667763671875,0,0,0.84084
2.1120408199785743,0,0,1.0749965454101562,0,0,0.91728
2.113419208995765,0,0,1.2521674682617188,0,0,0.99372
2.114797672984423,0,0,1.350329736328125,0,0,0.84084
2.1164607440005057,0,0,1.4867992309570313,0,0,0.7644
2.1179161699838005,0,0,1.3383587280273437,0,0,0.68796
2.119346132996725,0,0,1.4030021728515625,0,0,0.68796
2.120793521986343,0,0,1.3000515014648437,0,0,1.07016
2.1222333739860915,0,0,1.1420341918945311,0,0,0.84084
2.1236948179721367,0,0,1.1947066284179686,0,0,0.7644
2.1251725209876895,0,0,1.2976572998046874,0,0,0.68796
2.126667501986958,0,0,1.5107412475585937,0,0,0.84084
2.1281323169823736,0,0,1.2737152832031249,0,0,0.7644
2.129578149993904,0,0,1.5083470458984374,0,0,0.91728
2.1311812399944756,0,0,1.1875240234375,0,0,1.2230400000000001
2.1326809249876533,0,0,1.0199299072265624,0,0,0.84084
2.134167146985419,0,0,1.1324573852539062,0,0,0.6115200000000001
2.135688737995224,0,0,1.3646949462890625,0,0,1.07016
2.1370952199795283,0,0,1.5682020874023437,0,0,0.91728
2.138477183994837,0,0,1.388636962890625,0,0,0.53508
2.139882665971527,0,0,1.6519991455078125,0,0,0.7644
2.1412647589750122,0,0,1.180341418457031,0,0,0.91728
2.1426442230003886,0,0,1.1755530151367186,0,0,0.84084
2.144025852991035,0,0,1.2018892333984375,0,0,0.30576000000000003
2.14540468697669,0,0,1.1540052001953125,0,0,0.53508
2.1467836699739564,0,0,1.3910311645507811,0,0,0.22932
2.1481645409949124,0,0,1.407790576171875,0,0,0.68796
2.1495434119715355,0,0,1.599326708984375,0,0,1.1465999999999998
2.1509227089991327,0,0,1.4796166259765624,0,0,0.7644
2.152303802984534,0,0,1.1109095703125,0,0,0.84084
2.1536853589932434,0,0,0.9552864624023437,0,0,0.3822
2.15506404498592,0,0,1.197100830078125,0,0,0.53508
2.1564509899762925,0,0,1.4437036010742186,0,0,1.1465999999999998
2.1578299349930603,0,0,1.5370774658203123,0,0,0.91728
2.1592088249744847,0,0,1.4891934326171874,0,0,0.91728
2.160588380997069,0,0,1.4867992309570313,0,0,1.07016
2.1619670859945472,0,0,1.149216796875,0,0,0.7644
2.1633511609979905,0,0,1.1851298217773436,0,0,0.7644
2.1647321799828205,0,0,1.3144167114257812,0,0,0.53508
2.1661144589888863,0,0,1.3934253662109375,0,0,0.68796
2.1674948669970036,0,0,1.4221557861328125,0,0,0.22932
2.1688770159962587,0,0,1.47482822265625,0,0,0.45864
2.1702557759999763,0,0,1.407790576171875,0,0,0.91728
2.1716577949991915,0,0,1.2210428466796874,0,0,0.6115200000000001
2.173046091978904,0,0,1.197100830078125,0,0,0.99372
2.1744320929865353,0,0,1.209071838378906,0,0,0.6115200000000001
2.1758177779847756,0,0,1.1707646118164061,0,0,0.6115200000000001
2.177201945974957,0,0,1.3910311645507811,0,0,0.99372
2.1785865019774064,0,0,1.5275006591796874,0,0,0.7644
2.180217832996277,0,0,1.4891934326171874,0,0,0.84084
2.181632184976479,0,0,1.4987702392578124,0,0,0.7644
2.1830278339912184,0,0,1.0869675537109373,0,0,1.07016
2.1844268899876624,0,0,1.139639990234375,0,0,0.7644
2.1858139089890756,0,0,1.1468225952148436,0,0,0.45864
2.1872002799937036,0,0,1.3383587280273437,0,0,0.84084
2.1885885589872487,0,0,1.4796166259765624,0,0,0.3822
2.1899756149796303,0,0,1.446097802734375,0,0,0.7644
2.1913618199760094,0,0,1.5801730957031248,0,0,1.07016
2.1927487089997157,0,0,1.2808978881835937,0,0,0.91728
2.1941352839930914,0,0,1.16837041015625,0,0,0.6115200000000001
2.195521765999729,0,0,1.180341418457031,0,0,0.7644
2.196908118989086,0,0,1.0773907470703123,0,0,0.53508
2.198294193978654,0,0,1.4030021728515625,0,0,0.7644
2.199682008998934,0,0,1.5227122558593749,0,0,0.6115200000000001
2.2010684169945307,0,0,1.5179238525390624,0,0,0.7644
2.202454806974856,0,0,1.3551181396484375,0,0,0.6115200000000001
2.2038419929740485,0,0,1.3120225097656248,0,0,1.07016
2.205227844999172,0,0,1.1420341918945311,0,0,0.7644
2.2066257349797525,0,0,1.1324573852539062,0,0,0.68796
2.208014642994385,0,0,1.1085153686523437,0,0,1.1465999999999998
2.2093991069996264,0,0,1.35990654296875,0,0,0.6115200000000001
2.210785514995223,0,0,1.3072341064453123,0,0,0.7644
2.212172274972545,0,0,1.426944189453125,0,0,0.91728
2.2135584419884253,0,0,1.216254443359375,0,0,0.91728
2.2149443499802146,0,0,1.3766659545898436,0,0,0.68796
2.2163506469805725,0,0,1.3239935180664062,0,0,0.22932
2.2177397219929844,0,0,1.16837041015625,0,0,0.53508
2.219126592972316,0,0,1.448492004394531,0,0,0.07644000000000001
2.2205138899735175,0,0,1.3862427612304686,0,0,0.99372
2.2219005019869655,0,0,1.3120225097656248,0,0,0.91728
2.2232872619933914,0,0,1.3024457031249999,0,0,0.84084
2.224674706987571,0,0,1.2569558715820313,0,0,1.1465999999999998
2.2260613559919875,0,0,1.1875240234375,0,0,0.91728
2.227462022972759,0,0,1.1372457885742187,0,0,0.91728
2.2288496529799886,0,0,1.350329736328125,0,0,1.1465999999999998
2.230235727998661,0,0,1.3766659545898436,0,0,0.84084
2.231622413994046,0,0,1.209071838378906,0,0,0.68796
2.2330092289776076,0,0,1.5275006591796874,0,0,0.7644
2.2343975819821935,0,0,1.0797849487304687,0,0,0.68796
2.23578423098661,0,0,1.3287819213867187,0,0,0.7644
2.23717021298944,0,0,1.2641384765625,0,0,0.53508
2.23856349097332,0,0,1.1324573852539062,0,0,0.3822
2.239952806994552,0,0,1.2665326782226562,0,0,0.07644000000000001
2.2413387339911424,0,0,1.438915197753906,0,0,1.2230400000000001
2.242724752984941,0,0,1.2425906616210938,0,0,0.6115200000000001
2.244112012995174,0,0,1.197100830078125,0,0,0.45864
2.245497087977128,0,0,1.2306196533203124,0,0,1.07016
2.2468828479759395,0,0,1.209071838378906,0,0,0.99372
2.2482696259976365,0,0,1.2761094848632812,0,0,0.99372
2.2496557559934445,0,0,1.3000515014648437,0,0,1.2230400000000001
2.251041997980792,0,0,1.5251064575195312,0,0,0.84084
2.252428516978398,0,0,1.3479355346679687,0,0,0.99372
2.253815276984824,0,0,1.7238251953125,0,0,0.99372
2.2552015929832123,0,0,1.2569558715820313,0,0,0.7644
2.256587537995074,0,0,1.1563994018554686,0,0,0.7644
2.2579740199726075,0,0,1.2234370483398436,0,0,0.45864
2.2593599839892704,0,0,1.1324573852539062,0,0,0.84084
2.260745687992312,0,0,1.3623007446289062,0,0,0.22932
2.2621318549790885,0,0,1.429338391113281,0,0,0.6115200000000001
2.263517781975679,0,0,1.4963760375976562,0,0,0.91728
2.264903986972058,0,0,1.4867992309570313,0,0,0.7644
2.26629011699697,0,0,1.2234370483398436,0,0,0.84084
2.267677117983112,0,0,1.0199299072265624,0,0,0.91728
2.269063173996983,0,0,1.1156979736328125,0,0,0.84084
2.2704489889729302,0,0,1.2665326782226562,0,0,1.45236
2.2718428969965316,0,0,1.4030021728515625,0,0,0.84084
2.2732286019891035,0,0,1.3575123413085937,0,0,0.84084
2.2746143249969464,0,0,1.5418658691406248,0,0,0.91728
2.2760014179802965,0,0,1.13006318359375,0,0,1.1465999999999998
2.2773871229728684,0,0,1.0965443603515623,0,0,0.7644
2.278773400990758,0,0,1.1707646118164061,0,0,0.22932
2.280159901973093,0,0,1.2282254516601563,0,0,0.53508
2.281545401987387,0,0,1.2880804931640624,0,0,0.07644000000000001
2.2829312369867694,0,0,1.39821376953125,0,0,0.68796
2.2843172929715365,0,0,1.5442600708007812,0,0,0.99372
2.285703218978597,0,0,1.4939818359375,0,0,0.68796
2.2870891459751874,0,0,1.1947066284179686,0,0,0.91728
2.2884757019928657,0,0,1.139639990234375,0,0,0.91728
2.2898610919946805,0,0,1.1372457885742187,0,0,0.6115200000000001
2.291246925975429,0,0,1.3862427612304686,0,0,0.7644
2.292632963974029,0,0,1.4724340209960938,0,0,0.7644
2.2940187609929126,0,0,1.3814543579101561,0,0,0.68796
2.295404927979689,0,0,1.47482822265625,0,0,0.99372
2.2967985769791994,0,0,1.2282254516601563,0,0,1.07016
2.2981850039795972,0,0,1.1085153686523437,0,0,0.68796
2.2995706149959005,0,0,1.209071838378906,0,0,0.84084
2.30095676399651,0,0,1.1228805786132812,0,0,0.6115200000000001
2.30234250598005,0,0,1.2521674682617188,0,0,0.0
2.3037289879866876,0,0,1.2378022583007813,0,0,0.6115200000000001
2.3051142299955245,0,0,1.5346832641601562,0,0,0.7644
2.306500323000364,0,0,1.3551181396484375,0,0,0.6115200000000001
2.307887063972885,0,0,1.1348515869140625,0,0,0.99372
2.30927239797893,0,0,1.0845733520507812,0,0,0.7644
2.310658472997602,0,0,1.1875240234375,0,0,0.84084
2.312045065977145,0,0,1.4030021728515625,0,0,0.99372
2.3134305119747296,0,0,1.5418658691406248,0,0,0.68796
2.314822974993149,0,0,1.4532804077148436,0,0,0.84084
2.3162094939907547,0,0,1.35990654296875,0,0,0.91728
2.317595235974295,0,0,1.0726023437499999,0,0,0.84084
2.3189813849749044,0,0,1.209071838378906,0,0,0.68796
2.3203671079827473,0,0,1.20667763671875,0,0,0.6115200000000001
2.3217529229877982,0,0,1.3335703247070312,0,0,0.53508
2.3231388869753573,0,0,1.5131354492187499,0,0,-0.15288000000000002
2.324525553995045,0,0,1.5011644409179687,0,0,0.7644
2.3259119439753704,0,0,1.5658078857421873,0,0,1.2230400000000001
2.3272981849731877,0,0,1.3000515014648437,0,0,0.6115200000000001
2.32868425999186,0,0,1.2713210815429687,0,0,0.68796
2.330070130992681,0,0,1.1755530151367186,0,0,0.53508
2.331456575979246,0,0,1.177947216796875,0,0,0.3822
2.332842872972833,0,0,1.3168109130859373,0,0,1.2994800000000002
2.3342799109814223,0,0,1.455674609375,0,0,0.68796
2.335757446999196,0,0,1.2617442749023438,0,0,0.7644
2.3371512629964855,0,0,1.3096283081054687,0,0,0.84084
2.3385382819978986,0,0,1.1061211669921875,0,0,0.99372
2.3399267079948913,0,0,1.16837041015625,0,0,0.84084
2.3413113389979117,0,0,1.1085153686523437,0,0,0.68796
2.3426974509784486,0,0,1.20667763671875,0,0,1.07016
2.344084247975843,0,0,1.5490484741210937,0,0,0.6115200000000001
2.3454700259899255,0,0,1.3215993164062498,0,0,0.91728
2.3468561569752637,0,0,1.5107412475585937,0,0,1.2994800000000002
2.3482428239949513,0,0,1.149216796875,0,0,0.91728
2.34962884298875,0,0,1.2761094848632812,0,0,0.6115200000000001
2.3510145849722903,0,0,1.2114660400390624,0,0,0.53508
2.3524014369759243,0,0,1.1875240234375,0,0,0.68796
2.353832270979183,0,0,1.3263877197265623,0,0,0.53508
2.355235011986224,0,0,1.467645617675781,0,0,0.7644
2.356622419989435,0,0,1.2904746948242187,0,0,0.6115200000000001
2.358008790994063,0,0,1.1875240234375,0,0,0.53508
2.359401920984965,0,0,1.1516109985351561,0,0,0.99372
2.3607882549986243,0,0,1.2018892333984375,0,0,0.84084
2.3621744039992336,0,0,1.1324573852539062,0,0,0.84084
2.3635661089792848,0,0,1.216254443359375,0,0,1.1465999999999998
2.364954979973845,0,0,1.467645617675781,0,0,0.7644
2.3663442399993073,0,0,1.2593500732421874,0,0,0.53508
2.367730332975043,0,0,1.5514426757812498,0,0,0.91728
2.36911687097745,0,0,1.1372457885742187,0,0,1.07016
2.3705028709955513,0,0,1.1420341918945311,0,0,0.7644
2.371889038971858,0,0,1.1875240234375,0,0,0.68796
2.373274705983931,0,0,1.1755530151367186,0,0,0.53508
2.374660873989342,0,0,1.3311761230468748,0,0,0.0
2.376047429977916,0,0,1.39821376953125,0,0,-9.01992
2.3774355229979847,0,0,1.388636962890625,0,0,0.91728
2.378821819991572,0,0,1.5346832641601562,0,0,0.68796
2.380208357993979,0,0,1.218648645019531,0,0,1.07016
2.3815940619970206,0,0,0.9193734375,0,0,0.7644
2.382980119000422,0,0,1.2473790649414063,0,0,0.7644
2.3843664710002486,0,0,1.3359645263671873,0,0,1.1465999999999998
2.3857524349878076,0,0,1.5155296508789062,0,0,0.53508
2.387138435995439,0,0,1.3215993164062498,0,0,0.7644
2.388525287999073,0,0,1.678335363769531,0,0,1.1465999999999998
2.3899152149970178,0,0,1.1923124267578125,0,0,1.1465999999999998
2.3913016969745513,0,0,1.1276689819335937,0,0,0.68796
2.3926873829914257,0,0,1.2018892333984375,0,0,0.45864
2.3940730869944673,0,0,1.2378022583007813,0,0,0.30576000000000003
2.3954590699868277,0,0,1.47482822265625,0,0,0.15288000000000002
2.3968452549888752,0,0,1.2928688964843749,0,0,0.53508
2.3982313299784437,0,0,1.5131354492187499,0,0,0.91728
2.399618052993901,0,0,1.3048399047851562,0,0,0.68796
2.4010040719876997,0,0,1.20667763671875,0,0,1.07016
2.402401868981542,0,0,1.1013327636718748,0,0,0.99372
2.403788776980946,0,0,1.3168109130859373,0,0,0.91728
2.4051747039775364,0,0,1.197100830078125,0,0,1.2230400000000001
2.4065609079843853,0,0,1.4006079711914061,0,0,0.7644
2.4079480199725367,0,0,1.4987702392578124,0,0,0.68796
2.4093330029863864,0,0,1.5658078857421873,0,0,0.99372
2.4107189109781757,0,0,1.197100830078125,0,0,0.99372
2.412105873983819,0,0,1.1348515869140625,0,0,0.7644
2.413507300982019,0,0,1.1540052001953125,0,0,0.6115200000000001
2.4148955419950653,0,0,1.254561669921875,0,0,0.45864
2.4162823019723874,0,0,1.5059528442382812,0,0,0.0
2.4176688399747945,0,0,1.4724340209960938,0,0,0.6115200000000001
2.419055229984224,0,0,1.5897499023437498,0,0,0.99372
2.4204425269854255,0,0,1.2401964599609374,0,0,0.3822
2.421828786988044,0,0,1.189918225097656,0,0,0.7644
2.423214823997114,0,0,1.2234370483398436,0,0,0.53508
2.4246010099886917,0,0,1.24498486328125,0,0,0.91728
2.4260561209812295,0,0,1.3144167114257812,0,0,0.68796
2.4274455109843984,0,0,1.429338391113281,0,0,0.84084
2.4288303629728034,0,0,1.4867992309570313,0,0,0.68796
2.4302335679822136,0,0,1.484405029296875,0,0,0.99372
2.4316220129840076,0,0,1.0821791503906248,0,0,1.37592
2.4330094949982595,0,0,1.0797849487304687,0,0,0.84084
2.4343969589972403,0,0,1.1324573852539062,0,0,0.6115200000000001
2.435783958993852,0,0,1.2856862915039062,0,0,0.7644
2.4371704229852185,0,0,1.5370774658203123,0,0,0.53508
2.4385575719934423,0,0,1.4915876342773438,0,0,0.6115200000000001
2.439945016987622,0,0,1.5921441040039062,0,0,0.7644
2.4413312029791996,0,0,1.1851298217773436,0,0,0.84084
2.4427181289938744,0,0,1.1420341918945311,0,0,0.91728
2.444105648988625,0,0,1.2306196533203124,0,0,0.6115200000000001
2.4454917599796318,0,0,1.218648645019531,0,0,0.53508
2.446924500982277,0,0,1.4867992309570313,0,0,0.15288000000000002
2.448311501997523,0,0,1.4508862060546874,0,0,0.84084
2.4496980769908987,0,0,1.2593500732421874,0,0,0.68796
2.4510843549796846,0,0,1.2689268798828124,0,0,0.3822
2.452471300988691,0,0,1.2018892333984375,0,0,1.07016
2.453857374988729,0,0,1.0582371337890624,0,0,0.91728
2.4552439129911363,0,0,1.1468225952148436,0,0,0.84084
2.45663063597749,0,0,1.0726023437499999,0,0,0.99372
2.458016784978099,0,0,1.4317325927734375,0,0,0.53508
2.4594034339825157,0,0,1.2425906616210938,0,0,1.07016
2.4607895639783237,0,0,1.4724340209960938,0,0,1.1465999999999998
2.4621763799805194,0,0,1.0893617553710937,0,0,0.6115200000000001
2.463562972989166,0,0,1.2138602416992186,0,0,0.84084
2.464949565997813,0,0,1.2952630981445312,0,0,0.22932
2.4663360669801477,0,0,1.1611878051757811,0,0,0.6115200000000001
2.4677233079855796,0,0,1.4724340209960938,0,0,0.6115200000000001
2.469108975987183,0,0,1.4939818359375,0,0,0.7644
2.470495420973748,0,0,1.3168109130859373,0,0,0.84084
2.47188916199957,0,0,1.3766659545898436,0,0,0.68796
2.4732754779979587,0,0,1.1540052001953125,0,0,1.2230400000000001
2.474662033986533,0,0,1.1947066284179686,0,0,0.99372
2.476049182994757,0,0,1.0845733520507812,0,0,1.07016
2.477434349973919,0,0,1.1252747802734375,0,0,1.2230400000000001
2.478820313990582,0,0,1.438915197753906,0,0,0.6115200000000001
2.4802068889839575,0,0,1.254561669921875,0,0,0.99372
2.481593444972532,0,0,1.5370774658203123,0,0,1.2230400000000001
2.4829797049751505,0,0,1.2042834350585936,0,0,0.7644
2.4843654279829934,0,0,1.2976572998046874,0,0,0.68796
2.4857519659854006,0,0,1.235408056640625,0,0,0.53508
2.4871381519769784,0,0,1.2138602416992186,0,0,0.53508
2.4885256339912303,0,0,1.5083470458984374,0,0,0.3822
2.4899191159929615,0,0,1.3479355346679687,0,0,0.84084
2.4913054129865486,0,0,1.2569558715820313,0,0,0.53508
2.492691709980136,0,0,1.22583125,0,0,0.7644
2.4940785259823315,0,0,1.2665326782226562,0,0,0.84084
2.4954643969831523,0,0,0.9648632690429687,0,0,0.84084
2.4968505459837615,0,0,1.1947066284179686,0,0,0.99372
2.498236490995623,0,0,1.2617442749023438,0,0,0.91728
2.4996230469841976,0,0,1.4053963745117186,0,0,0.99372
2.501009380997857,0,0,1.2569558715820313,0,0,0.91728
2.5023959559912328,0,0,1.5729904907226562,0,0,0.91728
2.5037822339800186,0,0,1.2880804931640624,0,0,1.07016
2.5051677169976756,0,0,1.1563994018554686,0,0,0.6115200000000001
2.506557531974977,0,0,1.1228805786132812,0,0,0.45864
2.507945124991238,0,0,1.2138602416992186,0,0,0.22932
2.509330273984233,0,0,1.5107412475585937,0,0,0.0
2.5107165159715805,0,0,1.3383587280273437,0,0,0.91728
2.5121030719892588,0,0,1.6304513305664061,0,0,0.68796
2.5134887579770293,0,0,1.3670891479492187,0,0,0.6115200000000001
2.514874961983878,0,0,1.1827356201171875,0,0,1.45236
2.5162882219883613,0,0,1.0654197387695312,0,0,0.7644
2.5176965189748444,0,0,1.20667763671875,0,0,0.84084
2.5190837229893077,0,0,1.3934253662109375,0,0,1.2994800000000002
2.5204706869844813,0,0,1.458068811035156,0,0,0.53508
2.5218568540003616,0,0,1.3407529296874998,0,0,0.84084
2.5232430589967407,0,0,1.47482822265625,0,0,0.84084
2.5246297439734917,0,0,1.197100830078125,0,0,0.99372
2.526016133982921,0,0,1.2641384765625,0,0,0.99372
2.5274022829835303,0,0,1.1061211669921875,0,0,0.6115200000000001
2.5287889129831456,0,0,1.2617442749023438,0,0,0.3822
2.5301920429919846,0,0,1.4030021728515625,0,0,0.3822
2.5315790439781267,0,0,1.426944189453125,0,0,1.07016
2.5329693039820995,0,0,1.5705962890624998,0,0,0.7644
2.534363063983619,0,0,1.2401964599609374,0,0,0.6115200000000001
2.535750138980802,0,0,1.2306196533203124,0,0,0.91728
2.537136175989872,0,0,1.139639990234375,0,0,0.7644
2.538522009999724,0,0,1.0821791503906248,0,0,0.68796
2.5399082329822704,0,0,1.3958195678710936,0,0,0.45864
2.5412944189738482,0,0,1.4604630126953124,0,0,0.68796
2.5426800309796818,0,0,1.4221557861328125,0,0,0.68796
2.5440671799879055,0,0,1.3407529296874998,0,0,0.84084
2.5454530699935276,0,0,1.1109095703125,0,0,1.1465999999999998
2.5468393299961463,0,0,1.0869675537109373,0,0,0.84084
2.5482257189869415,0,0,1.1827356201171875,0,0,0.6115200000000001
2.5496118309965823,0,0,1.3575123413085937,0,0,0.3822
2.550997849990381,0,0,1.5227122558593749,0,0,0.45864
2.5523842399998102,0,0,1.4915876342773438,0,0,1.07016
2.5537709439813625,0,0,1.5849614990234373,0,0,0.91728
2.555157111986773,0,0,1.139639990234375,0,0,0.84084
2.5565444089879747,0,0,1.177947216796875,0,0,0.45864
2.5579305019928142,0,0,1.20667763671875,0,0,0.53508
2.559316372993635,0,0,1.0917559570312498,0,0,0.68796
2.560703854978783,0,0,1.4101847778320311,0,0,1.07016
2.562089966988424,0,0,1.467645617675781,0,0,0.91728
2.5634782269771677,0,0,1.2856862915039062,0,0,0.6115200000000001
2.5648674689873587,0,0,1.3168109130859373,0,0,0.0
2.5662613029999193,0,0,1.158793603515625,0,0,1.1465999999999998
2.5676617849967442,0,0,1.1061211669921875,0,0,0.68796
2.5690490259730723,0,0,1.1947066284179686,0,0,0.84084
2.5704358409857377,0,0,1.1827356201171875,0,0,0.99372
2.5718224899901543,0,0,1.5514426757812498,0,0,0.45864
2.5732083979819436,0,0,1.4341267944335936,0,0,0.7644
2.5745949179981835,0,0,1.4915876342773438,0,0,1.1465999999999998
2.575982751994161,0,0,1.1875240234375,0,0,0.84084
2.5773797149886377,0,0,1.1228805786132812,0,0,0.68796
2.5787666049727704,0,0,1.180341418457031,0,0,0.53508
2.5801535319769755,0,0,1.1109095703125,0,0,0.53508
2.581539291975787,0,0,1.2904746948242187,0,0,0.30576000000000003
2.58292490299209,0,0,1.3120225097656248,0,0,0.6115200000000001
2.5843262559792493,0,0,1.2713210815429687,0,0,0.84084
2.585769866971532,0,0,1.2856862915039062,0,0,0.45864
2.5871946080005728,0,0,1.218648645019531,0,0,0.99372
2.588601422990905,0,0,1.1061211669921875,0,0,0.68796
2.5899892569868825,0,0,1.120486376953125,0,0,0.7644
2.5913759989780374,0,0,1.209071838378906,0,0,1.1465999999999998
2.592762980988482,0,0,1.43652099609375,0,0,0.22932
2.594149258977268,0,0,1.2497732666015624,0,0,0.91728
2.5955355749756563,0,0,1.6639701538085936,0,0,1.1465999999999998
2.5969223349820822,0,0,1.1324573852539062,0,0,0.91728
2.598308131971862,0,0,1.158793603515625,0,0,0.7644
2.599731205991702,0,0,1.2018892333984375,0,0,0.68796
2.6011196699982975,0,0,1.2952630981445312,0,0,0.45864
2.6025056149810553,0,0,1.484405029296875,0,0,0.0
2.6038988749787677,0,0,1.4772224243164063,0,0,0.99372
2.6052848199906293,0,0,1.4772224243164063,0,0,0.7644
2.6066703949763905,0,0,1.1420341918945311,0,0,-9.01992
2.6080586919852067,0,0,1.199495031738281,0,0,0.84084
2.6094445809721947,0,0,1.1516109985351561,0,0,0.68796
2.610830803983845,0,0,1.1635820068359375,0,0,0.68796
2.6122172119794413,0,0,1.2689268798828124,0,0,0.99372
2.6136037499818485,0,0,1.5203180541992187,0,0,0.84084
2.6149898619914893,0,0,1.3024457031249999,0,0,0.99372
2.6163764179800637,0,0,1.5873557006835937,0,0,0.91728
2.617762733978452,0,0,1.20667763671875,0,0,0.91728
2.6191486419993453,0,0,1.149216796875,0,0,0.68796
2.6205346979841124,0,0,1.0941501586914062,0,0,0.45864
2.621928772976389,0,0,1.0989385620117187,0,0,0.15288000000000002
2.6233151069900487,0,0,1.5083470458984374,0,0,0.30576000000000003
2.624701496999478,0,0,1.2569558715820313,0,0,0.53508
2.6260871269914787,0,0,1.5298948608398437,0,0,0.91728
2.627473219996318,0,0,1.3383587280273437,0,0,0.53508
2.6288593689969275,0,0,1.1755530151367186,0,0,0.84084
2.630245684995316,0,0,1.1180921752929687,0,0,0.53508
2.6316325559746474,0,0,1.1444283935546875,0,0,1.07016
2.6330194269830827,0,0,1.3551181396484375,0,0,0.84084
2.6344060199917294,0,0,1.4604630126953124,0,0,0.91728
2.6357930389931425,0,0,1.3670891479492187,0,0,0.7644
2.637178391974885,0,0,1.656787548828125,0,0,0.84084
2.6385678369842935,0,0,1.22583125,0,0,0.99372
2.639955596998334,0,0,1.22583125,0,0,1.07016
2.641340597998351,0,0,1.177947216796875,0,0,0.53508
2.642726394988131,0,0,1.2593500732421874,0,0,0.84084
2.644113395974273,0,0,1.3958195678710936,0,0,0.22932
2.6454988039913587,0,0,1.2593500732421874,0,0,0.99372
2.6468927299720235,0,0,1.6160861206054686,0,0,-8.867040000000001
2.648281119996682,0,0,1.3575123413085937,0,0,0.45864
2.64966724999249,0,0,1.0797849487304687,0,0,0.53508
2.6510529549850617,0,0,1.0821791503906248,0,0,0.6115200000000001
2.652439899975434,0,0,1.254561669921875,0,0,0.7644
2.653826270980062,0,0,1.37906015625,0,0,0.68796
2.655212493991712,0,0,1.5131354492187499,0,0,0.68796
2.6565993829863146,0,0,1.448492004394531,0,0,0.53508
2.6579852729919367,0,0,1.4221557861328125,0,0,0.68796
2.6593714589835145,0,0,1.216254443359375,0,0,1.2230400000000001
2.6607580889831297,0,0,1.1611878051757811,0,0,1.1465999999999998
2.662144145986531,0,0,1.22583125,0,0,0.68796
2.6635298679757398,0,0,1.2641384765625,0,0,1.07016
2.6649232389754616,0,0,1.467645617675781,0,0,0.53508
2.6663130179804284,0,0,1.5059528442382812,0,0,1.07016
2.6677629810001235,0,0,1.5705962890624998,0,0,0.91728
2.669150036992505,0,0,1.1731588134765625,0,0,0.7644
2.670536926976638,0,0,1.0582371337890624,0,0,20
2.67192411297583,0,0,1.1228805786132812,0,0,0.0
2.6733246319927275,0,0,1.1372457885742187,0,0,0.53508
2.674713742977474,0,0,1.4867992309570313,0,0,0.53508
2.6761020589910913,0,0,1.5155296508789062,0,0,0.91728
2.6774958559835795,0,0,1.5490484741210937,0,0,0.7644
2.6788828569988254,0,0,1.3383587280273437,0,0,0.68796
2.6802705049922224,0,0,1.1468225952148436,0,0,1.1465999999999998
2.681660505972104,0,0,1.177947216796875,0,0,0.84084
2.6830472849833313,0,0,1.1707646118164061,0,0,0.6115200000000001
2.6844740999804344,0,0,1.3646949462890625,0,0,0.84084
2.685864729981404,0,0,1.465251416015625,0,0,0.84084
2.687252396979602,0,0,1.4772224243164063,0,0,0.91728
2.6886401759984437,0,0,1.3958195678710936,0,0,1.07016
2.6900275649968535,0,0,1.1827356201171875,0,0,0.6115200000000001
2.691414213972166,0,0,1.1133037719726562,0,0,0.6115200000000001
2.692800732998876,0,0,1.2665326782226562,0,0,0.6115200000000001
2.694186881999485,0,0,1.0965443603515623,0,0,0.99372
2.6955733639770187,0,0,1.4317325927734375,0,0,0.68796
2.6969601799792144,0,0,1.3239935180664062,0,0,0.6115200000000001
2.6983468099788297,0,0,1.2234370483398436,0,0,0.7644
2.6997341069800314,0,0,1.2737152832031249,0,0,0.45864
2.701120033976622,0,0,1.3000515014648437,0,0,0.7644
2.702505552995717,0,0,1.149216796875,0,0,0.84084
2.703892368997913,0,0,1.1061211669921875,0,0,0.84084
2.7052779069927055,0,0,1.1085153686523437,0,0,0.7644
2.706705072982004,0,0,1.5466542724609373,0,0,0.7644
2.7080920929729473,0,0,1.4317325927734375,0,0,0.91728
2.709484574996168,0,0,1.3670891479492187,0,0,1.37592
2.710871371993562,0,0,1.1611878051757811,0,0,0.99372
2.7122578169801272,0,0,1.1013327636718748,0,0,0.6115200000000001
2.713643761991989,0,0,1.3144167114257812,0,0,0.53508
2.715029817976756,0,0,1.2425906616210938,0,0,0.30576000000000003
2.716424225975061,0,0,1.4413093994140624,0,0,0.15288000000000002
2.7178104679915123,0,0,1.3527239379882812,0,0,0.99372
2.7191965239762794,0,0,1.446097802734375,0,0,0.91728
2.720583246991737,0,0,1.158793603515625,0,0,0.3822
2.7219692479993682,0,0,1.1540052001953125,0,0,0.7644
2.7233555449929554,0,0,1.0773907470703123,0,0,0.7644
2.7247419339837506,0,0,1.2665326782226562,0,0,-9.09636
2.7261339539836626,0,0,1.3407529296874998,0,0,0.84084
2.727520342974458,0,0,1.438915197753906,0,0,1.07016
2.7289074739965145,0,0,1.2425906616210938,0,0,0.84084
2.730293714994332,0,0,1.6615759521484375,0,0,1.1465999999999998
2.7316809559997637,0,0,1.1109095703125,0,0,1.1465999999999998
2.7330674389959313,0,0,1.216254443359375,0,0,0.84084
2.734453624987509,0,0,1.1923124267578125,0,0,0.53508
2.7358407919819,0,0,1.2138602416992186,0,0,0.7644
2.7372265329759102,0,0,1.2737152832031249,0,0,0.22932
2.738612478977302,0,0,1.3910311645507811,0,0,0.68796
2.7399992939899676,0,0,1.656787548828125,0,0,0.6115200000000001
2.741384979977738,0,0,1.1611878051757811,0,0,0.6115200000000001
2.7427709989715368,0,0,1.2042834350585936,0,0,0.68796
2.744158517976757,0,0,1.1252747802734375,0,0,0.91728
2.7455448339751456,0,0,1.3120225097656248,0,0,0.53508
2.7469308899890166,0,0,1.4317325927734375,0,0,0.68796
2.748316816985607,0,0,1.6041151123046875,0,0,0.6115200000000001
2.749702613975387,0,0,1.3431471313476562,0,0,0.91728
2.7510885409719776,0,0,1.6208745239257811,0,0,0.68796
2.75248787397868,0,0,1.2641384765625,0,0,0.91728
2.753874782996718,0,0,1.1085153686523437,0,0,0.7644
2.7552614309825003,0,0,1.139639990234375,0,0,0.68796
2.7566474319901317,0,0,1.2856862915039062,0,0,0.7644
2.7580333769728895,0,0,1.4053963745117186,0,0,0.45864
2.7594193599943537,0,0,1.22583125,0,0,0.99372
2.7608057309989817,0,0,1.4724340209960938,0,0,1.1465999999999998
2.762191786983749,0,0,1.24498486328125,0,0,0.7644
2.763584546977654,0,0,1.2473790649414063,0,0,0.91728
2.7650098619924393,0,0,1.1563994018554686,0,0,1.5288
2.76639843697194,0,0,1.218648645019531,0,0,0.53508
2.767789603996789,0,0,1.3431471313476562,0,0,0.15288000000000002
2.7691767159849405,0,0,1.5179238525390624,0,0,0.6115200000000001
2.77056262397673,0,0,1.4221557861328125,0,0,0.7644
2.771949235990178,0,0,1.5131354492187499,0,0,0.84084
2.773335143981967,0,0,1.1707646118164061,0,0,1.1465999999999998
2.7747214039845858,0,0,1.0726023437499999,0,0,0.45864
2.7761079789779615,0,0,1.2952630981445312,0,0,0.84084
2.777494089998072,0,0,1.2521674682617188,0,0,0.68796
2.778879868972581,0,0,1.43652099609375,0,0,0.6115200000000001
2.7802665359922685,0,0,1.4772224243164063,0,0,1.07016
2.7816526669776067,0,0,1.5777788940429687,0,0,1.1465999999999998
2.783038407971617,0,0,1.0893617553710937,0,0,0.68796
2.7844244269945193,0,0,1.1947066284179686,0,0,0.30576000000000003
2.78581035399111,0,0,1.1851298217773436,0,0,0.53508
2.7871969469997566,0,0,1.1707646118164061,0,0,0.68796
2.7885838549991604,0,0,1.3910311645507811,0,0,0.7644
2.789969855977688,0,0,1.419761584472656,0,0,0.91728
2.7913560979941394,0,0,1.5322890624999999,0,0,0.68796
2.792742745979922,0,0,1.3431471313476562,0,0,0.68796
2.7941292289760895,0,0,1.2138602416992186,0,0,0.84084
2.7958030959998723,0,0,1.1324573852539062,0,0,0.53508
2.7973425579839386,0,0,1.3527239379882812,0,0,0.53508
2.798766113992315,0,0,1.5059528442382812,0,0,0.45864
2.8002533719991334,0,0,1.5945383056640625,0,0,0.7644
2.801643446990056,0,0,1.47482822265625,0,0,0.91728
2.8030314659990836,0,0,1.4891934326171874,0,0,0.6115200000000001
2.8044193929817993,0,0,1.3383587280273437,0,0,1.07016
2.805812115984736,0,0,1.235408056640625,0,0,0.84084
2.807205597986467,0,0,1.2593500732421874,0,0,1.07016
2.808593227993697,0,0,1.2880804931640624,0,0,0.99372
2.8099802839860786,0,0,1.455674609375,0,0,0.45864
2.811367469985271,0,0,1.2904746948242187,0,0,0.91728
2.812749211996561,0,0,1.599326708984375,0,0,0.84084
2.8141283789882436,0,0,1.1635820068359375,0,0,0.53508
2.815506861981703,0,0,1.2473790649414063,0,0,0.91728
2.816897621989483,0,0,1.3551181396484375,0,0,0.45864
2.818284399982076,0,0,1.2138602416992186,0,0,0.6115200000000001
2.8196714189834893,0,0,1.3455413330078123,0,0,0.45864
2.821070215984946,0,0,1.458068811035156,0,0,0.99372
2.8224756429845,0,0,1.5729904907226562,0,0,0.84084
2.8238844579900615,0,0,1.4341267944335936,0,0,0.6115200000000001
2.825272143993061,0,0,1.1851298217773436,0,0,1.1465999999999998
2.8266620519862045,0,0,1.1516109985351561,0,0,0.68796
2.8280470709723886,0,0,1.3287819213867187,0,0,0.84084
2.829426219977904,0,0,1.3742717529296875,0,0,0.91728
2.830804998986423,0,0,1.4125789794921875,0,0,0.6115200000000001
2.832193535985425,0,0,1.37906015625,0,0,0.6115200000000001
2.833581073995447,0,0,1.455674609375,0,0,1.2230400000000001
2.8349881489994004,0,0,1.218648645019531,0,0,1.07016
2.836502665973967,0,0,1.2138602416992186,0,0,0.53508
2.83791138898232,0,0,1.3072341064453123,0,0,0.53508
2.8392990749853197,0,0,1.1755530151367186,0,0,0.7644
2.840716667997185,0,0,1.369483349609375,0,0,0.22932
2.8421052979829255,0,0,1.22583125,0,0,0.68796
2.8434925209730864,0,0,1.5538368774414062,0,0,0.68796
2.844874243979575,0,0,1.0917559570312498,0,0,0.7644
2.846253355994122,0,0,1.0366893188476562,0,0,0.6115200000000001
2.8476349679986015,0,0,1.1516109985351561,0,0,0.84084
2.8490178939828184,0,0,1.2761094848632812,0,0,0.84084
2.850397153990343,0,0,1.4245499877929686,0,0,1.1465999999999998
2.8517821739951614,0,0,1.455674609375,0,0,0.91728
2.853170025977306,0,0,1.2856862915039062,0,0,0.6115200000000001
2.85455741599435,0,0,1.4245499877929686,0,0,0.7644
2.8559455829963554,0,0,1.177947216796875,0,0,1.2230400000000001
2.857331194973085,0,0,1.2401964599609374,0,0,0.91728
2.858717954979511,0,0,1.2569558715820313,0,0,0.22932
2.860105845000362,0,0,1.216254443359375,0,0,0.53508
2.861491881980328,0,0,1.4820108276367188,0,0,0.15288000000000002
2.8628783649764955,0,0,1.3311761230468748,0,0,0.68796
2.8642610879905988,0,0,1.484405029296875,0,0,0.91728
2.8656396249716636,0,0,1.0869675537109373,0,0,0.84084
2.8670182369824033,0,0,1.2210428466796874,0,0,0.84084
2.868405385990627,0,0,1.1755530151367186,0,0,0.6115200000000001
2.86979116499424,0,0,1.0989385620117187,0,0,0.6115200000000001
2.8711774249968585,0,0,1.4341267944335936,0,0,0.84084
2.8725639619806316,0,0,1.5298948608398437,0,0,0.91728
2.873949944972992,0,0,1.2569558715820313,0,0,0.84084
2.875335463992087,0,0,1.2976572998046874,0,0,0.53508
2.876721575972624,0,0,1.1540052001953125,0,0,1.1465999999999998
2.8781072619894985,0,0,1.3383587280273437,0,0,0.68796
2.8794933359895367,0,0,1.218648645019531,0,0,0.6115200000000001
2.880878114985535,0,0,1.1611878051757811,0,0,1.5288
2.8825273900001775,0,0,1.4772224243164063,0,0,0.68796
2.8839127239771187,0,0,1.3718775512695311,0,0,0.91728
2.885302372975275,0,0,1.4341267944335936,0,0,0.91728
2.8866813919739798,0,0,1.1707646118164061,0,0,0.6115200000000001
2.888073207985144,0,0,1.1037269653320312,0,0,0.6115200000000001
2.889454300981015,0,0,1.1851298217773436,0,0,0.30576000000000003
2.89083356098854,0,0,1.120486376953125,0,0,0.68796
2.8922146919940133,0,0,1.5682020874023437,0,0,0.15288000000000002
2.893594247987494,0,0,1.43652099609375,0,0,0.7644
2.895138986990787,0,0,1.5658078857421873,0,0,1.07016
2.896533394989092,0,0,1.1468225952148436,0,0,0.7644
2.8979260999767575,0,0,1.149216796875,0,0,1.1465999999999998
2.899312525987625,0,0,1.1923124267578125,0,0,0.68796
2.900699193996843,0,0,1.1156979736328125,0,0,0.84084
2.9020858429721557,0,0,1.235408056640625,0,0,1.07016
2.903471824974986,0,0,1.429338391113281,0,0,-8.7906
2.9048591399914585,0,0,1.177947216796875,0,0,0.84084
2.906254788977094,0,0,1.3646949462890625,0,0,0.91728
2.907656715979101,0,0,1.120486376953125,0,0,0.99372
2.909045715990942,0,0,1.1444283935546875,0,0,0.84084
2.91043238400016,0,0,1.235408056640625,0,0,0.6115200000000001
2.911818458000198,0,0,1.22583125,0,0,0.53508
2.913201458984986,0,0,1.455674609375,0,0,0.53508
2.914602903998457,0,0,1.3958195678710936,0,0,0.99372
2.91599127498921,0,0,1.4939818359375,0,0,1.1465999999999998
2.9180312489916105,0,0,1.0845733520507812,0,0,0.99372
2.9195655259827618,0,0,1.1324573852539062,0,0,0.84084
2.9209650079719722,0,0,1.149216796875,0,0,0.68796
2.9223524159751832,0,0,1.2737152832031249,0,0,1.07016
2.9237403419974726,0,0,1.5179238525390624,0,0,0.3822
2.925128009985201,0,0,1.3192051147460937,0,0,0.6115200000000001
2.926514713995857,0,0,1.4772224243164063,0,0,0.84084
2.9279013630002737,0,0,1.189918225097656,0,0,0.6115200000000001
2.9293129750003573,0,0,1.2473790649414063,0,0,0.84084
2.93071182697895,0,0,1.2378022583007813,0,0,0.3822
2.9320999939809553,0,0,1.3192051147460937,0,0,0.45864
2.9334865139971953,0,0,1.419761584472656,0,0,0.68796
2.934873087971937,0,0,1.426944189453125,0,0,0.91728
2.9362593479745556,0,0,1.455674609375,0,0,0.84084
2.9376457749749534,0,0,1.2761094848632812,0,0,0.53508
2.9390320159727708,0,0,1.0893617553710937,0,0,0.68796
2.940417942998465,0,0,1.1540052001953125,0,0,0.84084
2.941812757984735,0,0,1.1276689819335937,0,0,0.91728
2.9431993889738806,0,0,1.3527239379882812,0,0,0.99372
2.944585796998581,0,0,1.4604630126953124,0,0,0.53508
2.945972074987367,0,0,1.3239935180664062,0,0,0.6115200000000001
2.947358297999017,0,0,1.4963760375976562,0,0,0.99372
2.9487454289919697,0,0,1.1563994018554686,0,0,0.91728
2.9501322439755313,0,0,1.1276689819335937,0,0,0.30576000000000003
2.951518411980942,0,0,1.2952630981445312,0,0,0.6115200000000001
2.9529049859847873,0,0,1.1180921752929687,0,0,0.45864
2.9542907279974315,0,0,1.5107412475585937,0,0,0.22932
2.955677783989813,0,0,1.6065093139648436,0,0,0.7644
2.957064154994441,0,0,1.5921441040039062,0,0,0.84084
2.9584499709890224,0,0,1.2138602416992186,0,0,0.6115200000000001
2.9598361199896317,0,0,1.139639990234375,0,0,1.07016
2.961221490986645,0,0,1.1252747802734375,0,0,0.7644
2.962607176974416,0,0,1.2018892333984375,0,0,0.84084
2.963999565981794,0,0,1.1851298217773436,0,0,1.37592
2.965386233991012,0,0,1.4508862060546874,0,0,0.6115200000000001
2.966775807988597,0,0,1.3263877197265623,0,0,0.7644
2.9681712899764534,0,0,1.3742717529296875,0,0,0.99372
2.9695584579894785,0,0,1.1061211669921875,0,0,0.68796
2.9709449959918857,0,0,1.2713210815429687,0,0,0.6115200000000001
2.9723275329743046,0,0,1.180341418457031,0,0,0.53508
2.9737172379973345,0,0,1.3335703247070312,0,0,0.3822
2.97509608999826,0,0,1.4724340209960938,0,0,0.3822
2.9764835909882095,0,0,1.4101847778320311,0,0,0.84084
2.977869850990828,0,0,1.4149731811523436,0,0,0.91728
2.979255388985621,0,0,1.2976572998046874,0,0,0.53508
2.9806415929924697,0,0,1.3072341064453123,0,0,0.91728
2.9820274459780194,0,0,1.2210428466796874,0,0,0.7644
2.983413297974039,0,0,1.0845733520507812,0,0,0.6115200000000001
2.984799502999522,0,0,1.2952630981445312,0,0,1.07016
2.9861857809883077,0,0,1.458068811035156,0,0,-9.09636
2.9875733929802664,0,0,1.1468225952148436,0,0,0.84084
2.988960615999531,0,0,1.5969325073242187,0,0,0.84084
2.9903460609784815,0,0,1.139639990234375,0,0,0.68796
2.9917334689816926,0,0,1.1061211669921875,0,0,0.6115200000000001
2.9931188779883087,0,0,1.24498486328125,0,0,0.68796
2.9945047489891294,0,0,1.2880804931640624,0,0,0.07644000000000001
2.995891304977704,0,0,1.3958195678710936,0,0,0.15288000000000002
2.9972761199751403,0,0,1.2976572998046874,0,0,0.91728
2.9986620289855637,0,0,1.4604630126953124,0,0,0.91728
3.0000567699898966,0,0,1.0726023437499999,0,0,0.30576000000000003
3.001442936976673,0,0,1.1420341918945311,0,0,0.68796
3.002828715980286,0,0,0.9624690673828125,0,0,0.45864
3.004214938991936,0,0,1.2138602416992186,0,0,0.7644
3.0056113279715646,0,0,1.3192051147460937,0,0,1.2230400000000001
3.006997384974966,0,0,1.3646949462890625,0,0,0.91728
3.0083853479882237,0,0,1.3527239379882812,0,0,0.7644
3.009771663986612,0,0,1.5442600708007812,0,0,1.07016
3.0111583869729657,0,0,1.2306196533203124,0,0,0.91728
3.012565145996632,0,0,0.9361328491210937,0,0,0.99372
3.0139512209862005,0,0,1.2138602416992186,0,0,0.6115200000000001
3.015337721997639,0,0,1.3000515014648437,0,0,0.45864
3.0167309449752793,0,0,1.5083470458984374,0,0,0.53508
3.018117870989954,0,0,1.3646949462890625,0,0,0.84084
3.0195049649919383,0,0,1.5514426757812498,0,0,0.91728
3.020891539985314,0,0,1.4796166259765624,0,0,-9.631440000000001
3.0222785959776957,0,0,1.24498486328125,0,0,0.7644
3.0236663369869348,0,0,1.2114660400390624,0,0,0.6115200000000001
3.025052559998585,0,0,1.2234370483398436,0,0,0.53508
3.026447208976606,0,0,1.3192051147460937,0,0,1.83456
3.0278367469727527,0,0,1.4508862060546874,0,0,0.7644
3.029221543984022,0,0,1.5107412475585937,0,0,0.99372
3.0306076189735904,0,0,1.4796166259765624,0,0,0.99372
3.0319949709810317,0,0,1.1444283935546875,0,0,0.91728
3.0333806009730324,0,0,1.0773907470703123,0,0,0.84084
3.034766860975651,0,0,1.1875240234375,0,0,0.68796
3.0361534919939004,0,0,1.2976572998046874,0,0,0.7644
3.037539325974649,0,0,1.5131354492187499,0,0,0.6115200000000001
3.0389262339740526,0,0,1.2952630981445312,0,0,0.84084
3.04031290099374,0,0,1.4891934326171874,0,0,1.2230400000000001
3.0416985869815107,0,0,1.218648645019531,0,0,1.07016
3.0430842919740826,0,0,1.0797849487304687,0,0,0.6115200000000001
3.0444712179887574,0,0,1.1707646118164061,0,0,0.68796
3.045857403980335,0,0,1.0821791503906248,0,0,0.53508
3.0472437379939947,0,0,1.4987702392578124,0,0,0.30576000000000003
3.0486305539961904,0,0,1.426944189453125,0,0,0.68796
3.0500170919985976,0,0,1.4891934326171874,0,0,0.6115200000000001
3.051403239980573,0,0,1.2234370483398436,0,0,0.84084
3.052789462992223,0,0,1.0749965454101562,0,0,1.07016
3.05417581598158,0,0,1.1324573852539062,0,0,0.7644
3.0555615949851926,0,0,1.2617442749023438,0,0,0.91728
3.0569482799910475,0,0,1.3838485595703125,0,0,1.37592
3.058345521974843,0,0,1.4891934326171874,0,0,0.7644
3.0597325220005587,0,0,1.2473790649414063,0,0,0.68796
3.061124892992666,0,0,1.5059528442382812,0,0,0.99372
3.0625116719747894,0,0,1.1180921752929687,0,0,0.99372
3.0638984689721838,0,0,1.1324573852539062,0,0,0.53508
3.0652840809780173,0,0,1.2138602416992186,0,0,0.3822
3.0666707109776326,0,0,1.1061211669921875,0,0,0.53508
3.068057359982049,0,0,1.4867992309570313,0,0,0.0
3.0694428609858733,0,0,1.4221557861328125,0,0,0.84084
3.070829527976457,0,0,1.43652099609375,0,0,0.7644
3.07222002898925,0,0,1.2378022583007813,0,0,0.45864
3.0736079739872366,0,0,1.0869675537109373,0,0,0.68796
3.0749951229954604,0,0,1.139639990234375,0,0,0.7644
3.0763864939799532,0,0,1.20667763671875,0,0,0.68796
3.0777729580004234,0,0,1.2401964599609374,0,0,0.99372
3.079159383982187,0,0,1.465251416015625,0,0,0.84084
3.080565513984766,0,0,1.2617442749023438,0,0,0.7644
3.081951977976132,0,0,1.3335703247070312,0,0,0.68796
3.0833383859717287,0,0,1.0965443603515623,0,0,1.07016
3.0847250529914163,0,0,1.1276689819335937,0,0,0.53508
3.0861296279763337,0,0,1.2808978881835937,0,0,0.6115200000000001
3.0878297169983853,0,0,1.1516109985351561,0,0,1.45236
3.089235680992715,0,0,1.5059528442382812,0,0,0.6115200000000001
3.090623551979661,0,0,1.4820108276367188,0,0,0.84084
3.092013663990656,0,0,1.5490484741210937,0,0,0.84084
3.093398200988304,0,0,1.149216796875,0,0,0.68796
3.09478490598849,0,0,1.3120225097656248,0,0,0.53508
3.0961720179766417,0,0,1.2713210815429687,0,0,0.22932
3.0975585549895186,0,0,1.3383587280273437,0,0,0.22932
3.0989454449736513,0,0,1.5131354492187499,0,0,0.22932
3.100332741974853,0,0,1.47482822265625,0,0,0.84084
3.1017192429862916,0,0,1.3024457031249999,0,0,0.99372
3.103106205991935,0,0,1.1947066284179686,0,0,0.53508
3.1045128549740184,0,0,1.209071838378906,0,0,1.07016
3.105910281999968,0,0,1.1755530151367186,0,0,0.53508
3.1073005969810765,0,0,1.2042834350585936,0,0,0.84084
3.108687171974452,0,0,1.1228805786132812,0,0,0.99372
3.1101035609899554,0,0,1.446097802734375,0,0,0.68796
3.111494042997947,0,0,1.2306196533203124,0,0,0.91728
3.1128811549860984,0,0,1.465251416015625,0,0,0.84084
3.1142680259945337,0,0,1.1875240234375,0,0,0.68796
3.115655767993303,0,0,1.1372457885742187,0,0,0.7644
3.1170578049786855,0,0,1.2042834350585936,0,0,0.3822
3.118444120977074,0,0,1.1109095703125,0,0,0.68796
3.1198320659750607,0,0,1.4245499877929686,0,0,0.15288000000000002
3.121219084976474,0,0,1.4101847778320311,0,0,0.7644
3.1226094929734245,0,0,1.5658078857421873,0,0,0.91728
3.1239969749876764,0,0,1.1875240234375,0,0,0.84084
3.125382568978239,0,0,1.2713210815429687,0,0,0.53508
3.1267689209780656,0,0,1.139639990234375,0,0,0.91728
3.1281554589804728,0,0,1.1875240234375,0,0,0.6115200000000001
3.129541625996353,0,0,1.3335703247070312,0,0,1.07016
3.1309281829744577,0,0,1.465251416015625,0,0,0.84084
3.1323150169919245,0,0,1.2378022583007813,0,0,0.45864
3.1337012209987734,0,0,1.5466542724609373,0,0,0.91728
3.1350983509910293,0,0,1.2138602416992186,0,0,0.68796
3.1364854449930135,0,0,1.1085153686523437,0,0,1.07016
3.137871944985818,0,0,1.1420341918945311,0,0,0.30576000000000003
3.139257815986639,0,0,1.2713210815429687,0,0,0.45864
3.140644020983018,0,0,1.4030021728515625,0,0,0.3822
3.1420309659733903,0,0,1.2928688964843749,0,0,0.84084
3.1434172819717787,0,0,1.5107412475585937,0,0,0.68796
3.144803596980637,0,0,1.1444283935546875,0,0,0.45864
3.146190226980252,0,0,1.1923124267578125,0,0,0.45864
3.14757641297183,0,0,1.1707646118164061,0,0,0.53508
3.148976006981684,0,0,1.16837041015625,0,0,0.7644
3.1503631369851064,0,0,1.3335703247070312,0,0,0.6115200000000001
3.1517503409995697,0,0,1.446097802734375,0,0,0.99372
3.1531363609828986,0,0,1.3239935180664062,0,0,0.84084
3.1545228239847347,0,0,1.3623007446289062,0,0,0.7644
3.155909547000192,0,0,1.2856862915039062,0,0,0.99372
3.157295084994985,0,0,1.2018892333984375,0,0,0.91728
3.158681622997392,0,0,1.3623007446289062,0,0,0.68796
3.1600681789859664,0,0,1.3407529296874998,0,0,0.45864
3.1614540869777557,0,0,1.668758557128906,0,0,0.6115200000000001
3.1628401429916266,0,0,1.35990654296875,0,0,0.91728
3.1642282549873926,0,0,1.6112977172851561,0,0,0.99372
3.165618459985126,0,0,1.1540052001953125,0,0,0.53508
3.1670077569724526,0,0,1.024718310546875,0,0,0.68796
3.168397127999924,0,0,1.1947066284179686,0,0,0.6115200000000001
3.1697844059963245,0,0,1.2785036865234374,0,0,0.53508
3.171171776979463,0,0,1.458068811035156,0,0,0.68796
3.1725532219861634,0,0,1.5227122558593749,0,0,0.91728
3.1739319449989125,0,0,1.5370774658203123,0,0,0.6115200000000001
3.175321760994848,0,0,1.2569558715820313,0,0,0.99372
3.176710779982386,0,0,1.0965443603515623,0,0,1.07016
3.1780985399964266,0,0,1.13006318359375,0,0,1.07016
3.17948502197396,0,0,1.3623007446289062,0,0,0.84084
3.181127204996301,0,0,1.2425906616210938,0,0,0.91728
3.1825356310000643,0,0,1.407790576171875,0,0,0.91728
3.1839255209779367,0,0,1.2904746948242187,0,0,0.68796
3.185314465983538,0,0,1.4053963745117186,0,0,0.7644
3.1867025409883354,0,0,1.0869675537109373,0,0,0.91728
3.188091670977883,0,0,1.0414777221679687,0,0,0.7644
3.1894792639941443,0,0,1.3335703247070312,0,0,0.3822
3.1908673019788694,0,0,1.2569558715820313,0,0,0.22932
3.1923230059910566,0,0,1.4820108276367188,0,0,0.22932
3.1937269319896586,0,0,1.2665326782226562,0,0,0.99372
3.1951155989954714,0,0,1.5969325073242187,0,0,1.1465999999999998
3.1964993039728142,0,0,1.2401964599609374,0,0,0.84084
3.1978786749823485,0,0,1.197100830078125,0,0,0.6115200000000001
3.1992575459880754,0,0,1.0845733520507812,0,0,0.7644
3.2006473429792095,0,0,1.0893617553710937,0,0,0.53508
3.202034380985424,0,0,1.4341267944335936,0,0,0.91728
3.2034206409880426,0,0,1.5275006591796874,0,0,0.68796
3.204806715977611,0,0,1.5251064575195312,0,0,0.3822
3.20619310499751,0,0,1.3742717529296875,0,0,0.45864
3.2075786429923028,0,0,1.0989385620117187,0,0,0.91728
3.2089664029772393,0,0,1.0869675537109373,0,0,0.91728
3.210353069996927,0,0,1.2425906616210938,0,0,0.6115200000000001
3.211739089980256,0,0,1.388636962890625,0,0,0.68796
3.2131249419762753,0,0,1.5346832641601562,0,0,0.22932
3.2145110909768846,0,0,1.3000515014648437,0,0,0.6115200000000001
3.215898369991919,0,0,1.4820108276367188,0,0,0.99372
3.2172830929921474,0,0,1.1611878051757811,0,0,0.6115200000000001
3.2186695559939835,0,0,1.0749965454101562,0,0,0.68796
3.220061926986091,0,0,1.218648645019531,0,0,0.45864
3.221447279996937,0,0,1.13006318359375,0,0,0.30576000000000003
3.222833298990736,0,0,1.429338391113281,0,0,0.45864
3.2242195409780834,0,0,1.39821376953125,0,0,1.07016
3.2256052639859263,0,0,1.1563994018554686,0,0,0.7644
3.2269918199745007,0,0,1.3551181396484375,0,0,0.84084
3.2283777839911636,0,0,1.149216796875,0,0,0.99372
3.2297637469891924,0,0,1.1540052001953125,0,0,0.6115200000000001
3.2311504149984103,0,0,1.254561669921875,0,0,0.84084
3.232536433992209,0,0,1.2521674682617188,0,0,0.99372
3.2339330639806576,0,0,1.4820108276367188,0,0,0.53508
3.235319545987295,0,0,1.3623007446289062,0,0,0.91728
3.236712768994039,0,0,1.5083470458984374,0,0,0.91728
3.2380989919765852,0,0,1.158793603515625,0,0,0.84084
3.2394849739794154,0,0,1.2952630981445312,0,0,0.53508
3.24087201198563,0,0,1.3646949462890625,0,0,0.6115200000000001
3.2422580869751982,0,0,1.1133037719726562,0,0,0.22932
3.243662160995882,0,0,1.4341267944335936,0,0,0.07644000000000001
3.2450492729840335,0,0,1.429338391113281,0,0,0.7644
3.2464358109864406,0,0,1.2378022583007813,0,0,0.84084
3.247822996985633,0,0,1.1755530151367186,0,0,0.68796
3.249208737979643,0,0,1.1731588134765625,0,0,1.07016
3.2505951469938736,0,0,1.158793603515625,0,0,0.30576000000000003
3.251982257992495,0,0,1.2138602416992186,0,0,0.7644
3.253367999976035,0,0,1.1348515869140625,0,0,1.37592
3.254754425986903,0,0,1.5059528442382812,0,0,0.7644
3.256139908975456,0,0,1.3024457031249999,0,0,0.7644
3.257526205998147,0,0,1.6065093139648436,0,0,1.07016
3.2589118359901477,0,0,1.1635820068359375,0,0,0.7644
3.2602963369863573,0,0,1.254561669921875,0,0,0.3822
3.261680355994031,0,0,1.2880804931640624,0,0,0.45864
3.2630760419997387,0,0,1.2641384765625,0,0,0.6115200000000001
3.2644654129981063,0,0,1.4724340209960938,0,0,0.3822
3.2658533769717906,0,0,1.2928688964843749,0,0,0.6115200000000001
3.267240432993276,0,0,1.419761584472656,0,0,0.84084
3.2686273969884496,0,0,1.1252747802734375,0,0,0.84084
3.2700143969850615,0,0,1.216254443359375,0,0,0.99372
3.2714008239854593,0,0,1.1085153686523437,0,0,0.45864
3.272787583991885,0,0,1.1923124267578125,0,0,0.7644
3.274175602971809,0,0,1.2641384765625,0,0,1.1465999999999998
3.2755626589932945,0,0,1.4915876342773438,0,0,0.6115200000000001
3.276949918974424,0,0,1.3718775512695311,0,0,0.68796
3.2783370679826476,0,0,1.5227122558593749,0,0,1.07016
3.2797326609725133,0,0,1.1731588134765625,0,0,0.91728
3.281119254999794,0,0,1.1444283935546875,0,0,0.84084
3.2825064589851536,0,0,1.120486376953125,0,0,0.45864
3.2838945149851497,0,0,1.2832920898437499,0,0,0.45864
3.28528049797751,0,0,1.5059528442382812,0,0,0.15288000000000002
3.2866672949749045,0,0,1.3383587280273437,0,0,0.84084
3.2880522209743503,0,0,1.5825672973632812,0,0,0.6115200000000001
3.289430443983292,0,0,1.2761094848632812,0,0,0.7644
3.2908086859970354,0,0,1.209071838378906,0,0,0.6115200000000001
3.292203963996144,0,0,1.1156979736328125,0,0,0.45864
3.293590945977485,0,0,1.2234370483398436,0,0,0.68796
3.2949774469889235,0,0,1.3910311645507811,0,0,0.91728
3.2963646149728447,0,0,1.455674609375,0,0,0.84084
3.2977512999786995,0,0,1.5275006591796874,0,0,0.45864
3.299137300986331,0,0,1.4867992309570313,0,0,0.84084
3.3005244319792837,0,0,1.216254443359375,0,0,1.1465999999999998
3.3019101539975964,0,0,1.0390835205078124,0,0,0.7644
3.303296395984944,0,0,1.2018892333984375,0,0,0.7644
3.3046828779915813,0,0,1.2880804931640624,0,0,0.6115200000000001
3.306069378973916,0,0,1.4341267944335936,0,0,0.68796
3.3074559169763234,0,0,1.2880804931640624,0,0,0.91728
3.3088426949980203,0,0,1.5394716674804687,0,0,1.2994800000000002
3.3102291589893866,0,0,1.149216796875,0,0,0.53508
3.3116163259837776,0,0,1.1037269653320312,0,0,0.68796
3.313013252976816,0,0,1.180341418457031,0,0,0.45864
3.3143994939746335,0,0,1.149216796875,0,0,0.30576000000000003
3.315786457998911,0,0,1.47482822265625,0,0,0.0
3.3171729399764445,0,0,1.448492004394531,0,0,0.6115200000000001
3.318559606996132,0,0,1.5825672973632812,0,0,0.84084
3.3199470339750405,0,0,1.2928688964843749,0,0,0.7644
3.3213330719736405,0,0,1.1851298217773436,0,0,1.1465999999999998
3.322719886986306,0,0,1.199495031738281,0,0,1.07016
3.324113924987614,0,0,1.180341418457031,0,0,0.53508
3.3255003329832107,0,0,1.1755530151367186,0,0,1.07016
3.3271105159947183,0,0,1.5107412475585937,0,0,0.84084
3.3284995909780264,0,0,1.3383587280273437,0,0,0.6115200000000001
3.3298873879830353,0,0,1.4891934326171874,0,0,0.99372
3.3312747219752055,0,0,1.1923124267578125,0,0,1.07016
3.3326614259858616,0,0,1.1061211669921875,0,0,0.91728
3.3340479639882687,0,0,1.2042834350585936,0,0,0.53508
3.335434186999919,0,0,1.1276689819335937,0,0,0.3822
3.3368598169763573,0,0,1.3934253662109375,0,0,1.07016
3.339013492979575,0,0,1.350329736328125,0,0,0.84084
3.3404088639945257,0,0,1.5346832641601562,0,0,1.2230400000000001
3.3417968829744495,0,0,1.1372457885742187,0,0,0.99372
3.3431837169919163,0,0,1.1635820068359375,0,0,0.99372
3.344570124987513,0,0,1.1827356201171875,0,0,0.45864
3.3459569589758758,0,0,1.2210428466796874,0,0,1.2994800000000002
3.3473431269812863,0,0,1.3718775512695311,0,0,0.53508
3.348729960998753,0,0,1.3048399047851562,0,0,20
3.3501166839851066,0,0,1.62805712890625,0,0,0.0
3.3515239439730067,0,0,1.2593500732421874,0,0,0.99372
3.352910814981442,0,0,1.254561669921875,0,0,0.45864
3.35429694497725,0,0,1.180341418457031,0,0,0.68796
3.3556852599722333,0,0,1.16837041015625,0,0,0.45864
3.3570728169870563,0,0,1.3144167114257812,0,0,0.45864
3.358459242997924,0,0,1.446097802734375,0,0,1.07016
3.3598470219876617,0,0,1.3359645263671873,0,0,0.7644
3.3612335229991004,0,0,1.5155296508789062,0,0,0.7644
3.362619948980864,0,0,1.197100830078125,0,0,0.91728
3.3640071909758262,0,0,1.1444283935546875,0,0,1.1465999999999998
3.3653987839934416,0,0,1.1540052001953125,0,0,0.99372
3.3668015069852117,0,0,1.3575123413085937,0,0,1.2230400000000001
3.3682115439733025,0,0,1.39821376953125,0,0,0.45864
3.3696001559728757,0,0,1.3024457031249999,0,0,1.07016
3.370987267990131,0,0,1.5418658691406248,0,0,0.91728
3.3723696199886035,0,0,1.0989385620117187,0,0,0.91728
3.373748916987097,0,0,1.1228805786132812,0,0,0.6115200000000001
3.3751277329865843,0,0,1.2018892333984375,0,0,0.53508
3.376515418989584,0,0,1.2856862915039062,0,0,0.6115200000000001
3.3779020859801676,0,0,1.4149731811523436,0,0,0.0
3.379288401978556,0,0,1.5131354492187499,0,0,0.84084
3.38067530997796,0,0,1.5897499023437498,0,0,0.91728
3.382065847981721,0,0,1.3311761230468748,0,0,0.7644
3.383452033973299,0,0,1.1707646118164061,0,0,1.07016
3.384840404993156,0,0,1.1563994018554686,0,0,0.84084
3.3862266649957746,0,0,1.2234370483398436,0,0,0.91728
3.3876132399891503,0,0,1.4101847778320311,0,0,1.1465999999999998
3.38900062898756,0,0,1.618480322265625,0,0,0.91728
3.3903868889901787,0,0,1.2306196533203124,0,0,0.6115200000000001
3.3917737789743114,0,0,1.465251416015625,0,0,0.91728
3.39315844597877,0,0,1.0989385620117187,0,0,1.07016
3.39454448397737,0,0,1.0941501586914062,0,0,0.68796
3.3959316139807925,0,0,1.218648645019531,0,0,0.6115200000000001
3.3973173559934366,0,0,1.1851298217773436,0,0,0.22932
3.398703429993475,0,0,1.4508862060546874,0,0,0.07644000000000001
3.400090134993661,0,0,1.24498486328125,0,0,0.68796
3.401476135972189,0,0,1.5658078857421873,0,0,0.91728
3.4028621729812585,0,0,1.216254443359375,0,0,0.6115200000000001
3.4042486929974984,0,0,1.1420341918945311,0,0,0.7644
3.405634859984275,0,0,1.218648645019531,0,0,0.6115200000000001
3.407028397981776,0,0,1.1252747802734375,0,0,0.84084
3.4084152869763784,0,0,1.446097802734375,0,0,0.7644
3.4098177689884324,0,0,1.419761584472656,0,0,0.68796
3.4112046029767953,0,0,1.2880804931640624,0,0,0.53508
3.4125983449921478,0,0,1.3431471313476562,0,0,0.99372
3.4139849379716907,0,0,1.2425906616210938,0,0,1.2230400000000001
3.415371012990363,0,0,1.2473790649414063,0,0,1.07016
3.4167586249823216,0,0,1.2018892333984375,0,0,0.6115200000000001
3.418144458992174,0,0,1.22583125,0,0,0.53508
3.419530255981954,0,0,1.47482822265625,0,0,0.30576000000000003
3.4209170159883797,0,0,1.350329736328125,0,0,1.2994800000000002
3.422303256986197,0,0,1.4221557861328125,0,0,1.1465999999999998
3.423706294997828,0,0,1.20667763671875,0,0,0.84084
3.4250939069897868,0,0,1.2306196533203124,0,0,0.53508
3.426479980989825,0,0,1.1420341918945311,0,0,0.53508
3.4278659079864156,0,0,1.1228805786132812,0,0,0.53508
3.429251908994047,0,0,1.2928688964843749,0,0,1.1465999999999998
3.430650816997513,0,0,1.3862427612304686,0,0,0.91728
3.432041335996473,0,0,1.235408056640625,0,0,0.7644
3.4334285769728012,0,0,1.199495031738281,0,0,0.68796
3.4348163189715706,0,0,1.189918225097656,0,0,1.07016
3.436204152996652,0,0,1.2018892333984375,0,0,0.7644
3.437591560999863,0,0,1.1635820068359375,0,0,0.84084
3.4389787839900237,0,0,1.254561669921875,0,0,0.6115200000000001
3.440367024973966,0,0,1.4508862060546874,0,0,0.91728
3.4417538959824014,0,0,1.3024457031249999,0,0,0.6115200000000001
3.443141100986395,0,0,1.599326708984375,0,0,0.99372
3.4445287129783537,0,0,1.1707646118164061,0,0,0.99372
3.4459161019767635,0,0,1.1252747802734375,0,0,0.7644
3.447303547000047,0,0,1.0989385620117187,0,0,0.45864
3.448691121971933,0,0,1.2282254516601563,0,0,0.6115200000000001
3.4500780669914093,0,0,1.5203180541992187,0,0,0.30576000000000003
3.451465863996418,0,0,1.3407529296874998,0,0,0.99372
3.452853457973106,0,0,1.4963760375976562,0,0,0.84084
3.454240809980547,0,0,1.419761584472656,0,0,0.7644
3.4556376439868473,0,0,1.2713210815429687,0,0,0.68796
3.457025829993654,0,0,1.2497732666015624,0,0,0.7644
3.4584127939888276,0,0,1.1420341918945311,0,0,1.07016
3.4598011459747795,0,0,1.3431471313476562,0,0,1.07016
3.4611877019924577,0,0,1.3838485595703125,0,0,0.68796
3.462575258978177,0,0,1.3742717529296875,0,0,0.99372
3.4639634259801824,0,0,1.4437036010742186,0,0,1.07016
3.4653499079868197,0,0,1.199495031738281,0,0,0.91728
3.4667373159900308,0,0,1.1444283935546875,0,0,0.68796
3.468151519977255,0,0,1.2306196533203124,0,0,0.53508
3.469539335987065,0,0,1.254561669921875,0,0,0.7644
3.47092626299127,0,0,1.4341267944335936,0,0,0.0
3.4723135599924717,0,0,1.3287819213867187,0,0,0.53508
3.47370122699067,0,0,1.5370774658203123,0,0,0.84084
3.475088227976812,0,0,1.3263877197265623,0,0,0.6115200000000001
3.476475783973001,0,0,1.197100830078125,0,0,0.7644
3.4778629329812247,0,0,1.1085153686523437,0,0,0.68796
3.4792499339964706,0,0,1.254561669921875,0,0,0.99372
3.4806379529763944,0,0,1.3958195678710936,0,0,0.91728
3.4820245829760097,0,0,1.6232687255859375,0,0,0.7644
3.4834115649864543,0,0,1.4101847778320311,0,0,0.91728
3.4847988809924573,0,0,1.4987702392578124,0,0,0.7644
3.486185936984839,0,0,1.16837041015625,0,0,1.07016
3.4875729929772206,0,0,1.1348515869140625,0,0,0.68796
3.4889604569762014,0,0,1.2378022583007813,0,0,0.22932
3.490347494982416,0,0,1.3072341064453123,0,0,0.45864
3.4917350509786047,0,0,1.350329736328125,0,0,0.3822
3.493121125997277,0,0,1.2569558715820313,0,0,0.68796
3.494508218980627,0,0,1.5322890624999999,0,0,0.68796
3.4958958869974595,0,0,1.216254443359375,0,0,0.68796
3.497282442986034,0,0,1.1875240234375,0,0,0.53508
3.4986704439797904,0,0,1.199495031738281,0,0,0.68796
3.500065721978899,0,0,1.0797849487304687,0,0,0.6115200000000001
3.5014526119921356,0,0,1.4532804077148436,0,0,0.68796
3.502839574997779,0,0,1.446097802734375,0,0,0.99372
3.5042265199881513,0,0,1.2497732666015624,0,0,0.7644
3.5056137619831134,0,0,1.3215993164062498,0,0,0.99372
3.507001613994362,0,0,1.2210428466796874,0,0,1.2994800000000002
3.508388762973482,0,0,1.218648645019531,0,0,0.91728
3.509775800979696,0,0,1.3072341064453123,0,0,0.91728
3.5111634679778945,0,0,1.1755530151367186,0,0,1.1465999999999998
3.512565579992952,0,0,1.4772224243164063,0,0,0.45864
3.513952857989352,0,0,1.3000515014648437,0,0,1.07016
3.5153398589754943,0,0,1.4053963745117186,0,0,1.1465999999999998
3.516752044990426,0,0,1.0534487304687499,0,0,0.53508
3.5181674149935134,0,0,1.1875240234375,0,0,0.53508
3.5195565089816228,0,0,1.197100830078125,0,0,0.6115200000000001
3.5209439909958746,0,0,1.1444283935546875,0,0,0.30576000000000003
3.522331250977004,0,0,1.4987702392578124,0,0,0.7644
3.5237160109973047,0,0,1.3814543579101561,0,0,0.68796
3.5250945299922023,0,0,1.235408056640625,0,0,0.84084
3.5264892899722327,0,0,1.2138602416992186,0,0,0.6115200000000001
3.527876401989488,0,0,1.1611878051757811,0,0,0.99372
3.529264068987686,0,0,1.158793603515625,0,0,0.3822
3.5306513109826483,0,0,1.2665326782226562,0,0,0.7644
3.5320388299878687,0,0,1.3335703247070312,0,0,1.1465999999999998
3.533426089998102,0,0,1.429338391113281,0,0,0.84084
3.5348129060002975,0,0,1.1348515869140625,0,0,0.84084
3.5362329609924927,0,0,1.3120225097656248,0,0,1.07016
3.537624368997058,0,0,1.1109095703125,0,0,0.91728
3.5390121849777643,0,0,1.1923124267578125,0,0,0.84084
3.5404000749986153,0,0,1.2210428466796874,0,0,0.45864
3.541787537978962,0,0,1.3144167114257812,0,0,0.30576000000000003
3.54318481698283,0,0,1.2785036865234374,0,0,0.22932
3.5445734839886427,0,0,1.2713210815429687,0,0,0.53508
3.5459608549717814,0,0,1.4772224243164063,0,0,0.6115200000000001
3.547348021995276,0,0,1.180341418457031,0,0,0.7644
3.5487353559874464,0,0,1.2425906616210938,0,0,0.84084
3.5501225979824085,0,0,1.218648645019531,0,0,0.6115200000000001
3.551509412995074,0,0,1.209071838378906,0,0,0.91728
3.552897043991834,0,0,1.35990654296875,0,0,0.99372
3.5542844149749726,0,0,1.407790576171875,0,0,0.91728
3.5556726749928202,0,0,1.2521674682617188,0,0,0.84084
3.557059915998252,0,0,1.5418658691406248,0,0,1.07016
3.5584470100002363,0,0,1.1707646118164061,0,0,0.68796
3.559834620973561,0,0,1.1851298217773436,0,0,0.53508
3.5612208069942426,0,0,1.218648645019531,0,0,0.6115200000000001
3.562608011998236,0,0,1.2665326782226562,0,0,0.7644
3.5639955859805923,0,0,1.4796166259765624,0,0,0.6115200000000001
