Time,AccelX1,AccelY1,AccelZ1,AccelX2,AccelY2,AccelZ2
4.944013198837638e-06,0,0,1.2641384765625,0,0,0.84084
0.003636561013991013,0,0,1.209071838378906,0,0,0.84084
0.007343010016484186,0,0,1.3048399047851562,0,0,0.7644
0.011030348017811775,0,0,1.3168109130859373,0,0,0.91728
0.014528725005220622,0,0,1.1085153686523437,0,0,0.84084
0.01764427500893362,0,0,1.1707646118164061,0,0,0.6115200000000001
0.020804232015507296,0,0,1.4030021728515625,0,0,0.99372
0.023915022000437602,0,0,1.2952630981445312,0,0,2.2167600000000003
0.027025571995181963,0,0,1.2928688964843749,0,0,0.91728
0.03013280700542964,0,0,1.3718775512695311,0,0,0.7644
0.033239634009078145,0,0,1.0893617553710937,0,0,0.91728
0.036571792006725445,0,0,1.1085153686523437,0,0,0.84084
0.03976508101914078,0,0,1.2282254516601563,0,0,0.84084
0.042881983012193814,0,0,1.3383587280273437,0,0,0.7644
0.046005976997548714,0,0,1.0989385620117187,0,0,0.6115200000000001
0.04910989699419588,0,0,1.0821791503906248,0,0,0.68796
0.052228354004910216,0,0,1.3215993164062498,0,0,0.84084
0.05535340399364941,0,0,1.3575123413085937,0,0,0.99372
0.0584698980092071,0,0,1.3311761230468748,0,0,0.53508
0.0615868550084997,0,0,1.2737152832031249,0,0,0.53508
0.0646910899959039,0,0,1.0965443603515623,0,0,0.68796
0.0680268960131798,0,0,1.0917559570312498,0,0,0.6115200000000001
0.07173023401992396,0,0,1.2952630981445312,0,0,0.91728
0.07486585699371062,0,0,1.419761584472656,0,0,0.68796
0.0779883700015489,0,0,1.1875240234375,0,0,0.91728
0.0811479190015234,0,0,1.1348515869140625,0,0,0.53508
0.08426276501268148,0,0,1.2880804931640624,0,0,0.68796
0.08737498099799268,0,0,1.2473790649414063,0,0,-8.7906
0.0904966969974339,0,0,1.2521674682617188,0,0,0.91728
0.09361522900871933,0,0,1.2521674682617188,0,0,0.53508
0.09673414900316857,0,0,1.3407529296874998,0,0,0.6115200000000001
0.09996751102153212,0,0,1.1468225952148436,0,0,0.6115200000000001
0.10314633802045137,0,0,1.2617442749023438,0,0,0.68796
0.10624711000127718,0,0,1.5131354492187499,0,0,0.68796
0.10934856699896045,0,0,1.455674609375,0,0,0.53508
0.11248689400963485,0,0,1.3359645263671873,0,0,0.53508
0.11558718502055854,0,0,1.3311761230468748,0,0,0.45864
0.11868229100946337,0,0,1.1180921752929687,0,0,0.84084
0.12179872900014743,0,0,1.2401964599609374,0,0,0.45864
0.12491574199520983,0,0,1.2904746948242187,0,0,0.91728
0.12807466101367027,0,0,1.5035586425781249,0,0,0.84084
0.13122463601757772,0,0,1.3934253662109375,0,0,0.68796
0.13432348301284947,0,0,1.2832920898437499,0,0,0.7644
0.13742251400253735,0,0,1.3623007446289062,0,0,1.75812
0.14054069301346317,0,0,1.2761094848632812,0,0,0.68796
0.1436502610158641,0,0,1.2521674682617188,0,0,0.68796
0.14674464499694295,0,0,1.3239935180664062,0,0,1.1465999999999998
0.14986504599801265,0,0,1.4772224243164063,0,0,0.7644
0.15296994801610708,0,0,1.3144167114257812,0,0,0.99372
0.1560806090128608,0,0,1.1420341918945311,0,0,0.53508
0.15924345402163453,0,0,1.3670891479492187,0,0,0.91728
0.16235807799967006,0,0,1.2425906616210938,0,0,0.7644
0.16547201600042172,0,0,1.2306196533203124,0,0,0.6115200000000001
0.1685869740031194,0,0,1.2306196533203124,0,0,0.30576000000000003
0.1717022639932111,0,0,1.2665326782226562,0,0,1.1465999999999998
0.17481585100176744,0,0,1.3766659545898436,0,0,0.6115200000000001
0.17792991900932975,0,0,1.3383587280273437,0,0,0.68796
0.18104506100644358,0,0,1.2928688964843749,0,0,0.53508
0.18421833199681714,0,0,1.5203180541992187,0,0,0.91728
0.18753300901153125,0,0,1.0941501586914062,0,0,0.91728
0.19065966899506748,0,0,1.3215993164062498,0,0,0.53508
0.19377799701760523,0,0,1.1061211669921875,0,0,0.3822
0.19689769501565024,0,0,1.1540052001953125,0,0,0.7644
0.20000991100096144,0,0,1.2713210815429687,0,0,0.68796
0.20314062701072544,0,0,1.448492004394531,0,0,0.91728
0.20626276900293306,0,0,1.407790576171875,0,0,0.84084
0.20938015199499205,0,0,1.2378022583007813,0,0,0.68796
0.21253107200027443,0,0,1.2641384765625,0,0,0.91728
0.2156405849964358,0,0,1.438915197753906,0,0,0.91728
0.2187344120175112,0,0,1.2785036865234374,0,0,0.68796
0.2218524810159579,0,0,1.3646949462890625,0,0,0.84084
0.22496756701730192,0,0,1.458068811035156,0,0,0.91728
0.22808758000610396,0,0,1.5107412475585937,0,0,0.91728
0.23122514801798388,0,0,1.2785036865234374,0,0,0.6115200000000001
0.23436569701880217,0,0,1.3144167114257812,0,0,0.68796
0.23753717201179825,0,0,1.4173673828125,0,0,0.6115200000000001
0.24066216600476764,0,0,1.3646949462890625,0,0,0.7644
0.2439898420125246,0,0,1.2880804931640624,0,0,0.53508
0.24710981801035814,0,0,1.3431471313476562,0,0,0.84084
0.25020766400848515,0,0,1.0869675537109373,0,0,0.7644
0.2533292320149485,0,0,1.0869675537109373,0,0,0.45864
0.2564482260204386,0,0,1.4724340209960938,0,0,0.84084
0.25982721699983813,0,0,1.5179238525390624,0,0,0.68796
0.2629749510088004,0,0,1.2689268798828124,0,0,0.7644
0.26609487101086415,0,0,1.3646949462890625,0,0,0.68796
0.2691964020195883,0,0,1.24498486328125,0,0,0.7644
0.2723130820086226,0,0,1.158793603515625,0,0,0.84084
0.2754339649982285,0,0,1.2378022583007813,0,0,1.1465999999999998
0.27854719999595545,0,0,1.3646949462890625,0,0,0.91728
0.28166408301331103,0,0,1.2976572998046874,0,0,1.1465999999999998
0.2847732990048826,0,0,1.1468225952148436,0,0,0.7644
0.2878856080060359,0,0,1.2593500732421874,0,0,0.91728
0.29100343500613235,0,0,1.3407529296874998,0,0,1.07016
0.294120706996182,0,0,1.3623007446289062,0,0,0.7644
0.29723518301034346,0,0,1.3215993164062498,0,0,0.91728
0.3003504179941956,0,0,1.3742717529296875,0,0,0.84084
0.3034662450081669,0,0,1.2234370483398436,0,0,0.68796
0.3065783320053015,0,0,1.3311761230468748,0,0,0.53508
0.30969317801645957,0,0,1.43652099609375,0,0,0.7644
0.31284117200993933,0,0,1.5131354492187499,0,0,0.68796
0.3159594619937707,0,0,1.2282254516601563,0,0,0.6115200000000001
0.31909817800624296,0,0,1.3766659545898436,0,0,0.30576000000000003
0.3222240610048175,0,0,1.5179238525390624,0,0,0.99372
0.3253379439993296,0,0,1.0941501586914062,0,0,0.84084
0.3284688820131123,0,0,1.3000515014648437,0,0,0.45864
0.3315815620007925,0,0,1.5227122558593749,0,0,0.45864
0.33467742599896155,0,0,1.5227122558593749,0,0,1.07016
0.33780166099313647,0,0,1.3287819213867187,0,0,0.91728
0.34090865499456413,0,0,1.2401964599609374,0,0,0.53508
0.34402007501921616,0,0,1.22583125,0,0,0.91728
0.3471382920106407,0,0,1.1085153686523437,0,0,-9.09636
0.3502555820159614,0,0,1.2617442749023438,0,0,0.53508
0.35337079799501225,0,0,1.4939818359375,0,0,0.7644
0.3565082919958513,0,0,1.2713210815429687,0,0,0.84084
0.3596264340158086,0,0,1.3168109130859373,0,0,0.6115200000000001
0.36273963199346326,0,0,1.3383587280273437,0,0,0.7644
0.36589486701996066,0,0,1.2330138549804688,0,0,0.84084
0.36901362001663074,0,0,1.0893617553710937,0,0,0.91728
0.37213204000727274,0,0,1.254561669921875,0,0,0.91728
0.3752467379963491,0,0,1.37906015625,0,0,0.84084
0.37835986202117056,0,0,1.2114660400390624,0,0,0.6115200000000001
0.3814750589954201,0,0,1.1755530151367186,0,0,0.6115200000000001
0.38473834801698104,0,0,1.2665326782226562,0,0,0.7644
0.38805030201910995,0,0,1.3527239379882812,0,0,0.7644
0.3914082930132281,0,0,1.0869675537109373,0,0,0.6115200000000001
0.3945287310052663,0,0,1.3431471313476562,0,0,0.3822
0.3976509110070765,0,0,1.3335703247070312,0,0,0.7644
0.40075686800992116,0,0,1.1252747802734375,0,0,0.6115200000000001
0.4038560290064197,0,0,1.1228805786132812,0,0,0.7644
0.4069918930181302,0,0,1.4101847778320311,0,0,0.68796
0.4100891840062104,0,0,1.446097802734375,0,0,0.68796
0.41324240001267754,0,0,1.1851298217773436,0,0,0.6115200000000001
0.41636004199972376,0,0,1.4437036010742186,0,0,0.6115200000000001
0.41947218400309794,0,0,1.3335703247070312,0,0,0.91728
0.42256427099346183,0,0,1.3623007446289062,0,0,0.7644
0.4256846170173958,0,0,1.3407529296874998,0,0,0.7644
0.42880238901125267,0,0,1.4101847778320311,0,0,0.7644
0.4319198089942802,0,0,1.3766659545898436,0,0,0.91728
0.43509867301327176,0,0,1.0869675537109373,0,0,0.53508
0.43831536901416257,0,0,1.2401964599609374,0,0,0.53508
0.4415229170117527,0,0,1.3670891479492187,0,0,0.7644
0.4448340010130778,0,0,1.235408056640625,0,0,0.7644
0.447963125014212,0,0,1.3359645263671873,0,0,0.30576000000000003
0.45111211901530623,0,0,1.3263877197265623,0,0,0.7644
0.4542269649973605,0,0,1.3646949462890625,0,0,0.3822
0.4573589590145275,0,0,1.2569558715820313,0,0,0.7644
0.46048482300830074,0,0,1.4963760375976562,0,0,1.1465999999999998
0.46360385400475934,0,0,1.3646949462890625,0,0,0.84084
0.4667172369954642,0,0,1.199495031738281,0,0,0.68796
0.46983743499731645,0,0,1.2856862915039062,0,0,0.99372
0.4729530030163005,0,0,1.2880804931640624,0,0,0.6115200000000001
0.4760683859931305,0,0,1.3359645263671873,0,0,0.84084
0.47921876900363714,0,0,1.2976572998046874,0,0,1.1465999999999998
0.4823347630153876,0,0,1.3072341064453123,0,0,0.91728
0.4854502940142993,0,0,1.3263877197265623,0,0,0.7644
0.48857087999931537,0,0,1.2210428466796874,0,0,0.68796
0.4916887629951816,0,0,1.2737152832031249,0,0,0.91728
0.4948030910163652,0,0,1.209071838378906,0,0,0.84084
0.4979188260040246,0,0,1.2737152832031249,0,0,0.7644
0.5010348380019423,0,0,1.2832920898437499,0,0,0.7644
0.513837255013641,0,0,1.446097802734375,0,0,0.53508
0.5170032299938612,0,0,1.429338391113281,0,0,0.68796
0.5198027089936659,0,0,1.3551181396484375,0,0,0.84084
0.5225843749940395,0,0,1.3407529296874998,0,0,-8.63772
0.525372022006195,0,0,1.5011644409179687,0,0,0.84084
0.5281778720091097,0,0,1.3527239379882812,0,0,0.68796
0.530985443998361,0,0,1.2665326782226562,0,0,0.6115200000000001
0.5337696280039381,0,0,1.2713210815429687,0,0,0.6115200000000001
0.5365554790187161,0,0,1.4317325927734375,0,0,-9.01992
0.5393399220192805,0,0,1.0845733520507812,0,0,0.84084
0.5421328460215591,0,0,1.3479355346679687,0,0,1.2230400000000001
0.5449427340063266,0,0,1.2425906616210938,0,0,0.68796
0.547827767994022,0,0,1.3311761230468748,0,0,0.91728
0.5506610250158701,0,0,1.1851298217773436,0,0,0.99372
0.5534628379973583,0,0,1.3096283081054687,0,0,0.53508
0.5562621699937154,0,0,1.47482822265625,0,0,0.68796
0.5591237230109982,0,0,1.458068811035156,0,0,0.99372
0.5619369990017731,0,0,1.120486376953125,0,0,0.84084
0.5647323680168483,0,0,1.1252747802734375,0,0,0.68796
0.5675326450145803,0,0,1.5251064575195312,0,0,0.68796
0.5703281430178322,0,0,1.458068811035156,0,0,0.91728
0.5731254190031905,0,0,1.0773907470703123,0,0,0.84084
0.575925418001134,0,0,1.3048399047851562,0,0,0.84084
0.5787227310065646,0,0,1.5682020874023437,0,0,0.7644
0.5815656920021866,0,0,1.5035586425781249,0,0,0.91728
0.5844496150093619,0,0,1.0773907470703123,0,0,0.7644
0.5872668170195539,0,0,1.22583125,0,0,0.6115200000000001
0.5900599450105801,0,0,1.3479355346679687,0,0,0.68796
0.5928617220197339,0,0,1.426944189453125,0,0,0.99372
0.5956615350150969,0,0,1.2880804931640624,0,0,1.07016
0.5984591440064833,0,0,1.2952630981445312,0,0,0.15288000000000002
0.601257328002248,0,0,1.24498486328125,0,0,0.6115200000000001
0.6040566970186774,0,0,1.1635820068359375,0,0,0.7644
0.6070191010076087,0,0,1.3335703247070312,0,0,0.53508
0.6098210430063773,0,0,1.2952630981445312,0,0,0.84084
0.612621542008128,0,0,1.1109095703125,0,0,0.68796
0.6155374090012629,0,0,1.3048399047851562,0,0,0.91728
0.6186253300111275,0,0,1.2713210815429687,0,0,0.84084
0.6217619350063615,0,0,1.4413093994140624,0,0,0.53508
0.6248789100209251,0,0,1.3192051147460937,0,0,0.07644000000000001
0.6280026450112928,0,0,1.3239935180664062,0,0,0.53508
0.6311280090012588,0,0,1.4245499877929686,0,0,0.7644
0.6342482810141519,0,0,1.3120225097656248,0,0,0.6115200000000001
0.6373680900142062,0,0,1.3359645263671873,0,0,0.91728
0.6404837510199286,0,0,1.3192051147460937,0,0,1.1465999999999998
0.643641928996658,0,0,1.4724340209960938,0,0,1.07016
0.6467591090186033,0,0,1.4772224243164063,0,0,0.6115200000000001
0.6498768440214917,0,0,1.2473790649414063,0,0,0.6115200000000001
0.653025448002154,0,0,1.4341267944335936,0,0,0.99372
0.6561824420059565,0,0,1.388636962890625,0,0,0.6115200000000001
0.6593012509983964,0,0,1.2306196533203124,0,0,0.53508
0.6624149490089621,0,0,1.3527239379882812,0,0,0.6115200000000001
0.6655305910098832,0,0,1.3192051147460937,0,0,0.91728
0.6686473070003558,0,0,1.139639990234375,0,0,0.7644
0.6717642639996484,0,0,1.216254443359375,0,0,0.6115200000000001
0.6748804810049478,0,0,1.467645617675781,0,0,0.7644
0.6779962340078782,0,0,1.4101847778320311,0,0,0.7644
0.6811169690045062,0,0,1.369483349609375,0,0,0.45864
0.6842314070090652,0,0,1.3766659545898436,0,0,0.45864
0.6874202520120889,0,0,1.2904746948242187,0,0,0.99372
0.690597948996583,0,0,1.2808978881835937,0,0,0.68796
0.6937139249930624,0,0,1.3072341064453123,0,0,0.84084
0.6968293450190686,0,0,1.3910311645507811,0,0,0.6115200000000001
0.699945413012756,0,0,1.3192051147460937,0,0,0.91728
0.7030916660150979,0,0,1.2210428466796874,0,0,0.6115200000000001
0.7062078450107947,0,0,1.3239935180664062,0,0,0.99372
0.7093225620046724,0,0,1.369483349609375,0,0,0.99372
0.7124721659929492,0,0,1.35990654296875,0,0,0.84084
0.7156247340026312,0,0,1.2880804931640624,0,0,0.91728
0.7187386910081841,0,0,1.2928688964843749,0,0,0.84084
0.7218548340024427,0,0,1.2138602416992186,0,0,2.2167600000000003
0.7249701789987739,0,0,1.2330138549804688,0,0,0.6115200000000001
0.7280923590005841,0,0,1.4149731811523436,0,0,0.6115200000000001
0.7312861300015356,0,0,1.4772224243164063,0,0,0.84084
0.7344071980041917,0,0,1.3168109130859373,0,0,0.68796
0.73751383999479,0,0,1.3623007446289062,0,0,0.3822
0.7406415930017829,0,0,1.5251064575195312,0,0,0.68796
0.7437518470105715,0,0,1.218648645019531,0,0,0.84084
0.7468474890047219,0,0,1.0869675537109373,0,0,0.68796
0.74998968699947,0,0,1.2737152832031249,0,0,0.6115200000000001
0.7531198660144582,0,0,1.3838485595703125,0,0,0.6115200000000001
0.7562351750093512,0,0,1.3000515014648437,0,0,0.84084
0.7593520020018332,0,0,1.3551181396484375,0,0,0.45864
0.7624641630100086,0,0,1.22583125,0,0,0.68796
0.7655779900087509,0,0,1.0821791503906248,0,0,0.84084
0.7686928920156788,0,0,1.3144167114257812,0,0,1.2230400000000001
0.771809182013385,0,0,1.43652099609375,0,0,0.7644
0.7749213990173303,0,0,1.2761094848632812,0,0,0.7644
0.7780649670166895,0,0,1.3215993164062498,0,0,0.53508
0.7811805900128093,0,0,1.2904746948242187,0,0,0.68796
0.7842954359948635,0,0,1.2689268798828124,0,0,0.84084
0.7881998830125667,0,0,1.1563994018554686,0,0,0.6115200000000001
0.791368987003807,0,0,1.3431471313476562,0,0,0.3822
0.794482240016805,0,0,1.3215993164062498,0,0,0.45864
0.7975999010086525,0,0,1.1252747802734375,0,0,0.7644
0.8007158210093621,0,0,1.2330138549804688,0,0,1.2230400000000001
0.8038319080078509,0,0,1.3934253662109375,0,0,1.07016
0.8069815130147617,0,0,1.3575123413085937,0,0,0.84084
0.8101013770210557,0,0,1.0845733520507812,0,0,0.84084
0.8132150559977163,0,0,1.2521674682617188,0,0,0.6115200000000001
0.8163657170080114,0,0,1.2641384765625,0,0,0.84084
0.8194820260105189,0,0,1.1468225952148436,0,0,2.2167600000000003
0.8225948350154795,0,0,1.3263877197265623,0,0,0.91728
0.8257100699993316,0,0,1.426944189453125,0,0,0.91728
0.8288240450201556,0,0,1.2569558715820313,0,0,0.99372
0.8319397240120452,0,0,1.0749965454101562,0,0,0.6115200000000001
0.835081903001992,0,0,1.484405029296875,0,0,0.6115200000000001
0.8381976200034842,0,0,1.3263877197265623,0,0,0.6115200000000001
0.841323853994254,0,0,1.4700398193359374,0,0,0.68796
0.8444433300173841,0,0,1.2641384765625,0,0,0.84084
0.8475599170196801,0,0,1.429338391113281,0,0,0.7644
0.8506717260170262,0,0,1.3287819213867187,0,0,0.6115200000000001
0.8537865900143515,0,0,1.2832920898437499,0,0,0.45864
0.8569008810154628,0,0,1.4221557861328125,0,0,0.53508
0.8600185599934775,0,0,1.458068811035156,0,0,0.91728
0.8631340170104522,0,0,1.3072341064453123,0,0,0.68796
0.8662514369934797,0,0,1.3575123413085937,0,0,0.07644000000000001
0.8693652640213259,0,0,1.458068811035156,0,0,0.53508
0.8724815180175938,0,0,1.2832920898437499,0,0,0.91728
0.8755977900000289,0,0,1.4867992309570313,0,0,2.14032
0.8787120060005691,0,0,1.9488801513671874,0,0,1.68168
0.8818780739966314,0,0,2.29843359375,0,0,1.98744
0.8850025680148974,0,0,2.91134921875,0,0,0.68796
0.8881735980103258,0,0,1.4867992309570313,0,0,0.53508
0.8912867400213145,0,0,1.5682020874023437,0,0,1.1465999999999998
0.8944049749989063,0,0,1.3024457031249999,0,0,1.37592
0.897732392011676,0,0,1.905784521484375,0,0,1.5288
0.900854886014713,0,0,2.39420166015625,0,0,1.83456
0.9039753990073223,0,0,1.8148048583984373,0,0,1.2230400000000001
0.9070962819969282,0,0,1.707065783691406,0,0,1.37592
0.9102118870068807,0,0,1.7956512451171873,0,0,0.91728
0.9133272519975435,0,0,1.6519991455078125,0,0,1.2994800000000002
0.9164778749982361,0,0,1.9943699829101562,0,0,1.68168
0.9195956100011244,0,0,1.5873557006835937,0,0,0.84084
0.9227211780089419,0,0,1.9321207397460936,0,0,1.5288
0.9258361899992451,0,0,2.205059729003906,0,0,1.45236
0.9289587959938217,0,0,1.158793603515625,0,0,0.6115200000000001
0.9320783269940875,0,0,2.059013427734375,0,0,1.2230400000000001
0.9352648940111976,0,0,1.5921441040039062,0,0,1.2994800000000002
0.9386974580120295,0,0,1.7980454467773437,0,0,1.98744
0.9418854690156877,0,0,1.946485949707031,0,0,1.75812
0.9449949450208806,0,0,2.176329309082031,0,0,1.1465999999999998
0.94810590200359,0,0,1.608903515625,0,0,1.2230400000000001
0.9512164329935331,0,0,1.4221557861328125,0,0,1.1465999999999998
0.9545317029987928,0,0,1.3239935180664062,0,0,0.68796
0.9576559000124689,0,0,2.142810485839844,0,0,2.4460800000000003
0.9607626170036383,0,0,1.9895815795898437,0,0,1.68168
0.9638738149951678,0,0,1.7357962036132812,0,0,0.22932
0.966994420014089,0,0,2.6767174560546874,0,0,1.1465999999999998
0.9701142840203829,0,0,1.7932570434570312,0,0,0.91728
0.9732299820170738,0,0,0.8858546142578124,0,0,1.60524
0.976345773000503,0,0,2.73896669921875,0,0,2.4460800000000003
0.9794715070165694,0,0,0.8786720092773437,0,0,0.7644
0.9825820020050742,0,0,2.3918074584960936,0,0,0.91728
0.985695070005022,0,0,1.9871873779296874,0,0,0.53508
0.9888075450144242,0,0,1.0965443603515623,0,0,1.2994800000000002
0.9919230400118977,0,0,2.1978771240234374,0,0,1.60524
0.995038145018043,0,0,1.695094775390625,0,0,0.45864
0.9981546020135283,0,0,2.8945898071289062,0,0,0.30576000000000003
1.0012954660051037,0,0,1.5586252807617187,0,0,0.68796
1.0045224770146888,0,0,1.7860744384765623,0,0,1.2994800000000002
1.0077502659987658,0,0,2.1452046874999997,0,0,3.4398000000000004
1.011067017010646,0,0,2.269703173828125,0,0,1.45236
1.0142655280069448,0,0,1.2761094848632812,0,0,1.1465999999999998
1.0175586120167281,0,0,1.5873557006835937,0,0,0.15288000000000002
1.0208314190094825,0,0,1.9991583862304687,0,0,1.75812
1.0240771340031642,0,0,1.9393033447265624,0,0,2.2931999999999997
1.0272769420116674,0,0,2.50912333984375,0,0,0.6115200000000001
1.0304438979947008,0,0,1.5442600708007812,0,0,-1.5288
1.0336417430080473,0,0,2.2936451904296873,0,0,3.4398000000000004
1.0367802180116996,0,0,2.4971523315429685,0,0,2.4460800000000003
1.039905453013489,0,0,0.814028564453125,0,0,-0.99372
1.0430576690123416,0,0,1.5394716674804687,0,0,3.36336
1.046195514005376,0,0,3.584119885253906,0,0,1.5288
1.0493121750187129,0,0,0.6248866333007812,0,0,-0.53508
1.0524467990035191,0,0,1.6328455322265625,0,0,2.2931999999999997
1.055596089019673,0,0,2.8562825805664063,0,0,2.5989600000000004
1.0587241940083914,0,0,0.5722141967773438,0,0,0.7644
1.0618492430076003,0,0,1.5969325073242187,0,0,2.75184
1.0650333290104754,0,0,3.967192150878906,0,0,1.75812
1.0681850080145523,0,0,0.08379705810546874,0,0,-1.5288
1.0713633900159039,0,0,2.683900061035156,0,0,0.68796
1.0745396800048184,0,0,1.6256629272460936,0,0,0.53508
1.0777793200104497,0,0,-0.9720458740234375,0,0,1.1465999999999998
1.0810052390152123,0,0,2.5474305664062498,0,0,1.07016
1.0842893600056414,0,0,-0.08140285644531249,0,0,0.6115200000000001
1.0875035380013287,0,0,2.195482922363281,0,0,1.68168
1.090866009995807,0,0,1.924938134765625,0,0,-9.784320000000001
1.0940438560210168,0,0,-0.8978256225585937,0,0,1.75812
1.0972971260198392,0,0,2.6886884643554687,0,0,1.2994800000000002
1.1005432660167571,0,0,-0.3591302490234375,0,0,-9.707880000000001
1.1037389440170955,0,0,2.272097375488281,0,0,1.68168
1.1070230470213573,0,0,2.578555187988281,0,0,-0.30576000000000003
1.1102156700217165,0,0,-1.0271125122070313,0,0,0.91728
1.113473328994587,0,0,2.528276953125,0,0,0.91728
1.1167667279951274,0,0,0.0430956298828125,0,0,0.91728
1.1199460540083237,0,0,2.104503259277344,0,0,2.36964
1.121380405005766,0,0,2.5857377929687497,0,0,1.75812
1.122758164012339,0,0,2.195482922363281,0,0,0.7644
1.1241359040141106,0,0,1.1348515869140625,0,0,0.6115200000000001
1.1255107000179123,0,0,0.06464344482421874,0,0,-0.53508
1.126887791993795,0,0,1.5251064575195312,0,0,0.22932
1.128267088002758,0,0,2.1404162841796874,0,0,2.06388
1.1296496239956468,0,0,1.608903515625,0,0,1.75812
1.1310457719955593,0,0,1.0726023437499999,0,0,0.45864
1.132424067996908,0,0,-0.23223756103515625,0,0,-0.30576000000000003
1.1338014930079225,0,0,-0.2753331909179687,0,0,0.0
1.1351866589975543,0,0,1.1444283935546875,0,0,0.7644
1.1365718440210912,0,0,2.5953145996093747,0,0,1.68168
1.1379568800039124,0,0,2.6791116577148437,0,0,2.82828
1.1393417690123897,0,0,1.0654197387695312,0,0,2.14032
1.140900729020359,0,0,-0.031124621582031248,0,0,-0.30576000000000003
1.1422889870009385,0,0,1.0989385620117187,0,0,0.0
1.143684024020331,0,0,1.944091748046875,0,0,0.99372
1.1450593009940349,0,0,2.817975354003906,0,0,1.1465999999999998
1.1464346340217162,0,0,2.360682836914062,0,0,2.06388
1.1478192080103327,0,0,1.4149731811523436,0,0,1.75812
1.1492021510202903,0,0,-0.6584054565429687,0,0,-0.45864
1.1505871690169442,0,0,0.1292868896484375,0,0,0.0
1.1519709099957254,0,0,0.7110778930664062,0,0,1.1465999999999998
1.153353761008475,0,0,1.9919757812499999,0,0,0.6115200000000001
1.1547366860031616,0,0,1.9201497314453124,0,0,1.45236
1.156119260005653,0,0,1.4700398193359374,0,0,1.75812
1.1575021110184025,0,0,0.5363011718749999,0,0,0.45864
1.158885259006638,0,0,1.3670891479492187,0,0,0.91728
1.160268609994091,0,0,2.2170307373046874,0,0,1.60524
1.1616513869957998,0,0,2.032677209472656,0,0,1.75812
1.1630526460066903,0,0,1.8052280517578123,0,0,0.53508
1.1644357750192285,0,0,0.82360537109375,0,0,0.15288000000000002
1.165818275010679,0,0,0.2609679809570312,0,0,0.0
1.1672024220169988,0,0,1.7453730102539062,0,0,0.07644000000000001
1.1685844589956105,0,0,1.8531120849609375,0,0,0.68796
1.1699669579975307,0,0,1.5825672973632812,0,0,0.99372
1.1713511240086518,0,0,0.4908113403320312,0,0,0.3822
1.172733383020386,0,0,-0.24899697265624998,0,0,-0.45864
1.174117438000394,0,0,-0.6057330200195312,0,0,0.99372
1.1755017340183258,0,0,2.0661960327148434,0,0,1.68168
1.1768848260107916,0,0,2.4899697265625,0,0,1.45236
1.1782676959992386,0,0,2.1978771240234374,0,0,2.4460800000000003
1.1796513620065525,0,0,1.4700398193359374,0,0,1.911
1.1810339350195136,0,0,0.7110778930664062,0,0,-0.6115200000000001
1.18241875001695,0,0,1.714248388671875,0,0,1.07016
1.1838013230008073,0,0,1.8435352783203125,0,0,1.1465999999999998
1.18518361900351,0,0,2.01112939453125,0,0,1.07016
1.1865659700124525,0,0,1.3239935180664062,0,0,0.7644
1.188919716019882,0,0,0.2561795776367187,0,0,9.24924
1.1903252890042495,0,0,1.3024457031249999,0,0,0.53508
1.1917201400210615,0,0,1.5801730957031248,0,0,1.37592
1.1931063800002448,0,0,1.6998831787109374,0,0,0.7644
1.1944916940119583,0,0,0.833182177734375,0,0,0.68796
1.1958922310150228,0,0,0.6368576416015624,0,0,1.2230400000000001
1.197280377993593,0,0,0.5530605834960938,0,0,0.0
1.198667804012075,0,0,2.128445275878906,0,0,1.98744
1.2000567660143133,0,0,2.8945898071289062,0,0,2.2931999999999997
1.201443691010354,0,0,2.195482922363281,0,0,1.07016
1.2028306720021646,0,0,0.9217676391601562,0,0,0.0
1.2042183940066025,0,0,0.22744915771484372,0,0,-0.6115200000000001
1.205606800998794,0,0,0.4165910888671875,0,0,0.07644000000000001
1.2069944300164934,0,0,1.9919757812499999,0,0,0.68796
1.2083808180177584,0,0,2.1787235107421874,0,0,2.06388
1.209767484018812,0,0,1.5131354492187499,0,0,1.2994800000000002
1.2111553169961553,0,0,-0.031124621582031248,0,0,0.0
1.2125428529980127,0,0,-0.46208092041015625,0,0,-1.1465999999999998
1.2139312229992356,0,0,-0.02633621826171875,0,0,0.45864
1.2153196670114994,0,0,2.4660277099609376,0,0,1.37592
1.2167060369974934,0,0,2.9496564453125,0,0,2.4460800000000003
1.218093277013395,0,0,2.7557261108398436,0,0,1.75812
1.2194814610120375,0,0,1.0965443603515623,0,0,1.2994800000000002
1.2208802940149326,0,0,-0.08379705810546874,0,0,-0.84084
1.222270219004713,0,0,1.3000515014648437,0,0,0.15288000000000002
1.2236574970011134,0,0,1.85790048828125,0,0,0.6115200000000001
1.225064680998912,0,0,2.5067291381835934,0,0,1.1465999999999998
1.226459661993431,0,0,1.3527239379882812,0,0,0.84084
1.2278470500023104,0,0,0.8834604125976562,0,0,-8.71416
1.2292343089939095,0,0,-0.3711012573242187,0,0,0.0
1.230622975010192,0,0,1.1827356201171875,0,0,0.53508
1.232012715016026,0,0,1.8219874633789062,0,0,2.4460800000000003
1.233399103017291,0,0,2.3870190551757813,0,0,1.1465999999999998
1.2348108240112197,0,0,1.3024457031249999,0,0,0.15288000000000002
1.2362524899945129,0,0,0.2537853759765625,0,0,0.45864
1.2376403600210324,0,0,0.36631285400390623,0,0,1.07016
1.2390304699947592,0,0,2.0183119995117185,0,0,1.68168
1.240417562017683,0,0,2.27927998046875,0,0,2.2167600000000003
1.2418040980119258,0,0,1.707065783691406,0,0,0.99372
1.243191931018373,0,0,0.2609679809570312,0,0,0.0
1.2445780790003482,0,0,-0.1484405029296875,0,0,-1.45236
1.2459751710121054,0,0,0.076614453125,0,0,0.91728
1.247362633002922,0,0,2.9975404785156248,0,0,2.2931999999999997
1.2487512250081636,0,0,3.239354846191406,0,0,2.36964
1.2501382990158163,0,0,0.9840168823242187,0,0,1.5288
1.2515250199940056,0,0,0.06464344482421874,0,0,0.6115200000000001
1.2529112969932612,0,0,-0.97683427734375,0,0,-1.60524
1.2542997230193578,0,0,1.3215993164062498,0,0,0.0
1.2556868700194173,0,0,2.4349030883789062,0,0,1.1465999999999998
1.2570733330212533,0,0,3.375824340820312,0,0,2.14032
1.258459442993626,0,0,1.898601916503906,0,0,1.75812
1.259846072003711,0,0,0.9193734375,0,0,1.45236
1.2612352010037284,0,0,-1.1348515869140625,0,0,-1.5288
1.2626231080212165,0,0,0.679953271484375,0,0,-0.22932
1.264011607010616,0,0,1.917755529785156,0,0,2.2167600000000003
1.2653990329999942,0,0,3.0741549316406247,0,0,1.5288
1.26678573602112,0,0,1.8842367065429686,0,0,1.2994800000000002
1.2681728650059085,0,0,-0.507570751953125,0,0,0.07644000000000001
1.2695603090105578,0,0,-0.8954314208984374,0,0,-0.3822
1.2709484380029608,0,0,0.8762778076171874,0,0,0.07644000000000001
1.2723355480120517,0,0,2.9376854370117185,0,0,1.68168
1.2737217520189006,0,0,2.8754361938476563,0,0,1.60524
1.2751091030077077,0,0,1.0917559570312498,0,0,1.2994800000000002
1.2764951210119762,0,0,-0.3136404174804687,0,0,0.07644000000000001
1.2778821389947552,0,0,-0.6679822631835937,0,0,0.53508
1.279270027007442,0,0,2.1691467041015624,0,0,0.99372
1.2806560820026789,0,0,2.786850732421875,0,0,2.14032
1.2820428039995022,0,0,1.66636435546875,0,0,1.68168
1.2834310439939145,0,0,1.01514150390625,0,0,0.91728
1.2848162279988173,0,0,-0.2705447875976562,0,0,-0.99372
1.2862043759960216,0,0,0.93852705078125,0,0,0.07644000000000001
1.2875910610018764,0,0,2.1116858642578125,0,0,1.5288
1.2889775969961192,0,0,3.1962592163085937,0,0,1.911
1.290364208020037,0,0,2.003946789550781,0,0,1.83456
1.2917493550048675,0,0,0.82360537109375,0,0,1.45236
1.2931338180205785,0,0,-1.70467158203125,0,0,-1.68168
1.2945196320069954,0,0,0.16998831787109375,0,0,-0.68796
1.2959853339998517,0,0,1.6543933471679686,0,0,1.2994800000000002
1.2973746480129194,0,0,3.584119885253906,0,0,1.45236
1.2987625359965023,0,0,2.6719290527343746,0,0,1.98744
1.3001502950210124,0,0,-0.062249243164062495,0,0,1.5288
1.301538719999371,0,0,-1.5011644409179687,0,0,9.40212
1.3029428489971906,0,0,-0.16998831787109375,0,0,-0.30576000000000003
1.304324719007127,0,0,2.5905261962890624,0,0,1.68168
1.3057039779960178,0,0,3.1172505615234374,0,0,1.911
1.3083801260218024,0,0,0.4525041137695312,0,0,0.0
1.3097677920013666,0,0,-0.5889736083984375,0,0,0.3822
1.311157403019024,0,0,1.4772224243164063,0,0,0.15288000000000002
1.3125428100174759,0,0,2.0973206542968748,0,0,1.1465999999999998
1.3139290499966592,0,0,2.437297290039062,0,0,1.911
1.3153164749965072,0,0,1.2641384765625,0,0,1.07016
1.3167020300170407,0,0,-0.076614453125,0,0,0.0
1.3180890479998197,0,0,0.842758984375,0,0,0.68796
1.3194751029950567,0,0,1.9871873779296874,0,0,1.5288
1.320861195010366,0,0,2.786850732421875,0,0,1.2230400000000001
1.3222475460206624,0,0,2.1547814941406247,0,0,1.83456
1.3236337680136785,0,0,1.2641384765625,0,0,1.37592
1.3250202670169529,0,0,-0.5195417602539062,0,0,-0.84084
1.3264080260123592,0,0,0.6655880615234374,0,0,0.07644000000000001
1.3277948400063906,0,0,1.5873557006835937,0,0,1.45236
1.329214747005608,0,0,2.588131994628906,0,0,0.91728
1.3306037269940134,0,0,2.185906115722656,0,0,1.2994800000000002
1.3319918380002491,0,0,0.21308394775390624,0,0,1.07016
1.3333783370035235,0,0,-0.5099649536132812,0,0,-0.53508
1.3347663000167813,0,0,0.4429273071289062,0,0,0.0
1.3361528550158255,0,0,2.2601263671875,0,0,1.83456
1.3375397430208977,0,0,2.4779987182617185,0,0,1.60524
1.3389446680084802,0,0,2.3343466186523436,0,0,1.83456
1.340332463994855,0,0,0.5243301635742187,0,0,0.45864
1.341719407995697,0,0,-0.74699091796875,0,0,-0.22932
1.343107221997343,0,0,1.3575123413085937,0,0,-0.3822
1.3444936840096489,0,0,2.2840683837890623,0,0,0.91728
1.3458805910195224,0,0,2.7844565307617186,0,0,1.83456
1.3472677940153517,0,0,2.020706201171875,0,0,1.37592
1.3486542940081563,0,0,0.5578489868164063,0,0,-0.30576000000000003
1.3500414970039856,0,0,-0.3064578125,0,0,0.0
1.35142958900542,0,0,0.7805097412109374,0,0,0.30576000000000003
1.3528158480185084,0,0,1.5921441040039062,0,0,0.22932
1.3542025689966977,0,0,2.262520568847656,0,0,1.07016
1.355589383019833,0,0,1.8100164550781248,0,0,1.37592
1.3569757350196596,0,0,0.16998831787109375,0,0,0.0
1.3583623640006408,0,0,0.8259995727539062,0,0,1.2994800000000002
1.3597488999948837,0,0,1.85790048828125,0,0,2.2167600000000003
1.3611350660212338,0,0,1.8818425048828125,0,0,1.45236
1.3625219550158363,0,0,1.3215993164062498,0,0,1.07016
1.3639083610032685,0,0,0.9624690673828125,0,0,0.53508
1.3652952309930697,0,0,0.39743747558593745,0,0,-1.1465999999999998
1.3666824710089713,0,0,1.1013327636718748,0,0,0.30576000000000003
1.3680691930057947,0,0,2.5953145996093747,0,0,2.06388
1.3694556370028295,0,0,2.370259643554687,0,0,2.14032
1.3708420440088958,0,0,1.467645617675781,0,0,0.91728
1.3722286169941071,0,0,-0.3232172241210937,0,0,0.53508
1.3736156540107913,0,0,-0.7278373046875,0,0,-0.53508
1.3750041350140236,0,0,2.1260510742187497,0,0,0.15288000000000002
1.376391041005263,0,0,2.877830395507812,0,0,1.83456
1.3777771150053013,0,0,2.8850130004882812,0,0,1.68168
1.3791638000111561,0,0,1.5011644409179687,0,0,1.68168
1.3805494100088254,0,0,0.46208092041015625,0,0,0.6115200000000001
1.3819356129970402,0,0,0.16519991455078123,0,0,0.53508
1.383322316018166,0,0,1.3838485595703125,0,0,0.45864
1.3847309080010746,0,0,2.2481553588867187,0,0,0.53508
1.3862575350212865,0,0,2.2481553588867187,0,0,0.84084
1.3877201080031227,0,0,1.5682020874023437,0,0,1.2230400000000001
1.389229124004487,0,0,0.076614453125,0,0,-0.3822
1.3906201969948597,0,0,0.354341845703125,0,0,0.30576000000000003
1.3920033080212306,0,0,1.6424223388671875,0,0,0.99372
1.3933827150030993,0,0,1.7908628417968748,0,0,1.07016
1.394761733012274,0,0,1.6136919189453125,0,0,1.2994800000000002
1.3961643429938704,0,0,0.9265560424804687,0,0,1.83456
1.3975525830173865,0,0,0.8403647827148437,0,0,0.3822
1.3989408230117988,0,0,2.0254946044921875,0,0,1.1465999999999998
1.400320045009721,0,0,1.8914193115234375,0,0,1.2230400000000001
1.4016988600196782,0,0,1.7932570434570312,0,0,0.7644
1.403084507008316,0,0,0.8355763793945312,0,0,9.555
1.4044724700215738,0,0,0.6584054565429687,0,0,-0.15288000000000002
1.4058605240134057,0,0,0.7589619262695312,0,0,0.7644
1.4072449679952115,0,0,2.446874096679687,0,0,0.6115200000000001
1.4086241530021653,0,0,2.3822306518554686,0,0,1.60524
1.4100034120201599,0,0,1.024718310546875,0,0,1.68168
1.4113889849977568,0,0,0.07900865478515624,0,0,0.3822
1.4127764849981759,0,0,-0.59376201171875,0,0,-0.6115200000000001
1.414166077011032,0,0,1.1109095703125,0,0,0.84084
1.41555350201088,0,0,2.8562825805664063,0,0,1.60524
1.416941242001485,0,0,3.4811692138671875,0,0,1.911
1.4183290750079323,0,0,2.626439221191406,0,0,2.36964
1.4197169819963165,0,0,1.1252747802734375,0,0,1.60524
1.4211039259971585,0,0,-1.3766659545898436,0,0,-1.37592
1.4224932400102261,0,0,-0.25139117431640623,0,0,-0.30576000000000003
1.423884795018239,0,0,2.8323405639648436,0,0,1.45236
1.4252724050020333,0,0,3.1483751831054687,0,0,1.1465999999999998
1.4266601820127107,0,0,2.2074539306640624,0,0,0.53508
1.4280473490071017,0,0,0.01915361328125,0,0,1.2994800000000002
1.4294338850013446,0,0,-0.40462008056640625,0,0,0.07644000000000001
1.4308219400118105,0,0,0.35673604736328124,0,0,0.30576000000000003
1.4322089579945896,0,0,1.924938134765625,0,0,1.45236
1.4335961980104912,0,0,2.1452046874999997,0,0,1.2994800000000002
1.434998031007126,0,0,1.3646949462890625,0,0,0.0
1.436385456006974,0,0,0.7015010864257812,0,0,0.45864
1.4377834550105035,0,0,0.4477157104492187,0,0,0.84084
1.4392487310105935,0,0,2.896984008789062,0,0,1.5288
1.4407111369946506,0,0,2.913743420410156,0,0,1.83456
1.4421014880063012,0,0,1.1013327636718748,0,0,1.98744
1.4434953769959975,0,0,-0.06943184814453125,0,0,-0.3822
1.444886265002424,0,0,-0.45968671875,0,0,-1.60524
1.446278172021266,0,0,1.0319009155273438,0,0,0.3822
1.44766607802012,0,0,3.1028853515624997,0,0,1.83456
1.4490531150077004,0,0,2.858676782226562,0,0,1.60524
1.4504405220213812,0,0,1.438915197753906,0,0,2.2167600000000003
1.451830965001136,0,0,-1.3431471313476562,0,0,1.07016
1.4532194090133999,0,0,-1.458068811035156,0,0,-1.5288
1.4546075200196356,0,0,0.316034619140625,0,0,0.07644000000000001
1.4559951669943985,0,0,3.912125512695312,0,0,2.2167600000000003
1.4573829260189086,0,0,3.825934252929687,0,0,2.14032
1.4587699249968864,0,0,2.6886884643554687,0,0,2.2167600000000003
1.4601581839961,0,0,-0.603338818359375,0,0,-8.102640000000001
1.4615462580113672,0,0,-1.4963760375976562,0,0,-0.99372
1.462948201020481,0,0,2.0566192260742184,0,0,0.0
1.464328664005734,0,0,3.201047619628906,0,0,1.5288
1.4657076820149086,0,0,3.23696064453125,0,0,1.60524
1.4670928480045404,0,0,1.158793603515625,0,0,0.45864
1.4684795880166348,0,0,-0.4429273071289062,0,0,0.0
1.4698670500074513,0,0,0.07422025146484375,0,0,-9.784320000000001
1.4712553650024347,0,0,1.697488977050781,0,0,0.84084
1.4726416600169614,0,0,2.7557261108398436,0,0,1.37592
1.4740280859987251,0,0,2.0638018310546875,0,0,1.75812
1.4754153070098255,0,0,1.5442600708007812,0,0,1.68168
1.476801973010879,0,0,-0.4429273071289062,0,0,-0.22932
1.4781890470185317,0,0,0.33518823242187495,0,0,0.22932
1.4795757870015223,0,0,1.707065783691406,0,0,0.7644
1.4809619529987685,0,0,2.9975404785156248,0,0,0.84084
1.4823486749955919,0,0,2.2553379638671873,0,0,1.37592
1.483735489018727,0,0,1.659181750488281,0,0,1.45236
1.4851224140147679,0,0,-0.7637503295898437,0,0,20
1.4865105060162023,0,0,0.11013327636718749,0,0,0.07644000000000001
1.4878980799985584,0,0,2.5330653564453125,0,0,1.45236
1.4892843940178864,0,0,3.124433166503906,0,0,1.2230400000000001
1.4906773930124473,0,0,2.252943762207031,0,0,0.91728
1.4920621890050825,0,0,-0.3806780639648437,0,0,0.68796
1.4934468739957083,0,0,-1.5251064575195312,0,0,-1.1465999999999998
1.494832688011229,0,0,1.4628572143554686,0,0,0.0
1.4962330020207446,0,0,2.7557261108398436,0,0,1.60524
1.497621315997094,0,0,3.5098996337890624,0,0,1.83456
1.4990098900161684,0,0,2.0542250244140625,0,0,2.06388
1.5003967780212406,0,0,0.2561795776367187,0,0,2.4460800000000003
1.5017838329949882,0,0,-1.1037269653320312,0,0,-0.53508
1.5031732950010337,0,0,1.5418658691406248,0,0,-1.07016
1.5045596650161315,0,0,3.6631285400390623,0,0,1.60524
1.5059465170197655,0,0,3.308786694335937,0,0,2.14032
1.5073346639983356,0,0,2.0781670410156248,0,0,1.75812
1.5087210340134334,0,0,-0.16280571289062498,0,0,-0.6115200000000001
1.51010897802189,0,0,-1.886630908203125,0,0,-0.30576000000000003
1.51149712500046,0,0,0.28490999755859375,0,0,-0.15288000000000002
1.5128848839958664,0,0,3.0621839233398433,0,0,0.30576000000000003
1.5142725320183672,0,0,3.0837317382812497,0,0,2.2931999999999997
1.5156596610031556,0,0,2.935291235351562,0,0,3.0576
1.5170471410092432,0,0,-0.46686932373046874,0,0,0.30576000000000003
1.518434382014675,0,0,-0.8499415893554687,0,0,0.53508
1.5200145819981117,0,0,2.300827795410156,0,0,1.83456
1.5214062480081338,0,0,3.1220389648437497,0,0,1.45236
1.522794229007559,0,0,2.1595698974609374,0,0,0.68796
1.5241827279969584,0,0,0.9935936889648437,0,0,0.99372
1.5255701540154405,0,0,-0.22505495605468748,0,0,-0.30576000000000003
1.526959448994603,0,0,1.2976572998046874,0,0,-0.6115200000000001
1.5283477079938166,0,0,2.142810485839844,0,0,0.91728
1.5297502629982773,0,0,1.8531120849609375,0,0,2.06388
1.5311384100059513,0,0,1.5035586425781249,0,0,1.2994800000000002
1.5325276130170096,0,0,0.29927520751953124,0,0,0.0
1.533914575993549,0,0,-0.229843359375,0,0,0.7644
1.535299853014294,0,0,1.6352397338867186,0,0,0.68796
1.5366788340033963,0,0,2.6791116577148437,0,0,1.5288
1.5380578339973,0,0,2.5163059448242184,0,0,2.14032
1.5394385550171137,0,0,2.1595698974609374,0,0,2.36964
1.5408181660168339,0,0,-0.6631938598632812,0,0,-0.6115200000000001
1.5422144799958915,0,0,-0.7517793212890624,0,0,-0.22932
1.5435954430140555,0,0,1.3215993164062498,0,0,0.7644
1.5449743310164195,0,0,3.1771056030273437,0,0,0.91728
1.5463529599946924,0,0,2.281674182128906,0,0,1.911
1.5477397740178276,0,0,0.47165772705078124,0,0,1.68168
1.5491265890013892,0,0,-0.9241618408203125,0,0,-0.53508
1.5505140320165083,0,0,-0.6943184814453125,0,0,-0.3822
1.5519013100129087,0,0,1.7788918334960937,0,0,0.68796
1.553287328017177,0,0,2.767697119140625,0,0,1.07016
1.5546736599935684,0,0,2.6144682128906247,0,0,1.5288
1.5560582890175283,0,0,1.8291700683593748,0,0,2.98116
1.5574549550074153,0,0,0.34715924072265625,0,0,0.07644000000000001
1.5588424550078344,0,0,0.8355763793945312,0,0,-0.22932
1.5602292320108972,0,0,1.216254443359375,0,0,0.68796
1.5616154540039133,0,0,1.917755529785156,0,0,0.68796
1.563008194003487,0,0,1.9297265380859374,0,0,0.0
1.5643946189957205,0,0,1.2114660400390624,0,0,0.53508
1.5657807480019983,0,0,0.4836287353515625,0,0,0.91728
1.5671676920028403,0,0,1.4317325927734375,0,0,0.6115200000000001
1.5685532100033015,0,0,1.4987702392578124,0,0,2.36964
1.569943376001902,0,0,0.8834604125976562,0,0,1.45236
1.5713315049943049,0,0,1.01514150390625,0,0,0.6115200000000001
1.5727180789981503,0,0,0.507570751953125,0,0,-9.784320000000001
1.5741198000032455,0,0,1.2593500732421874,0,0,1.45236
1.5755025400139857,0,0,2.863465185546875,0,0,1.911
1.5768815579940565,0,0,2.664746447753906,0,0,1.75812
1.5782606690190732,0,0,1.7980454467773437,0,0,2.06388
1.5796480200078804,0,0,1.1947066284179686,0,0,1.37592
1.5810342420008965,0,0,-1.0702081420898437,0,0,-1.60524
1.582421963015804,0,0,-0.08379705810546874,0,0,0.0
1.5838086110015865,0,0,2.674323254394531,0,0,1.37592
1.5851945180038456,0,0,2.9041666137695312,0,0,1.37592
1.5865806100191548,0,0,1.5346832641601562,0,0,1.5288
1.587966591003351,0,0,0.1580173095703125,0,0,1.5288
1.5893523679987993,0,0,-0.43574470214843747,0,0,0.22932
1.5907391080108937,0,0,2.0470424194335934,0,0,0.15288000000000002
1.5921250889950898,0,0,2.233790148925781,0,0,1.98744
1.5935092550062109,0,0,2.6503812377929687,0,0,1.2230400000000001
1.5948932920000516,0,0,1.35990654296875,0,0,1.2230400000000001
1.5962957169977017,0,0,0.25139117431640623,0,0,1.2994800000000002
1.5976834010216407,0,0,0.46208092041015625,0,0,-0.15288000000000002
1.5990713450009935,0,0,2.042254016113281,0,0,0.45864
1.6004677519958932,0,0,2.4061726684570313,0,0,1.1465999999999998
1.601853881002171,0,0,2.042254016113281,0,0,1.75812
1.6032441400166135,0,0,1.3192051147460937,0,0,0.84084
1.604629602021305,0,0,-0.5243301635742187,0,0,-0.6115200000000001
1.6060173980076797,0,0,0.08379705810546874,0,0,1.1465999999999998
1.6074041009997018,0,0,1.6615759521484375,0,0,0.6115200000000001
1.6087893410003744,0,0,2.5905261962890624,0,0,0.91728
1.6101755810086615,0,0,1.5969325073242187,0,0,1.37592
1.6115616180177312,0,0,1.2306196533203124,0,0,1.37592
1.6129475250199903,0,0,-0.06943184814453125,0,0,-1.07016
1.6143347829929553,0,0,1.0127473022460938,0,0,0.91728
1.615720820002025,0,0,2.418143676757812,0,0,1.911
1.6171138750214595,0,0,2.616862414550781,0,0,0.91728
1.618500781012699,0,0,1.5705962890624998,0,0,1.5288
1.6199037990008947,0,0,-0.0526724365234375,0,0,1.1465999999999998
1.6212900760001503,0,0,-1.0654197387695312,0,0,-0.91728
1.62267746499856,0,0,2.3918074584960936,0,0,0.15288000000000002
1.6240638339950237,0,0,2.971204260253906,0,0,2.2167600000000003
1.6254498710040934,0,0,3.284844677734375,0,0,1.60524
1.6268363700073678,0,0,1.0223241088867188,0,0,1.1465999999999998
1.628222536004614,0,0,-0.16759411621093748,0,0,0.99372
1.6296092580014374,0,0,0.1580173095703125,0,0,0.22932
1.630996498017339,0,0,1.9201497314453124,0,0,0.30576000000000003
1.6323826459993143,0,0,2.4516625,0,0,1.37592
1.6337685160106048,0,0,2.128445275878906,0,0,1.45236
1.6351551820116583,0,0,1.5083470458984374,0,0,0.45864
1.6365406069962773,0,0,0.09337386474609374,0,0,-0.53508
1.6379272180201951,0,0,0.09816226806640624,0,0,0.3822
1.6393144210160244,0,0,2.0063409912109376,0,0,1.1465999999999998
1.6406998460006434,0,0,3.1220389648437497,0,0,1.07016
1.642085383005906,0,0,1.608903515625,0,0,1.83456
1.643472975003533,0,0,0.8116343627929687,0,0,0.45864
1.6448589000210632,0,0,-0.9816226806640624,0,0,-1.2230400000000001
1.6462456959998235,0,0,0.6105214233398437,0,0,1.1465999999999998
1.6476316949992906,0,0,3.0645781249999997,0,0,1.60524
1.6490183240093756,0,0,3.318363500976562,0,0,1.45236
1.6504037489939947,0,0,1.8770541015625,0,0,2.2167600000000003
1.6517895639990456,0,0,-0.3687070556640625,0,0,1.5288
1.653176766994875,0,0,-1.4508862060546874,0,0,-1.68168
1.6545639880059753,0,0,2.4684219116210935,0,0,-0.45864
1.655950506014051,0,0,3.2609026611328122,0,0,1.911
1.657336728007067,0,0,3.7229835815429686,0,0,1.1465999999999998
1.6587300240062177,0,0,1.7669208251953124,0,0,1.68168
1.6601164680032525,0,0,0.2561795776367187,0,0,0.91728
1.661508707999019,0,0,-1.6472107421875,0,0,0.0
1.6628957810171414,0,0,1.4867992309570313,0,0,-1.07016
1.6642825769959018,0,0,2.7054478759765623,0,0,1.60524
1.6656685759953689,0,0,2.408566870117187,0,0,1.911
1.667055057012476,0,0,1.7238251953125,0,0,1.60524
1.6684406489948742,0,0,0.25139117431640623,0,0,0.53508
1.669826778001152,0,0,-1.0175357055664063,0,0,0.3822
1.671213869994972,0,0,0.9864110839843749,0,0,-0.15288000000000002
1.6725997960020322,0,0,3.5218706420898434,0,0,0.7644
1.6739854990155436,0,0,2.70065947265625,0,0,1.68168
1.675371757009998,0,0,2.5234885498046875,0,0,2.2167600000000003
1.6767576830170583,0,0,-0.5315127685546874,0,0,0.30576000000000003
1.6781789410160854,0,0,-0.6248866333007812,0,0,1.2994800000000002
1.679567292012507,0,0,2.166752502441406,0,0,1.1465999999999998
1.6809539580135606,0,0,3.1675287963867187,0,0,0.53508
1.68234747601673,0,0,2.2864625854492187,0,0,1.5288
1.6837333280127496,0,0,1.0678139404296874,0,0,1.37592
1.6851213820045814,0,0,-0.3902548706054687,0,0,-0.53508
1.6865089930070098,0,0,-0.21787235107421873,0,0,-0.45864
1.6879048630071338,0,0,1.5466542724609373,0,0,2.06388
1.6893571200198494,0,0,2.4588451049804685,0,0,1.2994800000000002
1.690791249013273,0,0,2.360682836914062,0,0,1.68168
1.6923450049944222,0,0,0.63206923828125,0,0,0.45864
1.693813299993053,0,0,-0.8020575561523438,0,0,0.30576000000000003
1.6952157620107755,0,0,1.2641384765625,0,0,0.15288000000000002
1.696605224016821,0,0,3.4907460205078125,0,0,1.83456
1.6979922979953699,0,0,2.712630480957031,0,0,2.14032
1.699380297010066,0,0,2.1643583007812497,0,0,2.2931999999999997
1.7007659079972655,0,0,-1.0965443603515623,0,0,-0.7644
1.702155370003311,0,0,-1.4149731811523436,0,0,-0.30576000000000003
1.7035426100192126,0,0,2.1499930908203124,0,0,9.555
1.704947776015615,0,0,3.6631285400390623,0,0,0.3822
1.706335201015463,0,0,3.1603461914062496,0,0,2.36964
1.7077223310188856,0,0,0.9169792358398436,0,0,1.98744
1.7091090710018761,0,0,-0.63206923828125,0,0,-0.99372
1.7104966629995033,0,0,-1.3670891479492187,0,0,-0.22932
1.7118860320188105,0,0,1.649604943847656,0,0,1.45236
1.7132724950206466,0,0,3.0334535034179684,0,0,0.91728
1.714661383011844,0,0,2.6695348510742187,0,0,1.68168
1.716063716012286,0,0,1.4341267944335936,0,0,2.36964
1.7174631590023637,0,0,0.1005564697265625,0,0,-0.3822
1.7188509739935398,0,0,0.7326257080078125,0,0,-0.7644
1.7202383800176904,0,0,1.6136919189453125,0,0,1.98744
1.7216251390054822,0,0,2.710236279296875,0,0,1.37592
1.7230124720081221,0,0,2.3774422485351563,0,0,1.2994800000000002
1.7243999899947084,0,0,0.9600748657226562,0,0,0.07644000000000001
1.725786582013825,0,0,-0.9169792358398436,0,0,0.45864
1.7271744330064394,0,0,0.6560112548828124,0,0,-0.3822
1.7285607290104963,0,0,2.5857377929687497,0,0,1.1465999999999998
1.7299540800158866,0,0,2.5043349365234375,0,0,1.98744
1.7313444309984334,0,0,2.24097275390625,0,0,1.2994800000000002
1.7327340049960185,0,0,-0.18435352783203124,0,0,-0.45864
1.7341234479972627,0,0,-0.584185205078125,0,0,0.91728
1.7355074850202072,0,0,1.656787548828125,0,0,0.3822
1.7368864839954767,0,0,2.693476867675781,0,0,1.07016
1.738264910003636,0,0,2.308010400390625,0,0,2.14032
1.7396556129970122,0,0,1.3934253662109375,0,0,2.2931999999999997
1.7411149630206637,0,0,0.12210428466796874,0,0,-1.07016
1.7425046480202582,0,0,0.7541735229492187,0,0,0.15288000000000002
1.7439049990207423,0,0,1.47482822265625,0,0,1.5288
1.7452852580172475,0,0,2.5665841796874997,0,0,0.45864
1.7466647020191886,0,0,2.4396914916992185,0,0,1.60524
1.74805286800256,0,0,1.22583125,0,0,1.1465999999999998
1.749455682002008,0,0,-0.7852981445312499,0,0,-0.22932
1.7508437370124739,0,0,0.5985504150390625,0,0,-0.99372
1.7522304209996946,0,0,1.8195932617187498,0,0,1.98744
1.7536168470105622,0,0,2.602497204589844,0,0,2.36964
1.75500408699736,0,0,2.6958710693359373,0,0,1.2230400000000001
1.7563905860006344,0,0,1.4413093994140624,0,0,1.68168
1.7577769000199623,0,0,-0.6560112548828124,0,0,0.07644000000000001
1.7591640670143533,0,0,0.3854664672851562,0,0,-0.99372
1.7605507880216464,0,0,2.4588451049804685,0,0,0.68796
1.7619367510196753,0,0,2.528276953125,0,0,1.60524
1.7633244910102803,0,0,2.3630770385742186,0,0,1.37592
1.7647101939946879,0,0,0.13168109130859373,0,0,-0.15288000000000002
1.7660964709939435,0,0,-0.584185205078125,0,0,1.2230400000000001
1.767483859002823,0,0,1.6256629272460936,0,0,0.0
1.7688696370169055,0,0,2.473210314941406,0,0,0.45864
1.770259729004465,0,0,2.023100402832031,0,0,1.911
1.7716473210020922,0,0,1.199495031738281,0,0,1.60524
1.7730543749930803,0,0,0.3112462158203125,0,0,-1.2230400000000001
1.7744463749986608,0,0,1.2952630981445312,0,0,0.30576000000000003
1.7758577440108638,0,0,2.152387292480469,0,0,1.07016
1.777244614000665,0,0,2.6192566162109374,0,0,0.91728
1.7786311320087407,0,0,1.6065093139648436,0,0,0.7644
1.7800180570047814,0,0,0.5339069702148437,0,0,1.60524
1.7814046860148665,0,0,-0.4285620971679687,0,0,-1.60524
1.782792389014503,0,0,1.5322890624999999,0,0,-0.30576000000000003
1.7841794260020833,0,0,2.645592834472656,0,0,2.52252
1.785565147001762,0,0,1.956062756347656,0,0,1.2230400000000001
1.7869523690023925,0,0,1.608903515625,0,0,0.91728
1.7883394800010137,0,0,0.430956298828125,0,0,0.53508
1.7897256269934587,0,0,-0.6081272216796875,0,0,0.0
1.7911117750045378,0,0,1.7717092285156248,0,0,-0.3822
1.7925025520089548,0,0,3.227383837890625,0,0,1.60524
1.7938875510008074,0,0,2.482787121582031,0,0,2.6754
1.7952855690091383,0,0,2.2481553588867187,0,0,1.45236
1.7966742910211906,0,0,-0.15322890625,0,0,-9.172799999999999
1.7980629939993378,0,0,-0.833182177734375,0,0,0.22932
1.7994519750063773,0,0,2.1547814941406247,0,0,-0.15288000000000002
1.8008390670001972,0,0,2.786850732421875,0,0,0.15288000000000002
1.8022263619932346,0,0,2.0159177978515626,0,0,1.68168
1.8036133990099188,0,0,0.8978256225585937,0,0,1.83456
1.805000602005748,0,0,0.07900865478515624,0,0,-1.2994800000000002
1.806388101016637,0,0,1.0295067138671874,0,0,1.2994800000000002
1.807775916007813,0,0,1.707065783691406,0,0,1.68168
1.8091763220145367,0,0,2.2290017456054687,0,0,0.15288000000000002
1.8105633399973158,0,0,1.707065783691406,0,0,0.91728
1.811950617004186,0,0,0.9792284790039062,0,0,1.75812
1.8133375979959965,0,0,0.17956512451171874,0,0,-1.07016
1.814725300995633,0,0,2.214636535644531,0,0,0.53508
1.8161131530068815,0,0,2.9855694702148434,0,0,2.6754
1.8174920970050152,0,0,1.7884686401367187,0,0,1.68168
1.8188717260200065,0,0,1.2617442749023438,0,0,1.07016
1.8202793179953005,0,0,-0.15562310791015624,0,0,0.68796
1.8216693169961218,0,0,-1.0558429321289062,0,0,0.0
1.8230581679963507,0,0,1.8842367065429686,0,0,-0.91728
1.8244457789987791,0,0,3.797203833007812,0,0,2.06388
1.8258322970068548,0,0,2.3056161987304686,0,0,1.83456
1.8272190180141479,0,0,1.7645266235351562,0,0,1.75812
1.828604295005789,0,0,-1.1133037719726562,0,0,-0.22932
1.8299914429953787,0,0,-1.35990654296875,0,0,0.0
1.8313793130218983,0,0,2.980781066894531,0,0,9.40212
1.832765183004085,0,0,4.050989208984375,0,0,1.1465999999999998
1.8341645339969546,0,0,3.296815686035156,0,0,2.4460800000000003
1.8355508109962102,0,0,0.6200982299804687,0,0,2.36964
1.8369436070206575,0,0,-1.0869675537109373,0,0,-1.5288
1.8383309210184962,0,0,-1.8698714965820311,0,0,-0.30576000000000003
1.8397179760213476,0,0,2.6910826660156246,0,0,-0.15288000000000002
1.841104160004761,0,0,3.938461730957031,0,0,0.53508
1.842490214999998,0,0,2.0254946044921875,0,0,1.45236
1.8438762330042664,0,0,0.5123591552734374,0,0,2.82828
1.8452630290121306,0,0,-0.7709329345703124,0,0,-1.98744
1.8466498060151935,0,0,0.5267243652343749,0,0,-0.3822
1.848036306007998,0,0,2.6862942626953124,0,0,1.5288
1.8494221570144873,0,0,2.8802245971679685,0,0,1.07016
1.8508078050217591,0,0,1.9416975463867185,0,0,1.2994800000000002
1.8521939149941318,0,0,0.3184288208007812,0,0,1.911
1.8535797480144538,0,0,-1.5921441040039062,0,0,-0.3822
1.8549672840163112,0,0,0.7254431030273437,0,0,-0.15288000000000002
1.8563540989998728,0,0,4.240131140136718,0,0,1.911
1.8577399130153935,0,0,3.5865140869140624,0,0,2.2167600000000003
1.8591264680144377,0,0,2.5761609863281247,0,0,1.37592
1.8605118190171197,0,0,-1.6136919189453125,0,0,0.84084
1.861898689006921,0,0,-2.128445275878906,0,0,-0.53508
1.863286355015589,0,0,-0.09337386474609374,0,0,-0.30576000000000003
1.864672427996993,0,0,4.244919543457031,0,0,1.37592
1.8660584460012615,0,0,3.6583401367187496,0,0,20
1.867449648998445,0,0,0.928950244140625,0,0,0.0
1.8688347779971082,0,0,-0.9600748657226562,0,0,-0.99372
1.8702215370140038,0,0,-2.3535002319335936,0,0,-0.84084
1.8716136850125622,0,0,1.2761094848632812,0,0,-0.45864
1.8729989989951719,0,0,3.440467785644531,0,0,0.22932
1.8743856090004556,0,0,2.2864625854492187,0,0,1.98744
1.8757716460095253,0,0,0.7110778930664062,0,0,1.07016
1.8771576269937214,0,0,-0.6607996582031249,0,0,-2.36964
1.8785444410168566,0,0,-1.0941501586914062,0,0,-0.15288000000000002
1.879937699995935,0,0,1.2641384765625,0,0,1.37592
1.8821924650110304,0,0,2.729389892578125,0,0,1.2994800000000002
1.8835837420192547,0,0,0.9193734375,0,0,0.7644
1.8849707969930023,0,0,-0.9409212524414062,0,0,0.7644
1.8863591300032567,0,0,-2.070984436035156,0,0,7.261800000000001
1.8877892770105973,0,0,1.0869675537109373,0,0,-1.60524
1.889173239003867,0,0,1.908178723144531,0,0,2.75184
1.8905531089985743,0,0,2.2673089721679687,0,0,0.07644000000000001
1.8919395160046406,0,0,1.9536685546875,0,0,2.75184
1.8933388669975102,0,0,-1.3048399047851562,0,0,1.1465999999999998
1.8947246260067914,0,0,-1.467645617675781,0,0,7.10892
1.8961276060144883,0,0,-1.0630255371093749,0,0,1.1465999999999998
1.8975167169992346,0,0,3.114856359863281,0,0,8.71416
1.8989044199988712,0,0,4.357447021484375,0,0,1.2230400000000001
1.9002918820187915,0,0,1.467645617675781,0,0,1.68168
1.9016848450119141,0,0,0.07422025146484375,0,0,-0.30576000000000003
1.9030732520041056,0,0,-2.360682836914062,0,0,0.0
1.9044601030182093,0,0,-1.8459294799804686,0,0,-4.12776
1.905848454014631,0,0,1.180341418457031,0,0,1.2994800000000002
1.9072362130100373,0,0,2.3678654418945313,0,0,-0.99372
1.9086228420201223,0,0,2.2481553588867187,0,0,1.98744
1.910010860010516,0,0,0.6368576416015624,0,0,1.75812
1.911397804011358,0,0,-0.5985504150390625,0,0,0.07644000000000001
1.9127850439981557,0,0,-1.4772224243164063,0,0,0.22932
1.914172895019874,0,0,-0.2753331909179687,0,0,6.879600000000001
1.915560635010479,0,0,3.593696691894531,0,0,2.6754
1.9169475050002802,0,0,3.5290532470703124,0,0,-0.45864
1.918335004011169,0,0,2.2194249389648437,0,0,4.66284
1.9197222079965286,0,0,0.29927520751953124,0,0,-1.2230400000000001
1.9211096880026162,0,0,-0.10773907470703124,0,0,1.5288
1.9224972249940038,0,0,-1.6519991455078125,0,0,-3.36336
1.923921520006843,0,0,0.4477157104492187,0,0,-1.75812
1.9253173530159984,0,0,2.2002713256835937,0,0,-0.84084
1.9267050930066034,0,0,2.9089550170898435,0,0,1.75812
1.9280920180026442,0,0,1.5658078857421873,0,0,1.75812
1.9294835360196885,0,0,-0.3495534423828125,0,0,1.911
1.9308727020106744,0,0,-1.180341418457031,0,0,-0.22932
1.932261276000645,0,0,0.3854664672851562,0,0,-0.30576000000000003
1.9336798670119606,0,0,1.2952630981445312,0,0,-0.30576000000000003
1.9350673670123797,0,0,1.898601916503906,0,0,0.3822
1.9364475700131152,0,0,1.9919757812499999,0,0,0.53508
1.9378267360152677,0,0,1.8100164550781248,0,0,1.2994800000000002
1.9392619389982428,0,0,0.3399766357421875,0,0,0.0
1.9408627680095378,0,0,-0.45010991210937495,0,0,0.0
1.942252675013151,0,0,0.24899697265624998,0,0,-0.99372
1.94363834100659,0,0,0.8786720092773437,0,0,0.22932
1.945017859019572,0,0,1.4508862060546874,0,0,-0.6115200000000001
1.9463976740080398,0,0,0.5698199951171875,0,0,0.7644
1.9477871360140853,0,0,0.11252747802734374,0,0,20
1.9491749690205324,0,0,0.033518823242187495,0,0,0.15288000000000002
1.9506900960113853,0,0,1.120486376953125,0,0,0.45864
1.952097280009184,0,0,1.47482822265625,0,0,0.99372
1.9534776320215315,0,0,1.0199299072265624,0,0,0.7644
1.9548567790188827,0,0,0.70868369140625,0,0,0.84084
1.9562462230096571,0,0,0.55545478515625,0,0,0.45864
1.957633315003477,0,0,0.4525041137695312,0,0,20
1.9590204629930668,0,0,0.6560112548828124,0,0,-0.6115200000000001
1.9604109070205595,0,0,1.0773907470703123,0,0,0.0
1.9617977580055594,0,0,0.7278373046875,0,0,0.53508
1.9631848680146504,0,0,0.9002198242187499,0,0,0.0
1.964572405006038,0,0,0.30885201416015623,0,0,1.07016
1.9659596080018673,0,0,0.06943184814453125,0,0,0.22932
1.9673475150193553,0,0,0.3064578125,0,0,0.53508
1.968781328003388,0,0,0.16280571289062498,0,0,0.30576000000000003
1.9701750690001063,0,0,0.8283937744140625,0,0,0.07644000000000001
1.971563105005771,0,0,2.123656872558594,0,0,0.91728
1.9729499749955721,0,0,1.889025109863281,0,0,1.2230400000000001
1.9743363260058686,0,0,0.9983820922851562,0,0,1.07016
1.9757188070216216,0,0,0.45968671875,0,0,0.6115200000000001
1.977097380993655,0,0,0.29927520751953124,0,0,20
1.9784770279948134,0,0,0.35194764404296874,0,0,20
1.979863454005681,0,0,1.4221557861328125,0,0,-0.6115200000000001
1.981253267993452,0,0,1.1563994018554686,0,0,0.68796
1.9826397490105592,0,0,0.06943184814453125,0,0,0.15288000000000002
1.984025395999197,0,0,0.2753331909179687,0,0,0.0
1.9854110990127083,0,0,0.10295067138671875,0,0,0.0
1.9867967659956776,0,0,0.5626373901367188,0,0,20
1.988184228015598,0,0,1.9632453613281249,0,0,1.2230400000000001
1.9895709130214527,0,0,1.8435352783203125,0,0,0.84084
1.9909577450016513,0,0,1.5035586425781249,0,0,1.2230400000000001
1.9923423930013087,0,0,0.09337386474609374,0,0,0.30576000000000003
1.9937290780071635,0,0,0.17238251953125,0,0,-0.45864
1.995150132017443,0,0,0.23702596435546874,0,0,20
1.996539631014457,0,0,0.9074024291992187,0,0,20
1.9979265379952267,0,0,1.3766659545898436,0,0,0.6115200000000001
1.9993140750157181,0,0,1.2114660400390624,0,0,0.6115200000000001
2.0006999080069363,0,0,0.7565677246093749,0,0,1.07016
2.0020859630021732,0,0,0.01915361328125,0,0,0.22932
2.0034735549998004,0,0,-0.21787235107421873,0,0,-0.45864
2.004861516994424,0,0,0.6584054565429687,0,0,0.15288000000000002
2.0062475530139636,0,0,1.93451494140625,0,0,0.15288000000000002
2.0076342940155882,0,0,1.5203180541992187,0,0,0.84084
2.0090203120198566,0,0,1.1947066284179686,0,0,1.1465999999999998
2.0104061440215446,0,0,0.4740519287109375,0,0,0.3822
2.0117923289944883,0,0,0.9145850341796874,0,0,0.30576000000000003
2.013196810003137,0,0,1.2138602416992186,0,0,0.45864
2.0145834390132222,0,0,0.8810662109374999,0,0,0.07644000000000001
2.015974197012838,0,0,0.7493851196289062,0,0,0.07644000000000001
2.01736095600063,0,0,0.4908113403320312,0,0,-0.45864
2.0187482520123012,0,0,0.6823474731445313,0,0,-20
2.0201357140031178,0,0,1.0438719238281249,0,0,0.0
2.021522046998143,0,0,0.842758984375,0,0,0.53508
2.0229086019971874,0,0,0.3854664672851562,0,0,0.22932
2.024296101008076,0,0,-0.16998831787109375,0,0,-0.45864
2.0256833599996753,0,0,0.23223756103515625,0,0,0.15288000000000002
2.0270712110213935,0,0,0.9648632690429687,0,0,0.07644000000000001
2.028456896019634,0,0,1.6639701538085936,0,0,0.84084
2.0298430800030474,0,0,1.426944189453125,0,0,0.91728
2.0312298579956405,0,0,0.622492431640625,0,0,0.45864
2.032615578995319,0,0,0.22505495605468748,0,0,0.07644000000000001
2.034001560008619,0,0,0.2657563842773437,0,0,-0.6115200000000001
2.035388819000218,0,0,1.0103531005859374,0,0,9.24924
2.036774966021767,0,0,1.5107412475585937,0,0,0.45864
2.0381611509947106,0,0,1.2976572998046874,0,0,0.30576000000000003
2.0395464100001846,0,0,0.689530078125,0,0,0.6115200000000001
2.040980927005876,0,0,0.4261678955078125,0,0,0.0
2.042368760012323,0,0,0.07422025146484375,0,0,-20
2.0437565369938966,0,0,0.507570751953125,0,0,0.0
2.04514320299495,0,0,1.0342951171875,0,0,0.3822
2.0465292030130513,0,0,1.139639990234375,0,0,0.45864
2.047914608992869,0,0,0.9792284790039062,0,0,0.84084
2.0492998130212072,0,0,0.51714755859375,0,0,-9.47856
2.050698775012279,0,0,0.3758896606445312,0,0,0.53508
2.052089811011683,0,0,1.0007762939453124,0,0,0.45864
2.053476069995668,0,0,1.0702081420898437,0,0,0.3822
2.054861995013198,0,0,1.180341418457031,0,0,0.6115200000000001
2.0562634200032335,0,0,0.7350199096679687,0,0,0.22932
2.057649105001474,0,0,0.5865794067382812,0,0,0.15288000000000002
2.0590562150173355,0,0,0.6248866333007812,0,0,-9.784320000000001
2.060442863003118,0,0,1.01514150390625,0,0,0.0
2.0618289730045944,0,0,0.8403647827148437,0,0,0.22932
2.0632161020184867,0,0,0.5219359619140624,0,0,0.15288000000000002
2.0646011760109104,0,0,0.4955997436523437,0,0,0.30576000000000003
2.0659870270173997,0,0,0.8810662109374999,0,0,1.07016
2.0673740080092102,0,0,1.0103531005859374,0,0,0.3822
2.068758859008085,0,0,0.6847416748046875,0,0,0.7644
2.0701444699952845,0,0,0.7015010864257812,0,0,0.0
2.0715308400103822,0,0,1.0271125122070313,0,0,0.30576000000000003
2.072933172021294,0,0,1.2306196533203124,0,0,0.68796
2.074319801002275,0,0,1.4221557861328125,0,0,0.99372
2.075707505020546,0,0,1.2521674682617188,0,0,1.2230400000000001
2.0770936890039593,0,0,0.8451531860351562,0,0,0.84084
2.07847955901525,0,0,0.9864110839843749,0,0,0.53508
2.079866114014294,0,0,1.1875240234375,0,0,0.84084
2.081252502015559,0,0,1.8339584716796873,0,0,0.3822
2.0826382800005376,0,0,1.915361328125,0,0,0.99372
2.0840245200088248,0,0,1.7357962036132812,0,0,0.84084
2.0854108149942476,0,0,1.139639990234375,0,0,1.07016
2.0867965560173616,0,0,1.0366893188476562,0,0,0.84084
2.0881823700037785,0,0,1.0702081420898437,0,0,0.68796
2.089568647003034,0,0,1.1276689819335937,0,0,0.53508
2.0909550540091004,0,0,1.3072341064453123,0,0,0.91728
2.0923398680170067,0,0,1.429338391113281,0,0,0.6115200000000001
2.0937234229932074,0,0,1.3718775512695311,0,0,0.84084
2.095133219001582,0,0,1.4724340209960938,0,0,0.84084
2.096522662002826,0,0,1.2904746948242187,0,0,0.7644
2.0979094210197218,0,0,1.1540052001953125,0,0,0.6115200000000001
2.0992967170022894,0,0,1.1085153686523437,0,0,0.84084
2.1006925310066435,0,0,1.0797849487304687,0,0,0.22932
2.1020782529958524,0,0,1.4245499877929686,0,0,0.68796
2.1034825110109523,0,0,1.455674609375,0,0,0.45864
2.1048688070150092,0,0,1.3527239379882812,0,0,0.7644
2.106254529004218,0,0,1.2401964599609374,0,0,0.68796
2.107645639014663,0,0,1.0726023437499999,0,0,0.91728
2.10903150899685,0,0,1.1109095703125,0,0,0.7644
2.110417360003339,0,0,1.1444283935546875,0,0,0.53508
2.1118034520186484,0,0,1.0773907470703123,0,0,0.91728
2.113189174007857,0,0,1.5083470458984374,0,0,0.68796
2.114575247018365,0,0,1.5131354492187499,0,0,0.68796
2.115961617004359,0,0,1.4125789794921875,0,0,0.91728
2.117347098013852,0,0,1.2665326782226562,0,0,0.99372
2.1187330420070793,0,0,1.2401964599609374,0,0,0.91728
2.120293056999799,0,0,1.0773907470703123,0,0,0.6115200000000001
2.1217127600102685,0,0,1.0749965454101562,0,0,0.45864
2.1231581479951274,0,0,1.446097802734375,0,0,0.7644
2.124594516993966,0,0,1.6807295654296874,0,0,0.68796
2.12604392299545,0,0,1.4891934326171874,0,0,0.68796
2.127490236016456,0,0,1.4030021728515625,0,0,0.84084
2.128930050006602,0,0,1.0941501586914062,0,0,0.91728
2.13071085800766,0,0,1.0726023437499999,0,0,0.7644
2.1322440600197297,0,0,1.2569558715820313,0,0,0.68796
2.13371198400273,0,0,1.2713210815429687,0,0,0.91728
2.1351897779968567,0,0,1.4700398193359374,0,0,0.53508
2.136682906013448,0,0,1.3431471313476562,0,0,0.7644
2.1381412380142137,0,0,1.2641384765625,0,0,0.68796
2.1396294019941706,0,0,1.1851298217773436,0,0,0.68796
2.1411076039948966,0,0,1.1923124267578125,0,0,0.7644
2.14249273299356,0,0,1.2018892333984375,0,0,0.6115200000000001
2.143875362002291,0,0,1.1563994018554686,0,0,0.6115200000000001
2.14526151001337,0,0,1.4508862060546874,0,0,0.84084
2.14663615799509,0,0,1.2330138549804688,0,0,0.68796
2.148010509001324,0,0,1.5131354492187499,0,0,0.7644
2.1493837680027355,0,0,1.3934253662109375,0,0,0.91728
2.150757675000932,0,0,1.2473790649414063,0,0,1.07016
2.1521338780003134,0,0,1.2497732666015624,0,0,0.68796
2.153507767012343,0,0,1.1109095703125,0,0,0.68796
2.154881063004723,0,0,0.9600748657226562,0,0,0.99372
2.15625669201836,0,0,1.4030021728515625,0,0,0.30576000000000003
2.1576303580077365,0,0,1.2832920898437499,0,0,0.53508
2.159013727999991,0,0,1.4413093994140624,0,0,0.7644
2.16039056100999,0,0,1.1563994018554686,0,0,0.91728
2.1617642090131994,0,0,1.0773907470703123,0,0,1.07016
2.163139801006764,0,0,1.1276689819335937,0,0,0.53508
2.164513077994343,0,0,1.16837041015625,0,0,0.45864
2.1658868929953314,0,0,1.0749965454101562,0,0,1.37592
2.167265263007721,0,0,1.4820108276367188,0,0,0.7644
2.1686398180027027,0,0,1.3646949462890625,0,0,0.6115200000000001
2.170013151015155,0,0,1.43652099609375,0,0,1.07016
2.1713891130057164,0,0,1.429338391113281,0,0,0.91728
2.172763242997462,0,0,1.5179238525390624,0,0,0.99372
2.1741362980101258,0,0,1.3072341064453123,0,0,1.07016
2.175511205015937,0,0,1.3000515014648437,0,0,0.45864
2.176884760003304,0,0,1.1180921752929687,0,0,0.7644
2.1782575560209807,0,0,1.4245499877929686,0,0,0.22932
2.1796317039988935,0,0,1.465251416015625,0,0,0.84084
2.1810052030195948,0,0,1.448492004394531,0,0,0.6115200000000001
2.1823779990081675,0,0,1.189918225097656,0,0,0.91728
2.1837532950157765,0,0,1.1731588134765625,0,0,0.6115200000000001
2.1851266830053646,0,0,1.0989385620117187,0,0,0.84084
2.1865001280093566,0,0,1.158793603515625,0,0,0.53508
2.1879114230105188,0,0,1.43652099609375,0,0,0.53508
2.1893381999980193,0,0,1.5107412475585937,0,0,0.84084
2.1917393150215503,0,0,1.4939818359375,0,0,0.68796
2.193128073005937,0,0,1.149216796875,0,0,0.91728
2.19451325800037,0,0,1.0941501586914062,0,0,0.84084
2.195993514993461,0,0,1.2234370483398436,0,0,0.53508
2.197381274017971,0,0,1.1635820068359375,0,0,0.7644
2.198767902998952,0,0,1.3551181396484375,0,0,0.3822
2.2001549400156364,0,0,1.3742717529296875,0,0,0.6115200000000001
2.20154155002092,0,0,1.4221557861328125,0,0,1.1465999999999998
2.202943456999492,0,0,1.1348515869140625,0,0,0.84084
2.204331140994327,0,0,1.1755530151367186,0,0,0.7644
2.2057177330134436,0,0,1.2138602416992186,0,0,0.15288000000000002
2.207104844012065,0,0,1.2114660400390624,0,0,0.6115200000000001
2.208490103017539,0,0,1.2306196533203124,0,0,0.7644
2.210081932018511,0,0,1.4987702392578124,0,0,0.6115200000000001
2.211481542995898,0,0,1.4532804077148436,0,0,1.07016
2.212869227019837,0,0,1.3814543579101561,0,0,0.6115200000000001
2.214255653001601,0,0,1.2761094848632812,0,0,0.99372
2.2156421889958438,0,0,1.2521674682617188,0,0,0.7644
2.2170284849999007,0,0,1.158793603515625,0,0,0.99372
2.218415077019017,0,0,1.1563994018554686,0,0,0.6115200000000001
2.219801539002219,0,0,1.3311761230468748,0,0,0.68796
2.221187909017317,0,0,1.4053963745117186,0,0,0.84084
2.222574353014352,0,0,1.3311761230468748,0,0,0.84084
2.223960592993535,0,0,1.3192051147460937,0,0,0.45864
2.2253463520028163,0,0,1.139639990234375,0,0,0.91728
2.2267330549948383,0,0,1.2210428466796874,0,0,0.30576000000000003
2.2281188880151603,0,0,1.120486376953125,0,0,0.7644
2.229504832008388,0,0,1.149216796875,0,0,0.68796
2.2308908500126563,0,0,1.455674609375,0,0,0.53508
2.2322772380139213,0,0,1.4413093994140624,0,0,0.68796
2.2336775890144054,0,0,1.5298948608398437,0,0,0.99372
2.2350684400007594,0,0,1.2617442749023438,0,0,0.7644
2.2364910500182305,0,0,1.1659762084960936,0,0,0.91728
2.237877956999,0,0,1.2234370483398436,0,0,0.68796
2.239271679020021,0,0,1.2593500732421874,0,0,0.6115200000000001
2.240657012007432,0,0,1.2282254516601563,0,0,0.84084
2.242043233010918,0,0,1.5634136840820312,0,0,0.53508
2.2434296590217855,0,0,1.3838485595703125,0,0,0.84084
2.2448157140170224,0,0,1.419761584472656,0,0,0.91728
2.2462052320188377,0,0,1.189918225097656,0,0,0.6115200000000001
2.2475932860106695,0,0,1.139639990234375,0,0,0.84084
2.2489793970016763,0,0,1.1731588134765625,0,0,0.68796
2.250384600018151,0,0,1.1947066284179686,0,0,0.68796
2.2517713400011417,0,0,1.139639990234375,0,0,0.84084
2.253157191007631,0,0,1.419761584472656,0,0,0.53508
2.2545434500207193,0,0,1.2330138549804688,0,0,0.91728
2.255930523999268,0,0,1.3431471313476562,0,0,0.84084
2.2573163930210285,0,0,1.1372457885742187,0,0,1.07016
2.2587025779939722,0,0,1.3120225097656248,0,0,0.84084
2.26008918901789,0,0,1.1013327636718748,0,0,0.68796
2.2614763360179495,0,0,1.1133037719726562,0,0,0.45864
2.2628626319929026,0,0,1.5011644409179687,0,0,0.68796
2.2642495940090157,0,0,1.429338391113281,0,0,0.3822
2.2656364449940156,0,0,1.2952630981445312,0,0,0.91728
2.2670250560040586,0,0,1.2832920898437499,0,0,0.68796
2.2684122039936483,0,0,1.197100830078125,0,0,0.68796
2.269798407010967,0,0,1.1563994018554686,0,0,0.68796
2.2711851650092285,0,0,1.2306196533203124,0,0,0.68796
2.272570720000658,0,0,1.2976572998046874,0,0,0.68796
2.273956924007507,0,0,1.5059528442382812,0,0,0.30576000000000003
2.2753440530213993,0,0,1.47482822265625,0,0,0.84084
2.276729995995993,0,0,1.4508862060546874,0,0,1.07016
2.2781252179993317,0,0,1.2521674682617188,0,0,0.7644
2.2795119030051865,0,0,1.218648645019531,0,0,0.7644
2.280898180004442,0,0,1.1540052001953125,0,0,0.7644
2.282284957007505,0,0,1.254561669921875,0,0,0.6115200000000001
2.283671012002742,0,0,1.2880804931640624,0,0,0.91728
2.2850573449977674,0,0,1.455674609375,0,0,0.15288000000000002
2.2864436410018243,0,0,1.369483349609375,0,0,0.6115200000000001
2.2878295840055216,0,0,1.5490484741210937,0,0,0.7644
2.289215751021402,0,0,1.218648645019531,0,0,0.6115200000000001
2.2906022499955725,0,0,1.197100830078125,0,0,0.99372
2.2919865639996715,0,0,1.0366893188476562,0,0,0.84084
2.2933703410089947,0,0,1.216254443359375,0,0,0.6115200000000001
2.294754285016097,0,0,1.199495031738281,0,0,1.1465999999999998
2.2961571920022834,0,0,1.5227122558593749,0,0,0.7644
2.297545303008519,0,0,1.4006079711914061,0,0,0.7644
2.29894761700416,0,0,1.467645617675781,0,0,0.84084
2.3003355970140547,0,0,1.24498486328125,0,0,0.68796
2.301722560019698,0,0,1.3455413330078123,0,0,0.84084
2.303110225999262,0,0,1.2138602416992186,0,0,0.7644
2.3044964110013098,0,0,1.1635820068359375,0,0,0.68796
2.3058832800015807,0,0,1.4820108276367188,0,0,0.91728
2.3072710950218607,0,0,1.407790576171875,0,0,0.7644
2.3086665750015527,0,0,1.2282254516601563,0,0,1.07016
2.3100533340184484,0,0,1.254561669921875,0,0,0.7644
2.3114410740090534,0,0,1.1755530151367186,0,0,0.91728
2.3128273879992776,0,0,1.120486376953125,0,0,0.68796
2.3142143140139524,0,0,1.1707646118164061,0,0,0.68796
2.3156011840037536,0,0,1.1252747802734375,0,0,0.3822
2.316987924015848,0,0,1.4772224243164063,0,0,0.22932
2.318374552996829,0,0,1.3814543579101561,0,0,0.84084
2.319760867016157,0,0,1.5346832641601562,0,0,0.91728
2.3211541259952355,0,0,1.2761094848632812,0,0,0.84084
2.322541180998087,0,0,1.2856862915039062,0,0,0.84084
2.32392790200538,0,0,1.0797849487304687,0,0,1.07016
2.32531517901225,0,0,1.199495031738281,0,0,0.3822
2.326702031015884,0,0,1.218648645019531,0,0,0.91728
2.3280826779955532,0,0,1.4317325927734375,0,0,0.68796
2.329462826019153,0,0,1.4508862060546874,0,0,0.7644
2.3308458810206503,0,0,1.37906015625,0,0,0.53508
2.3332252929976676,0,0,1.3335703247070312,0,0,0.91728
2.334614902996691,0,0,1.1635820068359375,0,0,0.68796
2.3360012549965177,0,0,1.2306196533203124,0,0,0.68796
2.337386569008231,0,0,1.2497732666015624,0,0,0.84084
2.338772309012711,0,0,1.465251416015625,0,0,0.53508
2.3402061230153777,0,0,1.35990654296875,0,0,0.91728
2.341594215016812,0,0,1.43652099609375,0,0,0.68796
2.343000213993946,0,0,1.1563994018554686,0,0,0.91728
2.344386195007246,0,0,1.3287819213867187,0,0,0.84084
2.3457718419958837,0,0,1.1875240234375,0,0,0.84084
2.3471582680067513,0,0,1.1731588134765625,0,0,0.45864
2.348543693020474,0,0,1.2713210815429687,0,0,0.99372
2.349929100018926,0,0,1.455674609375,0,0,0.6115200000000001
2.3513146360055543,0,0,1.3551181396484375,0,0,0.91728
2.352700488001574,0,0,1.3287819213867187,0,0,0.84084
2.3540862649970222,0,0,1.235408056640625,0,0,0.7644
2.3554737090016715,0,0,1.1061211669921875,0,0,0.68796
2.3568588189955335,0,0,1.0893617553710937,0,0,0.7644
2.3582443930208683,0,0,1.149216796875,0,0,0.3822
2.3596295960014686,0,0,1.3120225097656248,0,0,0.68796
2.361014966008952,0,0,1.4006079711914061,0,0,0.6115200000000001
2.3624023910088,0,0,1.47482822265625,0,0,0.84084
2.363787261012476,0,0,1.120486376953125,0,0,0.84084
2.3651727230171673,0,0,1.13006318359375,0,0,0.68796
2.3666114259976894,0,0,1.0869675537109373,0,0,0.99372
2.3680054990109056,0,0,1.2593500732421874,0,0,0.6115200000000001
2.3693919620127417,0,0,1.2808978881835937,0,0,0.3822
2.3707781650009565,0,0,1.467645617675781,0,0,0.30576000000000003
2.3721634600078687,0,0,1.3239935180664062,0,0,0.99372
2.373549551994074,0,0,1.3120225097656248,0,0,0.91728
2.3749506260210183,0,0,1.2330138549804688,0,0,-9.09636
2.376338180998573,0,0,1.350329736328125,0,0,0.7644
2.377724551013671,0,0,1.1563994018554686,0,0,0.7644
2.379111272020964,0,0,1.2521674682617188,0,0,0.68796
2.3804961610003375,0,0,1.3407529296874998,0,0,0.91728
2.381882271001814,0,0,1.4915876342773438,0,0,0.7644
2.383268567005871,0,0,1.2330138549804688,0,0,0.91728
2.3846538630023133,0,0,1.3359645263671873,0,0,0.84084
2.3861425640061498,0,0,1.189918225097656,0,0,0.68796
2.3876358960114885,0,0,1.1635820068359375,0,0,0.7644
2.3891037270077504,0,0,1.158793603515625,0,0,0.99372
2.390551818010863,0,0,1.1276689819335937,0,0,0.53508
2.3919406509958208,0,0,1.4724340209960938,0,0,0.22932
2.3933259280165657,0,0,1.3814543579101561,0,0,0.7644
2.3947102800011635,0,0,1.455674609375,0,0,0.68796
2.3961104640038684,0,0,1.1731588134765625,0,0,0.7644
2.3974972779979,0,0,1.216254443359375,0,0,0.91728
2.398883926012786,0,0,1.2234370483398436,0,0,0.84084
2.4002712219953537,0,0,1.2042834350585936,0,0,0.68796
2.4016577400034294,0,0,1.438915197753906,0,0,1.1465999999999998
2.403045943006873,0,0,1.5275006591796874,0,0,0.53508
2.4044317200023215,0,0,1.388636962890625,0,0,0.99372
2.4058182750013657,0,0,1.3527239379882812,0,0,0.84084
2.4072057000012137,0,0,1.0821791503906248,0,0,0.91728
2.4085911069996655,0,0,1.2401964599609374,0,0,0.91728
2.4099961619940586,0,0,1.22583125,0,0,0.53508
2.4113840500067454,0,0,1.1085153686523437,0,0,0.45864
2.4127698829979636,0,0,1.4221557861328125,0,0,1.07016
2.4141559379932005,0,0,1.39821376953125,0,0,0.91728
2.4155408999940846,0,0,1.2808978881835937,0,0,1.07016
2.4169249550031964,0,0,1.350329736328125,0,0,0.68796
2.418330603017239,0,0,1.1851298217773436,0,0,0.91728
2.420548071997473,0,0,1.1827356201171875,0,0,0.68796
2.4219392200175207,0,0,1.235408056640625,0,0,0.30576000000000003
2.4233310710114893,0,0,1.3575123413085937,0,0,1.1465999999999998
2.4247196259966586,0,0,1.5370774658203123,0,0,0.45864
2.4261071440123487,0,0,1.3263877197265623,0,0,1.1465999999999998
2.427510791021632,0,0,1.446097802734375,0,0,0.84084
2.4288982349971775,0,0,1.1180921752929687,0,0,1.1465999999999998
2.4302858830196783,0,0,1.120486376953125,0,0,0.84084
2.4316731599974446,0,0,1.2330138549804688,0,0,0.53508
2.4330617889936548,0,0,1.1540052001953125,0,0,0.45864
2.4344490290095564,0,0,1.3718775512695311,0,0,0.84084
2.4358359909965657,0,0,1.4030021728515625,0,0,0.68796
2.4372231760062277,0,0,1.3551181396484375,0,0,-9.172799999999999
2.438616935018217,0,0,1.24498486328125,0,0,0.68796
2.440071265998995,0,0,1.1372457885742187,0,0,0.7644
2.4415537640161347,0,0,1.1348515869140625,0,0,0.99372
2.4429562269942835,0,0,1.209071838378906,0,0,0.84084
2.4443442079937086,0,0,1.254561669921875,0,0,0.30576000000000003
2.445731225016061,0,0,1.4125789794921875,0,0,0.53508
2.4471188360184897,0,0,1.3024457031249999,0,0,0.84084
2.4485047060006764,0,0,1.4341267944335936,0,0,0.68796
2.4498921680205967,0,0,1.1851298217773436,0,0,0.68796
2.451279760018224,0,0,1.3287819213867187,0,0,0.7644
2.4526660930132493,0,0,1.1659762084960936,0,0,0.6115200000000001
2.4540531850070693,0,0,1.2138602416992186,0,0,0.3822
2.455460683995625,0,0,1.2593500732421874,0,0,1.1465999999999998
2.4568476470012683,0,0,1.5370774658203123,0,0,0.6115200000000001
2.4582342939975206,0,0,1.3623007446289062,0,0,0.91728
2.4596269970061257,0,0,1.3646949462890625,0,0,1.07016
2.4610133480164222,0,0,1.0917559570312498,0,0,0.99372
2.4623997370072175,0,0,1.1755530151367186,0,0,0.68796
2.4637866620032582,0,0,1.22583125,0,0,0.91728
2.465173272998072,0,0,1.3718775512695311,0,0,0.53508
2.4665602540189866,0,0,1.4053963745117186,0,0,0.53508
2.467947716009803,0,0,1.4987702392578124,0,0,0.91728
2.469334474997595,0,0,1.2330138549804688,0,0,0.7644
2.470720881014131,0,0,1.4149731811523436,0,0,0.6115200000000001
2.4721086219942663,0,0,1.16837041015625,0,0,1.07016
2.4734955099993385,0,0,1.3168109130859373,0,0,0.7644
2.474882028007414,0,0,1.2282254516601563,0,0,0.84084
2.4762687680195086,0,0,1.2234370483398436,0,0,0.68796
2.477655416005291,0,0,1.5322890624999999,0,0,0.45864
2.479074247996323,0,0,1.3814543579101561,0,0,0.7644
2.4804771180206444,0,0,1.4245499877929686,0,0,0.84084
2.481865950016072,0,0,1.1109095703125,0,0,0.91728
2.4832543570082635,0,0,1.1109095703125,0,0,1.1465999999999998
2.484640875016339,0,0,1.139639990234375,0,0,0.6115200000000001
2.4860423000063747,0,0,1.2832920898437499,0,0,0.53508
2.48742704000324,0,0,1.3742717529296875,0,0,0.68796
2.488805188011611,0,0,1.5035586425781249,0,0,0.30576000000000003
2.4901845020067412,0,0,1.2713210815429687,0,0,0.84084
2.4915702430007514,0,0,1.3239935180664062,0,0,0.68796
2.4929551490058657,0,0,1.149216796875,0,0,1.07016
2.494339482014766,0,0,1.2521674682617188,0,0,1.98744
2.4957437039993238,0,0,1.1348515869140625,0,0,0.84084
2.4971312030102126,0,0,1.2761094848632812,0,0,0.53508
2.498528127995087,0,0,1.4341267944335936,0,0,0.91728
2.4999151090160012,0,0,1.426944189453125,0,0,0.68796
2.5013015900040045,0,0,1.35990654296875,0,0,0.99372
2.502687589993002,0,0,1.3072341064453123,0,0,0.7644
2.5040731629997026,0,0,1.1540052001953125,0,0,0.84084
2.5054591440130025,0,0,1.1707646118164061,0,0,0.68796
2.50684490299318,0,0,1.0965443603515623,0,0,0.84084
2.5082308650016785,0,0,1.1444283935546875,0,0,0.3822
2.5096169199969154,0,0,1.4724340209960938,0,0,0.53508
2.5110028450144455,0,0,1.5155296508789062,0,0,0.6115200000000001
2.512388697010465,0,0,1.369483349609375,0,0,0.91728
2.5137872520135716,0,0,1.3168109130859373,0,0,0.6115200000000001
2.5151735469989944,0,0,1.3407529296874998,0,0,0.7644
2.5165587690135,0,0,1.0630255371093749,0,0,0.68796
2.5179443050001282,0,0,1.1707646118164061,0,0,0.6115200000000001
2.51933130499674,0,0,1.24498486328125,0,0,0.99372
2.5207160639984068,0,0,1.3838485595703125,0,0,0.22932
2.522101526003098,0,0,1.2617442749023438,0,0,0.84084
2.523487674014177,0,0,1.4796166259765624,0,0,0.91728
2.5248728950100485,0,0,1.1540052001953125,0,0,0.53508
2.526258765021339,0,0,1.3527239379882812,0,0,0.91728
2.527645060996292,0,0,1.1037269653320312,0,0,0.91728
2.5290302270150278,0,0,1.3239935180664062,0,0,0.6115200000000001
2.5304221890110057,0,0,1.254561669921875,0,0,0.91728
2.53181028101244,0,0,1.5083470458984374,0,0,0.68796
2.5331958919996396,0,0,1.5131354492187499,0,0,0.91728
2.5345834470062982,0,0,1.4508862060546874,0,0,0.7644
2.5359700200206134,0,0,1.1875240234375,0,0,0.99372
2.5373556120030116,0,0,1.1875240234375,0,0,0.84084
2.538740907999454,0,0,1.1516109985351561,0,0,0.53508
2.5401277040073182,0,0,1.2761094848632812,0,0,0.3822
2.541513925010804,0,0,1.369483349609375,0,0,0.99372
2.5429884050099645,0,0,1.4221557861328125,0,0,0.0
2.544393238000339,0,0,1.3239935180664062,0,0,0.91728
2.5457800890144426,0,0,1.4245499877929686,0,0,1.07016
2.547167698998237,0,0,1.3215993164062498,0,0,0.68796
2.5485537170025054,0,0,1.1851298217773436,0,0,0.6115200000000001
2.549939827993512,0,0,1.2521674682617188,0,0,0.53508
2.5513260870066006,0,0,1.3335703247070312,0,0,0.6115200000000001
2.552712364005856,0,0,1.455674609375,0,0,0.3822
2.554098252003314,0,0,1.4413093994140624,0,0,0.68796
2.555483269999968,0,0,1.465251416015625,0,0,0.91728
2.556867362000048,0,0,1.2952630981445312,0,0,0.53508
2.5582845650205854,0,0,1.1540052001953125,0,0,0.68796
2.559672583010979,0,0,1.2018892333984375,0,0,0.68796
2.5610601380176377,0,0,1.350329736328125,0,0,0.7644
2.562449248012854,0,0,1.3934253662109375,0,0,0.7644
2.563836432993412,0,0,1.448492004394531,0,0,0.53508
2.565223543002503,0,0,1.3048399047851562,0,0,0.91728
2.566612060996704,0,0,1.407790576171875,0,0,0.7644
2.5679991350043565,0,0,1.1444283935546875,0,0,0.91728
2.569386504997965,0,0,1.0869675537109373,0,0,0.91728
2.5707734110183083,0,0,1.1444283935546875,0,0,0.6115200000000001
2.5721616329974495,0,0,1.3072341064453123,0,0,0.84084
2.573548207001295,0,0,1.35990654296875,0,0,1.1465999999999998
2.574953984003514,0,0,1.438915197753906,0,0,0.6115200000000001
2.576342187006958,0,0,1.2330138549804688,0,0,0.91728
2.5777288709941786,0,0,1.388636962890625,0,0,0.6115200000000001
2.5791136670159176,0,0,0.9313444458007812,0,0,0.99372
2.580491536995396,0,0,1.218648645019531,0,0,0.6115200000000001
2.581871611007955,0,0,1.1013327636718748,0,0,0.53508
2.5832626839983277,0,0,1.2832920898437499,0,0,0.45864
2.584650850010803,0,0,1.4915876342773438,0,0,0.91728
2.5860525720054284,0,0,1.5107412475585937,0,0,0.84084
2.587441238021711,0,0,1.446097802734375,0,0,1.07016
2.5888279960199725,0,0,1.4053963745117186,0,0,0.68796
2.5902145510190167,0,0,1.2330138549804688,0,0,0.68796
2.5916311430046335,0,0,1.149216796875,0,0,0.53508
2.593016049999278,0,0,1.216254443359375,0,0,0.53508
2.59440029002144,0,0,1.2521674682617188,0,0,0.68796
2.5958001780090854,0,0,1.448492004394531,0,0,0.07644000000000001
2.5971879179996904,0,0,1.5059528442382812,0,0,0.68796
2.598575158015592,0,0,1.4341267944335936,0,0,0.6115200000000001
2.5999630099977367,0,0,1.1156979736328125,0,0,0.84084
2.6013493240170646,0,0,1.1875240234375,0,0,0.84084
2.6027459159959108,0,0,1.0295067138671874,0,0,0.53508
2.604133212007582,0,0,1.197100830078125,0,0,0.53508
2.605519489006838,0,0,1.2976572998046874,0,0,0.91728
2.6072771869949065,0,0,1.3335703247070312,0,0,0.6115200000000001
2.6086861670191865,0,0,1.3742717529296875,0,0,0.91728
2.6100737590168137,0,0,1.656787548828125,0,0,0.91728
2.6114792030130047,0,0,1.1731588134765625,0,0,0.91728
2.612866387993563,0,0,1.1420341918945311,0,0,0.7644
2.614253591018496,0,0,1.1276689819335937,0,0,0.84084
2.615641145996051,0,0,1.3455413330078123,0,0,0.6115200000000001
2.6170283300161827,0,0,1.4173673828125,0,0,0.45864
2.6184150330082048,0,0,1.2737152832031249,0,0,0.53508
2.6198022550088353,0,0,1.3742717529296875,0,0,0.7644
2.621189180004876,0,0,1.2641384765625,0,0,0.91728
2.6225756980129518,0,0,1.1755530151367186,0,0,0.84084
2.6239627720206045,0,0,1.180341418457031,0,0,0.53508
2.625349197012838,0,0,1.3096283081054687,0,0,0.3822
2.626735752011882,0,0,1.3000515014648437,0,0,0.7644
2.628123066009721,0,0,1.4796166259765624,0,0,0.3822
2.6295095660025254,0,0,1.3311761230468748,0,0,0.68796
2.630913639004575,0,0,1.4796166259765624,0,0,0.99372
2.6323008420004044,0,0,1.3287819213867187,0,0,0.84084
2.6336874529952183,0,0,1.235408056640625,0,0,0.84084
2.635075249010697,0,0,1.0821791503906248,0,0,0.53508
2.6364617660001386,0,0,1.2856862915039062,0,0,0.68796
2.637848747021053,0,0,1.3910311645507811,0,0,0.99372
2.6392330990056507,0,0,1.5059528442382812,0,0,0.84084
2.640813447011169,0,0,1.3024457031249999,0,0,0.68796
2.6421933360106777,0,0,1.4724340209960938,0,0,0.84084
2.6435817610181402,0,0,1.1563994018554686,0,0,0.68796
2.6449687790009193,0,0,1.2569558715820313,0,0,0.53508
2.646356092998758,0,0,1.2378022583007813,0,0,1.07016
2.6477442220202647,0,0,1.199495031738281,0,0,0.45864
2.6491309989942238,0,0,1.2713210815429687,0,0,0.3822
2.6505174250050914,0,0,1.3096283081054687,0,0,0.7644
2.6519046280009206,0,0,1.4915876342773438,0,0,0.6115200000000001
2.653291683003772,0,0,1.1516109985351561,0,0,0.84084
2.654678645019885,0,0,1.1875240234375,0,0,0.84084
2.6560656079964247,0,0,1.0845733520507812,0,0,0.6115200000000001
2.6574522550217807,0,0,1.235408056640625,0,0,-8.943480000000001
2.658840421005152,0,0,1.2138602416992186,0,0,0.7644
2.6602279579965398,0,0,1.3431471313476562,0,0,0.45864
2.661628086993005,0,0,1.369483349609375,0,0,0.7644
2.6630147710093297,0,0,1.5011644409179687,0,0,0.84084
2.6643930860154796,0,0,1.1875240234375,0,0,0.68796
2.665771530009806,0,0,1.2737152832031249,0,0,0.6115200000000001
2.6671561220136937,0,0,1.1444283935546875,0,0,0.91728
2.6685429539938923,0,0,1.2378022583007813,0,0,0.30576000000000003
2.669931861018995,0,0,1.3742717529296875,0,0,1.07016
2.6713191570015624,0,0,1.3383587280273437,0,0,0.53508
2.672704379016068,0,0,1.2282254516601563,0,0,0.91728
2.6740968039957806,0,0,1.4532804077148436,0,0,0.7644
2.675483544007875,0,0,1.2306196533203124,0,0,0.68796
2.67686974699609,0,0,1.2593500732421874,0,0,0.91728
2.6782557099941187,0,0,1.2138602416992186,0,0,0.53508
2.6796421720064245,0,0,1.2737152832031249,0,0,0.45864
2.6810299860080704,0,0,1.465251416015625,0,0,0.84084
2.682416096999077,0,0,1.5586252807617187,0,0,0.7644
2.6838020590075757,0,0,1.3646949462890625,0,0,1.07016
2.6851881699985825,0,0,1.5298948608398437,0,0,0.91728
2.6865736689942423,0,0,1.1875240234375,0,0,0.84084
2.6879599649982993,0,0,1.158793603515625,0,0,0.45864
2.689346094004577,0,0,1.2330138549804688,0,0,0.45864
2.6907820560154505,0,0,1.1731588134765625,0,0,0.6115200000000001
2.6922351100074593,0,0,1.4724340209960938,0,0,0.53508
2.693621312995674,0,0,1.4053963745117186,0,0,0.84084
2.6950932189938612,0,0,1.4437036010742186,0,0,0.84084
2.696483255014755,0,0,1.1923124267578125,0,0,0.6115200000000001
2.6978695510188118,0,0,1.3120225097656248,0,0,1.07016
2.6992620690143667,0,0,1.0869675537109373,0,0,0.68796
2.7006476240057964,0,0,1.3168109130859373,0,0,0.45864
2.702033642010065,0,0,1.2856862915039062,0,0,0.99372
2.703420697012916,0,0,1.484405029296875,0,0,0.6115200000000001
2.7048066960123833,0,0,1.3359645263671873,0,0,0.91728
2.706192009994993,0,0,1.3766659545898436,0,0,0.7644
2.707578399014892,0,0,1.1611878051757811,0,0,0.91728
2.708964860998094,0,0,1.35990654296875,0,0,0.7644
2.7103555829962716,0,0,1.158793603515625,0,0,0.6115200000000001
2.711741934006568,0,0,1.235408056640625,0,0,0.7644
2.713128080999013,0,0,1.2378022583007813,0,0,0.84084
2.714513914019335,0,0,1.4963760375976562,0,0,0.68796
2.7159005430003162,0,0,1.4101847778320311,0,0,0.91728
2.7172867089975625,0,0,1.2808978881835937,0,0,0.53508
2.7186920969979838,0,0,1.2282254516601563,0,0,0.91728
2.7201124480052385,0,0,1.0989385620117187,0,0,0.53508
2.721500948013272,0,0,1.177947216796875,0,0,0.45864
2.722887558018556,0,0,1.1037269653320312,0,0,0.7644
2.7242750209989026,0,0,1.4820108276367188,0,0,0.68796
2.7256612610071898,0,0,1.37906015625,0,0,0.84084
2.727049167995574,0,0,1.2425906616210938,0,0,0.91728
2.728435166995041,0,0,1.2378022583007813,0,0,1.1465999999999998
2.7298210180015303,0,0,1.1611878051757811,0,0,0.68796
2.7312157209962606,0,0,1.2282254516601563,0,0,0.84084
2.7326031099946704,0,0,1.2665326782226562,0,0,0.45864
2.7340060530113988,0,0,1.3455413330078123,0,0,0.84084
2.735392442002194,0,0,1.5083470458984374,0,0,0.6115200000000001
2.736778756021522,0,0,1.3527239379882812,0,0,0.84084
2.7381647180009168,0,0,1.3072341064453123,0,0,0.84084
2.7395518099947367,0,0,1.1851298217773436,0,0,0.99372
2.7409381619945634,0,0,1.369483349609375,0,0,0.91728
2.742324605002068,0,0,1.149216796875,0,0,0.84084
2.7437110310129356,0,0,1.2785036865234374,0,0,0.6115200000000001
2.7450994749960955,0,0,1.1635820068359375,0,0,0.91728
2.7464857150043827,0,0,1.5346832641601562,0,0,0.6115200000000001
2.7478724179964047,0,0,1.2593500732421874,0,0,1.07016
2.7492582320119254,0,0,1.2761094848632812,0,0,0.68796
2.750644009007374,0,0,1.1444283935546875,0,0,0.84084
2.7520306569931563,0,0,1.2306196533203124,0,0,0.45864
2.753416452993406,0,0,1.209071838378906,0,0,0.6115200000000001
2.7548087670002133,0,0,1.2330138549804688,0,0,0.7644
2.756194007000886,0,0,1.3527239379882812,0,0,0.91728
2.7575795440061484,0,0,1.4604630126953124,0,0,0.6115200000000001
2.7590087830030825,0,0,1.3239935180664062,0,0,0.53508
2.7603969490155578,0,0,1.2952630981445312,0,0,0.68796
2.761799930012785,0,0,1.0941501586914062,0,0,0.7644
2.763188226002967,0,0,1.1013327636718748,0,0,-9.01992
2.76457518801908,0,0,1.2593500732421874,0,0,0.7644
2.7659610389964655,0,0,1.2880804931640624,0,0,0.7644
2.767347928020172,0,0,1.446097802734375,0,0,0.68796
2.7687338899995666,0,0,1.5035586425781249,0,0,0.84084
2.770119741006056,0,0,1.3335703247070312,0,0,0.7644
2.7715061110211536,0,0,1.24498486328125,0,0,0.68796
2.7728922959940974,0,0,1.1037269653320312,0,0,0.6115200000000001
2.7742779620166402,0,0,1.149216796875,0,0,0.3822
2.775664479995612,0,0,1.2856862915039062,0,0,0.6115200000000001
2.7770509980036877,0,0,1.3455413330078123,0,0,0.84084
2.7784443300042767,0,0,1.4915876342773438,0,0,0.30576000000000003
2.779831145016942,0,0,1.3934253662109375,0,0,0.99372
2.7812171630212106,0,0,1.3479355346679687,0,0,0.53508
2.7826028290146496,0,0,1.1923124267578125,0,0,0.84084
2.7839891240000725,0,0,1.3575123413085937,0,0,0.91728
2.78537536499789,0,0,1.0319009155273438,0,0,0.53508
2.7867613270063885,0,0,1.0941501586914062,0,0,0.84084
2.7881475489994045,0,0,1.419761584472656,0,0,1.2230400000000001
2.7895333070191555,0,0,1.4987702392578124,0,0,0.6115200000000001
2.790919492021203,0,0,1.3024457031249999,0,0,0.91728
2.79230549102067,0,0,1.3000515014648437,0,0,0.53508
2.793689601996448,0,0,1.20667763671875,0,0,0.91728
2.795133841020288,0,0,1.1851298217773436,0,0,0.53508
2.796522304008249,0,0,1.216254443359375,0,0,0.6115200000000001
2.79790941401734,0,0,1.350329736328125,0,0,0.45864
2.799297210003715,0,0,1.4413093994140624,0,0,0.30576000000000003
2.8006833760009613,0,0,1.5179238525390624,0,0,0.99372
2.8020729680138174,0,0,1.2976572998046874,0,0,0.6115200000000001
2.8034715779940598,0,0,1.3311761230468748,0,0,0.68796
2.8048585960059427,0,0,1.2665326782226562,0,0,0.99372
2.8062536329962313,0,0,1.1540052001953125,0,0,0.68796
2.807640779996291,0,0,1.2234370483398436,0,0,0.6115200000000001
2.809027520008385,0,0,1.1180921752929687,0,0,0.7644
2.810414057021262,0,0,1.5275006591796874,0,0,0.3822
2.8118015750078484,0,0,1.4030021728515625,0,0,0.91728
2.8131917040154804,0,0,1.4820108276367188,0,0,0.7644
2.8145785740052816,0,0,1.2138602416992186,0,0,0.6115200000000001
2.8159599250066094,0,0,1.0773907470703123,0,0,0.84084
2.8173383499961346,0,0,1.0606313354492187,0,0,0.7644
2.818716776004294,0,0,1.1228805786132812,0,0,0.6115200000000001
2.820104515994899,0,0,1.3862427612304686,0,0,1.2230400000000001
2.821490349015221,0,0,1.5346832641601562,0,0,0.7644
2.8228757370088715,0,0,1.5011644409179687,0,0,1.07016
2.824261422007112,0,0,1.3742717529296875,0,0,0.7644
2.825647014018614,0,0,1.2114660400390624,0,0,1.07016
2.8270441430213396,0,0,1.216254443359375,0,0,0.68796
2.828429993998725,0,0,1.1276689819335937,0,0,0.91728
2.8298152899951674,0,0,1.2808978881835937,0,0,0.45864
2.8312012889946345,0,0,1.4604630126953124,0,0,0.91728
2.8325866039958782,0,0,1.47482822265625,0,0,0.84084
2.8339723990065977,0,0,1.3192051147460937,0,0,0.84084
2.835358862008434,0,0,1.3527239379882812,0,0,0.6115200000000001
2.836782675003633,0,0,1.13006318359375,0,0,0.7644
2.838168896996649,0,0,1.2282254516601563,0,0,0.84084
2.8395546000101604,0,0,1.20667763671875,0,0,0.7644
2.8409403770056088,0,0,1.35990654296875,0,0,0.91728
2.842326062003849,0,0,1.5322890624999999,0,0,0.68796
2.8437271540169604,0,0,1.4963760375976562,0,0,0.91728
2.8451142639969476,0,0,1.4867992309570313,0,0,0.99372
2.846500282001216,0,0,1.2904746948242187,0,0,0.84084
2.847900855995249,0,0,1.2018892333984375,0,0,0.84084
2.8492951140215155,0,0,1.1109095703125,0,0,0.30576000000000003
2.8506820400070865,0,0,1.189918225097656,0,0,0.6115200000000001
2.8520682610105723,0,0,1.3048399047851562,0,0,0.6115200000000001
2.8534542609995697,0,0,1.4820108276367188,0,0,0.3822
2.854839723004261,0,0,1.2569558715820313,0,0,0.99372
2.8562254260177724,0,0,1.369483349609375,0,0,0.53508
2.8576111659931485,0,0,1.3479355346679687,0,0,0.84084
2.8589974619972054,0,0,1.149216796875,0,0,0.99372
2.8603828320046887,0,0,1.1252747802734375,0,0,0.7644
2.861768128001131,0,0,1.2976572998046874,0,0,0.53508
2.8631544790114276,0,0,1.3718775512695311,0,0,0.84084
2.8645395710191224,0,0,1.4939818359375,0,0,0.68796
2.8659250150085427,0,0,1.4221557861328125,0,0,1.07016
2.867311755020637,0,0,1.35990654296875,0,0,0.84084
2.8686966620152816,0,0,1.1731588134765625,0,0,0.84084
2.870082124019973,0,0,1.2856862915039062,0,0,0.7644
2.871479901019484,0,0,1.2785036865234374,0,0,1.07016
2.8728654750157148,0,0,1.3024457031249999,0,0,0.45864
2.8742512890021317,0,0,1.3623007446289062,0,0,0.68796
2.8756373439973686,0,0,1.388636962890625,0,0,0.68796
2.877023455017479,0,0,1.5394716674804687,0,0,0.7644
2.878408880002098,0,0,1.3168109130859373,0,0,0.84084
2.8797930460132193,0,0,1.2234370483398436,0,0,0.7644
2.8816543540160637,0,0,1.1468225952148436,0,0,0.53508
2.8830707049928606,0,0,1.2234370483398436,0,0,0.53508
2.8844498149992432,0,0,1.3048399047851562,0,0,1.07016
2.885828593018232,0,0,1.2306196533203124,0,0,0.7644
2.8872094260004815,0,0,1.2737152832031249,0,0,0.84084
2.888588036003057,0,0,1.6639701538085936,0,0,0.91728
2.8899777950136922,0,0,1.1755530151367186,0,0,0.7644
2.8913596460188273,0,0,1.2425906616210938,0,0,0.6115200000000001
2.892738071997883,0,0,1.216254443359375,0,0,0.7644
2.894136367016472,0,0,1.177947216796875,0,0,0.53508
2.8956114950124174,0,0,1.2497732666015624,0,0,0.7644
2.897000069002388,0,0,1.3239935180664062,0,0,0.91728
2.8983876790152863,0,0,1.3814543579101561,0,0,0.84084
2.89977588201873,0,0,1.3862427612304686,0,0,0.68796
2.9011629370215815,0,0,1.235408056640625,0,0,0.84084
2.902549899998121,0,0,1.0821791503906248,0,0,0.84084
2.903937324997969,0,0,1.0965443603515623,0,0,0.7644
2.90532443599659,0,0,1.3168109130859373,0,0,0.68796
2.906711193994852,0,0,1.4413093994140624,0,0,0.53508
2.9080988969944883,0,0,1.2856862915039062,0,0,0.7644
2.909486118995119,0,0,1.3646949462890625,0,0,1.07016
2.9108728780120146,0,0,1.2425906616210938,0,0,0.84084
2.9122600620030425,0,0,1.24498486328125,0,0,1.07016
2.9136469140066765,0,0,1.0749965454101562,0,0,0.84084
2.9150670240051113,0,0,1.2856862915039062,0,0,0.45864
2.9164542450162116,0,0,1.2737152832031249,0,0,0.7644
2.917841467016842,0,0,1.4101847778320311,0,0,0.30576000000000003
2.919229021994397,0,0,1.3479355346679687,0,0,0.99372
2.920615077018738,0,0,1.6328455322265625,0,0,0.68796
2.9220022060035262,0,0,1.20667763671875,0,0,0.6115200000000001
2.9233893350174185,0,0,1.2665326782226562,0,0,0.68796
2.924775520019466,0,0,1.218648645019531,0,0,0.3822
2.926162518997444,0,0,1.3192051147460937,0,0,0.45864
2.927549240994267,0,0,1.2808978881835937,0,0,0.84084
2.929044905002229,0,0,1.43652099609375,0,0,0.84084
2.930434572015656,0,0,1.3287819213867187,0,0,0.7644
2.931827163003618,0,0,1.3814543579101561,0,0,0.7644
2.9332135890144855,0,0,1.1228805786132812,0,0,0.7644
2.934611328993924,0,0,1.2282254516601563,0,0,0.53508
2.9359983100148384,0,0,1.2018892333984375,0,0,0.68796
2.937395587010542,0,0,1.3215993164062498,0,0,0.53508
2.9387830680061597,0,0,1.3024457031249999,0,0,0.68796
2.9402191220142413,0,0,1.4700398193359374,0,0,0.45864
2.941684213001281,0,0,1.4604630126953124,0,0,0.84084
2.9430965450010262,0,0,1.139639990234375,0,0,0.91728
2.944484360021306,0,0,1.1133037719726562,0,0,0.68796
2.945871525997063,0,0,1.2689268798828124,0,0,0.53508
2.9472591360099614,0,0,1.254561669921875,0,0,0.68796
2.9486448950192425,0,0,1.2928688964843749,0,0,0.68796
2.950031134998426,0,0,1.484405029296875,0,0,0.6115200000000001
2.9514182090060785,0,0,1.3407529296874998,0,0,1.07016
2.9528656890033744,0,0,1.37906015625,0,0,0.68796
2.954273503011791,0,0,1.2425906616210938,0,0,0.6115200000000001
2.955660224019084,0,0,1.2330138549804688,0,0,0.68796
2.9570467240118887,0,0,1.1659762084960936,0,0,0.6115200000000001
2.9584330010111444,0,0,1.2473790649414063,0,0,0.53508
2.95981957501499,0,0,1.2665326782226562,0,0,1.1465999999999998
2.961206036998192,0,0,1.4532804077148436,0,0,0.68796
2.9625947769964114,0,0,1.2473790649414063,0,0,1.07016
2.9639819060103036,0,0,1.2976572998046874,0,0,0.91728
2.9653682570206,0,0,1.1875240234375,0,0,0.84084
2.9667540719965473,0,0,1.3263877197265623,0,0,0.45864
2.968140034005046,0,0,1.1755530151367186,0,0,0.68796
2.9695259220025036,0,0,1.1468225952148436,0,0,0.6115200000000001
2.970911754993722,0,0,1.4173673828125,0,0,0.6115200000000001
2.9722982730017975,0,0,1.426944189453125,0,0,0.53508
2.9736848100146744,0,0,1.2928688964843749,0,0,0.68796
2.9750714570109267,0,0,1.2306196533203124,0,0,0.7644
2.976456956996117,0,0,1.16837041015625,0,0,0.99372
2.9778427710116375,0,0,1.1348515869140625,0,0,0.6115200000000001
2.9792298630054574,0,0,1.2617442749023438,0,0,0.68796
2.9806158440187573,0,0,1.254561669921875,0,0,0.6115200000000001
2.982011120999232,0,0,1.4628572143554686,0,0,0.6115200000000001
2.9833975280052982,0,0,1.37906015625,0,0,-9.24924
2.9847857120039407,0,0,1.4724340209960938,0,0,1.07016
2.98617180401925,0,0,1.20667763671875,0,0,0.68796
2.987557952001225,0,0,1.1755530151367186,0,0,0.91728
2.98894439599826,0,0,1.1037269653320312,0,0,0.53508
2.9903329140215646,0,0,1.1540052001953125,0,0,0.6115200000000001
2.9917180240154266,0,0,1.189918225097656,0,0,0.68796
2.9931020789954346,0,0,1.5298948608398437,0,0,0.3822
2.994485560018802,0,0,1.24498486328125,0,0,0.91728
2.9958870970003773,0,0,1.4987702392578124,0,0,0.84084
2.9972754850168712,0,0,1.216254443359375,0,0,0.99372
2.9986628360056784,0,0,1.1013327636718748,0,0,0.45864
3.000043669017032,0,0,1.2904746948242187,0,0,0.84084
3.001422483008355,0,0,1.2713210815429687,0,0,0.68796
3.0028013350092806,0,0,1.2593500732421874,0,0,1.2994800000000002
3.0041896860057022,0,0,1.5179238525390624,0,0,0.53508
3.0055760370159987,0,0,1.2617442749023438,0,0,0.7644
3.0069631290098187,0,0,1.3239935180664062,0,0,0.7644
3.0083498330204748,0,0,1.0702081420898437,0,0,0.68796
3.009735814004671,0,0,1.1659762084960936,0,0,0.45864
3.011122313007945,0,0,1.13006318359375,0,0,0.91728
3.0125187009980436,0,0,1.2282254516601563,0,0,0.6115200000000001
3.013904645020375,0,0,1.4149731811523436,0,0,0.84084
3.015291015006369,0,0,1.4772224243164063,0,0,0.68796
3.01667653300683,0,0,1.2761094848632812,0,0,0.84084
3.018062977003865,0,0,1.1540052001953125,0,0,1.07016
3.019449512998108,0,0,1.2210428466796874,0,0,0.84084
3.0208679939969443,0,0,1.1228805786132812,0,0,0.53508
3.022265845007496,0,0,1.3120225097656248,0,0,0.84084
3.0236519369937014,0,0,1.1372457885742187,0,0,0.53508
3.025048362003872,0,0,1.4125789794921875,0,0,0.53508
3.0264343800081406,0,0,1.5035586425781249,0,0,0.84084
3.027820304996567,0,0,1.438915197753906,0,0,0.91728
3.0292066010006238,0,0,1.1540052001953125,0,0,0.91728
3.0305920820101164,0,0,1.0989385620117187,0,0,0.84084
3.0319784519961104,0,0,1.1659762084960936,0,0,1.1465999999999998
3.033363951020874,0,0,1.3455413330078123,0,0,0.22932
3.034750154009089,0,0,1.3646949462890625,0,0,1.1465999999999998
3.036136709008133,0,0,1.4604630126953124,0,0,0.53508
3.0375224130111746,0,0,1.3144167114257812,0,0,0.7644
3.0389079120068345,0,0,1.3311761230468748,0,0,0.6115200000000001
3.0402941339998506,0,0,1.1659762084960936,0,0,0.84084
3.041680096008349,0,0,1.20667763671875,0,0,0.68796
3.043066596001154,0,0,1.0558429321289062,0,0,0.68796
3.0444514470000286,0,0,1.1228805786132812,0,0,0.53508
3.0458374459994957,0,0,1.3287819213867187,0,0,0.84084
3.0472239640075713,0,0,1.448492004394531,0,0,0.84084
3.0486089079931844,0,0,1.2976572998046874,0,0,1.2230400000000001
3.0499946670024656,0,0,1.3479355346679687,0,0,0.84084
3.051381388999289,0,0,1.1324573852539062,0,0,0.7644
3.0527667209971696,0,0,1.1563994018554686,0,0,0.84084
3.0541522210114636,0,0,1.0989385620117187,0,0,0.99372
3.055537756998092,0,0,1.3120225097656248,0,0,0.53508
3.0569233120186254,0,0,1.4006079711914061,0,0,0.91728
3.0583088300190866,0,0,1.455674609375,0,0,0.99372
3.0596948110032827,0,0,1.3120225097656248,0,0,0.68796
3.0610804769967217,0,0,1.24498486328125,0,0,0.53508
3.0624665140057914,0,0,1.1252747802734375,0,0,0.7644
3.063852309016511,0,0,1.1731588134765625,0,0,0.7644
3.065237827016972,0,0,1.2234370483398436,0,0,0.45864
3.066624123021029,0,0,1.3024457031249999,0,0,0.68796
3.0680102340120357,0,0,1.4508862060546874,0,0,0.53508
3.0694036780041642,0,0,1.4772224243164063,0,0,0.7644
3.070796825020807,0,0,1.3766659545898436,0,0,1.07016
3.0721827130182646,0,0,1.1707646118164061,0,0,1.07016
3.0735681200167164,0,0,1.3072341064453123,0,0,1.1465999999999998
3.0749548970197793,0,0,1.2497732666015624,0,0,0.7644
3.076340619008988,0,0,1.1755530151367186,0,0,0.7644
3.077726285002427,0,0,1.37906015625,0,0,1.07016
3.0791131739970297,0,0,1.5849614990234373,0,0,0.45864
3.080498377006734,0,0,1.5083470458984374,0,0,0.68796
3.0818842650041915,0,0,1.4030021728515625,0,0,0.84084
3.083270450006239,0,0,1.20667763671875,0,0,0.91728
3.0846555049938615,0,0,1.1037269653320312,0,0,0.99372
3.086040912021417,0,0,1.1228805786132812,0,0,0.68796
3.0874271520006005,0,0,1.1180921752929687,0,0,0.6115200000000001
3.088812318019336,0,0,1.4508862060546874,0,0,0.84084
3.0901975950109772,0,0,1.458068811035156,0,0,0.84084
3.0915820950176567,0,0,1.3670891479492187,0,0,0.91728
3.092965705000097,0,0,1.388636962890625,0,0,0.68796
3.094349685998168,0,0,1.2210428466796874,0,0,2.36964
3.095747871004278,0,0,1.2210428466796874,0,0,0.99372
3.097135240008356,0,0,1.2210428466796874,0,0,0.68796
3.09852185100317,0,0,1.3144167114257812,0,0,0.53508
3.099907516996609,0,0,1.3958195678710936,0,0,0.6115200000000001
3.101294128020527,0,0,1.37906015625,0,0,0.6115200000000001
3.1026801080151927,0,0,1.4820108276367188,0,0,0.84084
3.104066644998966,0,0,1.3072341064453123,0,0,0.53508
3.1054526810185052,0,0,1.0965443603515623,0,0,1.07016
3.10683869899367,0,0,1.22583125,0,0,0.45864
3.108224051014986,0,0,1.2832920898437499,0,0,0.6115200000000001
3.1096106430049986,0,0,1.3383587280273437,0,0,0.53508
3.11099769800785,0,0,1.39821376953125,0,0,0.30576000000000003
3.112390623020474,0,0,1.4101847778320311,0,0,0.84084
3.1137769740016665,0,0,1.4221557861328125,0,0,0.68796
3.115222435997566,0,0,1.1659762084960936,0,0,0.7644
3.1166070830076933,0,0,1.149216796875,0,0,0.84084
3.117993841995485,0,0,1.1109095703125,0,0,0.91728
3.1193802680063527,0,0,1.0821791503906248,0,0,0.6115200000000001
3.1207683779939543,0,0,1.3575123413085937,0,0,1.07016
3.1221548030152917,0,0,1.4891934326171874,0,0,0.6115200000000001
3.123540895001497,0,0,1.2761094848632812,0,0,0.91728
3.1249264880025294,0,0,1.37906015625,0,0,0.68796
3.1263130610168446,0,0,1.13006318359375,0,0,0.91728
3.1276995050138794,0,0,1.2138602416992186,0,0,0.68796
3.1290943380154204,0,0,1.0702081420898437,0,0,0.6115200000000001
3.13048596700537,0,0,1.180341418457031,0,0,0.68796
3.131874336017063,0,0,1.3383587280273437,0,0,1.1465999999999998
3.1332602800102904,0,0,1.4796166259765624,0,0,0.53508
3.1346472800069023,0,0,1.3910311645507811,0,0,0.7644
3.13603316800436,0,0,1.3192051147460937,0,0,0.53508
3.137419408012647,0,0,1.1133037719726562,0,0,0.84084
3.1388057220028713,0,0,1.235408056640625,0,0,0.7644
3.1401922590157483,0,0,1.189918225097656,0,0,0.99372
3.1415788879967295,0,0,1.2880804931640624,0,0,0.3822
3.1429643320152536,0,0,1.4508862060546874,0,0,-8.943480000000001
3.1443526460207067,0,0,1.4915876342773438,0,0,0.7644
3.14573894199566,0,0,1.4724340209960938,0,0,0.68796
3.1471266820153687,0,0,1.3024457031249999,0,0,0.99372
3.1485126260085963,0,0,1.158793603515625,0,0,0.91728
3.1499086990079377,0,0,1.0917559570312498,0,0,0.53508
3.1512948280142155,0,0,1.2425906616210938,0,0,0.68796
3.1526808649941813,0,0,1.3575123413085937,0,0,0.84084
3.154066493996652,0,0,1.465251416015625,0,0,0.45864
3.1554533450107556,0,0,1.2665326782226562,0,0,0.7644
3.1568480110145174,0,0,1.3910311645507811,0,0,0.68796
3.158233659021789,0,0,1.0726023437499999,0,0,0.45864
3.159619287995156,0,0,1.2282254516601563,0,0,0.99372
3.1610050839954056,0,0,1.120486376953125,0,0,0.7644
3.162391046003904,0,0,1.0821791503906248,0,0,0.68796
3.16377756401198,0,0,1.407790576171875,0,0,1.07016
3.1651641000062227,0,0,1.455674609375,0,0,0.53508
3.1665498960064724,0,0,1.4772224243164063,0,0,0.91728
3.167935673001921,0,0,1.467645617675781,0,0,0.68796
3.1693218020081986,0,0,1.13006318359375,0,0,0.7644
3.170707191020483,0,0,1.216254443359375,0,0,0.84084
3.172093338012928,0,0,1.1516109985351561,0,0,0.68796
3.1734790790069383,0,0,1.2713210815429687,0,0,0.45864
3.1748651890084147,0,0,1.3814543579101561,0,0,0.7644
3.176251502998639,0,0,1.458068811035156,0,0,0.45864
3.1776375210029073,0,0,1.37906015625,0,0,0.91728
3.1790260580019094,0,0,1.455674609375,0,0,0.7644
3.180412501998944,0,0,1.1085153686523437,0,0,0.84084
3.1817987789982,0,0,1.2378022583007813,0,0,0.53508
3.1831854449992534,0,0,1.1707646118164061,0,0,-9.01992
3.184571240999503,0,0,1.3646949462890625,0,0,0.91728
3.1859571850218344,0,0,1.4724340209960938,0,0,0.7644
3.1873514800099656,0,0,1.43652099609375,0,0,0.53508
3.1887371280172374,0,0,1.4221557861328125,0,0,0.91728
3.190123164007673,0,0,1.2785036865234374,0,0,0.91728
3.191524293011753,0,0,1.1875240234375,0,0,1.07016
3.192980143998284,0,0,1.0678139404296874,0,0,0.84084
3.1944607899931725,0,0,1.1133037719726562,0,0,0.45864
3.195866121997824,0,0,1.3407529296874998,0,0,0.53508
3.1972535290115047,0,0,1.4341267944335936,0,0,0.53508
3.1986409920209553,0,0,1.3287819213867187,0,0,0.99372
3.200047360995086,0,0,1.43652099609375,0,0,1.07016
3.2014343610208016,0,0,1.3000515014648437,0,0,0.84084
3.2028210640128236,0,0,1.2785036865234374,0,0,0.6115200000000001
3.2042079330130946,0,0,1.1755530151367186,0,0,0.6115200000000001
3.2055940440041013,0,0,1.1923124267578125,0,0,0.6115200000000001
3.2069974320183974,0,0,1.3527239379882812,0,0,0.84084
3.208384172001388,0,0,1.484405029296875,0,0,0.53508
3.209770172019489,0,0,1.369483349609375,0,0,0.91728
3.2111575420130976,0,0,1.388636962890625,0,0,0.68796
3.212543171015568,0,0,1.2832920898437499,0,0,1.1465999999999998
3.213929540012032,0,0,1.24498486328125,0,0,0.68796
3.2153167439973913,0,0,1.1875240234375,0,0,0.7644
3.216702965000877,0,0,1.3000515014648437,0,0,0.6115200000000001
3.2180890570161864,0,0,1.455674609375,0,0,0.7644
3.219475649006199,0,0,1.5227122558593749,0,0,0.53508
3.2208624450140633,0,0,1.369483349609375,0,0,0.84084
3.2222486110113095,0,0,1.4437036010742186,0,0,0.7644
3.223636148002697,0,0,1.199495031738281,0,0,0.7644
3.2250224059971515,0,0,1.1731588134765625,0,0,0.6115200000000001
3.226409313007025,0,0,0.9409212524414062,0,0,0.68796
3.2278049610031303,0,0,1.3215993164062498,0,0,0.53508
3.2291914600064047,0,0,1.5251064575195312,0,0,0.7644
3.230577163019916,0,0,1.2880804931640624,0,0,0.7644
3.231963626021752,0,0,1.3455413330078123,0,0,0.6115200000000001
3.2333498660009354,0,0,1.3431471313476562,0,0,0.7644
3.234735587000614,0,0,1.2521674682617188,0,0,0.84084
3.2361599570140243,0,0,1.2617442749023438,0,0,0.45864
3.2375726780155674,0,0,1.3575123413085937,0,0,0.53508
3.2389597330184188,0,0,1.3575123413085937,0,0,0.68796
3.2404091200151015,0,0,1.388636962890625,0,0,0.22932
3.2418022119964007,0,0,1.3000515014648437,0,0,0.6115200000000001
3.2431896190100815,0,0,1.4963760375976562,0,0,0.7644
3.2445943409984466,0,0,1.1875240234375,0,0,0.99372
3.245997507008724,0,0,1.1731588134765625,0,0,0.99372
3.2473886540101375,0,0,1.20667763671875,0,0,0.84084
3.2487748569983523,0,0,1.2761094848632812,0,0,0.68796
3.250161060015671,0,0,1.2808978881835937,0,0,0.84084
3.2515471520018764,0,0,1.3287819213867187,0,0,0.53508
3.2529329670069274,0,0,1.3646949462890625,0,0,0.84084
3.254319262021454,0,0,1.4030021728515625,0,0,0.30576000000000003
3.255705614021281,0,0,1.199495031738281,0,0,0.7644
3.257091539009707,0,0,1.3718775512695311,0,0,0.7644
3.258477908995701,0,0,1.3096283081054687,0,0,0.68796
3.259864204999758,0,0,1.2808978881835937,0,0,0.84084
3.2612500929972157,0,0,1.5131354492187499,0,0,0.45864
3.2626360550057143,0,0,1.3120225097656248,0,0,0.53508
3.2640218879969325,0,0,1.3742717529296875,0,0,0.99372
3.265407850005431,0,0,1.4437036010742186,0,0,0.91728
3.2667940350074787,0,0,1.2497732666015624,0,0,0.91728
3.268180201004725,0,0,1.1540052001953125,0,0,0.53508
3.269566275004763,0,0,1.2617442749023438,0,0,0.53508
3.2709525889949873,0,0,1.2521674682617188,0,0,0.45864
3.272338811017107,0,0,1.465251416015625,0,0,0.30576000000000003
3.2737244949967135,0,0,1.2713210815429687,0,0,1.1465999999999998
3.275111810013186,0,0,1.467645617675781,0,0,0.7644
3.276497142011067,0,0,1.2378022583007813,0,0,0.68796
3.277883122995263,0,0,1.2832920898437499,0,0,0.91728
3.2792700120189693,0,0,1.1755530151367186,0,0,0.53508
3.280654863017844,0,0,1.2856862915039062,0,0,0.3822
3.282055047020549,0,0,1.2641384765625,0,0,1.2994800000000002
3.2834417319973,0,0,1.4413093994140624,0,0,0.6115200000000001
3.284826693998184,0,0,1.2761094848632812,0,0,0.68796
3.286212601000443,0,0,1.4221557861328125,0,0,0.6115200000000001
3.2876063600124326,0,0,1.1707646118164061,0,0,0.68796
3.2889928219956346,0,0,1.2713210815429687,0,0,0.45864
3.290378766017966,0,0,1.1851298217773436,0,0,0.84084
3.291763376997551,0,0,1.1635820068359375,0,0,0.53508
3.2931476540106814,0,0,1.3048399047851562,0,0,0.91728
3.294531763996929,0,0,1.350329736328125,0,0,0.7644
3.2959917260159273,0,0,1.0869675537109373,0,0,0.7644
3.297379688010551,0,0,1.5251064575195312,0,0,0.91728
3.298766391002573,0,0,1.1851298217773436,0,0,0.91728
3.3001535020011943,0,0,1.2378022583007813,0,0,0.7644
3.3015403900062665,0,0,1.2808978881835937,0,0,0.91728
3.302947704010876,0,0,1.1851298217773436,0,0,0.45864
3.3043450000113808,0,0,1.2689268798828124,0,0,0.3822
3.30573225900298,0,0,1.3311761230468748,0,0,0.7644
3.3071195730008185,0,0,1.3048399047851562,0,0,0.6115200000000001
3.308505443012109,0,0,1.1061211669921875,0,0,0.84084
3.309892479010159,0,0,1.1731588134765625,0,0,0.99372
3.3112797750218306,0,0,1.2808978881835937,0,0,0.6115200000000001
3.312665792996995,0,0,1.1731588134765625,0,0,0.84084
3.3140527550131083,0,0,1.0989385620117187,0,0,0.84084
3.315439994999906,0,0,1.5298948608398437,0,0,0.68796
3.316826124006184,0,0,1.3766659545898436,0,0,0.99372
3.3182129390188493,0,0,1.4173673828125,0,0,0.91728
3.3195999940217007,0,0,1.1516109985351561,0,0,0.68796
3.321008956001606,0,0,1.2593500732421874,0,0,0.91728
3.3223969920072705,0,0,1.0941501586914062,0,0,0.68796
3.3237849730066955,0,0,1.22583125,0,0,0.53508
3.3251717319944873,0,0,1.2569558715820313,0,0,0.99372
3.326559120003367,0,0,1.4221557861328125,0,0,0.45864
3.327946231001988,0,0,1.3383587280273437,0,0,0.91728
3.3293327490100637,0,0,1.446097802734375,0,0,0.7644
3.3307195999950636,0,0,1.1635820068359375,0,0,0.84084
3.332126377004897,0,0,1.1156979736328125,0,0,0.53508
3.3335149320191704,0,0,1.209071838378906,0,0,0.68796
3.3349032459955197,0,0,1.3239935180664062,0,0,0.53508
3.336290134000592,0,0,1.2401964599609374,0,0,0.84084
3.3376770600152668,0,0,1.4173673828125,0,0,0.3822
3.3390659110154957,0,0,1.2976572998046874,0,0,0.68796
3.3404521140037104,0,0,1.24498486328125,0,0,0.68796
3.34183950201259,0,0,1.0630255371093749,0,0,0.99372
3.3432268910109997,0,0,1.350329736328125,0,0,0.53508
3.3446137419959996,0,0,1.24498486328125,0,0,0.68796
3.3460003710060846,0,0,1.2425906616210938,0,0,0.6115200000000001
3.3473883330007084,0,0,1.4317325927734375,0,0,0.22932
3.348774203011999,0,0,1.3311761230468748,0,0,0.7644
3.350161147012841,0,0,1.2928688964843749,0,0,0.53508
3.3515428870159667,0,0,1.1085153686523437,0,0,0.84084
3.352921201993013,0,0,1.1228805786132812,0,0,0.68796
3.354299738013651,0,0,1.3048399047851562,0,0,0.91728
3.356822963018203,0,0,1.3742717529296875,0,0,0.68796
3.3582099990162533,0,0,1.4221557861328125,0,0,0.15288000000000002
3.3595969250018243,0,0,1.3718775512695311,0,0,0.68796
3.3609820349956863,0,0,1.3862427612304686,0,0,0.68796
3.3623681270109955,0,0,1.1563994018554686,0,0,0.91728
3.363767960021505,0,0,1.2713210815429687,0,0,0.7644
3.365153830003692,0,0,1.149216796875,0,0,0.6115200000000001
3.366540087998146,0,0,1.3048399047851562,0,0,0.53508
3.367925661994377,0,0,1.2473790649414063,0,0,0.91728
3.3693111980101094,0,0,1.4508862060546874,0,0,0.6115200000000001
3.3706974200031254,0,0,1.3527239379882812,0,0,0.84084
3.3720829939993564,0,0,1.4437036010742186,0,0,0.84084
3.373468325997237,0,0,1.1156979736328125,0,0,0.53508
3.3748538810177706,0,0,1.2617442749023438,0,0,0.68796
3.37624586201855,0,0,1.1516109985351561,0,0,0.84084
3.377632028015796,0,0,1.2832920898437499,0,0,0.45864
3.3790188980055973,0,0,1.3527239379882812,0,0,1.07016
3.380405083007645,0,0,1.3479355346679687,0,0,0.6115200000000001
3.3817911189980805,0,0,1.2880804931640624,0,0,1.2230400000000001
3.383178026007954,0,0,1.4245499877929686,0,0,0.6115200000000001
3.3845633400196675,0,0,1.139639990234375,0,0,0.68796
3.3859488210000563,0,0,1.1085153686523437,0,0,0.68796
3.38739828299731,0,0,1.1133037719726562,0,0,0.7644
3.3889022250077687,0,0,1.1180921752929687,0,0,0.53508
3.390374853013782,0,0,1.5801730957031248,0,0,0.6115200000000001
3.391804389015306,0,0,1.426944189453125,0,0,0.68796
3.393190850998508,0,0,1.235408056640625,0,0,0.6115200000000001
3.39458227599971,0,0,1.1827356201171875,0,0,0.91728
3.395996961015044,0,0,1.2138602416992186,0,0,0.7644
3.3973840340040624,0,0,1.180341418457031,0,0,0.84084
3.3987702740123495,0,0,1.2808978881835937,0,0,0.53508
3.4001576630107593,0,0,1.3718775512695311,0,0,0.84084
3.4015435140172485,0,0,1.5251064575195312,0,0,0.22932
3.402943587017944,0,0,1.2737152832031249,0,0,1.07016
3.4043311240093317,0,0,1.4437036010742186,0,0,0.91728
3.4057174010085873,0,0,1.16837041015625,0,0,0.84084
3.4071042890136596,0,0,1.1228805786132812,0,0,0.68796
3.408490936999442,0,0,1.2497732666015624,0,0,0.53508
3.409877399011748,0,0,1.3000515014648437,0,0,0.7644
3.411264324997319,0,0,1.4125789794921875,0,0,0.99372
3.412649917008821,0,0,1.465251416015625,0,0,0.45864
3.4140361940080766,0,0,1.2808978881835937,0,0,0.53508
3.4154223420191556,0,0,1.2761094848632812,0,0,0.68796
3.4168077850190457,0,0,1.1252747802734375,0,0,0.7644
3.4181935070082545,0,0,1.350329736328125,0,0,0.68796
3.4195797470165417,0,0,1.0797849487304687,0,0,0.84084
3.420984172000317,0,0,1.1635820068359375,0,0,0.6115200000000001
3.4223779500171077,0,0,1.448492004394531,0,0,0.68796
3.4237652080191765,0,0,1.4628572143554686,0,0,0.7644
3.42515168900718,0,0,1.4030021728515625,0,0,0.6115200000000001
3.426537929015467,0,0,1.3455413330078123,0,0,0.84084
3.427924003015505,0,0,1.0941501586914062,0,0,0.91728
3.4293101690127514,0,0,1.180341418457031,0,0,0.53508
3.4306960940011777,0,0,1.2042834350585936,0,0,0.84084
3.432082557003014,0,0,1.369483349609375,0,0,0.7644
3.4334688340022694,0,0,1.4413093994140624,0,0,0.6115200000000001
3.43485446300474,0,0,1.5083470458984374,0,0,0.6115200000000001
3.436240555020049,0,0,1.4317325927734375,0,0,0.7644
3.4376263320154976,0,0,1.1707646118164061,0,0,0.99372
3.4390152209962253,0,0,1.2521674682617188,0,0,0.7644
3.4404037200147286,0,0,1.1324573852539062,0,0,0.53508
3.44180114500341,0,0,1.1372457885742187,0,0,0.53508
3.443260607018601,0,0,1.4149731811523436,0,0,0.68796
3.444676420011092,0,0,1.5729904907226562,0,0,0.45864
3.4460639570024796,0,0,1.4173673828125,0,0,0.99372
3.4474555860215332,0,0,1.2928688964843749,0,0,1.07016
3.4488427890173625,0,0,1.197100830078125,0,0,1.07016
3.4502290110103786,0,0,1.2497732666015624,0,0,0.68796
3.4516158619953785,0,0,1.1228805786132812,0,0,0.68796
3.4530018430086784,0,0,1.2042834350585936,0,0,0.68796
3.454388194018975,0,0,1.4867992309570313,0,0,0.84084
3.4557747119979467,0,0,1.4413093994140624,0,0,0.84084
3.4571608230180573,0,0,1.3479355346679687,0,0,1.07016
3.458547100017313,0,0,1.3910311645507811,0,0,0.7644
3.4599338220141362,0,0,1.1348515869140625,0,0,0.84084
3.461323951021768,0,0,1.218648645019531,0,0,0.68796
3.462804708018666,0,0,1.2018892333984375,0,0,0.68796
3.464217874017777,0,0,1.254561669921875,0,0,0.7644
3.4656050030025654,0,0,1.47482822265625,0,0,0.3822
3.4669932610122487,0,0,1.4245499877929686,0,0,0.6115200000000001
3.4683794650190976,0,0,1.4532804077148436,0,0,0.91728
3.469765649002511,0,0,1.2904746948242187,0,0,0.91728
3.4711530930071604,0,0,1.13006318359375,0,0,1.07016
3.472538814996369,0,0,1.1228805786132812,0,0,0.6115200000000001
3.4739251480204985,0,0,1.3479355346679687,0,0,0.7644
3.4753125910065137,0,0,1.3910311645507811,0,0,0.53508
3.476698665006552,0,0,1.5442600708007812,0,0,0.15288000000000002
3.478085145994555,0,0,1.458068811035156,0,0,0.7644
3.4794727560074534,0,0,1.429338391113281,0,0,0.7644
3.4808663110015914,0,0,1.1635820068359375,0,0,0.91728
3.482256829011021,0,0,1.209071838378906,0,0,0.68796
3.483642958017299,0,0,1.1611878051757811,0,0,0.99372
3.4850296060030814,0,0,1.3192051147460937,0,0,0.53508
3.4864157720003277,0,0,1.37906015625,0,0,1.1465999999999998
3.4878014200075995,0,0,1.5155296508789062,0,0,0.68796
3.4891871600120794,0,0,1.3000515014648437,0,0,0.91728
3.4905726780125406,0,0,1.4006079711914061,0,0,0.91728
3.4919699180172756,0,0,1.199495031738281,0,0,0.68796
3.4933544539962895,0,0,1.2808978881835937,0,0,0.7644
3.494738656998379,0,0,1.1180921752929687,0,0,0.91728
3.496140675008064,0,0,1.254561669921875,0,0,0.53508
3.497529378015315,0,0,1.2761094848632812,0,0,0.7644
3.4989161000121385,0,0,1.4820108276367188,0,0,0.7644
3.5003088030207437,0,0,1.3718775512695311,0,0,0.6115200000000001
3.501713784004096,0,0,1.2306196533203124,0,0,0.84084
3.5031045420037117,0,0,1.3335703247070312,0,0,0.91728
3.5044903570087627,0,0,1.1180921752929687,0,0,0.7644
3.505877263000002,0,0,1.13006318359375,0,0,0.91728
3.507264670013683,0,0,1.3048399047851562,0,0,0.7644
3.508661836007377,0,0,1.3958195678710936,0,0,0.3822
3.510049002012238,0,0,1.4221557861328125,0,0,0.6115200000000001
3.511433391016908,0,0,1.4149731811523436,0,0,0.68796
3.512811483000405,0,0,1.3120225097656248,0,0,0.7644
3.5141900190210436,0,0,1.2713210815429687,0,0,0.99372
3.5155766480020247,0,0,1.1516109985351561,0,0,0.53508
3.516963111003861,0,0,1.2473790649414063,0,0,0.6115200000000001
3.5183492400101386,0,0,1.3120225097656248,0,0,0.84084
3.519735110021429,0,0,1.467645617675781,0,0,0.45864
3.521120849996805,0,0,1.3431471313476562,0,0,0.91728
3.5225067940191366,0,0,1.458068811035156,0,0,0.84084
3.5238940340059344,0,0,1.3766659545898436,0,0,0.68796
3.52528006999637,0,0,1.1180921752929687,0,0,0.45864
3.5266657739994116,0,0,1.005564697265625,0,0,0.84084
3.5280519210209604,0,0,1.1324573852539062,0,0,0.3822
3.5294380499981344,0,0,1.3215993164062498,0,0,0.7644
3.530829198018182,0,0,1.3838485595703125,0,0,0.84084
3.532218438020209,0,0,1.2737152832031249,0,0,0.3822
3.5336044740106445,0,0,1.3455413330078123,0,0,0.91728
3.5349936959974,0,0,1.1875240234375,0,0,0.45864
3.5363802880165167,0,0,1.1707646118164061,0,0,0.7644
3.5377660100057255,0,0,1.120486376953125,0,0,0.99372
3.5391627680219244,0,0,1.3479355346679687,0,0,0.45864
3.540579655993497,0,0,1.4006079711914061,0,0,0.7644
3.5419676000019535,0,0,1.5849614990234373,0,0,0.68796
3.5433545620180666,0,0,1.419761584472656,0,0,0.91728
3.54474104300607,0,0,1.2976572998046874,0,0,0.91728
3.546126931993058,0,0,1.22583125,0,0,0.68796
3.547513746016193,0,0,1.2138602416992186,0,0,0.7644
3.5489000790112186,0,0,1.0989385620117187,0,0,0.45864
3.550286170997424,0,0,1.3000515014648437,0,0,0.68796
3.551684689009562,0,0,1.5275006591796874,0,0,0.84084
3.5530716690118425,0,0,1.2880804931640624,0,0,1.07016
3.554457687016111,0,0,1.3862427612304686,0,0,0.7644
3.555842464993475,0,0,1.4628572143554686,0,0,0.91728
3.5572616300196387,0,0,1.1827356201171875,0,0,0.68796
3.5586510190041736,0,0,1.1707646118164061,0,0,0.7644
3.5600372590124607,0,0,1.2665326782226562,0,0,0.6115200000000001
3.5614234800159466,0,0,1.3407529296874998,0,0,0.99372
3.5628115349973086,0,0,1.4604630126953124,0,0,0.91728
3.564197719999356,0,0,1.37906015625,0,0,1.1465999999999998
3.565583607996814,0,0,1.4221557861328125,0,0,0.91728
3.566971571010072,0,0,1.3455413330078123,0,0,0.84084
3.568358607008122,0,0,1.2761094848632812,0,0,0.6115200000000001
3.569744366017403,0,0,1.0869675537109373,0,0,0.53508
3.5711391800141428,0,0,1.2785036865234374,0,0,0.84084
3.572525716997916,0,0,1.2928688964843749,0,0,0.68796
3.5739113460003864,0,0,1.419761584472656,0,0,0.45864
3.5752974190108944,0,0,1.2425906616210938,0,0,0.84084
3.5766833999950904,0,0,1.3958195678710936,0,0,0.91728
3.5780687700025737,0,0,1.2689268798828124,0,0,0.91728
3.579456453997409,0,0,1.3311761230468748,0,0,0.68796
3.5808422320114914,0,0,1.177947216796875,0,0,0.91728
3.5822276390099432,0,0,1.2785036865234374,0,0,0.6115200000000001
3.583613712020451,0,0,1.3742717529296875,0,0,0.68796
3.58499943400966,0,0,1.407790576171875,0,0,0.7644
