Time,AccelX1,AccelY1,AccelZ1,AccelX2,AccelY2,AccelZ2
4.7219800762832165e-06,0,0,1.5131354492187499,0,0,-9.24924
0.0036801999958697706,0,0,1.4604630126953124,0,0,1.1465999999999998
0.007390807993942872,0,0,1.0797849487304687,0,0,2.06388
0.010898768989136443,0,0,1.4030021728515625,0,0,1.2994800000000002
0.014424896973650903,0,0,1.3359645263671873,0,0,0.84084
0.017939043988008052,0,0,1.209071838378906,0,0,1.07016
0.02145954198203981,0,0,1.47482822265625,0,0,0.7644
0.02497885498451069,0,0,1.407790576171875,0,0,0.53508
0.028497446997789666,0,0,1.3024457031249999,0,0,0.45864
0.03217936897999607,0,0,1.2737152832031249,0,0,0.7644
0.0360481409879867,0,0,1.2425906616210938,0,0,0.68796
0.03961937999702059,0,0,1.4987702392578124,0,0,1.37592
0.0431456379883457,0,0,1.4987702392578124,0,0,0.68796
0.04666491399984807,0,0,1.218648645019531,0,0,1.07016
0.05019126398838125,0,0,1.4437036010742186,0,0,0.91728
0.05370926298201084,0,0,1.47482822265625,0,0,0.91728
0.057227316981879994,0,0,1.1324573852539062,0,0,0.84084
0.060754721984267235,0,0,1.43652099609375,0,0,1.07016
0.06427603599149734,0,0,1.5298948608398437,0,0,1.1465999999999998
0.06779857099172659,0,0,1.1276689819335937,0,0,1.2230400000000001
0.0714083649800159,0,0,1.5131354492187499,0,0,0.84084
0.07508584298193455,0,0,1.3335703247070312,0,0,0.7644
0.07861987798241898,0,0,1.2737152832031249,0,0,0.7644
0.08214091398986056,0,0,1.426944189453125,0,0,1.2230400000000001
0.08567470798152499,0,0,1.1180921752929687,0,0,1.1465999999999998
0.0892035769938957,0,0,1.1085153686523437,0,0,0.45864
0.09273279798799194,0,0,1.2569558715820313,0,0,1.2230400000000001
0.09625416598282754,0,0,1.0989385620117187,0,0,0.6115200000000001
0.09977303497726098,0,0,1.2832920898437499,0,0,1.1465999999999998
0.10340855098911561,0,0,1.3168109130859373,0,0,0.84084
0.10662620098446496,0,0,1.149216796875,0,0,0.7644
0.1099024239811115,0,0,1.3168109130859373,0,0,0.91728
0.11302542698103935,0,0,1.448492004394531,0,0,0.91728
0.11614889299380593,0,0,1.35990654296875,0,0,1.37592
0.1192677469807677,0,0,1.2569558715820313,0,0,0.15288000000000002
0.12238539799000137,0,0,1.3287819213867187,0,0,0.99372
0.1255024569982197,0,0,1.3144167114257812,0,0,-9.01992
0.12862416298594326,0,0,1.2306196533203124,0,0,1.37592
0.1317410739720799,0,0,1.2665326782226562,0,0,0.91728
0.13485874299658462,0,0,1.6065093139648436,0,0,1.1465999999999998
0.13814063297468238,0,0,1.2018892333984375,0,0,0.53508
0.14126578398281708,0,0,1.4987702392578124,0,0,0.91728
0.14438628699281253,0,0,1.4053963745117186,0,0,0.99372
0.14750091897440143,0,0,1.1037269653320312,0,0,0.99372
0.1506171629880555,0,0,1.3646949462890625,0,0,0.7644
0.15373529499629512,0,0,1.350329736328125,0,0,0.68796
0.1568528349744156,0,0,1.2761094848632812,0,0,0.68796
0.15997165298904292,0,0,1.3096283081054687,0,0,0.3822
0.16308609998668544,0,0,1.3575123413085937,0,0,1.1465999999999998
0.16620223299833015,0,0,1.3455413330078123,0,0,1.2230400000000001
0.16931934698368423,0,0,1.3479355346679687,0,0,0.68796
0.17243770099594258,0,0,1.4006079711914061,0,0,0.6115200000000001
0.17560012999456376,0,0,1.2737152832031249,0,0,0.6115200000000001
0.1787214289943222,0,0,1.2569558715820313,0,0,1.37592
0.18186776497168466,0,0,1.4101847778320311,0,0,1.07016
0.18498484097654,0,0,1.2401964599609374,0,0,1.2994800000000002
0.18809608498122543,0,0,1.139639990234375,0,0,0.68796
0.1911895329831168,0,0,1.2497732666015624,0,0,0.45864
0.19430840597487986,0,0,1.4628572143554686,0,0,0.99372
0.19744538998929784,0,0,1.2617442749023438,0,0,0.6115200000000001
0.20056357799330726,0,0,1.2593500732421874,0,0,1.1465999999999998
0.20371152498410083,0,0,1.3575123413085937,0,0,0.84084
0.20682769498671405,0,0,1.20667763671875,0,0,0.84084
0.20994790099211968,0,0,1.2928688964843749,0,0,0.22932
0.2130655339860823,0,0,1.3192051147460937,0,0,0.84084
0.21618479597964324,0,0,1.3646949462890625,0,0,1.1465999999999998
0.21929898398229852,0,0,1.2785036865234374,0,0,0.7644
0.22241537499940023,0,0,1.2641384765625,0,0,0.84084
0.22553185999277048,0,0,1.235408056640625,0,0,-9.01992
0.22865167699637823,0,0,1.1037269653320312,0,0,0.91728
0.23176155099645257,0,0,1.3239935180664062,0,0,0.84084
0.23620768697583117,0,0,1.2976572998046874,0,0,0.68796
0.23934757898678072,0,0,1.4963760375976562,0,0,1.2994800000000002
0.24246869297348894,0,0,1.4101847778320311,0,0,0.84084
0.24558847298612818,0,0,1.3479355346679687,0,0,0.68796
0.2487005689763464,0,0,1.3072341064453123,0,0,1.07016
0.25187966297380626,0,0,1.4867992309570313,0,0,0.7644
0.25500255497172475,0,0,1.4700398193359374,0,0,1.2230400000000001
0.2581202429719269,0,0,1.0821791503906248,0,0,1.07016
0.2612381719809491,0,0,1.22583125,0,0,0.6115200000000001
0.2643491009948775,0,0,1.429338391113281,0,0,0.91728
0.2674420849943999,0,0,1.2306196533203124,0,0,0.7644
0.270565587998135,0,0,1.3407529296874998,0,0,0.7644
0.2736835909890942,0,0,1.3120225097656248,0,0,1.37592
0.27679042698582634,0,0,1.235408056640625,0,0,1.1465999999999998
0.2799044299754314,0,0,1.3263877197265623,0,0,0.07644000000000001
0.28303496999433264,0,0,1.2832920898437499,0,0,0.91728
0.28618074997211806,0,0,1.209071838378906,0,0,0.7644
0.2892907159985043,0,0,1.2689268798828124,0,0,1.1465999999999998
0.2923939779866487,0,0,1.3718775512695311,0,0,1.37592
0.29549105497426353,0,0,1.4939818359375,0,0,0.91728
0.2986124469898641,0,0,1.1252747802734375,0,0,0.68796
0.3017161349998787,0,0,1.2378022583007813,0,0,0.7644
0.30485835997387767,0,0,1.3862427612304686,0,0,1.07016
0.3079733819758985,0,0,1.1420341918945311,0,0,0.91728
0.31108938399120234,0,0,1.2689268798828124,0,0,0.6115200000000001
0.3142059979727492,0,0,1.4006079711914061,0,0,0.99372
0.31732227897737175,0,0,1.35990654296875,0,0,0.7644
0.3204332629975397,0,0,1.426944189453125,0,0,0.6115200000000001
0.32352695197914727,0,0,1.2282254516601563,0,0,0.84084
0.32667819497874007,0,0,1.120486376953125,0,0,0.99372
0.32981914197443984,0,0,1.35990654296875,0,0,1.2994800000000002
0.33295162598369643,0,0,1.4891934326171874,0,0,0.6115200000000001
0.3360701849742327,0,0,1.2234370483398436,0,0,0.53508
0.33918640998308547,0,0,1.0965443603515623,0,0,0.7644
0.34230370898148976,0,0,1.3551181396484375,0,0,0.91728
0.3454205999732949,0,0,1.3168109130859373,0,0,0.99372
0.34853991799172945,0,0,1.0845733520507812,0,0,0.7644
0.3516824949765578,0,0,1.2880804931640624,0,0,0.6115200000000001
0.3548014239931945,0,0,1.419761584472656,0,0,0.99372
0.357918740977766,0,0,1.1013327636718748,0,0,0.7644
0.3610365589847788,0,0,1.446097802734375,0,0,1.1465999999999998
0.3641554689966142,0,0,1.3335703247070312,0,0,0.84084
0.3672707499936223,0,0,1.3335703247070312,0,0,0.84084
0.3703898819803726,0,0,1.2832920898437499,0,0,0.0
0.3735077739984263,0,0,1.2856862915039062,0,0,0.91728
0.3766260179982055,0,0,1.0941501586914062,0,0,1.2994800000000002
0.3797668349870946,0,0,1.3335703247070312,0,0,1.2994800000000002
0.38288646697765216,0,0,1.2880804931640624,0,0,0.6115200000000001
0.38600359999691136,0,0,1.2282254516601563,0,0,0.91728
0.3891203429957386,0,0,1.1252747802734375,0,0,0.68796
0.39223871697322465,0,0,1.2497732666015624,0,0,1.1465999999999998
0.39535407099174336,0,0,1.6448165405273436,0,0,1.2230400000000001
0.39847209298750386,0,0,1.24498486328125,0,0,0.91728
0.4015877619967796,0,0,1.2641384765625,0,0,0.22932
0.4047366719751153,0,0,1.4724340209960938,0,0,0.84084
0.4078615269972943,0,0,1.1540052001953125,0,0,0.7644
0.4109746409812942,0,0,1.2785036865234374,0,0,1.07016
0.4140745509939734,0,0,1.3431471313476562,0,0,0.84084
0.41719166497932747,0,0,1.24498486328125,0,0,0.91728
0.42030757598695345,0,0,1.2952630981445312,0,0,0.0
0.4234206900000572,0,0,1.4341267944335936,0,0,0.99372
0.4265350259956904,0,0,1.350329736328125,0,0,0.84084
0.4296507879917044,0,0,1.254561669921875,0,0,1.45236
0.4327680499991402,0,0,1.4604630126953124,0,0,1.07016
0.43588388597709127,0,0,1.24498486328125,0,0,0.91728
0.4389947219751775,0,0,1.0749965454101562,0,0,0.45864
0.4421095959842205,0,0,1.2808978881835937,0,0,0.68796
0.44522393197985366,0,0,1.5849614990234373,0,0,0.91728
0.4483389349770732,0,0,1.254561669921875,0,0,1.07016
0.45150047398055904,0,0,1.235408056640625,0,0,0.99372
0.454622532997746,0,0,1.4820108276367188,0,0,0.6115200000000001
0.4577247019915376,0,0,1.1540052001953125,0,0,0.84084
0.46086792697315104,0,0,1.2401964599609374,0,0,0.68796
0.46398546698037535,0,0,1.22583125,0,0,1.2994800000000002
0.46709963597822934,0,0,1.3766659545898436,0,0,0.84084
0.47021428699372336,0,0,1.2761094848632812,0,0,0.30576000000000003
0.47332828998332843,0,0,1.4437036010742186,0,0,0.7644
0.4764437189733144,0,0,1.2401964599609374,0,0,0.84084
0.4795776659739204,0,0,1.2737152832031249,0,0,1.68168
0.4826924099761527,0,0,1.4317325927734375,0,0,1.1465999999999998
0.4858951339847408,0,0,1.3766659545898436,0,0,1.37592
0.4890990249987226,0,0,1.1085153686523437,0,0,0.6115200000000001
0.49221311998553574,0,0,1.2737152832031249,0,0,1.2230400000000001
0.4953131419897545,0,0,1.6352397338867186,0,0,0.68796
0.4984186629881151,0,0,1.2306196533203124,0,0,1.07016
0.5015177029999904,0,0,1.2282254516601563,0,0,0.91728
0.513992899999721,0,0,1.3575123413085937,0,0,0.99372
0.5176646739710122,0,0,1.3383587280273437,0,0,0.91728
0.5208095289999619,0,0,1.3551181396484375,0,0,0.3822
0.5239165499806404,0,0,1.4796166259765624,0,0,0.84084
0.5270163679961115,0,0,1.2114660400390624,0,0,0.99372
0.5301192419719882,0,0,1.3335703247070312,0,0,1.37592
0.5332222079741769,0,0,1.3623007446289062,0,0,1.07016
0.5363248769717757,0,0,1.5179238525390624,0,0,0.53508
0.53965054397122,0,0,1.235408056640625,0,0,1.07016
0.5428911939961836,0,0,1.3431471313476562,0,0,1.1465999999999998
0.5460080859775189,0,0,1.4867992309570313,0,0,0.91728
0.5491177549993154,0,0,1.1252747802734375,0,0,0.84084
0.55227344299783,0,0,1.3144167114257812,0,0,0.68796
0.5553928899753373,0,0,1.4508862060546874,0,0,1.07016
0.5585055229894351,0,0,1.1468225952148436,0,0,0.99372
0.5616249519807752,0,0,1.369483349609375,0,0,0.99372
0.5647437319858,0,0,1.4867992309570313,0,0,1.07016
0.5678550869924948,0,0,1.3120225097656248,0,0,1.07016
0.5709599229739979,0,0,1.3383587280273437,0,0,0.07644000000000001
0.5740684079937637,0,0,1.4125789794921875,0,0,1.1465999999999998
0.5771754479792435,0,0,1.0773907470703123,0,0,1.07016
0.5804668189957738,0,0,1.2856862915039062,0,0,1.5288
0.5836498579883482,0,0,1.4796166259765624,0,0,0.7644
0.5867978789901827,0,0,1.1348515869140625,0,0,0.6115200000000001
0.5899176779785194,0,0,1.2737152832031249,0,0,0.7644
0.5930316259909887,0,0,1.4891934326171874,0,0,0.99372
0.5961792389862239,0,0,1.6807295654296874,0,0,1.2230400000000001
0.5993007239885628,0,0,1.3527239379882812,0,0,0.6115200000000001
0.6024457079765853,0,0,1.4700398193359374,0,0,0.7644
0.6056632089894265,0,0,1.5155296508789062,0,0,0.91728
0.6086176029930357,0,0,0.9744400756835937,0,0,1.07016
0.6114171089720912,0,0,1.350329736328125,0,0,0.53508
0.6142181899922434,0,0,1.4437036010742186,0,0,0.68796
0.6170423809962813,0,0,1.2808978881835937,0,0,0.68796
0.6198454609839246,0,0,1.1252747802734375,0,0,0.6115200000000001
0.6226449309906457,0,0,1.455674609375,0,0,0.84084
0.6254458259791136,0,0,1.467645617675781,0,0,0.68796
0.6282456099870615,0,0,1.3766659545898436,0,0,0.6115200000000001
0.631152244983241,0,0,1.2521674682617188,0,0,0.22932
0.6339530839759391,0,0,1.465251416015625,0,0,0.84084
0.636751034995541,0,0,1.3383587280273437,0,0,1.07016
0.6395707259944174,0,0,1.149216796875,0,0,1.1465999999999998
0.6423687329806853,0,0,1.3551181396484375,0,0,0.99372
0.6451708689855877,0,0,1.3192051147460937,0,0,1.1465999999999998
0.6481352069822606,0,0,1.1755530151367186,0,0,1.1465999999999998
0.6509312689886428,0,0,1.0869675537109373,0,0,0.91728
0.6537280339980498,0,0,1.3120225097656248,0,0,1.07016
0.6565266149991658,0,0,1.2138602416992186,0,0,0.68796
0.6593204909877386,0,0,1.1372457885742187,0,0,0.99372
0.6621157939953264,0,0,1.2641384765625,0,0,1.37592
0.6649120969814248,0,0,1.2880804931640624,0,0,1.1465999999999998
0.6677095659833867,0,0,1.3144167114257812,0,0,0.7644
0.6705060909735039,0,0,1.3646949462890625,0,0,1.37592
0.6733031899784692,0,0,1.407790576171875,0,0,0.91728
0.6761001959966961,0,0,1.47482822265625,0,0,0.7644
0.6789280909870286,0,0,1.1707646118164061,0,0,0.7644
0.6817220229713712,0,0,1.2665326782226562,0,0,0.07644000000000001
0.6845190299791284,0,0,1.2593500732421874,0,0,0.91728
0.6873331099923234,0,0,1.2737152832031249,0,0,0.53508
0.690129430993693,0,0,1.216254443359375,0,0,0.6115200000000001
0.6929186409979593,0,0,1.4149731811523436,0,0,0.3822
0.6960137930000201,0,0,1.4700398193359374,0,0,1.07016
0.6988191139826085,0,0,1.2952630981445312,0,0,0.53508
0.7016192869923543,0,0,1.3575123413085937,0,0,0.07644000000000001
0.7045111249899492,0,0,1.4604630126953124,0,0,0.84084
0.707441481994465,0,0,1.0893617553710937,0,0,0.99372
0.7106282619934063,0,0,1.1611878051757811,0,0,-8.48484
0.7137753569986671,0,0,1.4604630126953124,0,0,0.84084
0.7168943599972408,0,0,1.35990654296875,0,0,1.1465999999999998
0.7200111959828064,0,0,1.120486376953125,0,0,0.07644000000000001
0.7231574579782318,0,0,1.484405029296875,0,0,0.68796
0.7262760529993102,0,0,1.369483349609375,0,0,1.45236
0.7293980379763525,0,0,1.0989385620117187,0,0,0.91728
0.7325192069984041,0,0,1.2808978881835937,0,0,0.84084
0.7357434869918507,0,0,1.4221557861328125,0,0,0.6115200000000001
0.7389661179913674,0,0,1.4508862060546874,0,0,0.3822
0.7420948799990583,0,0,1.3575123413085937,0,0,0.91728
0.7452133459737524,0,0,1.4772224243164063,0,0,1.1465999999999998
0.7483241629961412,0,0,1.2306196533203124,0,0,0.99372
0.751418591971742,0,0,1.3359645263671873,0,0,0.07644000000000001
0.7545403539843392,0,0,1.3646949462890625,0,0,1.1465999999999998
0.7577763749868609,0,0,1.1085153686523437,0,0,1.1465999999999998
0.7610876719991211,0,0,1.3168109130859373,0,0,0.45864
0.7643145619949792,0,0,1.2593500732421874,0,0,0.7644
0.7674208239768632,0,0,1.3144167114257812,0,0,0.45864
0.7705662899825256,0,0,1.1061211669921875,0,0,1.07016
0.7737325329799205,0,0,1.5011644409179687,0,0,1.2994800000000002
0.7768513509945478,0,0,1.6615759521484375,0,0,1.2994800000000002
0.7799682789773215,0,0,1.1923124267578125,0,0,0.7644
0.7830853189807385,0,0,1.2473790649414063,0,0,0.3822
0.7861880809941795,0,0,1.448492004394531,0,0,0.91728
0.7893067879776936,0,0,1.1037269653320312,0,0,0.45864
0.7924183279974386,0,0,1.448492004394531,0,0,1.1465999999999998
0.7955267379875295,0,0,1.3527239379882812,0,0,0.91728
0.7996817109815311,0,0,1.20667763671875,0,0,2.6754
0.8028450649871957,0,0,1.3407529296874998,0,0,0.84084
0.8060060119896661,0,0,1.3527239379882812,0,0,0.7644
0.8091242559894454,0,0,1.2330138549804688,0,0,1.1465999999999998
0.8122430549992714,0,0,1.3431471313476562,0,0,0.84084
0.8153577989723999,0,0,1.2928688964843749,0,0,1.1465999999999998
0.8184744309983216,0,0,1.24498486328125,0,0,1.2994800000000002
0.821591340994928,0,0,1.3168109130859373,0,0,-0.22932
0.8247037149849348,0,0,1.2569558715820313,0,0,2.2167600000000003
0.8278410509810783,0,0,1.254561669921875,0,0,0.84084
0.8309581269859336,0,0,1.2880804931640624,0,0,1.2230400000000001
0.8341087039734703,0,0,1.47482822265625,0,0,1.07016
0.8373217429907527,0,0,1.2401964599609374,0,0,0.84084
0.8404435609991197,0,0,1.1228805786132812,0,0,0.6115200000000001
0.843589025986148,0,0,1.4053963745117186,0,0,0.99372
0.8467105839808937,0,0,1.4101847778320311,0,0,0.84084
0.8498275869933423,0,0,1.2425906616210938,0,0,0.99372
0.8531909949961118,0,0,1.2282254516601563,0,0,0.68796
0.8563157199823763,0,0,1.4125789794921875,0,0,1.1465999999999998
0.8594328519830015,0,0,1.2521674682617188,0,0,0.45864
0.8625347069755662,0,0,1.3718775512695311,0,0,1.1465999999999998
0.8656509139982518,0,0,1.3335703247070312,0,0,1.2994800000000002
0.8687746199721005,0,0,1.2856862915039062,0,0,0.91728
0.8718927339941729,0,0,1.2282254516601563,0,0,0.45864
0.8750045329798013,0,0,1.37906015625,0,0,1.5288
0.8781202029786073,0,0,1.85790048828125,0,0,2.2931999999999997
0.8812377239810303,0,0,1.9776105712890624,0,0,2.2167600000000003
0.884353300993098,0,0,2.9496564453125,0,0,1.60524
0.8874839149939362,0,0,1.908178723144531,0,0,1.2994800000000002
0.8905993619991932,0,0,1.446097802734375,0,0,1.37592
0.8937124949879944,0,0,1.2617442749023438,0,0,1.37592
0.8969597929972224,0,0,1.8722656982421875,0,0,1.60524
0.9000794619787484,0,0,1.9608511596679685,0,0,1.68168
0.9031955199898221,0,0,1.9009961181640624,0,0,1.45236
0.9063714489748236,0,0,1.9991583862304687,0,0,1.2230400000000001
0.9094918399932794,0,0,1.8028338500976562,0,0,1.2230400000000001
0.9126109359785914,0,0,1.7860744384765623,0,0,1.37592
0.9157278639904689,0,0,1.8339584716796873,0,0,1.75812
0.9188444599858485,0,0,1.5945383056640625,0,0,1.60524
0.9219617219932843,0,0,1.9656395629882812,0,0,0.7644
0.9250673359783832,0,0,2.4301146850585935,0,0,2.98116
0.9281790979730431,0,0,1.3766659545898436,0,0,0.68796
0.9313434339710511,0,0,1.8602946899414061,0,0,1.2994800000000002
0.9344656219764147,0,0,1.5059528442382812,0,0,0.7644
0.9375827359908726,0,0,1.8914193115234375,0,0,2.2167600000000003
0.9406998309714254,0,0,1.8459294799804686,0,0,1.68168
0.9438481669931207,0,0,2.5809493896484375,0,0,1.2230400000000001
0.9469636889989488,0,0,1.8531120849609375,0,0,1.2230400000000001
0.9500781359965913,0,0,1.3766659545898436,0,0,1.5288
0.9531940459855832,0,0,1.39821376953125,0,0,1.83456
0.9563104929984547,0,0,1.4221557861328125,0,0,1.75812
0.9594226999906823,0,0,2.1260510742187497,0,0,1.37592
0.9625356659817044,0,0,1.956062756347656,0,0,0.84084
0.9656527979823295,0,0,2.1212626708984375,0,0,1.83456
0.9687694309977815,0,0,2.0733786376953125,0,0,0.91728
0.9718852859805338,0,0,0.7302315063476562,0,0,0.6115200000000001
0.9749976959719788,0,0,2.636016027832031,0,0,1.911
0.978112753975438,0,0,1.9488801513671874,0,0,0.68796
0.9812299789919052,0,0,1.5682020874023437,0,0,1.2230400000000001
0.9843455929949414,0,0,2.327164013671875,0,0,1.07016
0.9875260209955741,0,0,0.8858546142578124,0,0,1.2994800000000002
0.9908045599877369,0,0,1.7310078002929687,0,0,1.911
0.9939200999797322,0,0,1.9752163696289062,0,0,0.30576000000000003
0.9970693429931998,0,0,2.528276953125,0,0,0.68796
1.0001976969942916,0,0,1.3527239379882812,0,0,0.30576000000000003
1.003470383991953,0,0,1.7166425903320313,0,0,0.68796
1.006753421999747,0,0,1.6352397338867186,0,0,0.53508
1.0100007559813093,0,0,2.0925322509765625,0,0,0.3822
1.0132500909967348,0,0,1.5825672973632812,0,0,2.82828
1.016473462979775,0,0,1.956062756347656,0,0,1.37592
1.0197543159883935,0,0,1.2114660400390624,0,0,0.0
1.0230575949826743,0,0,1.9680337646484374,0,0,2.4460800000000003
1.0262461339880247,0,0,2.9951462768554684,0,0,2.82828
1.0294352469791193,0,0,1.4772224243164063,0,0,0.30576000000000003
1.0326348599919584,0,0,0.8020575561523438,0,0,8.7906
1.0358533799881116,0,0,3.1507693847656246,0,0,3.36336
1.0389838089758996,0,0,1.2617442749023438,0,0,0.6115200000000001
1.0421125519787893,0,0,0.7900865478515624,0,0,0.0
1.0452607029874343,0,0,3.77326181640625,0,0,3.59268
1.0483961689751595,0,0,1.5346832641601562,0,0,-0.84084
1.0515263009874616,0,0,-0.062249243164062495,0,0,2.2931999999999997
1.0547352289722767,0,0,3.768473413085937,0,0,3.59268
1.05787304599653,0,0,1.180341418457031,0,0,0.91728
1.0610076419834513,0,0,0.5386953735351562,0,0,1.37592
1.0641653479833622,0,0,4.106055847167968,0,0,2.75184
1.0673259609902743,0,0,1.209071838378906,0,0,-0.7644
1.0705092039715964,0,0,0.9050082275390624,0,0,0.91728
1.0737348909897264,0,0,1.8626888916015625,0,0,1.1465999999999998
1.077009595988784,0,0,-0.9648632690429687,0,0,0.30576000000000003
1.0802439489925746,0,0,2.4109610717773435,0,0,1.98744
1.0835176909749862,0,0,1.5945383056640625,0,0,0.0
1.0868265249882825,0,0,2.2194249389648437,0,0,1.2994800000000002
1.090219672973035,0,0,2.0829554443359375,0,0,0.3822
1.0934275269974023,0,0,-0.9792284790039062,0,0,0.99372
1.0967228049994446,0,0,3.0693665283203124,0,0,1.07016
1.09999765799148,0,0,-0.15083470458984374,0,0,-9.784320000000001
1.103654339996865,0,0,1.637633935546875,0,0,2.14032
1.106925952975871,0,0,2.080561242675781,0,0,1.37592
1.1095337759761605,0,0,-0.8475473876953125,0,0,0.3822
1.1110143149853684,0,0,0.9121908325195311,0,0,0.45864
1.1124765769927762,0,0,1.6735469604492186,0,0,0.6115200000000001
1.1139540419972036,0,0,2.2385785522460937,0,0,1.68168
1.1154502109857276,0,0,1.5777788940429687,0,0,1.07016
1.1168651589832734,0,0,0.04548983154296875,0,0,-0.30576000000000003
1.1182489399798214,0,0,0.603338818359375,0,0,1.07016
1.1196324059856124,0,0,1.8435352783203125,0,0,2.4460800000000003
1.1210135199944489,0,0,2.446874096679687,0,0,1.75812
1.1223930609994568,0,0,1.9752163696289062,0,0,0.68796
1.1237771379819605,0,0,0.7158662963867187,0,0,1.1465999999999998
1.1252001039974857,0,0,0.1771709228515625,0,0,9.172799999999999
1.1265814779908396,0,0,0.8978256225585937,0,0,0.6115200000000001
1.1279710179951508,0,0,2.3439234252929686,0,0,1.5288
1.129553352977382,0,0,1.8818425048828125,0,0,1.83456
1.130966170981992,0,0,0.5243301635742187,0,0,0.45864
1.132362080999883,0,0,-0.23702596435546874,0,0,-9.784320000000001
1.1337476769986097,0,0,0.16280571289062498,0,0,0.45864
1.1351279769733083,0,0,1.9632453613281249,0,0,0.6115200000000001
1.1366175719886087,0,0,2.4133552734375,0,0,2.2931999999999997
1.1379981489735655,0,0,2.454056701660156,0,0,2.5989600000000004
1.1393776519980747,0,0,1.5538368774414062,0,0,2.4460800000000003
1.1407592849864159,0,0,-0.6607996582031249,0,0,-0.45864
1.142140029987786,0,0,-0.03591302490234375,0,0,-0.15288000000000002
1.1435208109905943,0,0,1.8171990600585937,0,0,0.84084
1.1449013139936142,0,0,3.342305517578125,0,0,1.2994800000000002
1.1462812619865872,0,0,2.952050646972656,0,0,1.68168
1.147667986981105,0,0,0.5770026000976562,0,0,2.14032
1.1490470089775044,0,0,-0.9026140258789062,0,0,-0.68796
1.1504274199833162,0,0,-0.8259995727539062,0,0,-0.22932
1.1518606819736306,0,0,1.3623007446289062,0,0,0.68796
1.1532425189798232,0,0,2.3511060302734372,0,0,0.7644
1.1546221889730077,0,0,2.288856787109375,0,0,0.6115200000000001
1.156004969991045,0,0,1.158793603515625,0,0,1.68168
1.1573850289860275,0,0,0.48123453369140623,0,0,0.30576000000000003
1.158764142979635,0,0,1.6304513305664061,0,0,0.84084
1.1601454429910518,0,0,1.62805712890625,0,0,1.37592
1.1615244279964827,0,0,2.1308394775390624,0,0,1.45236
1.16290359798586,0,0,1.5442600708007812,0,0,0.0
1.1642837129766122,0,0,1.189918225097656,0,0,-0.45864
1.165663104999112,0,0,0.45968671875,0,0,0.0
1.1670425339834765,0,0,1.7214309936523438,0,0,0.53508
1.1684301669884007,0,0,1.7166425903320313,0,0,1.5288
1.1698194849886931,0,0,1.3048399047851562,0,0,1.5288
1.1712067289918195,0,0,0.8834604125976562,0,0,1.1465999999999998
1.1725933619891293,0,0,0.19632453613281248,0,0,-0.22932
1.1739798839844298,0,0,0.45489831542968745,0,0,1.2230400000000001
1.1753666099975817,0,0,2.2960393920898436,0,0,2.14032
1.1767531499790493,0,0,2.7437551025390623,0,0,1.60524
1.1781390789838042,0,0,2.4157494750976563,0,0,1.75812
1.1795255079923663,0,0,1.8076222534179687,0,0,1.911
1.1809131039772183,0,0,-0.12210428466796874,0,0,-0.53508
1.1823033109831158,0,0,0.36631285400390623,0,0,0.7644
1.1836911109858193,0,0,1.8818425048828125,0,0,1.07016
1.185076465975726,0,0,2.291250988769531,0,0,0.99372
1.1864624139852822,0,0,1.7908628417968748,0,0,0.22932
1.1878499539743643,0,0,0.814028564453125,0,0,0.84084
1.1892362169746775,0,0,-0.10295067138671875,0,0,0.0
1.1906229049782269,0,0,1.5825672973632812,0,0,0.07644000000000001
1.192009000980761,0,0,1.4413093994140624,0,0,1.5288
1.1933931339881383,0,0,1.5825672973632812,0,0,1.07016
1.1947788599936757,0,0,0.842758984375,0,0,0.15288000000000002
1.1961821039731149,0,0,0.6943184814453125,0,0,0.30576000000000003
1.1975709219987039,0,0,0.5626373901367188,0,0,0.84084
1.198958776978543,0,0,2.978386865234375,0,0,1.68168
1.2003466499736533,0,0,2.9089550170898435,0,0,2.2931999999999997
1.2017341169994324,0,0,1.1875240234375,0,0,0.99372
1.2031215639726724,0,0,0.4644751220703125,0,0,-0.45864
1.2045095859793946,0,0,0.14604630126953125,0,0,-1.911
1.2058976079861168,0,0,1.218648645019531,0,0,0.68796
1.2072847039962653,0,0,2.741360900878906,0,0,1.37592
1.2086719289945904,0,0,2.221819140625,0,0,2.2931999999999997
1.2100623399892356,0,0,1.0510545288085937,0,0,1.07016
1.2114496399881318,0,0,0.24899697265624998,0,0,1.07016
1.212836790975416,0,0,-0.5793968017578125,0,0,-1.2230400000000001
1.2142262939887587,0,0,0.8978256225585937,0,0,0.99372
1.2156149829970673,0,0,2.89219560546875,0,0,2.06388
1.2170019859913737,0,0,3.208230224609375,0,0,1.45236
1.2183895079942886,0,0,2.29843359375,0,0,1.2230400000000001
1.2197773629741278,0,0,0.565031591796875,0,0,1.2994800000000002
1.2211643299960997,0,0,-0.6416460449218749,0,0,-0.15288000000000002
1.22255355498055,0,0,1.4173673828125,0,0,0.22932
1.2239417619712185,0,0,1.7597382202148437,0,0,1.2230400000000001
1.2253283389727585,0,0,2.5857377929687497,0,0,1.68168
1.2267157869937364,0,0,1.2856862915039062,0,0,0.91728
1.2281034569896292,0,0,0.7709329345703124,0,0,1.07016
1.2294904789887369,0,0,-0.4070142822265625,0,0,1.2230400000000001
1.2309032039775047,0,0,1.9321207397460936,0,0,0.99372
1.2322886889742222,0,0,2.2936451904296873,0,0,1.98744
1.2336686739872675,0,0,1.5610194824218748,0,0,1.2994800000000002
1.2350479919987265,0,0,1.01514150390625,0,0,0.22932
1.2364716799929738,0,0,0.51714755859375,0,0,-0.7644
1.2379352009738795,0,0,1.5227122558593749,0,0,1.07016
1.2393295929941814,0,0,2.6096798095703124,0,0,2.2167600000000003
1.2407222259789705,0,0,2.3223756103515623,0,0,1.37592
1.2421092109871097,0,0,1.0558429321289062,0,0,1.2230400000000001
1.2434957139776088,0,0,0.21787235107421873,0,0,0.0
1.2448824029997922,0,0,-0.565031591796875,0,0,-2.2167600000000003
1.2462712389824446,0,0,0.8044517578125,0,0,0.15288000000000002
1.247660316992551,0,0,3.488351818847656,0,0,2.06388
1.2490461159904953,0,0,3.296815686035156,0,0,1.98744
1.2504327119968366,0,0,1.6615759521484375,0,0,1.45236
1.2518217529868707,0,0,-0.4572925170898437,0,0,1.1465999999999998
1.2532083669793792,0,0,-1.3120225097656248,0,0,-0.91728
1.2545966299949214,0,0,2.1068974609374997,0,0,0.0
1.2559843919880223,0,0,3.114856359863281,0,0,2.2167600000000003
1.2573698579799384,0,0,3.7612908081054686,0,0,1.98744
1.2587560649844818,0,0,1.6065093139648436,0,0,1.911
1.2601442909799516,0,0,0.4429273071289062,0,0,0.6115200000000001
1.2615303129714448,0,0,-0.5099649536132812,0,0,-0.30576000000000003
1.2629181489755865,0,0,1.3263877197265623,0,0,9.24924
1.2643047449819278,0,0,2.5953145996093747,0,0,2.2167600000000003
1.2656908229982946,0,0,2.384624853515625,0,0,1.75812
1.2670768449897878,0,0,1.5490484741210937,0,0,1.2230400000000001
1.2684636999911163,0,0,0.5674257934570313,0,0,-0.45864
1.269850406999467,0,0,-0.016759411621093748,0,0,0.30576000000000003
1.271237150998786,0,0,1.5083470458984374,0,0,0.99372
1.2726235799782444,0,0,2.6719290527343746,0,0,1.45236
1.2740102129755542,0,0,1.8148048583984373,0,0,2.14032
1.275395900971489,0,0,1.2497732666015624,0,0,0.99372
1.276782385975821,0,0,-0.5051765502929687,0,0,-0.99372
1.2781698149919976,0,0,0.833182177734375,0,0,0.68796
1.2795585219864734,0,0,2.6623522460937497,0,0,2.36964
1.280945543985581,0,0,2.887407202148437,0,0,1.5288
1.282331547990907,0,0,1.695094775390625,0,0,1.37592
1.2837172549916431,0,0,0.13168109130859373,0,0,0.15288000000000002
1.2851030909805559,0,0,-0.9696516723632812,0,0,-1.911
1.2865019829769153,0,0,1.9608511596679685,0,0,-0.22932
1.2878932459861971,0,0,3.047818713378906,0,0,2.14032
1.2892871939984616,0,0,3.517082238769531,0,0,2.14032
1.2906738259771373,0,0,1.2497732666015624,0,0,1.37592
1.2920624779944774,0,0,-0.39264907226562495,0,0,0.68796
1.2934496659727301,0,0,-1.7286135986328124,0,0,-1.2994800000000002
1.294835502980277,0,0,1.2138602416992186,0,0,-0.45864
1.2962387839797884,0,0,2.6791116577148437,0,0,1.75812
1.2976266579935327,0,0,3.418919970703125,0,0,1.98744
1.2990135869767983,0,0,2.4061726684570313,0,0,2.52252
1.3004002569941804,0,0,0.7062894897460937,0,0,0.68796
1.3017869269824587,0,0,-1.5298948608398437,0,0,0.15288000000000002
1.303174559987383,0,0,0.4070142822265625,0,0,9.172799999999999
1.3045613039867021,0,0,3.5601778686523438,0,0,1.60524
1.3059490109735634,0,0,3.0645781249999997,0,0,1.68168
1.3073366989847273,0,0,2.73896669921875,0,0,2.06388
1.3087231099780183,0,0,-0.277727392578125,0,0,0.0
1.3101104099769145,0,0,-0.6057330200195312,0,0,0.07644000000000001
1.3114979309902992,0,0,1.2473790649414063,0,0,1.07016
1.3128846939944196,0,0,2.24097275390625,0,0,0.6115200000000001
1.3142711969849188,0,0,1.8507178833007811,0,0,2.36964
1.3156584779790137,0,0,0.9720458740234375,0,0,1.07016
1.317044351977529,0,0,-0.01915361328125,0,0,-0.22932
1.3184316519764252,0,0,1.6927005737304686,0,0,0.30576000000000003
1.3198202479979955,0,0,2.118868469238281,0,0,2.14032
1.321206472988706,0,0,2.480392919921875,0,0,1.5288
1.3225926429731771,0,0,1.7214309936523438,0,0,1.1465999999999998
1.323980182991363,0,0,0.7613561279296874,0,0,0.68796
1.3253655569860712,0,0,-0.18435352783203124,0,0,-0.30576000000000003
1.3267526899871882,0,0,1.7238251953125,0,0,0.0
1.3281389709736686,0,0,2.588131994628906,0,0,2.14032
1.3295247889764141,0,0,2.0350714111328125,0,0,1.83456
1.3309106809902005,0,0,1.62805712890625,0,0,1.37592
1.3322967959975358,0,0,0.316034619140625,0,0,0.07644000000000001
1.333682909986237,0,0,-0.41419688720703124,0,0,9.172799999999999
1.3350696729903575,0,0,0.9911994873046874,0,0,-0.7644
1.3364571019774303,0,0,2.7437551025390623,0,0,1.1465999999999998
1.337843567976961,0,0,2.446874096679687,0,0,2.14032
1.3392296269885264,0,0,2.5761609863281247,0,0,2.2931999999999997
1.3406161859747954,0,0,-0.4572925170898437,0,0,0.45864
1.3420053189911414,0,0,-0.9361328491210937,0,0,0.15288000000000002
1.3433918779774103,0,0,0.3016694091796875,0,0,0.22932
1.3447791959915776,0,0,2.73896669921875,0,0,0.6115200000000001
1.34616514397203,0,0,2.8131869506835936,0,0,2.2931999999999997
1.3475523509841878,0,0,1.7214309936523438,0,0,2.2167600000000003
1.3489393909985665,0,0,0.21787235107421873,0,0,0.15288000000000002
1.3503258759737946,0,0,-0.46686932373046874,0,0,0.07644000000000001
1.351713045994984,0,0,0.928950244140625,0,0,0.6115200000000001
1.3530981599760707,0,0,1.8411410766601561,0,0,0.15288000000000002
1.3544840529793873,0,0,2.0374656127929685,0,0,1.2994800000000002
1.3558706669718958,0,0,1.2042834350585936,0,0,1.75812
1.3572563369816635,0,0,0.4644751220703125,0,0,-0.45864
1.3586423399974592,0,0,1.6735469604492186,0,0,0.7644
1.3600292699993588,0,0,2.1021090576171875,0,0,2.52252
1.3614145139872562,0,0,1.4245499877929686,0,0,1.5288
1.362801238981774,0,0,1.3072341064453123,0,0,0.3822
1.3641872239822987,0,0,0.9169792358398436,0,0,0.7644
1.3655744309944566,0,0,0.5410895751953124,0,0,0.22932
1.3669602489972021,0,0,1.908178723144531,0,0,0.07644000000000001
1.368346640985692,0,0,2.5378537597656248,0,0,1.60524
1.3697326449910179,0,0,1.7956512451171873,0,0,1.911
1.3711182779807132,0,0,1.2665326782226562,0,0,1.07016
1.372504372993717,0,0,-0.6248866333007812,0,0,-0.53508
1.373891172988806,0,0,-0.39743747558593745,0,0,-0.3822
1.3752781209768727,0,0,1.2737152832031249,0,0,0.3822
1.3766643279814161,0,0,2.844311572265625,0,0,1.37592
1.3780499789863825,0,0,2.1930887207031247,0,0,2.06388
1.3794358339800965,0,0,1.0678139404296874,0,0,2.2167600000000003
1.3808220039936714,0,0,0.239420166015625,0,0,0.15288000000000002
1.382207970978925,0,0,-0.0526724365234375,0,0,0.68796
1.3836134739976842,0,0,1.8507178833007811,0,0,1.07016
1.3849996439821552,0,0,2.7054478759765623,0,0,0.99372
1.3863856839889195,0,0,1.838746875,0,0,0.84084
1.3877725019992795,0,0,1.0342951171875,0,0,1.2994800000000002
1.389157986995997,0,0,0.430956298828125,0,0,0.0
1.3905441199894994,0,0,1.0965443603515623,0,0,0.84084
1.391929548990447,0,0,1.5011644409179687,0,0,1.07016
1.393313329986995,0,0,1.5729904907226562,0,0,0.3822
1.3946972229750827,0,0,1.2401964599609374,0,0,0.45864
1.3961749659792986,0,0,1.2018892333984375,0,0,2.06388
1.397562375990674,0,0,1.2785036865234374,0,0,1.07016
1.3989488609950058,0,0,2.133233679199219,0,0,0.84084
1.4003399389912374,0,0,1.4796166259765624,0,0,0.99372
1.401726237992989,0,0,0.8595183959960937,0,0,0.91728
1.4031123159802519,0,0,0.63206923828125,0,0,0.07644000000000001
1.404498022980988,0,0,0.6153098266601562,0,0,0.07644000000000001
1.405898321972927,0,0,0.93852705078125,0,0,1.37592
1.407285528985085,0,0,2.4013842651367185,0,0,1.5288
1.408673068974167,0,0,2.674323254394531,0,0,1.83456
1.4100606839929242,0,0,1.3910311645507811,0,0,1.45236
1.4114475939713884,0,0,-0.39264907226562495,0,0,0.91728
1.4128356349829119,0,0,-0.5123591552734374,0,0,-0.99372
1.4142245639814064,0,0,0.0526724365234375,0,0,0.45864
1.4156129189941566,0,0,3.1364041748046874,0,0,1.2994800000000002
1.4169997929711826,0,0,3.957615344238281,0,0,1.37592
1.4183866849925835,0,0,1.7717092285156248,0,0,1.911
1.4197742989927065,0,0,0.05027823486328125,0,0,0.99372
1.421160431986209,0,0,-1.1156979736328125,0,0,-0.7644
1.422549305978464,0,0,1.0414777221679687,0,0,-0.30576000000000003
1.4239376429759432,0,0,2.398990063476562,0,0,1.1465999999999998
1.4253235529758967,0,0,2.5330653564453125,0,0,0.68796
1.4267104089958593,0,0,1.7836802368164062,0,0,0.3822
1.4280979489849415,0,0,0.6105214233398437,0,0,0.99372
1.4294846739794593,0,0,-0.34237083740234375,0,0,0.7644
1.430872492986964,0,0,1.2641384765625,0,0,0.91728
1.4322599029983394,0,0,2.0973206542968748,0,0,1.5288
1.4336464989755768,0,0,1.9895815795898437,0,0,1.07016
1.4350334469927475,0,0,1.3814543579101561,0,0,1.07016
1.4364208389888518,0,0,0.07422025146484375,0,0,-0.22932
1.4378081199829467,0,0,0.5339069702148437,0,0,0.7644
1.4391946609830484,0,0,2.7269956909179687,0,0,1.60524
1.4405814789934084,0,0,2.6695348510742187,0,0,1.75812
1.4419686119945254,0,0,1.6472107421875,0,0,1.68168
1.4433553739800118,0,0,-0.5506663818359374,0,0,-0.53508
1.4447440809744876,0,0,-1.0821791503906248,0,0,-1.60524
1.4461320839764085,0,0,0.0909796630859375,0,0,0.84084
1.4475189029762987,0,0,3.5625720703124997,0,0,1.68168
1.4489071649732068,0,0,3.6296097167968746,0,0,1.83456
1.4502942059771158,0,0,0.9074024291992187,0,0,1.45236
1.4517469119746238,0,0,-0.59376201171875,0,0,0.84084
1.4531600439804606,0,0,-1.7932570434570312,0,0,-0.99372
1.4545638069976121,0,0,1.6112977172851561,0,0,0.15288000000000002
1.4559526619850658,0,0,3.1220389648437497,0,0,1.2230400000000001
1.4573404059919994,0,0,3.4668040039062498,0,0,1.60524
1.4587284279987216,0,0,2.4516625,0,0,1.75812
1.4601162639737595,0,0,0.5506663818359374,0,0,0.91728
1.461503193975659,0,0,-1.6711527587890624,0,0,-0.68796
1.4628921969851945,0,0,0.469263525390625,0,0,9.631440000000001
1.4642801079899073,0,0,3.497928625488281,0,0,1.1465999999999998
1.465667462995043,0,0,2.8610709838867185,0,0,0.99372
1.467054261971498,0,0,2.233790148925781,0,0,0.6115200000000001
1.4684421729762107,0,0,-0.430956298828125,0,0,0.0
1.4698301579919644,0,0,-0.6248866333007812,0,0,0.45864
1.4712176979810465,0,0,0.5602431884765625,0,0,0.68796
1.4726051269972231,0,0,2.6575638427734374,0,0,1.5288
1.4739925749890972,0,0,2.360682836914062,0,0,1.5288
1.4753800969920121,0,0,1.3718775512695311,0,0,1.37592
1.4767671739973594,0,0,0.30406361083984373,0,0,0.07644000000000001
1.4781570479972288,0,0,-0.08140285644531249,0,0,0.53508
1.4795474399870727,0,0,1.93451494140625,0,0,2.2167600000000003
1.4809272209822666,0,0,2.5809493896484375,0,0,1.2994800000000002
1.4823059839836787,0,0,1.879448303222656,0,0,0.91728
1.4836925979761872,0,0,0.9337386474609375,0,0,0.91728
1.4850786019815132,0,0,-0.16759411621093748,0,0,-0.45864
1.4864749569969717,0,0,1.3479355346679687,0,0,0.53508
1.4879406629770529,0,0,2.231395947265625,0,0,1.68168
1.4894177759997547,0,0,2.674323254394531,0,0,1.911
1.4908139089820907,0,0,1.68551796875,0,0,1.2994800000000002
1.4921998569916468,0,0,0.6919242797851562,0,0,0.15288000000000002
1.4935844159917906,0,0,-1.5346832641601562,0,0,-1.1465999999999998
1.4949722529854625,0,0,0.4908113403320312,0,0,0.0
1.4963750329916365,0,0,3.4452561889648434,0,0,1.07016
1.4977683519828133,0,0,3.4572271972656248,0,0,2.2167600000000003
1.499155706987949,0,0,2.8227637573242186,0,0,2.36964
1.5005438029766083,0,0,-0.5051765502929687,0,0,-0.15288000000000002
1.5019324539753143,0,0,-1.7501614135742187,0,0,-0.68796
1.5033212719717994,0,0,2.094926452636719,0,0,0.0
1.504709737986559,0,0,3.921702319335937,0,0,0.99372
1.5060967049794272,0,0,3.5338416503906247,0,0,1.2994800000000002
1.507483670982765,0,0,1.3646949462890625,0,0,1.37592
1.508871988975443,0,0,-0.6679822631835937,0,0,-1.1465999999999998
1.5102601959952153,0,0,-0.27293898925781246,0,0,-0.7644
1.5116645509842783,0,0,0.8164227661132812,0,0,0.45864
1.5130524989799596,0,0,2.1356278808593747,0,0,0.6115200000000001
1.5144392979855184,0,0,2.6144682128906247,0,0,1.68168
1.5158266719954554,0,0,2.013523596191406,0,0,2.14032
1.5172136199835222,0,0,-0.6871358764648438,0,0,-0.30576000000000003
1.5186014189966954,0,0,0.70868369140625,0,0,0.45864
1.5199901079759002,0,0,2.0183119995117185,0,0,2.2167600000000003
1.5213768699904904,0,0,2.583343591308594,0,0,2.2931999999999997
1.52276379999239,0,0,2.104503259277344,0,0,1.07016
1.5241520989802666,0,0,1.1324573852539062,0,0,0.84084
1.5255396769789513,0,0,-0.6679822631835937,0,0,-0.3822
1.5269280869979411,0,0,0.7996633544921875,0,0,-0.6115200000000001
1.528315756993834,0,0,2.8706477905273435,0,0,0.91728
1.5297029459907208,0,0,2.442085693359375,0,0,2.36964
1.5311241149902344,0,0,1.7525556152343749,0,0,1.68168
1.532507062976947,0,0,-0.3758896606445312,0,0,0.22932
1.5338885289966129,0,0,-1.158793603515625,0,0,0.3822
1.5352682179945987,0,0,1.9800047729492187,0,0,1.1465999999999998
1.5378485419787467,0,0,2.978386865234375,0,0,2.2167600000000003
1.5392555449798238,0,0,1.8148048583984373,0,0,2.06388
1.540643343992997,0,0,0.02154781494140625,0,0,-0.6115200000000001
1.5420311249908991,0,0,-1.1348515869140625,0,0,-9.784320000000001
1.5434197769791353,0,0,1.62805712890625,0,0,0.68796
1.544806168996729,0,0,2.6910826660156246,0,0,1.2230400000000001
1.546192005975172,0,0,2.128445275878906,0,0,0.84084
1.5475794159865472,0,0,1.3718775512695311,0,0,1.68168
1.5489658459846396,0,0,0.16759411621093748,0,0,-0.68796
1.5503523489751387,0,0,0.22744915771484372,0,0,-0.22932
1.551740129973041,0,0,1.2617442749023438,0,0,0.91728
1.5531258929986507,0,0,2.6862942626953124,0,0,1.60524
1.5545121179893613,0,0,2.518700146484375,0,0,1.75812
1.555899139988469,0,0,2.080561242675781,0,0,2.4460800000000003
1.5572840319946408,0,0,-0.22026655273437498,0,0,0.15288000000000002
1.5586709239869379,0,0,0.5243301635742187,0,0,-0.30576000000000003
1.560057667986257,0,0,1.2306196533203124,0,0,1.2994800000000002
1.5614457089977805,0,0,1.956062756347656,0,0,1.2994800000000002
1.5628320269752294,0,0,1.7262193969726563,0,0,0.45864
1.5642180669819936,0,0,0.7326257080078125,0,0,0.6115200000000001
1.5656039959867485,0,0,-0.23702596435546874,0,0,0.99372
1.566991073981626,0,0,1.189918225097656,0,0,0.7644
1.568377484974917,0,0,1.6711527587890624,0,0,1.2994800000000002
1.5697633949748706,0,0,1.43652099609375,0,0,1.2994800000000002
1.5711513059795834,0,0,1.1228805786132812,0,0,0.53508
1.5725373089953791,0,0,0.6584054565429687,0,0,0.0
1.5739232939959038,0,0,0.5674257934570313,0,0,0.84084
1.5753092049853876,0,0,2.770091320800781,0,0,1.68168
1.576695170981111,0,0,3.1555577880859373,0,0,1.2230400000000001
1.578089173999615,0,0,1.3072341064453123,0,0,1.37592
1.5794751039939001,0,0,0.565031591796875,0,0,1.37592
1.5808615699934307,0,0,-0.7254431030273437,0,0,-2.14032
1.582249035971472,0,0,1.4221557861328125,0,0,-0.30576000000000003
1.5836493539973162,0,0,2.327164013671875,0,0,1.2994800000000002
1.5850360429903958,0,0,2.7629087158203123,0,0,0.91728
1.5864226009871345,0,0,1.2018892333984375,0,0,0.53508
1.5878087529854383,0,0,0.41419688720703124,0,0,1.45236
1.5891938489803579,0,0,-0.201112939453125,0,0,-0.7644
1.5905812409764621,0,0,1.649604943847656,0,0,0.45864
1.5919672439922579,0,0,2.5617957763671875,0,0,1.83456
1.5933510249888059,0,0,2.1739351074218747,0,0,1.37592
1.594735046994174,0,0,1.3263877197265623,0,0,0.84084
1.5961706059752032,0,0,0.1149216796875,0,0,-8.63772
1.5975720529968385,0,0,0.02633621826171875,0,0,0.3822
1.5989604269852862,0,0,1.7836802368164062,0,0,0.07644000000000001
1.6003479859791696,0,0,2.482787121582031,0,0,1.5288
1.6017346369917504,0,0,1.8602946899414061,0,0,1.83456
1.6031211039808113,0,0,0.5219359619140624,0,0,1.37592
1.6045080139883794,0,0,-0.07422025146484375,0,0,-0.6115200000000001
1.6058959989750292,0,0,-0.17238251953125,0,0,1.37592
1.6072837989777327,0,0,2.4253262817382812,0,0,1.60524
1.608670412999345,0,0,2.6719290527343746,0,0,1.37592
1.6100570829876233,0,0,1.407790576171875,0,0,2.14032
1.6114436789939646,0,0,0.6823474731445313,0,0,1.5288
1.612830533995293,0,0,-0.4165910888671875,0,0,-1.2994800000000002
1.614218518981943,0,0,1.7669208251953124,0,0,0.91728
1.615606058971025,0,0,2.6192566162109374,0,0,1.98744
1.6169920619868208,0,0,3.1268273681640624,0,0,1.75812
1.6183786209730897,0,0,1.1875240234375,0,0,1.2230400000000001
1.6197653469862416,0,0,0.8906430175781249,0,0,1.5288
1.6211577579961158,0,0,-0.8882488159179687,0,0,-1.5288
1.6225461129797623,0,0,1.2880804931640624,0,0,-0.15288000000000002
1.6239335789869074,0,0,2.5905261962890624,0,0,1.75812
1.6253197489713784,0,0,2.6886884643554687,0,0,1.1465999999999998
1.6267059559759218,0,0,1.5346832641601562,0,0,0.7644
1.6280980149749666,0,0,-0.842758984375,0,0,0.15288000000000002
1.629485499986913,0,0,-0.6153098266601562,0,0,0.3822
1.6308953359839506,0,0,1.458068811035156,0,0,0.0
1.6322848759882618,0,0,3.3303345092773435,0,0,1.68168
1.6336716019723099,0,0,2.6408044311523438,0,0,1.68168
1.6350584009778686,0,0,0.8044517578125,0,0,1.07016
1.6364452569978312,0,0,-0.7972691528320313,0,0,-9.707880000000001
1.637833740998758,0,0,-0.9217676391601562,0,0,0.15288000000000002
1.6392215959785972,0,0,2.703053674316406,0,0,0.53508
1.6406082479807083,0,0,3.3590649291992185,0,0,1.37592
1.6419954729790334,0,0,2.281674182128906,0,0,0.7644
1.6433821059763432,0,0,0.00718260498046875,0,0,0.84084
1.6447687759937253,0,0,-1.0007762939453124,0,0,-0.99372
1.646156686998438,0,0,1.4772224243164063,0,0,1.2230400000000001
1.6475577269739006,0,0,2.920926025390625,0,0,2.36964
1.6489447679778095,0,0,3.6942531616210936,0,0,1.60524
1.650331307988381,0,0,1.7741034301757812,0,0,2.36964
1.6517186079872772,0,0,0.3184288208007812,0,0,1.911
1.6531045919982716,0,0,-1.3311761230468748,0,0,-0.91728
1.6544927619979717,0,0,1.2617442749023438,0,0,0.0
1.6558921539981384,0,0,2.5450363647460934,0,0,2.14032
1.657278286991641,0,0,2.808398547363281,0,0,1.75812
1.658665104972897,0,0,2.142810485839844,0,0,1.5288
1.6600519239727873,0,0,-0.2561795776367187,0,0,2.14032
1.6614385379943997,0,0,-1.4891934326171874,0,0,1.1465999999999998
1.6628255969844759,0,0,0.4381389038085937,0,0,-0.6115200000000001
1.6642128959938418,0,0,3.246537451171875,0,0,1.45236
1.6656063439731952,0,0,2.607285607910156,0,0,1.911
1.6669928659975994,0,0,1.1707646118164061,0,0,0.84084
1.6683795169810764,0,0,-0.5746083984375,0,0,-0.53508
1.6697668909910135,0,0,-1.0534487304687499,0,0,0.84084
1.671153745992342,0,0,1.6017209106445311,0,0,9.631440000000001
1.6725403419986833,0,0,2.7629087158203123,0,0,0.99372
1.6739264199859463,0,0,2.492363928222656,0,0,1.98744
1.6753126449766569,0,0,1.7717092285156248,0,0,1.5288
1.6766995189827867,0,0,0.1005564697265625,0,0,-1.68168
1.6780861519800965,0,0,0.7398083129882812,0,0,0.22932
1.6794723399798386,0,0,2.4013842651367185,0,0,1.1465999999999998
1.6808587689884007,0,0,3.4931402221679684,0,0,1.37592
1.6822449949977454,0,0,2.0278888061523435,0,0,0.91728
1.6836359799781349,0,0,1.618480322265625,0,0,1.75812
1.68502320497646,0,0,-1.216254443359375,0,0,-1.1465999999999998
1.6864105599815957,0,0,0.258573779296875,0,0,-0.15288000000000002
1.6878078229783569,0,0,1.6807295654296874,0,0,1.911
1.689197936997516,0,0,2.971204260253906,0,0,0.99372
1.6905835699872114,0,0,2.712630480957031,0,0,1.68168
1.6919688699999824,0,0,-0.23223756103515625,0,0,1.83456
1.6933544289786369,0,0,-1.5275006591796874,0,0,-0.6115200000000001
1.6947393759910483,0,0,-0.15562310791015624,0,0,-1.2994800000000002
1.696168675989611,0,0,3.296815686035156,0,0,2.06388
1.6975575119722635,0,0,3.768473413085937,0,0,1.911
1.6989451079862192,0,0,2.023100402832031,0,0,1.83456
1.7003329629951622,0,0,-0.17956512451171874,0,0,1.68168
1.7017214479856193,0,0,-1.886630908203125,0,0,0.0
1.7031092289835215,0,0,1.1372457885742187,0,0,-0.68796
1.7045104169810656,0,0,2.6671406494140624,0,0,1.2994800000000002
1.70589804998599,0,0,3.2417490478515623,0,0,2.4460800000000003
1.7072852569981478,0,0,2.061407629394531,0,0,2.2167600000000003
1.7086834639776498,0,0,0.4477157104492187,0,0,-0.15288000000000002
1.7100717639841605,0,0,-0.23223756103515625,0,0,0.53508
1.7114601749926805,0,0,1.0319009155273438,0,0,0.7644
1.7128482519765384,0,0,2.1643583007812497,0,0,0.15288000000000002
1.714243180991616,0,0,2.806004345703125,0,0,2.06388
1.7156326659896877,0,0,2.1021090576171875,0,0,3.13404
1.7170200019900221,0,0,-0.7350199096679687,0,0,-1.5288
1.7184083949832711,0,0,-0.16041151123046873,0,0,-0.45864
1.7197973419970367,0,0,1.4006079711914061,0,0,0.91728
1.7211839379742742,0,0,2.7653029174804686,0,0,0.84084
1.7225714050000533,0,0,2.4684219116210935,0,0,1.60524
1.7239594079728704,0,0,0.38307226562499996,0,0,2.36964
1.7253460039792117,0,0,-0.9433154541015625,0,0,8.25552
1.726733636984136,0,0,-0.5051765502929687,0,0,-1.83456
1.7281221589946654,0,0,2.250549560546875,0,0,1.5288
1.7295090509869624,0,0,2.849099975585937,0,0,1.2994800000000002
1.730895849992521,0,0,2.0350714111328125,0,0,2.06388
1.732278501993278,0,0,0.5003881469726562,0,0,0.7644
1.7336570789921097,0,0,-0.7350199096679687,0,0,0.45864
1.7350362859724555,0,0,1.3670891479492187,0,0,-0.84084
1.7364234189735726,0,0,2.2361843505859373,0,0,0.84084
1.737821273971349,0,0,2.626439221191406,0,0,2.14032
1.7392644439823925,0,0,2.205059729003906,0,0,1.98744
1.7407021319959313,0,0,0.6727706665039062,0,0,-0.53508
1.7420919129799586,0,0,-0.3758896606445312,0,0,0.07644000000000001
1.7434806379897054,0,0,0.9002198242187499,0,0,-0.30576000000000003
1.744868289999431,0,0,2.2266075439453124,0,0,0.45864
1.7462548489857,0,0,2.300827795410156,0,0,2.82828
1.74765699999989,0,0,1.956062756347656,0,0,2.75184
1.7490431699843612,0,0,-0.6392518432617187,0,0,9.631440000000001
1.7504300809814595,0,0,-0.44532150878906246,0,0,-0.6115200000000001
1.7518456579709891,0,0,1.0319009155273438,0,0,1.75812
1.7532510869787075,0,0,3.2225954345703123,0,0,0.68796
1.7546374599914998,0,0,3.0526071166992184,0,0,1.07016
1.756024833972333,0,0,0.9169792358398436,0,0,3.13404
1.7574401519959792,0,0,-0.5195417602539062,0,0,0.0
1.758970060996944,0,0,0.5626373901367188,0,0,-1.5288
1.7604168409889098,0,0,2.1260510742187497,0,0,0.07644000000000001
1.7619035659881774,0,0,2.482787121582031,0,0,1.83456
1.763294568983838,0,0,1.944091748046875,0,0,0.91728
1.7646774239838123,0,0,0.7015010864257812,0,0,-0.3822
1.7660608349833637,0,0,-0.023942016601562498,0,0,1.5288
1.7674420239927713,0,0,1.3718775512695311,0,0,0.22932
1.768832952977391,0,0,1.8459294799804686,0,0,0.45864
1.7702207519905642,0,0,2.2601263671875,0,0,1.5288
1.7716066999710165,0,0,1.7477672119140624,0,0,2.14032
1.7730047769728117,0,0,-0.1388636962890625,0,0,-1.1465999999999998
1.7743862249772064,0,0,0.19871873779296872,0,0,0.0
1.7757718209759332,0,0,1.9416975463867185,0,0,0.99372
1.777158712997334,0,0,2.6503812377929687,0,0,-0.15288000000000002
1.7785460869781673,0,0,1.8219874633789062,0,0,1.1465999999999998
1.7799334609881043,0,0,0.0047884033203125,0,0,1.2230400000000001
1.781319370988058,0,0,-0.8403647827148437,0,0,-1.1465999999999998
1.7827070039929822,0,0,0.21068974609375,0,0,-0.22932
1.784094192989869,0,0,2.5617957763671875,0,0,1.911
1.7854807329713367,0,0,2.360682836914062,0,0,1.75812
1.7868671069736592,0,0,1.2473790649414063,0,0,0.6115200000000001
1.7882539249840192,0,0,0.143652099609375,0,0,2.06388
1.7896402619953733,0,0,-0.48123453369140623,0,0,0.3822
1.791027134982869,0,0,2.5163059448242184,0,0,0.0
1.79241243499564,0,0,3.287238879394531,0,0,2.36964
1.7937971789797302,0,0,3.0023288818359375,0,0,1.911
1.7951816449931357,0,0,1.7525556152343749,0,0,-20
1.7966135739989113,0,0,0.2346317626953125,0,0,0.0
1.7980022999981884,0,0,-0.2059013427734375,0,0,0.07644000000000001
1.7993914319959003,0,0,1.8602946899414061,0,0,0.07644000000000001
1.8007792319986038,0,0,2.980781066894531,0,0,0.0
1.80216629098868,0,0,1.6136919189453125,0,0,1.75812
1.8035545159946196,0,0,1.419761584472656,0,0,1.911
1.804942074988503,0,0,-0.584185205078125,0,0,-1.1465999999999998
1.8063296529871877,0,0,-0.14604630126953125,0,0,1.37592
1.807718414987903,0,0,1.618480322265625,0,0,0.91728
1.8091053259850014,0,0,2.205059729003906,0,0,0.0
1.810492495977087,0,0,2.0638018310546875,0,0,1.1465999999999998
1.811879646993475,0,0,0.5243301635742187,0,0,2.06388
1.8132666689925827,0,0,-0.07422025146484375,0,0,-0.99372
1.8146572839759756,0,0,0.7972691528320313,0,0,0.0
1.816055304982001,0,0,2.896984008789062,0,0,2.14032
1.8174404749879614,0,0,2.7341782958984373,0,0,0.0
1.8188275159918703,0,0,0.9504980590820312,0,0,0.22932
1.8202179449726827,0,0,-0.38786066894531246,0,0,0.0
1.8216062259743921,0,0,-1.0989385620117187,0,0,-0.6115200000000001
1.822996932984097,0,0,2.5378537597656248,0,0,9.631440000000001
1.824384472973179,0,0,3.1028853515624997,0,0,1.98744
1.8257716249790974,0,0,1.5251064575195312,0,0,1.60524
1.8271585909824353,0,0,1.0941501586914062,0,0,0.7644
1.828545389987994,0,0,-0.2920926025390625,0,0,-1.37592
1.8299333569884766,0,0,0.02154781494140625,0,0,0.45864
1.831345803977456,0,0,2.540247961425781,0,0,0.15288000000000002
1.8327493999968283,0,0,3.7110125732421873,0,0,1.07016
1.8341397549957037,0,0,2.549824768066406,0,0,2.82828
1.8355952389829326,0,0,1.649604943847656,0,0,2.75184
1.8369858719815966,0,0,-1.8914193115234375,0,0,-2.2167600000000003
1.83837680099532,0,0,-0.9959878906249999,0,0,-0.6115200000000001
1.8397629709797911,0,0,3.8283284545898435,0,0,0.6115200000000001
1.841158862982411,0,0,3.897760302734375,0,0,0.45864
1.8425378109968733,0,0,2.5665841796874997,0,0,1.2994800000000002
1.8439259069855325,0,0,-0.354341845703125,0,0,2.6754
1.8453144469822291,0,0,-1.5969325073242187,0,0,-1.2230400000000001
1.8467031909967773,0,0,-1.2952630981445312,0,0,-0.84084
1.8480923239840195,0,0,3.0071172851562498,0,0,1.83456
1.8494802349887323,0,0,3.5242648437499997,0,0,1.1465999999999998
1.8508672939788084,0,0,1.8171990600585937,0,0,1.2230400000000001
1.8522544269799255,0,0,-0.12449848632812499,0,0,1.5288
1.8536424859776162,0,0,-1.1252747802734375,0,0,0.15288000000000002
1.8550307109835558,0,0,1.7788918334960937,0,0,-0.6115200000000001
1.8564134369953535,0,0,3.337517114257812,0,0,1.45236
1.8577926809957717,0,0,3.019088293457031,0,0,1.83456
1.8591717209783383,0,0,1.7286135986328124,0,0,0.68796
1.8605598539870698,0,0,-0.229843359375,0,0,0.0
1.8619465059891809,0,0,-1.120486376953125,0,0,-0.3822
1.8633338049985468,0,0,1.350329736328125,0,0,0.30576000000000003
1.8647204379958566,0,0,3.5338416503906247,0,0,1.07016
1.8661062189785298,0,0,2.2768857788085937,0,0,2.06388
1.8674926489766221,0,0,1.465251416015625,0,0,1.68168
1.868878966983175,0,0,-1.8938135131835936,0,0,-1.5288
1.8702662289724685,0,0,-1.7549498168945312,0,0,-0.7644
1.8716546579962596,0,0,0.612915625,0,0,9.32568
1.8730412359873299,0,0,3.8857892944335934,0,0,0.0
1.8744276839715894,0,0,2.8706477905273435,0,0,2.14032
1.8758199279836845,0,0,-0.15322890625,0,0,1.98744
1.8772056899906602,0,0,-1.608903515625,0,0,-2.4460800000000003
1.8785926009877585,0,0,-2.2002713256835937,0,0,-0.7644
1.8799806039896794,0,0,1.8507178833007811,0,0,-0.22932
1.881366829999024,0,0,3.612850305175781,0,0,0.15288000000000002
1.8827527959947474,0,0,2.001552587890625,0,0,2.36964
1.884146817988949,0,0,-0.13168109130859373,0,0,1.68168
1.8855342099850532,0,0,-1.6232687255859375,0,0,-2.4460800000000003
1.8869215089944191,0,0,-0.8547299926757812,0,0,0.0
1.8883203269797377,0,0,1.4700398193359374,0,0,-0.3822
1.8897151829733048,0,0,3.246537451171875,0,0,1.45236
1.891120129992487,0,0,2.2026655273437497,0,0,2.4460800000000003
1.8925021149916574,0,0,1.5466542724609373,0,0,0.0
1.893880988995079,0,0,-1.0486603271484374,0,0,2.36964
1.8952608249965124,0,0,-1.7836802368164062,0,0,-2.14032
1.896666809974704,0,0,2.4444798950195312,0,0,-1.07016
1.8980557759932708,0,0,3.7397429931640622,0,0,2.4460800000000003
1.899443149974104,0,0,4.180276098632812,0,0,-0.53508
1.900824782991549,0,0,1.3359645263671873,0,0,2.75184
1.9022033969813492,0,0,-1.5586252807617187,0,0,-0.99372
1.9036172149935737,0,0,-2.578555187988281,0,0,6.95604
1.9050041449954733,0,0,-0.9217676391601562,0,0,-1.45236
1.9064008329878561,0,0,2.1739351074218747,0,0,-0.68796
1.9077884099970106,0,0,2.990357873535156,0,0,3.0576
1.9091752279782668,0,0,1.407790576171875,0,0,-0.45864
1.9105619349866174,0,0,0.5889736083984375,0,0,4.2042
1.9119491609744728,0,0,-1.7190367919921874,0,0,-0.99372
1.9133358489780221,0,0,-1.0702081420898437,0,0,0.07644000000000001
1.9147232229879592,0,0,1.93451494140625,0,0,-1.5288
1.9161103189981077,0,0,4.587290380859375,0,0,0.3822
1.9174962109827902,0,0,3.440467785644531,0,0,2.2167600000000003
1.9188829919730779,0,0,1.254561669921875,0,0,1.5288
1.920269569993252,0,0,-0.5698199951171875,0,0,1.60524
1.9216562399815302,0,0,-2.1835119140624997,0,0,-3.13404
1.9230432989716064,0,0,-1.0893617553710937,0,0,-0.99372
1.9244304499879945,0,0,0.6081272216796875,0,0,7.18536
1.9258164529746864,0,0,3.0502129150390624,0,0,0.7644
1.9272026969993021,0,0,2.710236279296875,0,0,1.2230400000000001
1.9285978859988973,0,0,1.3718775512695311,0,0,3.0576
1.9299840189923998,0,0,-1.0295067138671874,0,0,0.7644
1.9313715959724505,0,0,-1.1156979736328125,0,0,0.3822
1.9327583219856024,0,0,0.8954314208984374,0,0,-0.22932
1.9341449359781109,0,0,1.7621324218749999,0,0,-0.68796
1.9355440129875205,0,0,2.1452046874999997,0,0,0.99372
1.9369310169713572,0,0,1.7932570434570312,0,0,0.84084
1.9383172049710993,0,0,1.5011644409179687,0,0,1.83456
1.9397046899830457,0,0,-0.011971008300781249,0,0,-0.15288000000000002
1.9410912489984185,0,0,-0.13646949462890623,0,0,-0.15288000000000002
1.942478195996955,0,0,-0.076614453125,0,0,-1.1465999999999998
1.9438668849761598,0,0,1.0749965454101562,0,0,0.07644000000000001
1.9452528509718832,0,0,1.1061211669921875,0,0,0.0
1.9466390579764266,0,0,0.29448680419921874,0,0,0.07644000000000001
1.9481527639727574,0,0,0.19871873779296872,0,0,0.0
1.949553507991368,0,0,0.37828386230468747,0,0,0.0
1.9509398259979207,0,0,1.7573440185546874,0,0,0.91728
1.9523264029994607,0,0,1.7190367919921874,0,0,0.99372
1.9537125549977645,0,0,0.9265560424804687,0,0,1.5288
1.955098761973204,0,0,0.5722141967773438,0,0,0.91728
1.956487338989973,0,0,0.4908113403320312,0,0,0.0
1.9578732309746556,0,0,0.39264907226562495,0,0,-1.2994800000000002
1.9592604199715424,0,0,1.2042834350585936,0,0,-0.45864
1.9606480709917378,0,0,1.2018892333984375,0,0,-1.2230400000000001
1.9620345009898301,0,0,0.7015010864257812,0,0,0.84084
1.9634209299983922,0,0,0.8259995727539062,0,0,0.45864
1.9648071919800714,0,0,-0.10773907470703124,0,0,0.3822
1.966194935987005,0,0,-0.59376201171875,0,0,0.15288000000000002
1.9675943099719007,0,0,0.5482721801757812,0,0,-0.53508
1.9689813499862794,0,0,1.0917559570312498,0,0,0.07644000000000001
1.9703671309980564,0,0,1.4053963745117186,0,0,0.84084
1.9717984679737128,0,0,2.1715409057617188,0,0,1.2994800000000002
1.9731868039816618,0,0,1.6017209106445311,0,0,1.1465999999999998
1.9745732519950252,0,0,0.47884033203125,0,0,0.3822
1.9759607369778678,0,0,0.08858546142578125,0,0,0.7644
1.9773460359720048,0,0,-0.39743747558593745,0,0,-1.5288
1.978736224991735,0,0,1.4221557861328125,0,0,-0.15288000000000002
1.9801234319747891,0,0,1.8267758666992187,0,0,1.07016
1.9815094719815534,0,0,1.8722656982421875,0,0,0.22932
1.9828961049788631,0,0,0.239420166015625,0,0,0.91728
1.9842829599801917,0,0,0.28012159423828126,0,0,-0.3822
1.985669240995776,0,0,0.181959326171875,0,0,0.68796
1.9870556889800355,0,0,0.22744915771484372,0,0,-0.22932
1.9884473399724811,0,0,1.5658078857421873,0,0,1.2230400000000001
1.989905694994377,0,0,1.9393033447265624,0,0,0.84084
1.9913580309948884,0,0,1.5346832641601562,0,0,0.84084
1.992750792996958,0,0,0.1149216796875,0,0,0.68796
1.9941361299715936,0,0,0.12449848632812499,0,0,-0.6115200000000001
1.9955224109871779,0,0,0.25139117431640623,0,0,9.555
1.996923598984722,0,0,0.7038952880859375,0,0,-0.22932
1.9983120469842106,0,0,1.3287819213867187,0,0,0.6115200000000001
1.9996998099959455,0,0,1.438915197753906,0,0,0.22932
2.001085701980628,0,0,1.0462661254882812,0,0,0.7644
2.0024719089851715,0,0,-0.143652099609375,0,0,0.0
2.0038614489894826,0,0,-0.1005564697265625,0,0,0.0
2.005247729975963,0,0,0.9026140258789062,0,0,0.0
2.0066546779999044,0,0,1.5394716674804687,0,0,0.30576000000000003
2.0080612739839125,0,0,1.3000515014648437,0,0,0.22932
2.009446683980059,0,0,1.0678139404296874,0,0,0.15288000000000002
2.0108329099894036,0,0,0.9816226806640624,0,0,0.7644
2.012219431984704,0,0,1.0007762939453124,0,0,0.22932
2.013605619984446,0,0,0.74699091796875,0,0,0.6115200000000001
2.0149917349917814,0,0,0.4908113403320312,0,0,0.07644000000000001
2.016416885977378,0,0,0.699106884765625,0,0,-0.68796
2.017804517992772,0,0,0.7613561279296874,0,0,-0.53508
2.019190595980035,0,0,1.1276689819335937,0,0,0.15288000000000002
2.020578839990776,0,0,1.1540052001953125,0,0,0.45864
2.021964305982692,0,0,0.6919242797851562,0,0,0.22932
2.023349994997261,0,0,0.1771709228515625,0,0,0.45864
2.0247365349787287,0,0,0.14125789794921875,0,0,0.0
2.0261224639834836,0,0,0.7900865478515624,0,0,0.07644000000000001
2.0275081709842198,0,0,1.618480322265625,0,0,0.99372
2.0288944889907725,0,0,1.5418658691406248,0,0,1.1465999999999998
2.0302805109822657,0,0,1.180341418457031,0,0,0.84084
2.031667088973336,0,0,0.4213794921875,0,0,0.22932
2.0330527029873338,0,0,0.07900865478515624,0,0,-0.15288000000000002
2.0344392429979052,0,0,0.2154781494140625,0,0,-0.7644
2.0358258389751427,0,0,1.3215993164062498,0,0,0.30576000000000003
2.0372148799942806,0,0,1.4221557861328125,0,0,0.99372
2.0386015309777576,0,0,0.9911994873046874,0,0,0.53508
2.0399882379861083,0,0,0.5722141967773438,0,0,0.30576000000000003
2.041373685991857,0,0,0.33039982910156246,0,0,-0.15288000000000002
2.0427602819981985,0,0,0.2825157958984375,0,0,-0.45864
2.0441473409882747,0,0,0.8403647827148437,0,0,0.0
2.045534010976553,0,0,1.1252747802734375,0,0,0.0
2.046920254972065,0,0,1.0917559570312498,0,0,0.6115200000000001
2.0483098319964483,0,0,1.0031704956054688,0,0,0.0
2.0497002239862923,0,0,0.42377369384765623,0,0,0.22932
2.051304243999766,0,0,0.6464344482421874,0,0,0.3822
2.052692561992444,0,0,0.928950244140625,0,0,0.07644000000000001
2.0540824169875123,0,0,1.0797849487304687,0,0,0.22932
2.055495289998362,0,0,1.01514150390625,0,0,0.7644
2.0568832569988444,0,0,0.8858546142578124,0,0,0.07644000000000001
2.0582700009981636,0,0,0.7278373046875,0,0,0.0
2.059674151998479,0,0,0.51714755859375,0,0,-0.68796
2.0610625999979675,0,0,0.8116343627929687,0,0,0.30576000000000003
2.062449065997498,0,0,0.718260498046875,0,0,0.15288000000000002
2.0638359029835556,0,0,0.7733271362304687,0,0,0.7644
2.065228034975007,0,0,0.5243301635742187,0,0,0.45864
2.0666143349953927,0,0,1.1707646118164061,0,0,0.30576000000000003
2.068000689992914,0,0,0.8858546142578124,0,0,0.0
2.0693860449828207,0,0,0.689530078125,0,0,0.0
2.0707716969773173,0,0,0.8930372192382812,0,0,0.30576000000000003
2.0721572559850756,0,0,1.254561669921875,0,0,0.45864
2.0735428699990734,0,0,1.5825672973632812,0,0,0.99372
2.074929335998604,0,0,1.3359645263671873,0,0,1.07016
2.076315876998706,0,0,1.22583125,0,0,0.99372
2.0777011579775717,0,0,0.8212111694335937,0,0,1.2994800000000002
2.079111530998489,0,0,1.0366893188476562,0,0,1.07016
2.080501700984314,0,0,1.7788918334960937,0,0,0.99372
2.0818874269898515,0,0,2.0302830078125,0,0,0.53508
2.083273151976755,0,0,1.6903063720703124,0,0,1.1465999999999998
2.0846588219865225,0,0,1.1563994018554686,0,0,0.91728
2.0860441959812306,0,0,0.9744400756835937,0,0,0.91728
2.0874373289989308,0,0,1.0295067138671874,0,0,1.1465999999999998
2.088823757978389,0,0,1.2306196533203124,0,0,0.53508
2.090212890994735,0,0,1.3383587280273437,0,0,0.53508
2.0916176159807947,0,0,1.668758557128906,0,0,0.53508
2.0929973049787804,0,0,1.3407529296874998,0,0,0.84084
2.094375863991445,0,0,1.0031704956054688,0,0,0.6115200000000001
2.0957790519751143,0,0,1.0366893188476562,0,0,0.7644
2.0971677779743914,0,0,1.197100830078125,0,0,0.99372
2.098554965981748,0,0,1.4221557861328125,0,0,0.22932
2.099938987987116,0,0,1.429338391113281,0,0,0.3822
2.1013172139937524,0,0,1.4030021728515625,0,0,0.7644
2.102696105983341,0,0,1.2042834350585936,0,0,0.6115200000000001
2.104116886999691,0,0,1.3024457031249999,0,0,0.91728
2.1055032789881807,0,0,1.1827356201171875,0,0,1.2230400000000001
2.1068889669841155,0,0,1.2641384765625,0,0,0.30576000000000003
2.1082746559986845,0,0,1.3575123413085937,0,0,0.15288000000000002
2.109660066984361,0,0,1.2856862915039062,0,0,0.53508
2.111045125988312,0,0,1.2665326782226562,0,0,0.68796
2.112430739973206,0,0,1.3048399047851562,0,0,0.53508
2.1138164099829737,0,0,1.4101847778320311,0,0,1.5288
2.11520187597489,0,0,1.2497732666015624,0,0,1.1465999999999998
2.1166144529997837,0,0,1.3096283081054687,0,0,0.84084
2.1180620119848754,0,0,1.2904746948242187,0,0,0.6115200000000001
2.119494421989657,0,0,1.3144167114257812,0,0,0.6115200000000001
2.1209360909997486,0,0,1.448492004394531,0,0,0.7644
2.1223948529805057,0,0,1.2665326782226562,0,0,0.45864
2.1238636519992724,0,0,1.3192051147460937,0,0,0.91728
2.1252968029875774,0,0,1.218648645019531,0,0,0.7644
2.1267625829786994,0,0,1.1611878051757811,0,0,0.84084
2.128229306981666,0,0,1.0726023437499999,0,0,0.6115200000000001
2.13010130499606,0,0,1.177947216796875,0,0,0.7644
2.131648269976722,0,0,1.4508862060546874,0,0,1.1465999999999998
2.133126975997584,0,0,1.3215993164062498,0,0,0.99372
2.1345995149749797,0,0,1.197100830078125,0,0,0.6115200000000001
2.13610131398309,0,0,1.1444283935546875,0,0,0.68796
2.1375161689938977,0,0,1.24498486328125,0,0,1.2994800000000002
2.1388979499752168,0,0,1.4125789794921875,0,0,0.6115200000000001
2.1402813969762065,0,0,1.5155296508789062,0,0,0.53508
2.141661215981003,0,0,1.4532804077148436,0,0,0.68796
2.143040607974399,0,0,1.2569558715820313,0,0,0.84084
2.1444208339962643,0,0,1.2665326782226562,0,0,0.53508
2.1457995219971053,0,0,1.2976572998046874,0,0,0.68796
2.1471775809768587,0,0,1.3335703247070312,0,0,0.53508
2.1485748069826514,0,0,1.448492004394531,0,0,0.0
2.1499546989798546,0,0,1.3575123413085937,0,0,0.53508
2.15133309099474,0,0,1.3311761230468748,0,0,0.91728
2.1527119829843286,0,0,1.2210428466796874,0,0,0.84084
2.1540905609726906,0,0,1.3742717529296875,0,0,0.91728
2.155468711978756,0,0,1.3096283081054687,0,0,0.99372
2.1568513449747115,0,0,1.3192051147460937,0,0,0.91728
2.158254218986258,0,0,1.1875240234375,0,0,0.3822
2.1596452959929593,0,0,1.2234370483398436,0,0,0.99372
2.1610249289951753,0,0,1.3527239379882812,0,0,0.68796
2.162403172987979,0,0,1.3168109130859373,0,0,0.6115200000000001
2.1637829169922043,0,0,1.458068811035156,0,0,1.2994800000000002
2.165161253971746,0,0,1.2521674682617188,0,0,0.68796
2.166539275989635,0,0,1.1444283935546875,0,0,0.84084
2.16791859397199,0,0,1.2210428466796874,0,0,1.07016
2.1692970789736137,0,0,1.2952630981445312,0,0,1.2230400000000001
2.170675156987272,0,0,1.3144167114257812,0,0,0.6115200000000001
2.1720577529922593,0,0,1.5873557006835937,0,0,0.7644
2.173445885971887,0,0,1.4221557861328125,0,0,0.91728
2.174824573972728,0,0,1.3479355346679687,0,0,0.7644
2.176203651994001,0,0,1.1947066284179686,0,0,1.07016
2.177581673982786,0,0,1.149216796875,0,0,1.45236
2.178960028977599,0,0,1.1851298217773436,0,0,0.84084
2.180341346975183,0,0,1.3718775512695311,0,0,0.6115200000000001
2.181719775981037,0,0,1.6519991455078125,0,0,-9.172799999999999
2.183111149992328,0,0,1.37906015625,0,0,0.84084
2.18450193098397,0,0,1.2378022583007813,0,0,0.84084
2.1858802679926157,0,0,1.2521674682617188,0,0,0.84084
2.187258789985208,0,0,1.0917559570312498,0,0,1.07016
2.1886388859711587,0,0,1.2306196533203124,0,0,0.15288000000000002
2.190017092972994,0,0,1.3431471313476562,0,0,0.3822
2.191395540983649,0,0,1.5682020874023437,0,0,0.68796
2.192781469988404,0,0,1.2928688964843749,0,0,0.6115200000000001
2.1941597699769773,0,0,1.350329736328125,0,0,0.91728
2.1955530689738225,0,0,1.1156979736328125,0,0,0.91728
2.196933794999495,0,0,1.1755530151367186,0,0,0.6115200000000001
2.1983121679804754,0,0,1.2665326782226562,0,0,0.22932
2.1996935609786306,0,0,1.3359645263671873,0,0,0.91728
2.2010716939985286,0,0,1.3575123413085937,0,0,0.45864
2.202450474986108,0,0,1.3479355346679687,0,0,0.68796
2.2038354039832484,0,0,1.3335703247070312,0,0,0.91728
2.2052219819743186,0,0,1.0941501586914062,0,0,0.84084
2.2066079849901143,0,0,1.1444283935546875,0,0,0.84084
2.2079940249968786,0,0,1.0726023437499999,0,0,0.7644
2.2093797139823437,0,0,1.39821376953125,0,0,0.91728
2.210767290991498,0,0,1.4437036010742186,0,0,0.68796
2.2121572389733046,0,0,1.5945383056640625,0,0,0.68796
2.2135428529873025,0,0,1.3479355346679687,0,0,0.84084
2.2149282079772092,0,0,1.3551181396484375,0,0,0.84084
2.216314026998589,0,0,1.2138602416992186,0,0,0.6115200000000001
2.217700362991309,0,0,1.1659762084960936,0,0,0.7644
2.2190860889968462,0,0,1.2497732666015624,0,0,0.7644
2.2204718879947904,0,0,1.3814543579101561,0,0,0.45864
2.221857446973445,0,0,1.5753846923828123,0,0,0.7644
2.2232435249898117,0,0,1.3120225097656248,0,0,0.53508
2.2246293609787244,0,0,1.3934253662109375,0,0,0.6115200000000001
2.226014549989486,0,0,1.1659762084960936,0,0,0.45864
2.2273997379816137,0,0,1.1156979736328125,0,0,0.7644
2.228785778977908,0,0,1.2138602416992186,0,0,0.30576000000000003
2.2301714859786443,0,0,1.120486376953125,0,0,0.30576000000000003
2.231557562976377,0,0,1.5155296508789062,0,0,0.6115200000000001
2.2329435289721005,0,0,1.4891934326171874,0,0,0.84084
2.2343290509888902,0,0,1.2904746948242187,0,0,0.84084
2.2357236279931385,0,0,1.1276689819335937,0,0,0.91728
2.2371105019992683,0,0,1.2114660400390624,0,0,0.53508
2.2384965429955628,0,0,1.2401964599609374,0,0,0.0
2.2399126199888997,0,0,1.35990654296875,0,0,0.6115200000000001
2.2424866649962496,0,0,1.5251064575195312,0,0,0.6115200000000001
2.243884186987998,0,0,1.4508862060546874,0,0,1.1465999999999998
2.2452741719898768,0,0,1.2928688964843749,0,0,0.7644
2.246662674995605,0,0,1.2521674682617188,0,0,0.91728
2.248052122973604,0,0,1.2880804931640624,0,0,1.2230400000000001
2.2494391999789514,0,0,1.2785036865234374,0,0,0.99372
2.2508266849908978,0,0,1.2378022583007813,0,0,0.53508
2.252209761994891,0,0,1.5514426757812498,0,0,0.7644
2.2535892099840567,0,0,1.438915197753906,0,0,0.68796
2.254968768975232,0,0,1.2952630981445312,0,0,0.30576000000000003
2.2563577909895685,0,0,1.1324573852539062,0,0,0.7644
2.2577452199766412,0,0,1.1563994018554686,0,0,0.7644
2.2591379639925435,0,0,1.13006318359375,0,0,0.30576000000000003
2.260583447990939,0,0,1.24498486328125,0,0,0.84084
2.261980210983893,0,0,1.6711527587890624,0,0,0.68796
2.2633693809912074,0,0,1.2737152832031249,0,0,0.68796
2.264756957971258,0,0,1.3359645263671873,0,0,0.68796
2.266144720982993,0,0,1.1109095703125,0,0,0.91728
2.2675494279828854,0,0,1.1444283935546875,0,0,0.3822
2.268939578993013,0,0,1.2210428466796874,0,0,0.07644000000000001
2.270327192993136,0,0,1.2904746948242187,0,0,0.15288000000000002
2.271712251997087,0,0,1.4508862060546874,0,0,0.84084
2.2730914219864644,0,0,1.5035586425781249,0,0,0.53508
2.2744710739934817,0,0,1.37906015625,0,0,0.91728
2.275857095984975,0,0,1.35990654296875,0,0,0.91728
2.2772433209756855,0,0,1.1851298217773436,0,0,0.84084
2.2786298059800174,0,0,1.2138602416992186,0,0,0.30576000000000003
2.2800167719833553,0,0,1.2282254516601563,0,0,0.53508
2.2814150159829296,0,0,1.6136919189453125,0,0,0.6115200000000001
2.28280201999587,0,0,1.3814543579101561,0,0,0.6115200000000001
2.28418811497977,0,0,1.3623007446289062,0,0,1.37592
2.2855738409853075,0,0,1.2306196533203124,0,0,0.84084
2.2869683809985872,0,0,1.1372457885742187,0,0,0.6115200000000001
2.2883549769758247,0,0,1.2473790649414063,0,0,0.91728
2.2897372949810233,0,0,1.4317325927734375,0,0,0.7644
2.291134538972983,0,0,1.3527239379882812,0,0,0.22932
2.2925280049967114,0,0,1.369483349609375,0,0,0.68796
2.2939152119797654,0,0,1.3359645263671873,0,0,0.91728
2.29532719697454,0,0,1.0989385620117187,0,0,0.91728
2.29671855198103,0,0,1.1707646118164061,0,0,0.53508
2.2981062039907556,0,0,1.1611878051757811,0,0,-8.943480000000001
2.2994960589858238,0,0,1.3024457031249999,0,0,0.91728
2.300896783999633,0,0,1.3263877197265623,0,0,0.84084
2.3022844729712233,0,0,1.4891934326171874,0,0,0.68796
2.3036692349996883,0,0,1.2976572998046874,0,0,0.84084
2.305047941976227,0,0,1.2497732666015624,0,0,0.6115200000000001
2.306426648981869,0,0,1.16837041015625,0,0,0.68796
2.3078138009877875,0,0,1.0941501586914062,0,0,0.91728
2.3092007489758544,0,0,1.4221557861328125,0,0,0.7644
2.3105984179710504,0,0,1.3551181396484375,0,0,0.53508
2.3119878849829547,0,0,1.37906015625,0,0,0.68796
2.313374072982697,0,0,1.3814543579101561,0,0,0.68796
2.3147603909892496,0,0,1.3335703247070312,0,0,0.84084
2.3161474319931585,0,0,1.1635820068359375,0,0,0.99372
2.317534378991695,0,0,1.158793603515625,0,0,0.7644
2.3189215309976134,0,0,1.2521674682617188,0,0,0.0
2.320303663989762,0,0,1.35990654296875,0,0,0.45864
2.321682592999423,0,0,1.429338391113281,0,0,0.45864
2.323061336996034,0,0,1.3239935180664062,0,0,1.1465999999999998
2.3244585809879936,0,0,1.3814543579101561,0,0,0.99372
2.325846139981877,0,0,1.3407529296874998,0,0,0.91728
2.3272332359920256,0,0,1.1635820068359375,0,0,0.6115200000000001
2.328620164975291,0,0,1.1372457885742187,0,0,0.68796
2.3300089459808078,0,0,1.2904746948242187,0,0,0.3822
2.331395467976108,0,0,1.4245499877929686,0,0,0.45864
2.3327821569982916,0,0,1.5179238525390624,0,0,0.68796
2.3341689379885793,0,0,1.3814543579101561,0,0,1.07016
2.3355594969762024,0,0,1.216254443359375,0,0,0.7644
2.3369384439720307,0,0,1.2761094848632812,0,0,0.84084
2.338316725974437,0,0,1.1611878051757811,0,0,1.2230400000000001
2.3397019879776053,0,0,1.0989385620117187,0,0,1.2230400000000001
2.3410886769997887,0,0,1.4724340209960938,0,0,0.53508
2.3424758649780415,0,0,1.649604943847656,0,0,0.7644
2.3438636279897764,0,0,1.3479355346679687,0,0,0.84084
2.345249297999544,0,0,1.3024457031249999,0,0,0.30576000000000003
2.346635689988034,0,0,1.158793603515625,0,0,0.7644
2.3480227299733087,0,0,1.197100830078125,0,0,0.99372
2.349409158981871,0,0,1.3000515014648437,0,0,1.07016
2.3508032919780817,0,0,1.2808978881835937,0,0,0.7644
2.3521916659956332,0,0,1.5035586425781249,0,0,0.7644
2.3535797059885226,0,0,1.3958195678710936,0,0,0.68796
2.3549667099723592,0,0,1.438915197753906,0,0,0.53508
2.3563538609887473,0,0,1.2378022583007813,0,0,1.2230400000000001
2.357740326988278,0,0,1.216254443359375,0,0,0.22932
2.3591429419757333,0,0,1.3527239379882812,0,0,0.07644000000000001
2.360531259997515,0,0,1.3814543579101561,0,0,0.3822
2.3619183369737584,0,0,1.4700398193359374,0,0,0.45864
2.363305025995942,0,0,1.2401964599609374,0,0,0.68796
2.3646928619709797,0,0,1.5155296508789062,0,0,0.99372
2.366078976978315,0,0,1.1324573852539062,0,0,0.99372
2.367465220973827,0,0,1.1923124267578125,0,0,0.68796
2.368860408983892,0,0,1.3215993164062498,0,0,0.22932
2.3702480609936174,0,0,1.4053963745117186,0,0,0.53508
2.3716888219933026,0,0,1.235408056640625,0,0,0.68796
2.3730761219921988,0,0,1.3263877197265623,0,0,0.91728
2.3744635329931043,0,0,1.3383587280273437,0,0,1.2230400000000001
2.3758518139948137,0,0,1.3623007446289062,0,0,0.84084
2.377237205975689,0,0,1.1875240234375,0,0,-8.867040000000001
2.378626245976193,0,0,1.1563994018554686,0,0,0.84084
2.3800106199923903,0,0,1.3431471313476562,0,0,0.99372
2.381389252986992,0,0,1.4772224243164063,0,0,0.91728
2.382767959992634,0,0,1.6160861206054686,0,0,0.84084
2.384155777981505,0,0,1.4149731811523436,0,0,0.99372
2.385542688978603,0,0,1.2665326782226562,0,0,0.91728
2.3869289889989886,0,0,1.0989385620117187,0,0,0.68796
2.388317176984856,0,0,1.177947216796875,0,0,1.37592
2.3897046799829695,0,0,1.2785036865234374,0,0,0.84084
2.3910912209830713,0,0,1.3766659545898436,0,0,0.3822
2.392478093999671,0,0,1.4724340209960938,0,0,0.6115200000000001
2.393864578974899,0,0,1.1444283935546875,0,0,0.7644
2.395479394996073,0,0,1.2378022583007813,0,0,0.7644
2.3969437679916155,0,0,1.1563994018554686,0,0,0.99372
2.3983315299847163,0,0,1.24498486328125,0,0,1.1465999999999998
2.3997207369829994,0,0,1.350329736328125,0,0,1.07016
2.4011059629847296,0,0,1.3383587280273437,0,0,0.7644
2.4024925959820393,0,0,1.5418658691406248,0,0,1.07016
2.4038799879781436,0,0,1.5131354492187499,0,0,0.84084
2.4052660839806776,0,0,1.2282254516601563,0,0,0.68796
2.4066549579729326,0,0,1.20667763671875,0,0,0.84084
2.4080401829851326,0,0,1.1731588134765625,0,0,0.6115200000000001
2.40941800098517,0,0,1.3000515014648437,0,0,0.45864
2.4107968939933926,0,0,1.4772224243164063,0,0,0.22932
2.4122030079888646,0,0,1.5849614990234373,0,0,0.6115200000000001
2.4135905299917795,0,0,1.3239935180664062,0,0,0.53508
2.4149780509760603,0,0,1.235408056640625,0,0,0.6115200000000001
2.4163648139801808,0,0,1.1444283935546875,0,0,0.99372
2.4177590209874325,0,0,1.1923124267578125,0,0,0.68796
2.4191469689831138,0,0,1.2976572998046874,0,0,0.0
2.4205336019804236,0,0,1.2401964599609374,0,0,0.45864
2.4219202529930044,0,0,1.5298948608398437,0,0,0.7644
2.42330736698932,0,0,1.3646949462890625,0,0,0.91728
2.424688259983668,0,0,1.4413093994140624,0,0,0.91728
2.4260672819800675,0,0,1.1540052001953125,0,0,0.99372
2.4274461179738864,0,0,1.1061211669921875,0,0,0.6115200000000001
2.4288352329749614,0,0,1.1085153686523437,0,0,0.7644
2.4302218289813027,0,0,1.2737152832031249,0,0,0.91728
2.431618312984938,0,0,1.35990654296875,0,0,0.53508
2.4330050939752255,0,0,1.467645617675781,0,0,0.84084
2.434392356983153,0,0,1.455674609375,0,0,1.1465999999999998
2.4357802489830647,0,0,1.2521674682617188,0,0,0.84084
2.4371661779878195,0,0,1.2378022583007813,0,0,0.68796
2.4385526819969527,0,0,1.0869675537109373,0,0,1.2230400000000001
2.4399405919830315,0,0,1.4245499877929686,0,0,1.07016
2.441326965985354,0,0,1.3263877197265623,0,0,0.7644
2.442713691998506,0,0,1.5418658691406248,0,0,0.84084
2.444100435997825,0,0,1.2761094848632812,0,0,0.53508
2.445487308985321,0,0,1.2473790649414063,0,0,0.7644
2.4468739239964634,0,0,1.2282254516601563,0,0,1.1465999999999998
2.448260371980723,0,0,1.1109095703125,0,0,1.1465999999999998
2.44964726397302,0,0,1.1420341918945311,0,0,0.6115200000000001
2.4510341369896196,0,0,1.2497732666015624,0,0,0.45864
2.452464436995797,0,0,1.4700398193359374,0,0,0.6115200000000001
2.4538540319772437,0,0,1.3910311645507811,0,0,0.6115200000000001
2.4552409989992157,0,0,1.3335703247070312,0,0,0.7644
2.4566395019937772,0,0,1.3263877197265623,0,0,0.84084
2.4580268759746104,0,0,1.209071838378906,0,0,0.6115200000000001
2.4594138419779483,0,0,1.24498486328125,0,0,0.07644000000000001
2.460794344980968,0,0,1.2306196533203124,0,0,0.30576000000000003
2.4621739969879854,0,0,1.5586252807617187,0,0,0.6115200000000001
2.463578795985086,0,0,1.4987702392578124,0,0,0.91728
2.4649679849972017,0,0,1.2713210815429687,0,0,0.91728
2.466355302982265,0,0,1.1707646118164061,0,0,0.68796
2.4677423059765715,0,0,1.1875240234375,0,0,0.99372
2.469129142991733,0,0,1.1516109985351561,0,0,0.30576000000000003
2.4705161089950707,0,0,1.3311761230468748,0,0,0.53508
2.471903111989377,0,0,1.5562310791015623,0,0,0.7644
2.4732902079995256,0,0,1.438915197753906,0,0,0.68796
2.474677285994403,0,0,1.3168109130859373,0,0,0.91728
2.476074214995606,0,0,1.1372457885742187,0,0,0.6115200000000001
2.477461921982467,0,0,1.35990654296875,0,0,0.84084
2.478849276987603,0,0,1.218648645019531,0,0,0.91728
2.480236242990941,0,0,1.2737152832031249,0,0,0.99372
2.481622894993052,0,0,1.2904746948242187,0,0,0.68796
2.4830093789787497,0,0,1.4341267944335936,0,0,0.68796
2.484396456973627,0,0,1.3215993164062498,0,0,0.99372
2.485783274983987,0,0,1.2569558715820313,0,0,0.45864
2.4871701119991485,0,0,1.2138602416992186,0,0,0.45864
2.4885668369825,0,0,1.1420341918945311,0,0,1.5288
2.4899581739737187,0,0,1.3096283081054687,0,0,0.7644
2.491382120992057,0,0,1.3551181396484375,0,0,0.7644
2.492894881987013,0,0,1.388636962890625,0,0,0.7644
2.494291903974954,0,0,1.3263877197265623,0,0,0.7644
2.495682702981867,0,0,1.3623007446289062,0,0,0.45864
2.4970698179968167,0,0,1.209071838378906,0,0,0.68796
2.49845689497306,0,0,1.1755530151367186,0,0,0.68796
2.4998628799803555,0,0,1.2928688964843749,0,0,0.22932
2.5012504199985415,0,0,1.2952630981445312,0,0,0.7644
2.502636941993842,0,0,1.4891934326171874,0,0,0.68796
2.5040218709909823,0,0,1.3862427612304686,0,0,0.45864
2.5054000779928174,0,0,1.4317325927734375,0,0,1.07016
2.506779432995245,0,0,1.2282254516601563,0,0,0.6115200000000001
2.508167825988494,0,0,1.1635820068359375,0,0,0.68796
2.509554421994835,0,0,1.3120225097656248,0,0,0.07644000000000001
2.5109414059843402,0,0,1.35990654296875,0,0,0.3822
2.5123284839792177,0,0,1.4628572143554686,0,0,0.45864
2.513715393986786,0,0,1.2880804931640624,0,0,0.91728
2.5151020829798654,0,0,1.3766659545898436,0,0,0.99372
2.516490382986376,0,0,1.1635820068359375,0,0,1.07016
2.517877255973872,0,0,1.1635820068359375,0,0,0.6115200000000001
2.519263536989456,0,0,1.1851298217773436,0,0,0.45864
2.5206446889787912,0,0,1.2425906616210938,0,0,0.68796
2.5220236179884523,0,0,1.429338391113281,0,0,0.68796
2.523402250983054,0,0,1.4604630126953124,0,0,0.68796
2.524791624979116,0,0,1.39821376953125,0,0,0.84084
2.5261787019844633,0,0,1.2330138549804688,0,0,0.68796
2.527565871976549,0,0,1.0893617553710937,0,0,0.99372
2.5289523939718492,0,0,1.1755530151367186,0,0,1.2994800000000002
2.5303389159962535,0,0,1.3024457031249999,0,0,1.1465999999999998
2.5317261039745063,0,0,1.3215993164062498,0,0,0.7644
2.533112347999122,0,0,1.5107412475585937,0,0,0.84084
2.5345069999748375,0,0,1.35990654296875,0,0,0.53508
2.5358954849943984,0,0,1.1611878051757811,0,0,0.3822
2.5372819689800963,0,0,1.1444283935546875,0,0,0.91728
2.5386689359729644,0,0,1.189918225097656,0,0,1.1465999999999998
2.540056123980321,0,0,1.37906015625,0,0,0.53508
2.5414424789778423,0,0,1.2378022583007813,0,0,0.53508
2.542864629998803,0,0,1.4700398193359374,0,0,0.84084
2.5443563549779356,0,0,1.3120225097656248,0,0,0.91728
2.5457657649822067,0,0,1.2042834350585936,0,0,0.7644
2.547153638995951,0,0,1.2138602416992186,0,0,0.84084
2.5485412159760017,0,0,1.1851298217773436,0,0,0.99372
2.549927904998185,0,0,1.35990654296875,0,0,0.6115200000000001
2.551315092976438,0,0,1.254561669921875,0,0,0.53508
2.5526957999973092,0,0,1.4724340209960938,0,0,0.99372
2.554074858984677,0,0,1.3263877197265623,0,0,0.68796
2.555453658977058,0,0,1.2617442749023438,0,0,0.45864
2.556842865975341,0,0,1.158793603515625,0,0,0.91728
2.558229942980688,0,0,1.0654197387695312,0,0,0.91728
2.559618649975164,0,0,1.120486376953125,0,0,0.0
2.561010171979433,0,0,1.2928688964843749,0,0,0.45864
2.5623980829841457,0,0,1.455674609375,0,0,0.53508
2.563786752987653,0,0,1.4053963745117186,0,0,0.53508
2.5651727189833764,0,0,1.35990654296875,0,0,1.07016
2.566566036985023,0,0,1.2521674682617188,0,0,0.99372
2.5679516879899893,0,0,1.2521674682617188,0,0,0.7644
2.5693293399817776,0,0,1.1540052001953125,0,0,0.30576000000000003
2.570708379993448,0,0,1.2593500732421874,0,0,0.7644
2.572101698984625,0,0,1.39821376953125,0,0,0.84084
2.573488701978931,0,0,1.6543933471679686,0,0,0.91728
2.574875408987282,0,0,1.3407529296874998,0,0,0.99372
2.5762624119815882,0,0,1.24498486328125,0,0,0.84084
2.57764913799474,0,0,1.0845733520507812,0,0,0.7644
2.579035788978217,0,0,1.2018892333984375,0,0,1.1465999999999998
2.580423051986145,0,0,1.3551181396484375,0,0,1.1465999999999998
2.5818118329916615,0,0,1.429338391113281,0,0,0.99372
2.5831992619787343,0,0,1.5275006591796874,0,0,0.6115200000000001
2.5845943019958213,0,0,1.2880804931640624,0,0,0.68796
2.5859817499876954,0,0,1.1707646118164061,0,0,0.53508
2.5873821419954766,0,0,1.2737152832031249,0,0,0.91728
2.5887709969829302,0,0,1.199495031738281,0,0,1.2230400000000001
2.590157962986268,0,0,1.2378022583007813,0,0,0.7644
2.591545781993773,0,0,1.2593500732421874,0,0,0.53508
2.592948784993496,0,0,1.5418658691406248,0,0,0.7644
2.594337065995205,0,0,1.4221557861328125,0,0,0.84084
2.595723142992938,0,0,1.3144167114257812,0,0,0.68796
2.5971021469740663,0,0,1.254561669921875,0,0,0.7644
2.598480723972898,0,0,1.1947066284179686,0,0,0.53508
2.5998672459973022,0,0,1.3407529296874998,0,0,0.0
2.601253619999625,0,0,1.3287819213867187,0,0,0.30576000000000003
2.6026408079778776,0,0,1.3814543579101561,0,0,0.53508
2.6040279219741933,0,0,1.4173673828125,0,0,0.84084
2.6054139629995916,0,0,1.5131354492187499,0,0,0.99372
2.6068003739928827,0,0,1.216254443359375,0,0,0.91728
2.6084569659724366,0,0,1.1133037719726562,0,0,0.6115200000000001
2.6098954689805396,0,0,1.2928688964843749,0,0,0.0
2.6112840839778073,0,0,1.2330138549804688,0,0,0.53508
2.6126851979934145,0,0,1.4867992309570313,0,0,0.3822
2.6140724049764685,0,0,1.3527239379882812,0,0,0.91728
2.6154595559928566,0,0,1.2425906616210938,0,0,1.07016
2.6168530229770113,0,0,1.1947066284179686,0,0,0.99372
2.6182473589724395,0,0,1.1707646118164061,0,0,0.91728
2.6196546029823367,0,0,1.209071838378906,0,0,0.15288000000000002
2.6210341429978143,0,0,1.3479355346679687,0,0,0.91728
2.622412757977145,0,0,1.2401964599609374,0,0,0.53508
2.623798556975089,0,0,1.3527239379882812,0,0,0.68796
2.625185282988241,0,0,1.35990654296875,0,0,1.07016
2.626572100998601,0,0,1.2378022583007813,0,0,0.68796
2.6279593449726235,0,0,1.1276689819335937,0,0,0.99372
2.6293456629791763,0,0,1.1109095703125,0,0,0.99372
2.630732277990319,0,0,1.35990654296875,0,0,1.07016
2.632132743980037,0,0,1.4820108276367188,0,0,0.7644
2.63352035798016,0,0,1.5538368774414062,0,0,0.84084
2.6349068619892932,0,0,1.3862427612304686,0,0,0.84084
2.6362891429744195,0,0,1.3383587280273437,0,0,0.3822
2.63766794197727,0,0,1.180341418457031,0,0,0.91728
2.639046204974875,0,0,1.2282254516601563,0,0,1.5288
2.64043526398018,0,0,1.3383587280273437,0,0,0.7644
2.6418223599903286,0,0,1.4221557861328125,0,0,0.3822
2.643219343997771,0,0,1.668758557128906,0,0,0.68796
2.6446063289768063,0,0,1.3383587280273437,0,0,0.6115200000000001
2.6459928509721067,0,0,1.350329736328125,0,0,0.68796
2.647379520989489,0,0,1.3168109130859373,0,0,1.1465999999999998
2.6487664869928267,0,0,1.22583125,0,0,0.91728
2.6501530279929284,0,0,1.2401964599609374,0,0,0.15288000000000002
2.651557048986433,0,0,1.2904746948242187,0,0,0.3822
2.652944978995947,0,0,1.4532804077148436,0,0,0.68796
2.6543317409814335,0,0,1.3407529296874998,0,0,0.6115200000000001
2.655723632982699,0,0,1.4053963745117186,0,0,0.7644
2.6571095809922554,0,0,1.2617442749023438,0,0,0.99372
2.658496435993584,0,0,1.13006318359375,0,0,0.3822
2.659884290973423,0,0,1.20667763671875,0,0,0.0
2.6612700349942315,0,0,1.2689268798828124,0,0,0.68796
2.662656871980289,0,0,1.4772224243164063,0,0,0.68796
2.6640444309741724,0,0,1.3766659545898436,0,0,0.84084
2.665431063971482,0,0,1.2952630981445312,0,0,0.99372
2.666817696997896,0,0,1.1324573852539062,0,0,1.1465999999999998
2.6682050519739278,0,0,1.1875240234375,0,0,0.84084
2.6695920179772656,0,0,1.22583125,0,0,0.68796
2.6709788179723546,0,0,1.2282254516601563,0,0,0.91728
2.672365746984724,0,0,1.254561669921875,0,0,0.84084
2.673752712988062,0,0,1.4532804077148436,0,0,0.6115200000000001
2.6751460129744373,0,0,1.3215993164062498,0,0,0.91728
2.676534404978156,0,0,1.235408056640625,0,0,0.6115200000000001
2.6779214079724625,0,0,1.1276689819335937,0,0,0.84084
2.679308096994646,0,0,1.216254443359375,0,0,1.2994800000000002
2.680694914975902,0,0,1.3239935180664062,0,0,0.6115200000000001
2.682081399980234,0,0,1.3766659545898436,0,0,0.6115200000000001
2.6834682549815625,0,0,1.6831237670898436,0,0,0.68796
2.6848545169923455,0,0,1.3479355346679687,0,0,0.84084
2.6862409279856365,0,0,1.2976572998046874,0,0,0.53508
2.6876287089835387,0,0,1.1324573852539062,0,0,0.53508
2.6890257119957823,0,0,1.2210428466796874,0,0,0.99372
2.690416067984188,0,0,1.2593500732421874,0,0,0.3822
2.6918075709836558,0,0,1.3048399047851562,0,0,0.30576000000000003
2.693194166989997,0,0,1.388636962890625,0,0,0.84084
2.6945809479802847,0,0,1.3096283081054687,0,0,0.68796
2.6959691179799847,0,0,1.3934253662109375,0,0,0.6115200000000001
2.697355861979304,0,0,1.3383587280273437,0,0,1.1465999999999998
2.6987423839746043,0,0,1.0749965454101562,0,0,0.45864
2.700130923971301,0,0,1.158793603515625,0,0,-0.15288000000000002
2.7015191309910733,0,0,1.235408056640625,0,0,0.45864
2.7029056529863738,0,0,1.5538368774414062,0,0,0.68796
2.704293211980257,0,0,1.5298948608398437,0,0,0.91728
2.7056800479767844,0,0,1.3407529296874998,0,0,1.2230400000000001
2.707066588976886,0,0,1.1851298217773436,0,0,0.7644
2.7084534619934857,0,0,1.3359645263671873,0,0,0.45864
2.7098505399771966,0,0,1.2306196533203124,0,0,0.22932
2.711245449987473,0,0,1.350329736328125,0,0,0.68796
2.7126327869773377,0,0,1.5753846923828123,0,0,0.7644
2.7140194939856883,0,0,1.4125789794921875,0,0,0.6115200000000001
2.715405959985219,0,0,1.1540052001953125,0,0,0.99372
2.716793018975295,0,0,1.149216796875,0,0,0.3822
2.718179836985655,0,0,1.3718775512695311,0,0,0.68796
2.719574358983664,0,0,1.235408056640625,0,0,1.2230400000000001
2.720969972986495,0,0,1.3646949462890625,0,0,0.84084
2.7223566799948458,0,0,1.2976572998046874,0,0,0.53508
2.723744294984499,0,0,1.465251416015625,0,0,0.84084
2.725129778991686,0,0,1.5203180541992187,0,0,0.68796
2.726516819995595,0,0,1.2306196533203124,0,0,0.68796
2.727904026978649,0,0,1.1659762084960936,0,0,0.7644
2.729290344985202,0,0,1.2234370483398436,0,0,1.07016
2.7306847369764,0,0,1.2880804931640624,0,0,0.15288000000000002
2.73209148098249,0,0,1.3144167114257812,0,0,0.3822
2.7334788919833954,0,0,1.4987702392578124,0,0,0.45864
2.734866727987537,0,0,1.3048399047851562,0,0,0.99372
2.7362534539715853,0,0,1.3934253662109375,0,0,0.68796
2.7376398089982104,0,0,1.216254443359375,0,0,0.91728
2.739026922994526,0,0,1.1252747802734375,0,0,0.3822
2.740413796971552,0,0,1.1444283935546875,0,0,0.07644000000000001
2.74181633698754,0,0,1.3910311645507811,0,0,0.30576000000000003
2.743358190986328,0,0,1.4053963745117186,0,0,0.7644
2.744771507976111,0,0,1.3838485595703125,0,0,0.7644
2.7461588449950796,0,0,1.4772224243164063,0,0,0.3822
2.7475469409837388,0,0,1.1348515869140625,0,0,0.99372
2.7489341109758243,0,0,1.120486376953125,0,0,0.53508
2.7503217619960196,0,0,1.20667763671875,0,0,-0.30576000000000003
2.7517085619911086,0,0,1.3575123413085937,0,0,0.22932
2.7530872319766786,0,0,1.4867992309570313,0,0,0.68796
2.754465790989343,0,0,1.3215993164062498,0,0,0.91728
2.75585273897741,0,0,1.3862427612304686,0,0,1.07016
2.7572391129797325,0,0,1.2689268798828124,0,0,1.1465999999999998
2.7587350589747075,0,0,1.24498486328125,0,0,0.45864
2.760282708972227,0,0,1.0845733520507812,0,0,0.0
2.7620997809863184,0,0,1.2761094848632812,0,0,0.30576000000000003
2.763661819975823,0,0,1.6160861206054686,0,0,0.91728
2.7652169879875146,0,0,1.3958195678710936,0,0,0.6115200000000001
2.7667251939710695,0,0,1.235408056640625,0,0,0.91728
2.7682232879742514,0,0,1.16837041015625,0,0,0.6115200000000001
2.76978378999047,0,0,1.197100830078125,0,0,1.2994800000000002
2.7713089209864847,0,0,1.2282254516601563,0,0,0.91728
2.7727679789823014,0,0,1.4341267944335936,0,0,0.22932
2.7742154819716234,0,0,1.6711527587890624,0,0,0.68796
2.7756793549924623,0,0,1.3766659545898436,0,0,0.99372
2.777068616996985,0,0,1.2641384765625,0,0,0.99372
2.778447694989154,0,0,1.2904746948242187,0,0,0.68796
2.7798372349934652,0,0,1.2904746948242187,0,0,1.2230400000000001
2.7812242199725006,0,0,1.3766659545898436,0,0,1.1465999999999998
2.7826108899898827,0,0,1.35990654296875,0,0,0.6115200000000001
2.784004170971457,0,0,1.637633935546875,0,0,0.91728
2.7853912109858356,0,0,1.35990654296875,0,0,1.07016
2.786777788976906,0,0,1.2617442749023438,0,0,0.68796
2.788165328995092,0,0,1.2952630981445312,0,0,0.7644
2.7895547579973936,0,0,1.1755530151367186,0,0,1.07016
2.790941909974208,0,0,1.2928688964843749,0,0,0.6115200000000001
2.7923257279908285,0,0,1.3670891479492187,0,0,0.0
2.7937046569713857,0,0,1.5705962890624998,0,0,0.7644
2.7950832529750187,0,0,1.3192051147460937,0,0,0.53508
2.796475663984893,0,0,1.1228805786132812,0,0,0.84084
2.7978633339807857,0,0,1.0342951171875,0,0,0.99372
2.7992502259730827,0,0,1.0869675537109373,0,0,0.68796
2.8006384699838236,0,0,1.3383587280273437,0,0,0.0
2.802025065990165,0,0,1.2737152832031249,0,0,0.22932
2.803411809989484,0,0,1.5538368774414062,0,0,0.30576000000000003
2.804799016972538,0,0,1.3335703247070312,0,0,0.91728
2.8061865019844845,0,0,1.3742717529296875,0,0,0.99372
2.8075739489868283,0,0,1.1324573852539062,0,0,0.91728
2.808976044994779,0,0,1.1611878051757811,0,0,1.07016
2.8103633629798423,0,0,1.0941501586914062,0,0,0.15288000000000002
2.811750699998811,0,0,1.3239935180664062,0,0,0.6115200000000001
2.813137684977846,0,0,1.4915876342773438,0,0,0.7644
2.8145245209743734,0,0,1.4101847778320311,0,0,0.91728
2.815912746998947,0,0,1.369483349609375,0,0,1.1465999999999998
2.8172995829954743,0,0,1.1875240234375,0,0,0.84084
2.818686919985339,0,0,1.180341418457031,0,0,0.6115200000000001
2.8200893119792454,0,0,1.139639990234375,0,0,1.1465999999999998
2.8214761489944067,0,0,1.3814543579101561,0,0,1.37592
2.8228635219857097,0,0,1.3575123413085937,0,0,0.7644
2.824261284986278,0,0,1.6424223388671875,0,0,0.6115200000000001
2.8256483069853857,0,0,1.3479355346679687,0,0,0.53508
2.8270359029993415,0,0,1.3575123413085937,0,0,0.53508
2.8284313319891226,0,0,1.2138602416992186,0,0,0.7644
2.8298192609800026,0,0,1.1516109985351561,0,0,1.45236
2.8312070229731034,0,0,1.3670891479492187,0,0,0.7644
2.832594767998671,0,0,1.3527239379882812,0,0,0.45864
2.8339854369987734,0,0,1.5322890624999999,0,0,0.91728
2.8354178659792524,0,0,1.3431471313476562,0,0,0.6115200000000001
2.8368362579785753,0,0,1.1276689819335937,0,0,0.7644
2.838226705993293,0,0,0.9313444458007812,0,0,0.84084
2.839614967990201,0,0,1.0390835205078124,0,0,0.84084
2.840994063997641,0,0,1.1611878051757811,0,0,-0.30576000000000003
2.842376307991799,0,0,1.3718775512695311,0,0,0.22932
2.843762885982869,0,0,1.6735469604492186,0,0,0.7644
2.8451504259719513,0,0,1.2569558715820313,0,0,0.68796
2.846537391975289,0,0,1.2138602416992186,0,0,1.2994800000000002
2.847925469977781,0,0,1.180341418457031,0,0,0.7644
2.8493121579813305,0,0,1.3383587280273437,0,0,0.7644
2.850698920985451,0,0,1.2497732666015624,0,0,0.15288000000000002
2.8521036459715106,0,0,1.3215993164062498,0,0,0.6115200000000001
2.853491834976012,0,0,1.465251416015625,0,0,0.7644
2.8548793559893966,0,0,1.4317325927734375,0,0,0.7644
2.856267007999122,0,0,1.2737152832031249,0,0,1.2230400000000001
2.857653806975577,0,0,1.158793603515625,0,0,0.7644
2.8590408849995583,0,0,1.2737152832031249,0,0,0.68796
2.860428054991644,0,0,1.0797849487304687,0,0,1.1465999999999998
2.8618146689841524,0,0,1.3359645263671873,0,0,0.91728
2.863201672997093,0,0,1.2306196533203124,0,0,0.3822
2.8645887309976388,0,0,1.446097802734375,0,0,0.91728
2.865975715976674,0,0,1.2713210815429687,0,0,1.1465999999999998
2.8673628679825924,0,0,1.0797849487304687,0,0,0.53508
2.868750111985719,0,0,1.0678139404296874,0,0,1.07016
2.870137429999886,0,0,1.158793603515625,0,0,1.37592
2.871524728980148,0,0,1.3335703247070312,0,0,0.91728
2.8729124359961133,0,0,1.3455413330078123,0,0,0.3822
2.8743001249968074,0,0,1.369483349609375,0,0,0.7644
2.8756880729924887,0,0,1.2808978881835937,0,0,0.3822
2.877074112999253,0,0,1.3359645263671873,0,0,0.53508
2.8784614499891177,0,0,1.189918225097656,0,0,0.84084
2.8798488229804207,0,0,1.2521674682617188,0,0,0.91728
2.8812360299925786,0,0,1.2856862915039062,0,0,0.07644000000000001
2.8826233669824433,0,0,1.3814543579101561,0,0,0.45864
2.8840110179735348,0,0,1.3934253662109375,0,0,0.84084
2.885397298989119,0,0,1.2378022583007813,0,0,0.30576000000000003
2.886790876975283,0,0,1.3072341064453123,0,0,0.91728
2.8881888989999425,0,0,1.1085153686523437,0,0,0.91728
2.889581086987164,0,0,1.2210428466796874,0,0,0.30576000000000003
2.8909671639848966,0,0,1.2330138549804688,0,0,0.07644000000000001
2.8923608899931423,0,0,1.2928688964843749,0,0,0.15288000000000002
2.8937477079743985,0,0,1.4437036010742186,0,0,0.7644
2.895134729973506,0,0,1.5275006591796874,0,0,0.53508
2.8965272329805885,0,0,1.3527239379882812,0,0,1.2230400000000001
2.897906439990038,0,0,1.2569558715820313,0,0,0.91728
2.899285109975608,0,0,1.199495031738281,0,0,0.7644
2.900674464995973,0,0,1.2401964599609374,0,0,0.84084
2.902062560984632,0,0,1.2665326782226562,0,0,1.2230400000000001
2.9034499159897678,0,0,1.4149731811523436,0,0,0.84084
2.9048369569936767,0,0,1.39821376953125,0,0,0.6115200000000001
2.9062239039922133,0,0,1.3215993164062498,0,0,0.84084
2.907612425973639,0,0,1.1276689819335937,0,0,0.99372
2.9089993919769768,0,0,1.0726023437499999,0,0,0.53508
2.910386765986914,0,0,1.177947216796875,0,0,1.2994800000000002
2.911774546984816,0,0,1.3144167114257812,0,0,1.1465999999999998
2.913161124975886,0,0,1.350329736328125,0,0,0.45864
2.914548423985252,0,0,1.5131354492187499,0,0,0.91728
2.9159364459919743,0,0,1.2521674682617188,0,0,0.84084
2.917323485977249,0,0,1.1228805786132812,0,0,0.91728
2.918710507976357,0,0,1.0678139404296874,0,0,0.68796
2.9200978449953254,0,0,1.20667763671875,0,0,1.07016
2.921485273982398,0,0,1.3359645263671873,0,0,0.22932
2.9228717769728974,0,0,1.2689268798828124,0,0,0.6115200000000001
2.924258891987847,0,0,1.4604630126953124,0,0,0.7644
2.92576000498957,0,0,1.2306196533203124,0,0,0.53508
2.927150396979414,0,0,1.2401964599609374,0,0,0.45864
2.928538011998171,0,0,1.197100830078125,0,0,0.91728
2.9299251259944867,0,0,1.1635820068359375,0,0,0.68796
2.9313122219755314,0,0,1.448492004394531,0,0,0.22932
2.932699817989487,0,0,1.3263877197265623,0,0,0.3822
2.934086839988595,0,0,1.3215993164062498,0,0,0.68796
2.9354737869871315,0,0,1.254561669921875,0,0,0.84084
2.936861104972195,0,0,1.3718775512695311,0,0,0.7644
2.9382482199871447,0,0,1.209071838378906,0,0,1.1465999999999998
2.9396622409985866,0,0,1.1923124267578125,0,0,0.45864
2.9410497629723977,0,0,1.0869675537109373,0,0,0.0
2.942437321995385,0,0,1.2976572998046874,0,0,0.7644
2.9438252699910663,0,0,1.3455413330078123,0,0,0.6115200000000001
2.9452183839748614,0,0,1.3431471313476562,0,0,0.68796
2.946606294979574,0,0,1.3838485595703125,0,0,1.2230400000000001
2.9479940759774763,0,0,0.948103857421875,0,0,0.91728
2.949380634992849,0,0,1.1061211669921875,0,0,0.7644
2.950778063997859,0,0,1.1659762084960936,0,0,0.6115200000000001
2.9521640859893523,0,0,1.3287819213867187,0,0,1.07016
2.953551347978646,0,0,1.3527239379882812,0,0,0.7644
2.9549384629935957,0,0,1.5753846923828123,0,0,0.91728
2.956325946986908,0,0,1.3527239379882812,0,0,0.84084
2.957712820993038,0,0,1.2306196533203124,0,0,0.7644
2.959099879983114,0,0,1.177947216796875,0,0,0.7644
2.960488253971562,0,0,1.1228805786132812,0,0,1.1465999999999998
2.9618752939859405,0,0,1.158793603515625,0,0,1.1465999999999998
2.9632625749800354,0,0,1.3263877197265623,0,0,0.45864
2.964649911999004,0,0,1.5251064575195312,0,0,0.53508
2.9660368969780393,0,0,1.4341267944335936,0,0,0.6115200000000001
2.967424491973361,0,0,1.24498486328125,0,0,0.53508
2.968811847997131,0,0,1.1013327636718748,0,0,0.68796
2.9701987949956674,0,0,1.1324573852539062,0,0,1.07016
2.9715974839928094,0,0,1.2330138549804688,0,0,0.45864
2.972976690973155,0,0,1.3479355346679687,0,0,0.3822
2.9743554159940686,0,0,1.5203180541992187,0,0,0.91728
2.9757411599857733,0,0,1.3311761230468748,0,0,0.91728
2.977128033991903,0,0,1.2401964599609374,0,0,0.7644
2.978514685994014,0,0,1.1635820068359375,0,0,0.7644
2.9799023189989384,0,0,1.1348515869140625,0,0,0.53508
2.9812881739926524,0,0,1.2569558715820313,0,0,0.15288000000000002
2.9826741959841456,0,0,1.3718775512695311,0,0,0.3822
2.9840813469782006,0,0,1.2856862915039062,0,0,1.07016
2.985468757979106,0,0,1.3096283081054687,0,0,0.84084
2.9868560939794406,0,0,1.448492004394531,0,0,1.1465999999999998
2.988243171974318,0,0,1.16837041015625,0,0,0.91728
2.9896302489796653,0,0,1.218648645019531,0,0,0.6115200000000001
2.991016381973168,0,0,1.1348515869140625,0,0,0.53508
2.9924280519771855,0,0,1.2952630981445312,0,0,1.1465999999999998
2.993869942991296,0,0,1.2401964599609374,0,0,0.6115200000000001
2.9953325199894607,0,0,1.4508862060546874,0,0,0.68796
2.996725818986306,0,0,1.3120225097656248,0,0,0.68796
2.9981135259731673,0,0,1.2306196533203124,0,0,0.91728
2.9995008999831043,0,0,1.1468225952148436,0,0,0.68796
3.001108641998144,0,0,1.2138602416992186,0,0,0.6115200000000001
3.002498422982171,0,0,1.2665326782226562,0,0,0.99372
3.003898054972524,0,0,1.2761094848632812,0,0,0.84084
3.005275465984596,0,0,1.426944189453125,0,0,0.7644
3.006654950993834,0,0,1.3359645263671873,0,0,0.91728
3.0080433989933226,0,0,1.1755530151367186,0,0,0.3822
3.009431179991225,0,0,1.0965443603515623,0,0,0.84084
3.010818071983522,0,0,1.1563994018554686,0,0,1.37592
3.0122054829844274,0,0,1.4053963745117186,0,0,0.99372
3.013592189992778,0,0,1.3024457031249999,0,0,0.68796
3.014978748979047,0,0,1.4963760375976562,0,0,0.84084
3.0163660849793814,0,0,1.2904746948242187,0,0,0.6115200000000001
3.0177534029935487,0,0,1.3455413330078123,0,0,0.6115200000000001
3.019140943972161,0,0,1.3192051147460937,0,0,0.84084
3.0205217619950417,0,0,1.2617442749023438,0,0,1.07016
3.0219007279956713,0,0,1.3000515014648437,0,0,0.30576000000000003
3.0232791019952856,0,0,1.4125789794921875,0,0,0.22932
3.024669290985912,0,0,1.5873557006835937,0,0,0.53508
3.0260557569854427,0,0,1.407790576171875,0,0,0.6115200000000001
3.0274494269979186,0,0,1.2952630981445312,0,0,1.07016
3.0288357449753676,0,0,1.1444283935546875,0,0,0.91728
3.0302217669959646,0,0,1.218648645019531,0,0,0.6115200000000001
3.0316226959985215,0,0,1.2665326782226562,0,0,0.0
3.0330092729709577,0,0,1.22583125,0,0,0.45864
3.0343952949915547,0,0,1.5011644409179687,0,0,0.53508
3.0357826319814194,0,0,1.4317325927734375,0,0,0.7644
3.037167912989389,0,0,1.3072341064453123,0,0,1.07016
3.0385540269780904,0,0,1.1252747802734375,0,0,0.91728
3.039940881979419,0,0,1.1827356201171875,0,0,0.6115200000000001
3.0413263669761363,0,0,1.2401964599609374,0,0,0.3822
3.04272477797349,0,0,1.37906015625,0,0,0.91728
3.0441140589828137,0,0,1.4939818359375,0,0,0.84084
3.0455018029897474,0,0,1.465251416015625,0,0,0.91728
3.0468893249926623,0,0,1.1324573852539062,0,0,0.7644
3.0482766429777257,0,0,1.2018892333984375,0,0,0.68796
3.049663867976051,0,0,1.2401964599609374,0,0,0.68796
3.0510515379719436,0,0,1.3072341064453123,0,0,0.99372
3.0524340229749214,0,0,1.3072341064453123,0,0,0.99372
3.0538138229749165,0,0,1.3551181396484375,0,0,0.68796
3.0551921219739597,0,0,1.5059528442382812,0,0,0.91728
3.056582865974633,0,0,1.3192051147460937,0,0,0.68796
3.0579700359958224,0,0,1.350329736328125,0,0,1.07016
3.0593573919904884,0,0,1.2593500732421874,0,0,0.84084
3.060744486982003,0,0,1.197100830078125,0,0,1.1465999999999998
3.0621524719754234,0,0,1.2473790649414063,0,0,0.45864
3.063574363972293,0,0,1.2713210815429687,0,0,0.30576000000000003
3.064962274977006,0,0,1.484405029296875,0,0,0.6115200000000001
3.0663497039931826,0,0,1.3096283081054687,0,0,0.68796
3.0677346519951243,0,0,1.2521674682617188,0,0,0.7644
3.0691129509941675,0,0,1.1013327636718748,0,0,0.84084
3.0704914729867596,0,0,1.2234370483398436,0,0,0.6115200000000001
3.07188749499619,0,0,1.2928688964843749,0,0,0.0
3.0732736279896926,0,0,1.2593500732421874,0,0,0.3822
3.074661834980361,0,0,1.3814543579101561,0,0,0.84084
3.076049041992519,0,0,1.2713210815429687,0,0,0.84084
3.0774338229966816,0,0,1.446097802734375,0,0,1.1465999999999998
3.0788198449881747,0,0,1.3383587280273437,0,0,1.1465999999999998
3.08020571799716,0,0,1.158793603515625,0,0,0.53508
3.081591591995675,0,0,1.3359645263671873,0,0,0.3822
3.082977428974118,0,0,1.3766659545898436,0,0,0.6115200000000001
3.0843631359748542,0,0,1.388636962890625,0,0,0.53508
3.085748805984622,0,0,1.6112977172851561,0,0,0.91728
3.0871351979731116,0,0,1.3958195678710936,0,0,1.07016
3.0885364419955295,0,0,1.2473790649414063,0,0,0.7644
3.0899257969867904,0,0,1.197100830078125,0,0,0.6115200000000001
3.091312096978072,0,0,1.2641384765625,0,0,1.1465999999999998
3.092703858972527,0,0,1.3742717529296875,0,0,1.07016
3.094090991973644,0,0,1.4413093994140624,0,0,0.53508
3.095477957976982,0,0,1.4891934326171874,0,0,0.91728
3.0968591469863895,0,0,1.3096283081054687,0,0,0.7644
3.0982374839950353,0,0,1.2330138549804688,0,0,0.7644
3.099630745971808,0,0,1.1875240234375,0,0,0.6115200000000001
3.1010181569727138,0,0,1.158793603515625,0,0,1.2230400000000001
3.1024039939802606,0,0,1.3120225097656248,0,0,0.3822
3.1037985519797076,0,0,1.4245499877929686,0,0,0.3822
3.1051848149800207,0,0,1.5083470458984374,0,0,0.99372
3.106571169977542,0,0,1.1276689819335937,0,0,0.6115200000000001
3.1079586729756556,0,0,1.2282254516601563,0,0,0.7644
3.109344065975165,0,0,1.2042834350585936,0,0,0.7644
3.110729864973109,0,0,1.1731588134765625,0,0,0.53508
3.1121164609794505,0,0,1.3239935180664062,0,0,0.0
3.1135019089851994,0,0,1.3239935180664062,0,0,0.6115200000000001
3.1148978559940588,0,0,1.3838485595703125,0,0,0.84084
3.1162856929877307,0,0,1.2761094848632812,0,0,0.53508
3.117674344975967,0,0,1.2378022583007813,0,0,1.1465999999999998
3.1190600149857346,0,0,1.209071838378906,0,0,0.84084
3.1204534619755577,0,0,1.1923124267578125,0,0,0.53508
3.121840150997741,0,0,1.158793603515625,0,0,0.30576000000000003
3.123226005991455,0,0,1.3287819213867187,0,0,1.1465999999999998
3.1246785829716828,0,0,1.3072341064453123,0,0,0.6115200000000001
3.1262654359743465,0,0,1.2689268798828124,0,0,0.91728
3.1278283999999985,0,0,1.350329736328125,0,0,0.91728
3.1293525869841687,0,0,1.2018892333984375,0,0,1.2230400000000001
3.1308414779778104,0,0,1.3096283081054687,0,0,0.30576000000000003
3.132459737971658,0,0,1.3192051147460937,0,0,0.45864
3.1339284439745825,0,0,1.3766659545898436,0,0,0.99372
3.1353925579751376,0,0,1.5298948608398437,0,0,0.84084
3.1368564859731123,0,0,1.2401964599609374,0,0,0.84084
3.1383279699948616,0,0,1.197100830078125,0,0,0.68796
3.13979889798793,0,0,1.1348515869140625,0,0,0.7644
3.141275659989333,0,0,1.2210428466796874,0,0,0.99372
3.1426705889753066,0,0,1.2665326782226562,0,0,0.53508
3.144064387975959,0,0,1.3646949462890625,0,0,0.68796
3.145452391996514,0,0,1.6017209106445311,0,0,0.99372
3.146840468980372,0,0,1.3048399047851562,0,0,0.53508
3.1482283799850848,0,0,1.3192051147460937,0,0,0.7644
3.1496160309761763,0,0,1.0893617553710937,0,0,0.84084
3.1510036459949333,0,0,1.1540052001953125,0,0,0.6115200000000001
3.1523910009709653,0,0,1.2880804931640624,0,0,-0.30576000000000003
3.1537804859981406,0,0,1.2617442749023438,0,0,0.3822
3.1551689519837964,0,0,1.5346832641601562,0,0,0.7644
3.156561399984639,0,0,1.47482822265625,0,0,0.84084
3.1579480319924187,0,0,1.2785036865234374,0,0,1.1465999999999998
3.159336053999141,0,0,1.2042834350585936,0,0,0.84084
3.1607449279981665,0,0,1.3431471313476562,0,0,0.68796
3.1621326159802265,0,0,1.235408056640625,0,0,0.07644000000000001
3.163519767986145,0,0,1.3383587280273437,0,0,0.45864
3.164907140977448,0,0,1.5969325073242187,0,0,0.68796
3.166294199996628,0,0,1.3479355346679687,0,0,0.7644
3.1676823329762556,0,0,1.2761094848632812,0,0,0.91728
3.169068706978578,0,0,1.1061211669921875,0,0,0.6115200000000001
3.170455746992957,0,0,1.2138602416992186,0,0,0.7644
3.171843916992657,0,0,1.1851298217773436,0,0,1.2994800000000002
3.1732301429728977,0,0,1.3359645263671873,0,0,0.99372
3.1746168679965194,0,0,1.209071838378906,0,0,0.45864
3.176004185981583,0,0,1.3742717529296875,0,0,0.91728
3.1773905779991765,0,0,1.4149731811523436,0,0,0.99372
3.1787772109964862,0,0,1.2593500732421874,0,0,0.84084
3.1801723439712077,0,0,1.1468225952148436,0,0,1.07016
3.181560754979728,0,0,1.197100830078125,0,0,1.1465999999999998
3.182947887980845,0,0,1.3479355346679687,0,0,0.45864
3.1843351689749397,0,0,1.3168109130859373,0,0,1.1465999999999998
3.1857226169959176,0,0,1.5969325073242187,0,0,0.53508
3.187109286984196,0,0,1.209071838378906,0,0,0.6115200000000001
3.1885446229716763,0,0,1.3239935180664062,0,0,0.6115200000000001
3.189932514971588,0,0,1.2473790649414063,0,0,0.84084
3.1913195549859665,0,0,1.2856862915039062,0,0,0.53508
3.192707687994698,0,0,1.2641384765625,0,0,0.84084
3.1940947099938057,0,0,1.3168109130859373,0,0,0.6115200000000001
3.195481861999724,0,0,1.6448165405273436,0,0,0.7644
3.1968638459802605,0,0,1.3000515014648437,0,0,0.84084
3.198242812999524,0,0,1.3551181396484375,0,0,0.68796
3.1996273159747943,0,0,1.199495031738281,0,0,0.45864
3.20101491198875,0,0,1.2114660400390624,0,0,0.7644
3.202401877992088,0,0,1.2282254516601563,0,0,0.15288000000000002
3.2037982329784427,0,0,1.4437036010742186,0,0,0.07644000000000001
3.205185217986582,0,0,1.5801730957031248,0,0,0.68796
3.2065725359716453,0,0,1.5083470458984374,0,0,0.68796
3.2079604099853896,0,0,1.3239935180664062,0,0,0.7644
3.209346783987712,0,0,1.1276689819335937,0,0,0.99372
3.2107351569866296,0,0,1.2042834350585936,0,0,1.07016
3.212122789991554,0,0,1.2330138549804688,0,0,1.2230400000000001
3.2135091079981066,0,0,1.3575123413085937,0,0,0.91728
3.214895777986385,0,0,1.4245499877929686,0,0,0.53508
3.216282429988496,0,0,1.3910311645507811,0,0,0.84084
3.217669080971973,0,0,1.2569558715820313,0,0,1.2230400000000001
3.219055898982333,0,0,1.158793603515625,0,0,0.53508
3.220442698977422,0,0,1.1516109985351561,0,0,0.91728
3.221829349990003,0,0,1.197100830078125,0,0,0.7644
3.2232161309802905,0,0,1.4245499877929686,0,0,0.84084
3.2246027269866318,0,0,1.5227122558593749,0,0,0.84084
3.225989970989758,0,0,1.5418658691406248,0,0,0.99372
3.22737651198986,0,0,1.4221557861328125,0,0,0.68796
3.2287634779931977,0,0,1.3838485595703125,0,0,0.6115200000000001
3.2301500919857062,0,0,1.2401964599609374,0,0,0.99372
3.231551150995074,0,0,1.20667763671875,0,0,1.07016
3.2329395249835216,0,0,1.4245499877929686,0,0,0.84084
3.234326305973809,0,0,1.4006079711914061,0,0,0.6115200000000001
3.2357165869907476,0,0,1.43652099609375,0,0,0.91728
3.237102626997512,0,0,1.120486376953125,0,0,0.99372
3.2384976299945265,0,0,1.2904746948242187,0,0,0.6115200000000001
3.2398849299934227,0,0,1.158793603515625,0,0,0.7644
3.241271525999764,0,0,1.177947216796875,0,0,0.53508
3.242666454985738,0,0,1.2114660400390624,0,0,0.68796
3.2451889269868843,0,0,1.4724340209960938,0,0,0.53508
3.2465811529837083,0,0,1.407790576171875,0,0,0.68796
3.2479737859976012,0,0,1.3335703247070312,0,0,1.1465999999999998
3.2493810479936656,0,0,1.0869675537109373,0,0,1.07016
3.2509689749858808,0,0,1.2737152832031249,0,0,0.91728
3.2523624599853065,0,0,1.3742717529296875,0,0,1.1465999999999998
3.2537500739854295,0,0,1.3623007446289062,0,0,0.6115200000000001
3.2551366329716984,0,0,1.4173673828125,0,0,0.6115200000000001
3.2565225809812546,0,0,1.5705962890624998,0,0,0.91728
3.2579090659855865,0,0,1.3072341064453123,0,0,1.1465999999999998
3.2592950689722784,0,0,1.1109095703125,0,0,0.53508
3.2606816829938907,0,0,1.13006318359375,0,0,0.6115200000000001
3.2620677789964247,0,0,1.2042834350585936,0,0,1.1465999999999998
3.2634534489770886,0,0,1.2785036865234374,0,0,0.84084
3.2648390449758153,0,0,1.438915197753906,0,0,0.84084
3.266224881983362,0,0,1.5083470458984374,0,0,0.6115200000000001
3.26761166297365,0,0,1.3431471313476562,0,0,0.68796
3.268998017971171,0,0,1.1324573852539062,0,0,0.68796
3.2703836699947715,0,0,1.209071838378906,0,0,0.45864
3.271769968996523,0,0,1.2497732666015624,0,0,0.91728
3.2731548059964553,0,0,1.3215993164062498,0,0,0.7644
3.274540642974898,0,0,1.2521674682617188,0,0,0.91728
3.275927941984264,0,0,1.5849614990234373,0,0,1.07016
3.2773129639972467,0,0,1.3311761230468748,0,0,0.53508
3.2786994299967773,0,0,1.3479355346679687,0,0,0.45864
3.280085099977441,0,0,1.1875240234375,0,0,0.6115200000000001
3.281470936984988,0,0,1.197100830078125,0,0,0.68796
3.282856476987945,0,0,1.2665326782226562,0,0,-9.631440000000001
3.2842473139753565,0,0,1.2952630981445312,0,0,0.30576000000000003
3.2856336509867106,0,0,1.350329736328125,0,0,0.68796
3.2870195799914654,0,0,1.3000515014648437,0,0,0.91728
3.2884051019791514,0,0,1.216254443359375,0,0,1.1465999999999998
3.2898068639915437,0,0,1.1372457885742187,0,0,0.84084
3.2911980519711506,0,0,1.2521674682617188,0,0,0.6115200000000001
3.292597814986948,0,0,1.180341418457031,0,0,0.30576000000000003
3.293983428971842,0,0,1.3096283081054687,0,0,0.68796
3.2953678029880393,0,0,1.388636962890625,0,0,0.7644
3.296770713990554,0,0,1.3120225097656248,0,0,0.68796
3.298164364998229,0,0,1.3431471313476562,0,0,1.1465999999999998
3.299551515985513,0,0,1.3311761230468748,0,0,0.7644
3.3009381309966557,0,0,1.13006318359375,0,0,0.53508
3.3023239299946,0,0,1.1276689819335937,0,0,1.2230400000000001
3.30371050798567,0,0,1.2952630981445312,0,0,0.99372
3.305096288997447,0,0,1.2785036865234374,0,0,0.91728
3.306482143991161,0,0,1.484405029296875,0,0,0.7644
3.307867813971825,0,0,1.3527239379882812,0,0,1.07016
3.309253520972561,0,0,1.3311761230468748,0,0,0.6115200000000001
3.310639523988357,0,0,1.1276689819335937,0,0,0.84084
3.312025082996115,0,0,1.180341418457031,0,0,0.68796
3.31341077198158,0,0,1.3287819213867187,0,0,0.84084
3.314796070975717,0,0,1.3383587280273437,0,0,0.68796
3.316182537993882,0,0,1.5083470458984374,0,0,0.84084
3.31756785599282,0,0,1.3670891479492187,0,0,0.7644
3.3189536549907643,0,0,1.2473790649414063,0,0,0.6115200000000001
3.3203405659878626,0,0,1.1755530151367186,0,0,0.91728
3.3217261809913907,0,0,1.1348515869140625,0,0,0.45864
3.323111813981086,0,0,1.2761094848632812,0,0,0.0
3.324498631991446,0,0,1.465251416015625,0,0,0.15288000000000002
3.32588430197211,0,0,1.5346832641601562,0,0,0.68796
3.327269063971471,0,0,1.4317325927734375,0,0,1.1465999999999998
3.328654678974999,0,0,1.24498486328125,0,0,0.91728
3.3300392929813825,0,0,1.1468225952148436,0,0,0.99372
3.3316154239873867,0,0,1.0726023437499999,0,0,0.53508
3.3330038159911055,0,0,1.3024457031249999,0,0,0.0
3.334389948984608,0,0,1.2378022583007813,0,0,0.3822
3.3357762299710885,0,0,1.62805712890625,0,0,0.7644
3.3371731959923636,0,0,1.3144167114257812,0,0,0.6115200000000001
3.33855860697804,0,0,1.3215993164062498,0,0,0.91728
3.339945313986391,0,0,1.1276689819335937,0,0,0.91728
3.3413295399805065,0,0,1.3120225097656248,0,0,0.84084
3.342714709986467,0,0,1.3455413330078123,0,0,0.84084
3.3441001389874145,0,0,1.3838485595703125,0,0,0.84084
3.345485252997605,0,0,1.43652099609375,0,0,0.53508
3.3468708119762596,0,0,1.3455413330078123,0,0,0.7644
3.3482567969767842,0,0,1.3072341064453123,0,0,1.1465999999999998
3.349642244982533,0,0,1.2042834350585936,0,0,0.45864
3.351027932978468,0,0,1.2904746948242187,0,0,0.7644
3.352413306973176,0,0,1.2617442749023438,0,0,1.2994800000000002
3.3537987179879565,0,0,1.3096283081054687,0,0,0.91728
3.355184461979661,0,0,1.3168109130859373,0,0,0.6115200000000001
3.3565765759849455,0,0,1.4173673828125,0,0,0.68796
3.357962208974641,0,0,1.2952630981445312,0,0,0.7644
3.3593474719964433,0,0,1.3120225097656248,0,0,0.7644
3.360733363981126,0,0,1.1444283935546875,0,0,0.99372
3.362319142994238,0,0,1.1923124267578125,0,0,0.99372
3.363713441998698,0,0,1.3766659545898436,0,0,0.84084
3.3651000569807366,0,0,1.3407529296874998,0,0,0.7644
3.3664845419989433,0,0,1.4772224243164063,0,0,0.7644
3.367869748995872,0,0,1.2737152832031249,0,0,0.6115200000000001
3.369252714997856,0,0,1.3407529296874998,0,0,0.68796
3.370636828971328,0,0,1.235408056640625,0,0,0.7644
3.3720213329943363,0,0,1.216254443359375,0,0,-9.32568
3.373406854982022,0,0,1.1611878051757811,0,0,0.30576000000000003
3.3747912099934183,0,0,1.3646949462890625,0,0,0.53508
3.3761758799955714,0,0,1.4101847778320311,0,0,1.07016
3.3775594939943403,0,0,1.4317325927734375,0,0,0.84084
3.378943311981857,0,0,1.3431471313476562,0,0,0.7644
3.380345352983568,0,0,1.1228805786132812,0,0,1.2230400000000001
3.3817290229781065,0,0,1.1827356201171875,0,0,0.7644
3.3831127479788847,0,0,1.2401964599609374,0,0,0.15288000000000002
3.384518472972559,0,0,1.407790576171875,0,0,0.6115200000000001
3.385902587993769,0,0,1.455674609375,0,0,0.7644
3.3872861839772668,0,0,1.388636962890625,0,0,0.91728
3.388662501994986,0,0,1.3072341064453123,0,0,0.91728
3.39003620899166,0,0,1.0821791503906248,0,0,0.7644
3.3914123609720264,0,0,1.2138602416992186,0,0,0.3822
3.3927990309894085,0,0,1.218648645019531,0,0,1.1465999999999998
3.394181496987585,0,0,1.139639990234375,0,0,0.91728
3.3955643519875593,0,0,1.5466542724609373,0,0,0.6115200000000001
3.3969477629871108,0,0,1.426944189453125,0,0,0.68796
3.3983300999971107,0,0,1.2521674682617188,0,0,0.53508
3.3997136959806085,0,0,1.1420341918945311,0,0,0.45864
3.401094791974174,0,0,1.1827356201171875,0,0,0.68796
3.4024766279908363,0,0,1.2665326782226562,0,0,0.99372
3.403859168989584,0,0,1.350329736328125,0,0,1.1465999999999998
3.4052398939966224,0,0,1.2425906616210938,0,0,0.53508
3.4066351749934256,0,0,1.5011644409179687,0,0,0.6115200000000001
3.4080188449879643,0,0,1.24498486328125,0,0,0.53508
3.409401385986712,0,0,1.3551181396484375,0,0,0.91728
3.410783833998721,0,0,1.2641384765625,0,0,0.53508
3.412166169990087,0,0,1.2306196533203124,0,0,0.68796
3.4135484879952855,0,0,1.3359645263671873,0,0,9.631440000000001
3.4149415099818725,0,0,1.2832920898437499,0,0,0.45864
3.4163356799981557,0,0,1.4149731811523436,0,0,0.45864
3.4177184799918905,0,0,1.3263877197265623,0,0,0.7644
3.419101019972004,0,0,1.37906015625,0,0,1.1465999999999998
3.4204855049902108,0,0,1.199495031738281,0,0,0.84084
3.4218681559723336,0,0,1.0869675537109373,0,0,0.91728
3.4232502519735135,0,0,1.1947066284179686,0,0,0.22932
3.424639958975604,0,0,1.369483349609375,0,0,0.3822
3.4260227589984424,0,0,1.429338391113281,0,0,0.6115200000000001
3.427404984977329,0,0,1.5873557006835937,0,0,0.99372
3.4287877839815337,0,0,1.350329736328125,0,0,1.1465999999999998
3.4301695649919566,0,0,1.1851298217773436,0,0,0.68796
3.4315531799802557,0,0,1.2018892333984375,0,0,0.53508
3.432934830983868,0,0,1.24498486328125,0,0,1.07016
3.4343168899940792,0,0,1.3096283081054687,0,0,0.7644
3.4357005969795864,0,0,1.3670891479492187,0,0,0.6115200000000001
3.437084340985166,0,0,1.4987702392578124,0,0,0.84084
3.4384665109973866,0,0,1.1133037719726562,0,0,0.7644
3.4398501809919253,0,0,1.1947066284179686,0,0,0.68796
3.441231850971235,0,0,1.1228805786132812,0,0,1.07016
3.442613965977216,0,0,1.189918225097656,0,0,1.1465999999999998
3.443997431983007,0,0,1.3527239379882812,0,0,0.45864
3.4453787129896227,0,0,1.4915876342773438,0,0,0.68796
3.446760771999834,0,0,1.5849614990234373,0,0,0.7644
3.4481436829955783,0,0,1.3766659545898436,0,0,0.91728
3.449525667994749,0,0,1.2569558715820313,0,0,0.6115200000000001
3.4509081339929253,0,0,1.2808978881835937,0,0,0.91728
3.4523453039873857,0,0,1.3575123413085937,0,0,0.3822
3.453753935988061,0,0,1.2306196533203124,0,0,0.0
3.455128902976867,0,0,1.3263877197265623,0,0,0.53508
3.456521868996788,0,0,1.4963760375976562,0,0,0.84084
3.457896168984007,0,0,1.407790576171875,0,0,0.68796
3.459270764986286,0,0,1.2952630981445312,0,0,1.07016
3.46064576797653,0,0,1.1755530151367186,0,0,0.84084
3.4620192899892572,0,0,1.3048399047851562,0,0,0.6115200000000001
3.463392348989146,0,0,1.3239935180664062,0,0,0.7644
3.464767203986412,0,0,1.3670891479492187,0,0,0.99372
3.4661408749816474,0,0,1.2785036865234374,0,0,0.84084
3.46752406298765,0,0,1.3239935180664062,0,0,0.53508
3.468908010981977,0,0,1.2521674682617188,0,0,1.07016
3.4702911069907714,0,0,1.24498486328125,0,0,0.45864
3.47167459197226,0,0,1.218648645019531,0,0,0.6115200000000001
3.4730632989958394,0,0,1.216254443359375,0,0,0.99372
3.4744466169795487,0,0,1.2593500732421874,0,0,1.1465999999999998
3.4758300279791,0,0,1.3335703247070312,0,0,0.7644
3.477211900986731,0,0,1.5155296508789062,0,0,0.7644
3.4785949969955254,0,0,1.2713210815429687,0,0,0.68796
3.479980166972382,0,0,1.1540052001953125,0,0,0.91728
3.4813618559855968,0,0,1.13006318359375,0,0,1.07016
3.482744228997035,0,0,1.2401964599609374,0,0,1.45236
3.48412697398453,0,0,1.2378022583007813,0,0,0.6115200000000001
3.485509050980909,0,0,1.369483349609375,0,0,0.30576000000000003
3.486891590990126,0,0,1.4820108276367188,0,0,0.99372
3.4882736319850665,0,0,1.3287819213867187,0,0,0.6115200000000001
3.4896768759936094,0,0,1.2425906616210938,0,0,0.7644
3.491053360980004,0,0,1.2138602416992186,0,0,0.68796
3.4924464379728306,0,0,1.2401964599609374,0,0,0.53508
3.494892891991185,0,0,1.3862427612304686,0,0,-8.7906
3.496343746985076,0,0,1.2689268798828124,0,0,0.68796
3.4977211019722745,0,0,1.3910311645507811,0,0,0.91728
3.4991064759960864,0,0,1.2832920898437499,0,0,0.91728
3.5005019049858674,0,0,1.1947066284179686,0,0,1.07016
3.5018753159965854,0,0,1.1851298217773436,0,0,0.84084
3.5032487079733983,0,0,1.2880804931640624,0,0,0.91728
3.504625451983884,0,0,1.3575123413085937,0,0,1.1465999999999998
3.5059992149763275,0,0,1.3407529296874998,0,0,0.84084
3.507372514985036,0,0,1.39821376953125,0,0,0.84084
3.508747591986321,0,0,1.235408056640625,0,0,0.53508
3.510121095983777,0,0,1.3527239379882812,0,0,0.6115200000000001
3.5114939699997194,0,0,1.2976572998046874,0,0,0.91728
3.5128963249735534,0,0,1.1851298217773436,0,0,1.1465999999999998
3.5142788649827708,0,0,1.2378022583007813,0,0,0.68796
3.515661867975723,0,0,1.3383587280273437,0,0,0.3822
3.517043963976903,0,0,1.448492004394531,0,0,0.99372
3.518427115981467,0,0,1.3287819213867187,0,0,0.99372
3.5198108039912768,0,0,1.22583125,0,0,0.6115200000000001
3.52119258599123,0,0,1.0821791503906248,0,0,0.7644
3.522574792994419,0,0,1.1851298217773436,0,0,0.45864
3.5239581849891692,0,0,1.209071838378906,0,0,0.0
3.5253395959734917,0,0,1.5035586425781249,0,0,0.07644000000000001
3.5267221169779077,0,0,1.5179238525390624,0,0,0.6115200000000001
3.5281202499754727,0,0,1.4053963745117186,0,0,0.91728
3.5295033279981,0,0,1.235408056640625,0,0,0.7644
3.5308860349759925,0,0,1.0726023437499999,0,0,0.91728
3.532276074984111,0,0,1.1947066284179686,0,0,0.7644
3.533659522974631,0,0,1.2641384765625,0,0,0.68796
3.5350415999710094,0,0,1.3168109130859373,0,0,0.91728
3.5364244369848166,0,0,1.4724340209960938,0,0,0.84084
3.537807143991813,0,0,1.4508862060546874,0,0,0.84084
3.539189406990772,0,0,1.2689268798828124,0,0,1.07016
3.540572391997557,0,0,1.1540052001953125,0,0,0.6115200000000001
3.541954246989917,0,0,1.1061211669921875,0,0,0.68796
3.5433363239862956,0,0,1.369483349609375,0,0,0.91728
3.5447191419953015,0,0,1.4317325927734375,0,0,1.07016
3.5461014229804277,0,0,1.2665326782226562,0,0,0.68796
3.5474835749773774,0,0,1.3958195678710936,0,0,0.7644
3.54886676298338,0,0,1.3000515014648437,0,0,0.68796
3.550248951971298,0,0,1.3144167114257812,0,0,0.6115200000000001
