Time,AccelX1,AccelY1,AccelZ1,AccelX2,AccelY2,AccelZ2
6.463000318035483e-06,0,0,1.467645617675781,0,0,1.2230400000000001
0.0036931400245521218,0,0,1.1061211669921875,0,0,0.68796
0.007308151019969955,0,0,1.3168109130859373,0,0,0.7644
0.010921774024609476,0,0,1.3910311645507811,0,0,0.99372
0.014444063999690115,0,0,1.455674609375,0,0,0.91728
0.01796615100465715,0,0,1.3263877197265623,0,0,0.99372
0.02147718201740645,0,0,1.4437036010742186,0,0,1.1465999999999998
0.0249922500224784,0,0,1.235408056640625,0,0,0.6115200000000001
0.02871757501270622,0,0,1.3192051147460937,0,0,1.1465999999999998
0.032617434015264735,0,0,1.4149731811523436,0,0,0.99372
0.03615470600198023,0,0,1.3359645263671873,0,0,1.07016
0.03967394100618549,0,0,1.2689268798828124,0,0,1.07016
0.04319187902729027,0,0,1.465251416015625,0,0,0.7644
0.046713429008377716,0,0,1.3215993164062498,0,0,0.15288000000000002
0.05008972101495601,0,0,1.3192051147460937,0,0,0.6115200000000001
0.05320210900390521,0,0,1.4030021728515625,0,0,0.53508
0.056319737021112815,0,0,1.4030021728515625,0,0,0.84084
0.05943864301661961,0,0,1.2880804931640624,0,0,0.68796
0.06255477201193571,0,0,1.3239935180664062,0,0,0.84084
0.06567158602410927,0,0,1.22583125,0,0,1.07016
0.06878845501341857,0,0,1.3311761230468748,0,0,1.07016
0.07194754600641318,0,0,1.2617442749023438,0,0,1.5288
0.07544954001787119,0,0,1.2641384765625,0,0,1.2230400000000001
0.07858516901615076,0,0,1.2521674682617188,0,0,1.2230400000000001
0.08170314901508391,0,0,1.0917559570312498,0,0,0.84084
0.0848224810033571,0,0,1.438915197753906,0,0,0.91728
0.08793916500872001,0,0,1.3383587280273437,0,0,0.3822
0.09105566400103271,0,0,1.3479355346679687,0,0,1.1465999999999998
0.09417188502266072,0,0,1.2856862915039062,0,0,1.07016
0.09728751401416957,0,0,1.5035586425781249,0,0,0.7644
0.1004031790071167,0,0,1.4221557861328125,0,0,0.91728
0.10351882700342685,0,0,1.0893617553710937,0,0,0.68796
0.1066349180182442,0,0,1.3814543579101561,0,0,0.91728
0.10979528701864183,0,0,1.4053963745117186,0,0,0.68796
0.11290965601801872,0,0,1.2378022583007813,0,0,0.84084
0.11600795201957226,0,0,1.24498486328125,0,0,0.45864
0.11913835801533423,0,0,1.3742717529296875,0,0,0.84084
0.12225700501585379,0,0,1.1731588134765625,0,0,0.91728
0.1253828920016531,0,0,1.3000515014648437,0,0,0.68796
0.12851026200223714,0,0,1.3862427612304686,0,0,0.91728
0.13162646401906386,0,0,1.4891934326171874,0,0,0.68796
0.13474522202159278,0,0,1.3335703247070312,0,0,0.68796
0.1378920170245692,0,0,1.2713210815429687,0,0,1.1465999999999998
0.14100797902210616,0,0,1.3072341064453123,0,0,0.7644
0.14410753402626142,0,0,1.3096283081054687,0,0,1.07016
0.1472262180177495,0,0,1.2114660400390624,0,0,0.91728
0.1503437350038439,0,0,1.4867992309570313,0,0,1.1465999999999998
0.15345708600943908,0,0,1.4724340209960938,0,0,0.91728
0.1565734000178054,0,0,1.2713210815429687,0,0,0.7644
0.1596894360263832,0,0,1.47482822265625,0,0,1.07016
0.1628053610038478,0,0,1.3623007446289062,0,0,0.84084
0.16591974801849574,0,0,1.2928688964843749,0,0,0.99372
0.16906069102697074,0,0,1.235408056640625,0,0,0.68796
0.17217937600798905,0,0,1.5011644409179687,0,0,0.91728
0.17545387300197035,0,0,1.189918225097656,0,0,1.07016
0.17862163000972942,0,0,1.1061211669921875,0,0,0.99372
0.18181623902637511,0,0,1.4125789794921875,0,0,0.84084
0.18510201401659288,0,0,1.47482822265625,0,0,0.91728
0.1882220500265248,0,0,1.448492004394531,0,0,0.68796
0.19137738100835122,0,0,1.3263877197265623,0,0,0.45864
0.19449956601602025,0,0,1.2713210815429687,0,0,0.84084
0.1976615270250477,0,0,1.0989385620117187,0,0,1.07016
0.20078780301264487,0,0,1.2617442749023438,0,0,-8.63772
0.20389524701749906,0,0,1.3862427612304686,0,0,1.2230400000000001
0.20699463502387516,0,0,1.4604630126953124,0,0,0.84084
0.210107949009398,0,0,1.3407529296874998,0,0,0.68796
0.21322385501116514,0,0,1.1875240234375,0,0,2.2167600000000003
0.21632513200165704,0,0,1.2425906616210938,0,0,0.91728
0.2194392420060467,0,0,1.2880804931640624,0,0,1.07016
0.22255700000096112,0,0,1.2928688964843749,0,0,1.2230400000000001
0.22567490601795726,0,0,1.4101847778320311,0,0,1.07016
0.22878973901970312,0,0,1.2976572998046874,0,0,0.84084
0.2319054970284924,0,0,1.1252747802734375,0,0,0.6115200000000001
0.23502366201137193,0,0,1.3096283081054687,0,0,0.7644
0.23813977200188674,0,0,1.1037269653320312,0,0,0.7644
0.24125262300367467,0,0,1.3383587280273437,0,0,0.7644
0.244367178005632,0,0,1.22583125,0,0,1.2230400000000001
0.24748865800211206,0,0,1.254561669921875,0,0,1.07016
0.250606861023698,0,0,1.0989385620117187,0,0,0.84084
0.2537212300230749,0,0,1.120486376953125,0,0,0.7644
0.2572019100189209,0,0,1.235408056640625,0,0,0.99372
0.26034372302819975,0,0,1.3000515014648437,0,0,1.07016
0.26346055502654053,0,0,1.3742717529296875,0,0,0.84084
0.26657885100576095,0,0,1.2832920898437499,0,0,0.68796
0.26971994200721383,0,0,1.3431471313476562,0,0,0.45864
0.27281684800982475,0,0,1.3263877197265623,0,0,0.7644
0.2759394030144904,0,0,1.3383587280273437,0,0,1.1465999999999998
0.2790546240285039,0,0,1.3263877197265623,0,0,1.07016
0.2821719380153809,0,0,1.4508862060546874,0,0,0.99372
0.28534204702009447,0,0,1.2114660400390624,0,0,0.91728
0.28845317600644194,0,0,1.2713210815429687,0,0,1.1465999999999998
0.2915670820220839,0,0,1.4796166259765624,0,0,0.7644
0.29468298802385107,0,0,1.1085153686523437,0,0,0.99372
0.29779945002519526,0,0,1.3048399047851562,0,0,0.99372
0.300911394006107,0,0,1.4053963745117186,0,0,0.99372
0.3040238180255983,0,0,1.3072341064453123,0,0,0.84084
0.30713652100530453,0,0,1.2521674682617188,0,0,0.68796
0.31024996502674185,0,0,1.43652099609375,0,0,0.68796
0.31336105600348674,0,0,1.4030021728515625,0,0,0.91728
0.31647377702756785,0,0,1.2401964599609374,0,0,2.36964
0.3195863130094949,0,0,1.3215993164062498,0,0,0.6115200000000001
0.32272510800976306,0,0,1.2880804931640624,0,0,0.84084
0.3258393850119319,0,0,1.2641384765625,0,0,0.99372
0.3289508840243798,0,0,1.0941501586914062,0,0,1.2994800000000002
0.3320624380139634,0,0,1.2856862915039062,0,0,0.15288000000000002
0.33517330800532363,0,0,1.3407529296874998,0,0,0.7644
0.3382877880067099,0,0,1.1923124267578125,0,0,1.07016
0.341398750024382,0,0,1.2689268798828124,0,0,0.53508
0.3445107310253661,0,0,1.2856862915039062,0,0,0.84084
0.3476581370050553,0,0,1.1156979736328125,0,0,0.84084
0.3507736540050246,0,0,1.2785036865234374,0,0,0.99372
0.3539156710030511,0,0,1.5275006591796874,0,0,1.1465999999999998
0.3570282440050505,0,0,1.5203180541992187,0,0,0.91728
0.3601411320269108,0,0,1.3455413330078123,0,0,0.68796
0.3632523720152676,0,0,1.3048399047851562,0,0,0.99372
0.36638203702750616,0,0,1.4317325927734375,0,0,-9.09636
0.36949627700960264,0,0,1.3000515014648437,0,0,0.91728
0.3727717000001576,0,0,1.2569558715820313,0,0,1.45236
0.3758936800004449,0,0,1.3718775512695311,0,0,1.2994800000000002
0.3790854370163288,0,0,1.2641384765625,0,0,0.7644
0.38229665701510385,0,0,1.2617442749023438,0,0,0.7644
0.3853895450010896,0,0,1.438915197753906,0,0,0.99372
0.3884815260244068,0,0,1.4891934326171874,0,0,0.6115200000000001
0.39157397000235505,0,0,1.235408056640625,0,0,0.68796
0.3946859870047774,0,0,1.2497732666015624,0,0,0.6115200000000001
0.3977941900084261,0,0,1.2928688964843749,0,0,0.68796
0.4009018000215292,0,0,1.197100830078125,0,0,0.84084
0.40401578100863844,0,0,1.1228805786132812,0,0,0.7644
0.407122631004313,0,0,1.2808978881835937,0,0,0.91728
0.4102307230059523,0,0,1.3910311645507811,0,0,0.7644
0.4133342410204932,0,0,1.3718775512695311,0,0,0.91728
0.41643866602680646,0,0,1.35990654296875,0,0,0.99372
0.4195602940162644,0,0,1.3766659545898436,0,0,1.07016
0.4226669970084913,0,0,1.216254443359375,0,0,0.3822
0.42580466202343814,0,0,1.3120225097656248,0,0,0.68796
0.4289084210176952,0,0,1.455674609375,0,0,0.84084
0.43217982500209473,0,0,1.3431471313476562,0,0,0.91728
0.43545204401016235,0,0,1.13006318359375,0,0,0.91728
0.4385696170211304,0,0,1.2330138549804688,0,0,2.06388
0.4416828570247162,0,0,1.2473790649414063,0,0,0.84084
0.4447890970041044,0,0,1.2593500732421874,0,0,0.7644
0.44799920602235943,0,0,1.2880804931640624,0,0,1.1465999999999998
0.4510290020261891,0,0,1.4891934326171874,0,0,1.07016
0.4538808560173493,0,0,1.37906015625,0,0,1.37592
0.4566721920273267,0,0,1.1324573852539062,0,0,0.53508
0.45946278801420704,0,0,1.1827356201171875,0,0,0.6115200000000001
0.46225169801618904,0,0,1.350329736328125,0,0,0.99372
0.4650537010165863,0,0,1.426944189453125,0,0,1.2230400000000001
0.4678525180206634,0,0,1.369483349609375,0,0,1.2230400000000001
0.4706479290034622,0,0,1.3527239379882812,0,0,0.6115200000000001
0.47343463500146754,0,0,1.22583125,0,0,0.91728
0.47625458202674054,0,0,1.0749965454101562,0,0,1.1465999999999998
0.4790825850213878,0,0,1.2665326782226562,0,0,0.84084
0.4819787529995665,0,0,1.1013327636718748,0,0,1.07016
0.48477577400626615,0,0,1.3311761230468748,0,0,0.6115200000000001
0.48759414700907655,0,0,1.0917559570312498,0,0,0.84084
0.4903849830152467,0,0,1.2306196533203124,0,0,1.07016
0.493171838024864,0,0,1.5538368774414062,0,0,0.84084
0.49595891500939615,0,0,1.419761584472656,0,0,0.91728
0.4987456590170041,0,0,1.1324573852539062,0,0,0.84084
0.5015317910001613,0,0,1.1180921752929687,0,0,0.3822
0.5122869930055458,0,0,1.1563994018554686,0,0,1.37592
0.5153819370025303,0,0,1.2617442749023438,0,0,0.91728
0.5181928100064397,0,0,1.3551181396484375,0,0,0.7644
0.520977368025342,0,0,1.2737152832031249,0,0,0.99372
0.5237611120101064,0,0,1.1468225952148436,0,0,0.84084
0.5265460970113054,0,0,1.2904746948242187,0,0,0.99372
0.5293266549997497,0,0,1.3144167114257812,0,0,1.1465999999999998
0.5321106949995738,0,0,1.1707646118164061,0,0,0.7644
0.5348978830152191,0,0,1.2641384765625,0,0,1.07016
0.5379527530167252,0,0,1.3407529296874998,0,0,1.07016
0.5409702540200669,0,0,1.2904746948242187,0,0,0.99372
0.5437793670280371,0,0,1.0534487304687499,0,0,0.3822
0.5468223120260518,0,0,1.3958195678710936,0,0,0.45864
0.5496741290262435,0,0,1.4437036010742186,0,0,1.07016
0.5524581690260675,0,0,1.3838485595703125,0,0,0.91728
0.5552425970090553,0,0,1.3742717529296875,0,0,1.1465999999999998
0.5580926920229103,0,0,1.35990654296875,0,0,0.99372
0.5609213800053112,0,0,1.446097802734375,0,0,0.84084
0.563720568025019,0,0,1.254561669921875,0,0,0.6115200000000001
0.566513849014882,0,0,1.3455413330078123,0,0,0.91728
0.5692908150085714,0,0,1.3263877197265623,0,0,0.84084
0.5720918730075937,0,0,1.24498486328125,0,0,1.1465999999999998
0.5748915610020049,0,0,1.3072341064453123,0,0,1.07016
0.5778102840122301,0,0,1.2282254516601563,0,0,0.68796
0.5807169160107151,0,0,1.3527239379882812,0,0,0.6115200000000001
0.5835257150174584,0,0,1.1061211669921875,0,0,0.68796
0.5863258840108756,0,0,1.0821791503906248,0,0,0.45864
0.5891225900268182,0,0,1.4508862060546874,0,0,0.84084
0.5919058710278478,0,0,1.4508862060546874,0,0,0.91728
0.5948966310243122,0,0,1.2641384765625,0,0,0.91728
0.5977158740279265,0,0,1.2641384765625,0,0,0.91728
0.6004989510111045,0,0,1.2425906616210938,0,0,0.91728
0.6033307870093267,0,0,1.2473790649414063,0,0,1.07016
0.6061178090167232,0,0,1.35990654296875,0,0,0.91728
0.6088997560145799,0,0,1.235408056640625,0,0,0.99372
0.6116817400034051,0,0,1.467645617675781,0,0,1.07016
0.6144912060117349,0,0,1.4796166259765624,0,0,0.84084
0.6172856900084298,0,0,1.3359645263671873,0,0,0.91728
0.6200694530270994,0,0,1.189918225097656,0,0,0.91728
0.6229247880110051,0,0,1.2928688964843749,0,0,1.1465999999999998
0.625714310008334,0,0,1.467645617675781,0,0,0.99372
0.628513201023452,0,0,1.235408056640625,0,0,0.91728
0.6313005010015331,0,0,1.2401964599609374,0,0,0.53508
0.6340933370229322,0,0,1.3646949462890625,0,0,0.84084
0.6370710040209815,0,0,1.1540052001953125,0,0,0.84084
0.6398706360196229,0,0,1.2665326782226562,0,0,0.84084
0.642673028021818,0,0,1.2473790649414063,0,0,0.45864
0.6454690120008308,0,0,1.2521674682617188,0,0,1.07016
0.6483514400024433,0,0,1.1252747802734375,0,0,0.7644
0.6512594790256117,0,0,1.3479355346679687,0,0,0.68796
0.6543730890261941,0,0,1.3359645263671873,0,0,0.53508
0.6574794030166231,0,0,1.467645617675781,0,0,0.91728
0.6605997350125108,0,0,1.3455413330078123,0,0,0.68796
0.6637035670282785,0,0,1.2617442749023438,0,0,0.7644
0.6668132700142451,0,0,1.3958195678710936,0,0,0.7644
0.6699287130031735,0,0,1.3144167114257812,0,0,0.84084
0.6730414340272546,0,0,1.3551181396484375,0,0,0.84084
0.676157341018552,0,0,1.4053963745117186,0,0,1.07016
0.6792700990044978,0,0,1.3742717529296875,0,0,1.07016
0.6824739860021509,0,0,1.3072341064453123,0,0,0.91728
0.6857071310223546,0,0,1.2856862915039062,0,0,0.99372
0.6888333150127437,0,0,1.4532804077148436,0,0,0.68796
0.6919515550252981,0,0,1.5131354492187499,0,0,0.99372
0.6950564430153463,0,0,1.3311761230468748,0,0,1.1465999999999998
0.6981686460203491,0,0,1.254561669921875,0,0,1.07016
0.7012849410239141,0,0,1.3383587280273437,0,0,0.84084
0.7044326430186629,0,0,1.1180921752929687,0,0,0.91728
0.7075494010059629,0,0,1.3024457031249999,0,0,1.07016
0.7106583450222388,0,0,1.4437036010742186,0,0,0.53508
0.7138814530044328,0,0,1.209071838378906,0,0,0.84084
0.7169980450125877,0,0,1.1827356201171875,0,0,0.3822
0.720112044014968,0,0,1.3239935180664062,0,0,1.07016
0.723228321003262,0,0,1.2832920898437499,0,0,0.84084
0.7263423380209133,0,0,1.13006318359375,0,0,0.84084
0.7294528190104757,0,0,1.2378022583007813,0,0,1.2230400000000001
0.7326860750035848,0,0,1.350329736328125,0,0,0.84084
0.7358062410203274,0,0,1.0821791503906248,0,0,0.84084
0.7389229990076274,0,0,1.3120225097656248,0,0,0.7644
0.7420316280040424,0,0,1.3239935180664062,0,0,0.68796
0.745124034001492,0,0,1.350329736328125,0,0,1.1465999999999998
0.7482644590199925,0,0,1.3670891479492187,0,0,0.99372
0.7514150690112729,0,0,1.3910311645507811,0,0,1.45236
0.7545324189995881,0,0,1.43652099609375,0,0,0.53508
0.757671992003452,0,0,1.1731588134765625,0,0,0.45864
0.76076834302512,0,0,1.2761094848632812,0,0,0.84084
0.7639089530275669,0,0,1.2569558715820313,0,0,1.37592
0.7670224700123072,0,0,1.1611878051757811,0,0,0.7644
0.7701390430156607,0,0,1.3455413330078123,0,0,1.2994800000000002
0.7732516350224614,0,0,1.467645617675781,0,0,0.91728
0.7763661520148162,0,0,1.35990654296875,0,0,0.99372
0.7802976410021074,0,0,1.2832920898437499,0,0,0.99372
0.7834545660007279,0,0,1.3862427612304686,0,0,1.07016
0.7865717680251691,0,0,1.4053963745117186,0,0,0.99372
0.7903126480232459,0,0,1.2425906616210938,0,0,0.6115200000000001
0.7934372210002039,0,0,1.2737152832031249,0,0,0.91728
0.7965687760151923,0,0,1.2761094848632812,0,0,0.53508
0.7996904970204923,0,0,1.3527239379882812,0,0,0.84084
0.802814736001892,0,0,1.3263877197265623,0,0,1.1465999999999998
0.8059347350208554,0,0,1.3024457031249999,0,0,0.84084
0.8090512530179694,0,0,1.218648645019531,0,0,2.4460800000000003
0.8121671030239668,0,0,1.177947216796875,0,0,0.53508
0.8152858980174642,0,0,1.3287819213867187,0,0,0.68796
0.818401916010771,0,0,1.4245499877929686,0,0,1.1465999999999998
0.8217503190098796,0,0,1.1133037719726562,0,0,1.1465999999999998
0.82595680502709,0,0,1.2976572998046874,0,0,0.3822
0.829197525017662,0,0,1.448492004394531,0,0,0.99372
0.8323073940118775,0,0,1.2425906616210938,0,0,1.07016
0.8354139300063252,0,0,1.2928688964843749,0,0,0.68796
0.8385237070033327,0,0,1.3000515014648437,0,0,1.1465999999999998
0.8417293340025935,0,0,1.235408056640625,0,0,0.99372
0.8448412780126091,0,0,1.2808978881835937,0,0,0.99372
0.84795492500416,0,0,1.4053963745117186,0,0,0.84084
0.8510942380235065,0,0,1.4101847778320311,0,0,1.07016
0.8542009780067019,0,0,1.2425906616210938,0,0,0.99372
0.857382921007229,0,0,1.3575123413085937,0,0,0.7644
0.8604965680278838,0,0,1.3383587280273437,0,0,0.99372
0.8635993630159646,0,0,1.2856862915039062,0,0,0.68796
0.8667483250028454,0,0,1.24498486328125,0,0,1.07016
0.869854379008757,0,0,1.2641384765625,0,0,1.07016
0.8729600080114324,0,0,1.5203180541992187,0,0,1.83456
0.8760629510215949,0,0,1.924938134765625,0,0,1.911
0.8791669320198707,0,0,2.1212626708984375,0,0,1.75812
0.8822734680143185,0,0,2.5378537597656248,0,0,1.83456
0.885403911001049,0,0,1.9943699829101562,0,0,0.7644
0.8885081700282171,0,0,1.4915876342773438,0,0,1.83456
0.891619261004962,0,0,1.6160861206054686,0,0,1.83456
0.8947240940178744,0,0,1.37906015625,0,0,1.60524
0.8978240560099948,0,0,2.252943762207031,0,0,1.2994800000000002
0.9009253510157578,0,0,2.114080065917969,0,0,1.75812
0.9040285720257089,0,0,1.6519991455078125,0,0,1.45236
0.9071314790053293,0,0,1.7262193969726563,0,0,1.1465999999999998
0.9102350890170783,0,0,1.5705962890624998,0,0,1.75812
0.9133361620188225,0,0,2.099714855957031,0,0,2.14032
0.9164396240084898,0,0,1.7597382202148437,0,0,1.45236
0.9195435490109958,0,0,1.6903063720703124,0,0,0.84084
0.922650271008024,0,0,2.039859814453125,0,0,1.45236
0.9257871950103436,0,0,1.4796166259765624,0,0,1.1465999999999998
0.9288911200128496,0,0,1.7429788085937499,0,0,1.68168
0.93342482400476,0,0,1.6208745239257811,0,0,1.5288
0.9365992480015848,0,0,2.051830822753906,0,0,2.14032
0.9397100800124463,0,0,1.5442600708007812,0,0,1.98744
0.9428177650261205,0,0,1.8531120849609375,0,0,1.1465999999999998
0.9459228010091465,0,0,1.8291700683593748,0,0,1.2230400000000001
0.949024374014698,0,0,1.6424223388671875,0,0,1.5288
0.952227372006746,0,0,1.4125789794921875,0,0,1.07016
0.9550673000048846,0,0,1.1468225952148436,0,0,1.2230400000000001
0.9578829880047124,0,0,2.138022082519531,0,0,1.911
0.9606698060233612,0,0,2.291250988769531,0,0,1.60524
0.9634585860185325,0,0,1.714248388671875,0,0,1.2994800000000002
0.9662477370002307,0,0,2.195482922363281,0,0,1.68168
0.9690347030118573,0,0,2.0087351928710935,0,0,0.84084
0.9718210950086359,0,0,1.0319009155273438,0,0,1.5288
0.9746104310033843,0,0,2.01112939453125,0,0,2.5989600000000004
0.9773953230178449,0,0,1.9536685546875,0,0,1.37592
0.9801820850116201,0,0,1.905784521484375,0,0,0.30576000000000003
0.9829684590222314,0,0,2.1452046874999997,0,0,0.84084
0.9857558510266244,0,0,1.1444283935546875,0,0,1.5288
0.9886302970116958,0,0,1.2497732666015624,0,0,2.14032
0.9914468180213589,0,0,2.1930887207031247,0,0,2.4460800000000003
0.994252802018309,0,0,2.0877438476562498,0,0,1.60524
0.997056138003245,0,0,2.403778466796875,0,0,1.37592
0.999858604016481,0,0,1.465251416015625,0,0,1.2994800000000002
1.002753754000878,0,0,1.8315642700195311,0,0,1.5288
1.005675089021679,0,0,1.85790048828125,0,0,1.83456
1.0086151080031414,0,0,2.147598889160156,0,0,1.83456
1.0115021280071232,0,0,1.3862427612304686,0,0,1.911
1.0144075000134762,0,0,1.6065093139648436,0,0,2.75184
1.0172999090282246,0,0,0.8738836059570312,0,0,1.2230400000000001
1.0202259659999982,0,0,1.9919757812499999,0,0,1.45236
1.0230974680162035,0,0,1.7956512451171873,0,0,1.75812
1.0259846730041318,0,0,2.059013427734375,0,0,-9.707880000000001
1.0289031930151395,0,0,1.2473790649414063,0,0,-0.45864
1.0317331770202145,0,0,2.568978381347656,0,0,2.98116
1.0345562910079025,0,0,2.528276953125,0,0,3.7455600000000002
1.037374367006123,0,0,0.5458779785156249,0,0,0.6115200000000001
1.0402038140164223,0,0,1.2378022583007813,0,0,-0.22932
1.0430330390227027,0,0,2.5665841796874997,0,0,2.5989600000000004
1.0461037610075437,0,0,2.2361843505859373,0,0,0.30576000000000003
1.0489470590255223,0,0,0.1388636962890625,0,0,-1.2230400000000001
1.0518889120139647,0,0,2.27927998046875,0,0,2.6754
1.0545699910144322,0,0,2.798821740722656,0,0,2.2167600000000003
1.0567545190278906,0,0,0.6153098266601562,0,0,0.53508
1.0589212520280853,0,0,0.25139117431640623,0,0,0.68796
1.0611356690060347,0,0,3.2824504760742186,0,0,4.66284
1.0633597900159657,0,0,2.9664158569335934,0,0,2.82828
1.0656018190202303,0,0,0.5267243652343749,0,0,-9.40212
1.0679323460208252,0,0,-0.2609679809570312,0,0,-0.53508
1.0702597430208698,0,0,2.9568390502929685,0,0,1.1465999999999998
1.072911303024739,0,0,1.5490484741210937,0,0,0.84084
1.0751582390221301,0,0,-0.7972691528320313,0,0,0.45864
1.0773929890128784,0,0,1.8004396484374998,0,0,1.68168
1.0795961290132254,0,0,2.6719290527343746,0,0,1.07016
1.0819000450137537,0,0,1.4101847778320311,0,0,0.0
1.0841647400229704,0,0,0.8451531860351562,0,0,0.53508
1.0864165450038854,0,0,2.6312276245117188,0,0,1.45236
1.0886170740122907,0,0,2.1164742675781247,0,0,0.99372
1.0908281770243775,0,0,-0.22026655273437498,0,0,-0.53508
1.0930358160112519,0,0,0.24660277099609373,0,0,1.83456
1.09524191901437,0,0,2.93050283203125,0,0,1.911
1.0976007980061695,0,0,1.5490484741210937,0,0,0.53508
1.1000656010000966,0,0,-0.8403647827148437,0,0,0.30576000000000003
1.1022302040073555,0,0,2.7269956909179687,0,0,1.2230400000000001
1.1043627700128127,0,0,2.308010400390625,0,0,1.60524
1.1064965960104018,0,0,0.17477672119140625,0,0,-0.84084
1.108629792026477,0,0,0.3758896606445312,0,0,0.7644
1.1107659140252508,0,0,2.1212626708984375,0,0,1.45236
1.112896462000208,0,0,1.5682020874023437,0,0,1.911
1.1150283250026405,0,0,0.45010991210937495,0,0,0.7644
1.1171591320016887,0,0,2.43250888671875,0,0,2.36964
1.1192906430223957,0,0,2.5474305664062498,0,0,1.75812
1.1214211540063843,0,0,1.3383587280273437,0,0,0.99372
1.1235530170088168,0,0,-0.19632453613281248,0,0,0.30576000000000003
1.1256866580224596,0,0,2.080561242675781,0,0,1.5288
1.1278181690140627,0,0,1.89620771484375,0,0,0.0
1.1299592910218053,0,0,0.689530078125,0,0,-0.22932
1.1321060420013964,0,0,0.5626373901367188,0,0,0.0
1.134251405019313,0,0,2.427720483398437,0,0,1.98744
1.1363950820232276,0,0,1.7908628417968748,0,0,1.45236
1.1385388150229119,0,0,0.9097966308593749,0,0,-0.68796
1.140683160017943,0,0,0.6344634399414062,0,0,0.30576000000000003
1.1428266520088073,0,0,2.4205378784179685,0,0,1.83456
1.1449703660036903,0,0,2.2098481323242187,0,0,2.06388
1.1471149880089797,0,0,-0.8714894042968749,0,0,0.15288000000000002
1.1492594810260925,0,0,1.216254443359375,0,0,1.2230400000000001
1.1514030660036951,0,0,2.1499930908203124,0,0,0.7644
1.153651519009145,0,0,1.5251064575195312,0,0,1.1465999999999998
1.1561248230282217,0,0,0.9026140258789062,0,0,1.07016
1.1587159390037414,0,0,1.8507178833007811,0,0,1.07016
1.1612608520081267,0,0,1.388636962890625,0,0,0.68796
1.1638036920048762,0,0,0.28730419921875,0,0,0.0
1.166340920026414,0,0,1.7477672119140624,0,0,1.5288
1.1688687590067275,0,0,1.0654197387695312,0,0,1.07016
1.1714603020227514,0,0,-0.2609679809570312,0,0,0.6115200000000001
1.1740068080252968,0,0,2.288856787109375,0,0,2.4460800000000003
1.1765473690174986,0,0,1.7405846069335937,0,0,1.75812
1.1790895420126617,0,0,-0.3232172241210937,0,0,0.99372
1.1816555290133692,0,0,2.224213342285156,0,0,1.2994800000000002
1.1842576450144406,0,0,1.4963760375976562,0,0,1.2994800000000002
1.1869089830142912,0,0,0.5793968017578125,0,0,0.53508
1.1894520630012266,0,0,1.8291700683593748,0,0,1.45236
1.1919980689999647,0,0,1.0103531005859374,0,0,0.53508
1.194852571003139,0,0,0.967257470703125,0,0,0.7644
1.1974037990148645,0,0,2.6958710693359373,0,0,2.52252
1.1999369719997048,0,0,1.687912170410156,0,0,-0.45864
1.2024700150068384,0,0,0.6679822631835937,0,0,0.0
1.2050041510083247,0,0,2.8610709838867185,0,0,2.4460800000000003
1.2075606010039337,0,0,1.6735469604492186,0,0,0.0
1.2101215700095054,0,0,-0.0909796630859375,0,0,8.63772
1.2126529280212708,0,0,1.43652099609375,0,0,1.37592
1.2151844710169826,0,0,2.7174188842773437,0,0,1.37592
1.21781171602197,0,0,1.3120225097656248,0,0,-0.7644
1.220347018999746,0,0,0.34715924072265625,0,0,1.07016
1.2228910620033275,0,0,2.2864625854492187,0,0,0.3822
1.225431679020403,0,0,1.1180921752929687,0,0,-0.15288000000000002
1.2279731290182099,0,0,0.9361328491210937,0,0,1.1465999999999998
1.230514598020818,0,0,2.4947581298828125,0,0,1.07016
1.2330528820166364,0,0,0.8116343627929687,0,0,1.07016
1.2355921650014352,0,0,0.5027823486328125,0,0,0.7644
1.2381335050158668,0,0,2.6192566162109374,0,0,1.2230400000000001
1.2406873250147328,0,0,0.6943184814453125,0,0,0.45864
1.2432293680030853,0,0,-0.565031591796875,0,0,0.15288000000000002
1.2457748370070476,0,0,2.8802245971679685,0,0,2.2167600000000003
1.2483160650008358,0,0,1.4724340209960938,0,0,0.91728
1.2508492940105498,0,0,-0.296881005859375,0,0,0.22932
1.2534658910008147,0,0,2.2457611572265623,0,0,1.98744
1.2563033010228537,0,0,1.7812860351562498,0,0,1.5288
1.2594223000050988,0,0,-0.928950244140625,0,0,0.30576000000000003
1.26254220600822,0,0,3.1004911499023438,0,0,1.37592
1.2656590570113622,0,0,0.948103857421875,0,0,8.943480000000001
1.268754186021397,0,0,0.49799394531249996,0,0,1.98744
1.2719303510093596,0,0,1.6160861206054686,0,0,0.99372
1.2750464980199467,0,0,-0.5219359619140624,0,0,0.15288000000000002
1.2781635520223062,0,0,2.9759926635742184,0,0,1.37592
1.2812736990163103,0,0,1.4053963745117186,0,0,-0.91728
1.284389013017062,0,0,0.5698199951171875,0,0,2.4460800000000003
1.2875017340120394,0,0,2.7653029174804686,0,0,0.91728
1.2906197330157738,0,0,-0.09816226806640624,0,0,-0.99372
1.2937687690136954,0,0,1.7286135986328124,0,0,1.83456
1.2968821750255302,0,0,1.5011644409179687,0,0,-8.943480000000001
1.2999967300274875,0,0,-0.42377369384765623,0,0,1.2994800000000002
1.303111136017833,0,0,3.6008792968749996,0,0,2.2167600000000003
1.306226005021017,0,0,0.5410895751953124,0,0,-0.15288000000000002
1.3093380230129696,0,0,0.9888052856445312,0,0,0.6115200000000001
1.31245067002601,0,0,2.0302830078125,0,0,1.37592
1.3155631500121672,0,0,-0.507570751953125,0,0,0.7644
1.3186789090104867,0,0,2.4301146850585935,0,0,1.5288
1.3217935190186836,0,0,0.7110778930664062,0,0,9.40212
1.3249090730096214,0,0,1.8052280517578123,0,0,2.06388
1.3280216460116208,0,0,1.6160861206054686,0,0,0.68796
1.331135312007973,0,0,-0.565031591796875,0,0,-0.45864
1.334252885018941,0,0,2.521094348144531,0,0,2.98116
1.3373635870229919,0,0,1.9129671264648436,0,0,0.0
1.3404773830261547,0,0,-0.5865794067382812,0,0,0.91728
1.3436002700182144,0,0,2.923320227050781,0,0,1.1465999999999998
1.3467114730156027,0,0,1.2952630981445312,0,0,0.0
1.3498278980259784,0,0,1.2497732666015624,0,0,0.45864
1.3529733780014794,0,0,1.8435352783203125,0,0,0.91728
1.3560883210157044,0,0,0.9337386474609375,0,0,2.6754
1.359201394021511,0,0,2.0566192260742184,0,0,0.6115200000000001
1.362316301005194,0,0,0.3399766357421875,0,0,0.0
1.36542789201485,0,0,2.492363928222656,0,0,1.68168
1.3685416880180128,0,0,1.7812860351562498,0,0,-8.71416
1.3716565200011246,0,0,-0.7733271362304687,0,0,0.30576000000000003
1.3747738340171054,0,0,2.942473840332031,0,0,1.83456
1.378054016007809,0,0,1.2617442749023438,0,0,0.7644
1.3812779020227026,0,0,0.9145850341796874,0,0,1.1465999999999998
1.3844157340063248,0,0,1.5945383056640625,0,0,1.07016
1.3875304740213323,0,0,0.6943184814453125,0,0,0.7644
1.3906743800034747,0,0,1.5346832641601562,0,0,0.53508
1.393794934003381,0,0,1.0534487304687499,0,0,0.15288000000000002
1.3970587830117438,0,0,2.2194249389648437,0,0,0.99372
1.4001610600098502,0,0,0.9074024291992187,0,0,1.5288
1.4032608370180242,0,0,0.4477157104492187,0,0,0.30576000000000003
1.4063589660217986,0,0,2.817975354003906,0,0,1.2994800000000002
1.409605074004503,0,0,-0.11252747802734374,0,0,-0.6115200000000001
1.4127557020110544,0,0,2.3151930053710936,0,0,2.6754
1.415854165010387,0,0,2.1595698974609374,0,0,0.53508
1.4189510530268308,0,0,-0.9816226806640624,0,0,-9.784320000000001
1.4220662000006996,0,0,2.8419173706054686,0,0,1.68168
1.4251814580056816,0,0,1.20667763671875,0,0,-0.6115200000000001
1.4282976610120386,0,0,0.05746083984375,0,0,1.911
1.4314135670138057,0,0,2.7724855224609373,0,0,0.45864
1.4345949540147558,0,0,0.47644613037109373,0,0,1.2230400000000001
1.4378364330041222,0,0,3.0262708984374997,0,0,1.37592
1.4409622830280568,0,0,0.16759411621093748,0,0,-0.30576000000000003
1.4440831900283229,0,0,0.8595183959960937,0,0,2.36964
1.4471909110143315,0,0,2.6336218261718747,0,0,1.07016
1.450306206010282,0,0,-0.6607996582031249,0,0,0.30576000000000003
1.4534639450139366,0,0,2.7844565307617186,0,0,1.911
1.4565828330232762,0,0,1.1348515869140625,0,0,-8.63772
1.4597525170247536,0,0,-0.7326257080078125,0,0,0.6115200000000001
1.4628626270277891,0,0,3.5697546752929687,0,0,1.2994800000000002
1.4660404210153501,0,0,0.023942016601562498,0,0,0.6115200000000001
1.4691556050092913,0,0,1.216254443359375,0,0,1.68168
1.4722681230050512,0,0,2.2385785522460937,0,0,1.83456
1.4753821030026302,0,0,0.05746083984375,0,0,0.53508
1.4784969169995748,0,0,2.252943762207031,0,0,1.07016
1.4816089900268707,0,0,0.9050082275390624,0,0,-0.7644
1.4847603590169456,0,0,2.118868469238281,0,0,2.4460800000000003
1.4878745430032723,0,0,1.917755529785156,0,0,1.60524
1.491013227001531,0,0,-1.4149731811523436,0,0,-0.22932
1.4941376330098137,0,0,2.9664158569335934,0,0,2.14032
1.4972512430103961,0,0,2.061407629394531,0,0,-0.99372
1.500351742026396,0,0,-2.0781670410156248,0,0,1.07016
1.5034691120090429,0,0,4.649539624023437,0,0,1.98744
1.5065841660252772,0,0,-1.458068811035156,0,0,-0.45864
1.5097028320014942,0,0,1.6232687255859375,0,0,1.07016
1.5128182750195265,0,0,2.588131994628906,0,0,1.37592
1.5159186630044132,0,0,-0.8379705810546875,0,0,1.2230400000000001
1.5190351990167983,0,0,2.9664158569335934,0,0,1.1465999999999998
1.522151068027597,0,0,1.1468225952148436,0,0,8.56128
1.5252636600052938,0,0,1.1228805786132812,0,0,1.07016
1.5283981030224822,0,0,2.4349030883789062,0,0,1.68168
1.5316391560190823,0,0,-1.1947066284179686,0,0,0.15288000000000002
1.5347613770281896,0,0,3.220201232910156,0,0,1.60524
1.5379091350187082,0,0,1.3455413330078123,0,0,-0.6115200000000001
1.5410236150200944,0,0,0.9457096557617187,0,0,1.2230400000000001
1.5441515400016215,0,0,2.2553379638671873,0,0,2.06388
1.5473602780257352,0,0,0.1292868896484375,0,0,9.09636
1.5505465170135722,0,0,2.7724855224609373,0,0,1.83456
1.5537115160259418,0,0,1.5682020874023437,0,0,0.0
1.5568272740056273,0,0,0.7326257080078125,0,0,0.07644000000000001
1.5599263840122148,0,0,2.1116858642578125,0,0,1.60524
1.5630423830007203,0,0,0.74699091796875,0,0,0.53508
1.5661609190283343,0,0,1.1037269653320312,0,0,1.07016
1.5692711220181081,0,0,0.9361328491210937,0,0,-0.68796
1.5723883980244864,0,0,2.262520568847656,0,0,2.2167600000000003
1.5754915830038954,0,0,1.446097802734375,0,0,0.6115200000000001
1.5786018040089402,0,0,-0.565031591796875,0,0,0.0
1.5817244320060126,0,0,2.8107927490234372,0,0,1.45236
1.5848403940035496,0,0,0.9026140258789062,0,0,-0.15288000000000002
1.5879551340185571,0,0,-0.2657563842773437,0,0,0.68796
1.5910703550034668,0,0,3.2513258544921873,0,0,0.68796
1.5941826130147092,0,0,0.47165772705078124,0,0,0.30576000000000003
1.597326019022148,0,0,1.6208745239257811,0,0,1.07016
1.6004275920276996,0,0,1.2689268798828124,0,0,2.2167600000000003
1.6035256100003608,0,0,-0.06464344482421874,0,0,0.53508
1.6066260170191526,0,0,2.4660277099609376,0,0,0.7644
1.6098164030117914,0,0,0.8451531860351562,0,0,0.07644000000000001
1.6129148840263952,0,0,2.2936451904296873,0,0,2.2167600000000003
1.6160137910046615,0,0,1.5825672973632812,0,0,1.60524
1.6191112340020481,0,0,-0.7972691528320313,0,0,0.07644000000000001
1.6222245850076433,0,0,3.1196447631835937,0,0,1.911
1.6253400280256756,0,0,0.26815058593749996,0,0,-0.84084
1.6284577130281832,0,0,1.6831237670898436,0,0,1.911
1.6315724340092856,0,0,2.29843359375,0,0,0.68796
1.6346887470281217,0,0,-0.8595183959960937,0,0,0.3822
1.6378078570123762,0,0,2.7724855224609373,0,0,1.2994800000000002
1.6409211340069305,0,0,0.7613561279296874,0,0,-1.1465999999999998
1.644038744008867,0,0,-0.009576806640625,0,0,1.45236
1.647156299004564,0,0,4.108450048828125,0,0,0.91728
1.6502736860129517,0,0,-1.5298948608398437,0,0,9.40212
1.6533880740171298,0,0,3.342305517578125,0,0,0.68796
1.6565360730164684,0,0,2.0829554443359375,0,0,1.60524
1.6596591270063072,0,0,-1.8243816650390623,0,0,8.867040000000001
1.6627764970180579,0,0,3.5434184570312497,0,0,1.2230400000000001
1.6659350320114754,0,0,0.967257470703125,0,0,0.53508
1.6690501050034072,0,0,0.39983167724609375,0,0,1.2994800000000002
1.6721649370156229,0,0,2.039859814453125,0,0,1.911
1.6752794920175802,0,0,-0.5386953735351562,0,0,-0.22932
1.6784469350241125,0,0,3.0813375366210938,0,0,1.45236
1.6815405630040914,0,0,1.484405029296875,0,0,-0.84084
1.6847063950262964,0,0,0.6631938598632812,0,0,1.68168
1.6878986520168837,0,0,2.059013427734375,0,0,1.911
1.69101926201256,0,0,-0.24899697265624998,0,0,-0.68796
1.6941409280116204,0,0,2.3822306518554686,0,0,1.83456
1.697253668011399,0,0,1.3168109130859373,0,0,-0.7644
1.7004277580126654,0,0,-0.29927520751953124,0,0,1.911
1.703564998024376,0,0,2.7557261108398436,0,0,1.60524
1.7066867190005723,0,0,0.229843359375,0,0,-0.45864
1.7100434370222501,0,0,1.8052280517578123,0,0,2.2167600000000003
1.7131972690112889,0,0,1.7022773803710936,0,0,-9.172799999999999
1.7163406380277593,0,0,-0.45010991210937495,0,0,1.5288
1.7194639890221879,0,0,2.8730419921875,0,0,1.2994800000000002
1.7225816910213325,0,0,0.28490999755859375,0,0,-9.555
1.725698264024686,0,0,1.24498486328125,0,0,0.22932
1.7288140590244438,0,0,2.2673089721679687,0,0,0.53508
1.7319364660070278,0,0,-0.6057330200195312,0,0,0.91728
1.735061001003487,0,0,2.6671406494140624,0,0,1.1465999999999998
1.7381772600056138,0,0,0.19871873779296872,0,0,9.555
1.74129198101582,0,0,1.5969325073242187,0,0,0.84084
1.7444059060071595,0,0,2.1356278808593747,0,0,2.06388
1.7475552930263802,0,0,-0.7948749511718749,0,0,8.7906
1.7506759770039935,0,0,2.913743420410156,0,0,2.36964
1.75379518000409,0,0,2.085349645996094,0,0,-0.30576000000000003
1.756961808016058,0,0,-0.699106884765625,0,0,0.7644
1.7600847880239598,0,0,2.3343466186523436,0,0,1.60524
1.7632002680038568,0,0,-0.05985504150390625,0,0,-20
1.766320730006555,0,0,2.205059729003906,0,0,1.60524
1.769435174006503,0,0,1.3934253662109375,0,0,-0.99372
1.7725546730216593,0,0,0.7613561279296874,0,0,2.2931999999999997
1.7756716720177792,0,0,2.403778466796875,0,0,0.84084
1.778790670010494,0,0,-0.3064578125,0,0,-0.53508
1.7819098360196222,0,0,2.4971523315429685,0,0,0.91728
1.7850260760169476,0,0,1.446097802734375,0,0,-0.22932
1.7881424080114812,0,0,0.1771709228515625,0,0,1.07016
1.791256777010858,0,0,2.7174188842773437,0,0,1.1465999999999998
1.7943734240252525,0,0,0.5626373901367188,0,0,0.3822
1.7975012750248425,0,0,2.04943662109375,0,0,0.0
1.8006182000099216,0,0,1.0893617553710937,0,0,1.1465999999999998
1.8037319210125133,0,0,-0.4644751220703125,0,0,0.68796
1.8069085490133148,0,0,2.6384102294921874,0,0,1.5288
1.81002932501724,0,0,0.02633621826171875,0,0,-0.22932
1.8131763050041627,0,0,3.1100679565429687,0,0,0.99372
1.8163015080208424,0,0,1.2497732666015624,0,0,2.06388
1.8194170810165815,0,0,-1.4149731811523436,0,0,8.7906
1.8227792250108905,0,0,3.754108203125,0,0,1.68168
1.826012649020413,0,0,-0.34715924072265625,0,0,8.7906
1.8292001650261227,0,0,2.3487118286132813,0,0,1.68168
1.8323388490243815,0,0,2.272097375488281,0,0,2.90472
1.8354557000275236,0,0,-1.85790048828125,0,0,-1.2994800000000002
1.8385775870119687,0,0,3.689464758300781,0,0,2.14032
1.8416932900145184,0,0,1.3048399047851562,0,0,-1.60524
1.8448026970145293,0,0,-1.0534487304687499,0,0,1.75812
1.84804652701132,0,0,1.8411410766601561,0,0,2.5989600000000004
1.8511650260188617,0,0,-1.3072341064453123,0,0,0.22932
1.8542820620059501,0,0,4.082113830566406,0,0,1.98744
1.8574325420195237,0,0,1.218648645019531,0,0,-1.98744
1.8605501890124287,0,0,-0.9744400756835937,0,0,2.36964
1.8636655210284516,0,0,3.873818286132812,0,0,1.37592
1.866779835021589,0,0,-0.7493851196289062,0,0,-1.911
1.869941667013336,0,0,3.478775012207031,0,0,1.1465999999999998
1.8730557400267571,0,0,1.5322890624999999,0,0,-7.94976
1.8761754980077967,0,0,-2.437297290039062,0,0,-0.53508
1.8792927930189762,0,0,3.375824340820312,0,0,1.83456
1.8824069590191357,0,0,0.02633621826171875,0,0,6.95604
1.8855184210115112,0,0,-0.5123591552734374,0,0,3.0576
1.8886333270056639,0,0,2.6336218261718747,0,0,1.37592
1.8917481780226808,0,0,-0.5219359619140624,0,0,-1.2994800000000002
1.8948669550009072,0,0,2.9735984619140625,0,0,2.82828
1.8979805090057198,0,0,1.197100830078125,0,0,-0.30576000000000003
1.9010927670169622,0,0,-1.7405846069335937,0,0,-1.98744
1.9042096550110728,0,0,2.319981408691406,0,0,2.98116
1.907324284024071,0,0,0.7661445312499999,0,0,2.14032
1.9104386720282491,0,0,-1.6711527587890624,0,0,-2.98116
1.9135523000149988,0,0,2.0063409912109376,0,0,-0.45864
1.916666762001114,0,0,3.208230224609375,0,0,1.37592
1.9198129270225763,0,0,-1.0845733520507812,0,0,-0.6115200000000001
1.922928852000041,0,0,1.5705962890624998,0,0,2.14032
1.9260438330238685,0,0,0.9265560424804687,0,0,1.37592
1.9291549980116542,0,0,-1.4508862060546874,0,0,-0.53508
1.9322706080274656,0,0,2.0829554443359375,0,0,0.91728
1.9354250700271223,0,0,1.8004396484374998,0,0,1.1465999999999998
1.9386139750131406,0,0,0.22266075439453123,0,0,-0.84084
1.941774733015336,0,0,0.033518823242187495,0,0,-0.45864
1.944888769008685,0,0,0.6488286499023437,0,0,0.53508
1.948035619017901,0,0,0.29448680419921874,0,0,0.91728
1.9511548220179975,0,0,1.7286135986328124,0,0,0.7644
1.9542715250281617,0,0,0.5961562133789062,0,0,-0.68796
1.9574246160045732,0,0,1.2713210815429687,0,0,-0.99372
1.9605429110233672,0,0,0.8116343627929687,0,0,0.84084
1.9636592990136705,0,0,-0.00239420166015625,0,0,0.22932
1.9667812600091565,0,0,0.9935936889648437,0,0,0.6115200000000001
1.9699200550094247,0,0,1.3048399047851562,0,0,0.6115200000000001
1.9730893870000727,0,0,1.2880804931640624,0,0,0.0
1.976209682004992,0,0,-0.28969840087890625,0,0,-0.91728
1.979339144018013,0,0,1.4125789794921875,0,0,0.68796
1.9824918280064594,0,0,1.0749965454101562,0,0,0.45864
1.985612549004145,0,0,-0.4213794921875,0,0,-0.22932
1.9887842320022173,0,0,1.455674609375,0,0,0.30576000000000003
1.9919016200001352,0,0,1.0007762939453124,0,0,0.7644
1.9950179150037002,0,0,-0.16519991455078123,0,0,0.15288000000000002
1.9981459320115391,0,0,1.3670891479492187,0,0,0.7644
2.001262376026716,0,0,0.6057330200195312,0,0,0.53508
2.004378264013212,0,0,0.8092401611328125,0,0,0.68796
2.007499966013711,0,0,0.6847416748046875,0,0,0.22932
2.0106208350043744,0,0,1.4245499877929686,0,0,0.45864
2.01378177801962,0,0,0.23223756103515625,0,0,-0.15288000000000002
2.0168993510014843,0,0,0.8355763793945312,0,0,0.30576000000000003
2.0200165910064243,0,0,0.9121908325195311,0,0,0.0
2.023132553003961,0,0,0.00239420166015625,0,0,0.15288000000000002
2.0262518110102974,0,0,1.6328455322265625,0,0,0.7644
2.029367032024311,0,0,0.6655880615234374,0,0,-0.30576000000000003
2.0324690870183986,0,0,0.49799394531249996,0,0,0.68796
2.0356132710003294,0,0,1.7214309936523438,0,0,0.99372
2.0387198440148495,0,0,-0.062249243164062495,0,0,-0.7644
2.041822065017186,0,0,0.9361328491210937,0,0,0.22932
2.0449185270117596,0,0,1.0869675537109373,0,0,0.68796
2.048043063026853,0,0,0.023942016601562498,0,0,0.22932
2.0511603400227614,0,0,1.1755530151367186,0,0,0.45864
2.0542771900072694,0,0,1.3527239379882812,0,0,0.91728
2.0574415780138224,0,0,0.689530078125,0,0,0.53508
2.060587595013203,0,0,0.9097966308593749,0,0,0.0
2.0637032600061502,0,0,1.3646949462890625,0,0,0.07644000000000001
2.0668214070028625,0,0,0.4644751220703125,0,0,0.22932
2.0699345550092403,0,0,1.0390835205078124,0,0,0.7644
2.074027319002198,0,0,1.2282254516601563,0,0,0.99372
2.0771278550091665,0,0,0.9241618408203125,0,0,0.68796
2.0802263550285716,0,0,1.5514426757812498,0,0,0.53508
2.08332622400485,0,0,1.2689268798828124,0,0,0.53508
2.0864383530279156,0,0,1.2713210815429687,0,0,0.84084
2.089553092024289,0,0,1.3431471313476562,0,0,1.07016
2.0926689430198167,0,0,1.177947216796875,0,0,0.3822
2.0958123310119845,0,0,1.458068811035156,0,0,0.6115200000000001
2.0992510850192048,0,0,1.2282254516601563,0,0,0.7644
2.1024413050035946,0,0,0.9313444458007812,0,0,0.99372
2.105662932008272,0,0,1.22583125,0,0,0.91728
2.108841671026312,0,0,1.0726023437499999,0,0,1.1465999999999998
2.112028151022969,0,0,1.2808978881835937,0,0,0.7644
2.115282630024012,0,0,1.2856862915039062,0,0,0.53508
2.118494331021793,0,0,1.62805712890625,0,0,0.68796
2.121711421001237,0,0,1.216254443359375,0,0,0.99372
2.1249265300284605,0,0,1.1516109985351561,0,0,0.45864
2.128138806001516,0,0,1.2401964599609374,0,0,0.84084
2.131358489015838,0,0,1.2928688964843749,0,0,0.84084
2.1345784310251474,0,0,1.0773907470703123,0,0,0.3822
2.137837223999668,0,0,1.6136919189453125,0,0,2.2931999999999997
2.1409711860178504,0,0,1.0749965454101562,0,0,0.99372
2.1440831660002004,0,0,0.9457096557617187,0,0,0.53508
2.147240035003051,0,0,1.4221557861328125,0,0,0.7644
2.1503579410200473,0,0,1.4772224243164063,0,0,0.84084
2.153472514008172,0,0,1.1659762084960936,0,0,0.6115200000000001
2.156686623027781,0,0,1.1228805786132812,0,0,0.6115200000000001
2.159759104019031,0,0,1.24498486328125,0,0,1.07016
2.16255942202406,0,0,1.2042834350585936,0,0,1.07016
2.1653547580062877,0,0,1.1923124267578125,0,0,0.91728
2.168151909019798,0,0,1.1875240234375,0,0,0.45864
2.1709488930064254,0,0,1.465251416015625,0,0,0.7644
2.1737918030121364,0,0,1.2928688964843749,0,0,1.2994800000000002
2.176588010013802,0,0,1.177947216796875,0,0,0.3822
2.1793853460112587,0,0,1.1516109985351561,0,0,0.3822
2.182182515010936,0,0,1.4604630126953124,0,0,0.68796
2.1849767220264766,0,0,1.3072341064453123,0,0,0.6115200000000001
2.187843502004398,0,0,1.209071838378906,0,0,0.68796
2.1906927070231177,0,0,1.438915197753906,0,0,0.68796
2.193489766010316,0,0,1.5562310791015623,0,0,0.84084
2.1962867690017447,0,0,1.2904746948242187,0,0,0.7644
2.1990939940151293,0,0,1.0726023437499999,0,0,1.2230400000000001
2.201891274016816,0,0,1.5227122558593749,0,0,0.68796
2.2046875180094503,0,0,1.4628572143554686,0,0,0.84084
2.207484058017144,0,0,1.1755530151367186,0,0,0.91728
2.2102843200264033,0,0,1.1372457885742187,0,0,0.30576000000000003
2.2130978220084216,0,0,1.4796166259765624,0,0,0.84084
2.215895214001648,0,0,1.39821376953125,0,0,-8.7906
2.2187007540196646,0,0,1.1611878051757811,0,0,0.68796
2.2214981090219226,0,0,1.3383587280273437,0,0,0.0
2.2242942040029448,0,0,1.5227122558593749,0,0,0.91728
2.22709070701967,0,0,1.350329736328125,0,0,0.68796
2.229889432026539,0,0,1.13006318359375,0,0,0.68796
2.232683990005171,0,0,1.2593500732421874,0,0,0.91728
2.23548001202289,0,0,1.4891934326171874,0,0,0.84084
2.2383036440005526,0,0,1.3359645263671873,0,0,0.91728
2.241098276019329,0,0,1.216254443359375,0,0,0.45864
2.243889483012026,0,0,1.3646949462890625,0,0,0.53508
2.2467132820165716,0,0,1.5370774658203123,0,0,0.53508
2.2495288210047875,0,0,1.1468225952148436,0,0,0.84084
2.2523403240193147,0,0,1.1707646118164061,0,0,0.7644
2.255140568013303,0,0,1.3934253662109375,0,0,0.6115200000000001
2.258060865016887,0,0,1.5849614990234373,0,0,0.84084
2.2610366250155494,0,0,1.1444283935546875,0,0,0.68796
2.264153531024931,0,0,1.1276689819335937,0,0,0.53508
2.2672689930186607,0,0,1.4245499877929686,0,0,2.4460800000000003
2.270385714014992,0,0,1.2856862915039062,0,0,0.84084
2.27350039902376,0,0,1.2018892333984375,0,0,0.7644
2.276617305004038,0,0,1.5179238525390624,0,0,0.7644
2.2797450440120883,0,0,1.3455413330078123,0,0,1.07016
2.282863210013602,0,0,1.1635820068359375,0,0,0.3822
2.2859767460031435,0,0,1.2928688964843749,0,0,0.84084
2.2890741340233944,0,0,1.2378022583007813,0,0,0.53508
2.2922154100087937,0,0,1.1468225952148436,0,0,0.68796
2.2953367980080657,0,0,1.1851298217773436,0,0,0.68796
2.298454464005772,0,0,1.5251064575195312,0,0,0.91728
2.301566111011198,0,0,1.235408056640625,0,0,0.91728
2.304680591012584,0,0,1.1611878051757811,0,0,0.3822
2.3077996270149015,0,0,1.235408056640625,0,0,0.99372
2.3109156630234793,0,0,1.5490484741210937,0,0,0.91728
2.3140315510099754,0,0,1.2808978881835937,0,0,0.53508
2.317144050000934,0,0,1.0845733520507812,0,0,0.68796
2.3202592529996764,0,0,1.4939818359375,0,0,0.91728
2.3233738070121035,0,0,1.2378022583007813,0,0,0.7644
2.3264907320262864,0,0,1.180341418457031,0,0,0.30576000000000003
2.3296018420078326,0,0,1.4939818359375,0,0,0.7644
2.332717841025442,0,0,1.6639701538085936,0,0,0.91728
2.3358309140021447,0,0,1.1109095703125,0,0,0.6115200000000001
2.3389453390263952,0,0,1.2593500732421874,0,0,0.07644000000000001
2.3420590230089147,0,0,1.4508862060546874,0,0,1.1465999999999998
2.345257484004833,0,0,1.1061211669921875,0,0,0.68796
2.348402594012441,0,0,1.1851298217773436,0,0,0.7644
2.3515210559999105,0,0,1.4700398193359374,0,0,0.91728
2.354637980024563,0,0,1.5059528442382812,0,0,0.84084
2.357803164020879,0,0,1.0797849487304687,0,0,0.68796
2.360916255012853,0,0,1.2497732666015624,0,0,0.68796
2.364030513999751,0,0,1.2306196533203124,0,0,0.99372
2.367167568008881,0,0,1.1180921752929687,0,0,0.84084
2.3702855110168457,0,0,1.1324573852539062,0,0,0.99372
2.3733981770055834,0,0,1.388636962890625,0,0,0.7644
2.3765121570031624,0,0,1.158793603515625,0,0,0.91728
2.3796266010031104,0,0,1.2018892333984375,0,0,0.68796
2.3828460430086125,0,0,1.2976572998046874,0,0,0.99372
2.3859650600061286,0,0,1.429338391113281,0,0,0.68796
2.3890626890060958,0,0,1.3311761230468748,0,0,0.7644
2.392184040014399,0,0,1.0989385620117187,0,0,0.6115200000000001
2.3952995390282013,0,0,1.3623007446289062,0,0,0.91728
2.3984251120127738,0,0,1.2018892333984375,0,0,0.7644
2.401542296021944,0,0,1.1731588134765625,0,0,0.68796
2.404642073001014,0,0,1.39821376953125,0,0,0.6115200000000001
2.407755720021669,0,0,1.4891934326171874,0,0,0.91728
2.41090481102583,0,0,1.0941501586914062,0,0,0.53508
2.4140160320093855,0,0,1.199495031738281,0,0,0.22932
2.4171161050035153,0,0,1.5011644409179687,0,0,1.911
2.4202342340140603,0,0,1.2306196533203124,0,0,0.7644
2.4233508620236535,0,0,1.197100830078125,0,0,0.6115200000000001
2.4264677870087326,0,0,1.4341267944335936,0,0,0.99372
2.429579582007136,0,0,1.4030021728515625,0,0,0.91728
2.4326936740253586,0,0,1.0103531005859374,0,0,0.99372
2.4358115430222824,0,0,1.1156979736328125,0,0,0.53508
2.4389944670256227,0,0,1.2737152832031249,0,0,0.68796
2.442165632004617,0,0,1.1659762084960936,0,0,0.53508
2.4453029640135355,0,0,1.199495031738281,0,0,0.45864
2.4484559440170415,0,0,1.4987702392578124,0,0,0.99372
2.451580332010053,0,0,1.2521674682617188,0,0,0.84084
2.454697349021444,0,0,1.149216796875,0,0,0.68796
2.4578531630104408,0,0,1.4101847778320311,0,0,0.68796
2.4609704760077875,0,0,1.3096283081054687,0,0,0.7644
2.464086957013933,0,0,1.1109095703125,0,0,0.84084
2.4672037890122738,0,0,1.1372457885742187,0,0,0.3822
2.4703214180190116,0,0,1.37906015625,0,0,0.91728
2.4734361020091455,0,0,1.1228805786132812,0,0,0.7644
2.4766180630249437,0,0,1.2689268798828124,0,0,0.68796
2.479743525007507,0,0,1.4101847778320311,0,0,0.91728
2.482865264028078,0,0,1.5011644409179687,0,0,0.7644
2.4864182580204215,0,0,1.0869675537109373,0,0,0.3822
2.489565442025196,0,0,1.3048399047851562,0,0,0.91728
2.492831550014671,0,0,1.2378022583007813,0,0,0.99372
2.49596882602782,0,0,1.0869675537109373,0,0,0.68796
2.4991240840172395,0,0,1.2234370483398436,0,0,0.99372
2.5022463240020443,0,0,1.350329736328125,0,0,0.91728
2.5053643960272893,0,0,1.180341418457031,0,0,0.6115200000000001
2.50846589601133,0,0,1.3168109130859373,0,0,0.6115200000000001
2.5115842830273323,0,0,1.4772224243164063,0,0,0.91728
2.5147196340258233,0,0,1.6160861206054686,0,0,0.91728
2.5179409830016084,0,0,1.1635820068359375,0,0,0.84084
2.521062649000669,0,0,1.3263877197265623,0,0,0.45864
2.524164093018044,0,0,1.2928688964843749,0,0,0.91728
2.5272826280270237,0,0,1.1037269653320312,0,0,0.84084
2.530508219002513,0,0,1.1755530151367186,0,0,20
2.533669421012746,0,0,1.5035586425781249,0,0,0.0
2.5367882900172845,0,0,1.467645617675781,0,0,0.91728
2.5398891780059785,0,0,1.1516109985351561,0,0,0.6115200000000001
2.543008918000851,0,0,1.22583125,0,0,0.84084
2.5461252680106554,0,0,1.438915197753906,0,0,0.84084
2.54924326701439,0,0,1.1851298217773436,0,0,0.7644
2.5523609700030647,0,0,1.1085153686523437,0,0,0.6115200000000001
2.5554653760045767,0,0,1.5442600708007812,0,0,0.84084
2.558581061020959,0,0,1.3311761230468748,0,0,0.7644
2.561569802026497,0,0,1.0845733520507812,0,0,0.7644
2.564378008013591,0,0,1.47482822265625,0,0,0.53508
2.5671646960254293,0,0,1.5035586425781249,0,0,0.99372
2.5701833450002596,0,0,1.180341418457031,0,0,0.84084
2.57298969902331,0,0,1.1923124267578125,0,0,0.3822
2.5757872580143157,0,0,1.2569558715820313,0,0,0.68796
2.5786346120003145,0,0,1.2928688964843749,0,0,0.7644
2.5814329480053857,0,0,1.2330138549804688,0,0,0.7644
2.584219025011407,0,0,1.1372457885742187,0,0,0.68796
2.5870141200139187,0,0,1.4796166259765624,0,0,0.84084
2.590786704007769,0,0,1.2952630981445312,0,0,0.91728
2.5936756680021062,0,0,1.218648645019531,0,0,0.6115200000000001
2.5964720970077906,0,0,1.2761094848632812,0,0,0.84084
2.599404950015014,0,0,1.3072341064453123,0,0,0.68796
2.6021901200001594,0,0,1.1109095703125,0,0,-9.172799999999999
2.6049752710096072,0,0,1.1923124267578125,0,0,0.45864
2.607757367019076,0,0,1.2593500732421874,0,0,0.6115200000000001
2.61077075600042,0,0,1.5131354492187499,0,0,0.68796
2.613550962007139,0,0,1.20667763671875,0,0,0.7644
2.61633261400857,0,0,1.180341418457031,0,0,0.68796
2.619114024011651,0,0,1.455674609375,0,0,0.6115200000000001
2.6219863220176194,0,0,1.4006079711914061,0,0,0.91728
2.624808140011737,0,0,1.1109095703125,0,0,0.68796
2.6276071240135934,0,0,1.0917559570312498,0,0,0.6115200000000001
2.6304067190212663,0,0,1.39821376953125,0,0,0.7644
2.63320283300709,0,0,1.2761094848632812,0,0,0.91728
2.636013614013791,0,0,1.2378022583007813,0,0,0.0
2.6388108570245095,0,0,1.3287819213867187,0,0,0.30576000000000003
2.6416083040239755,0,0,1.2952630981445312,0,0,0.91728
2.644434474001173,0,0,1.2856862915039062,0,0,1.2994800000000002
2.647233606025111,0,0,1.0941501586914062,0,0,0.6115200000000001
2.6500332390132826,0,0,1.4006079711914061,0,0,0.7644
2.652828482008772,0,0,1.4006079711914061,0,0,1.07016
2.655627744010417,0,0,1.189918225097656,0,0,0.53508
2.6585098200012,0,0,1.1707646118164061,0,0,0.53508
2.661388507025549,0,0,1.4700398193359374,0,0,0.84084
2.6645043210010044,0,0,1.4125789794921875,0,0,0.7644
2.6676199120120145,0,0,1.3407529296874998,0,0,0.84084
2.6707366520131472,0,0,1.1611878051757811,0,0,0.53508
2.6738486510002986,0,0,1.6328455322265625,0,0,1.1465999999999998
2.6769644460000563,0,0,0.97683427734375,0,0,0.68796
2.6800802040088456,0,0,1.0869675537109373,0,0,0.53508
2.683194370009005,0,0,1.5059528442382812,0,0,0.91728
2.6863114800071344,0,0,1.5131354492187499,0,0,0.84084
2.6894931080169044,0,0,1.3168109130859373,0,0,0.53508
2.6927891420200467,0,0,1.2234370483398436,0,0,0.53508
2.695906733017182,0,0,1.4772224243164063,0,0,0.84084
2.6990204169997014,0,0,1.1444283935546875,0,0,0.53508
2.702128935023211,0,0,1.3455413330078123,0,0,1.07016
2.7052227490057703,0,0,1.4413093994140624,0,0,0.53508
2.708345563005423,0,0,1.3024457031249999,0,0,0.99372
2.7114609130076133,0,0,1.218648645019531,0,0,0.22932
2.714577801001724,0,0,1.369483349609375,0,0,0.6115200000000001
2.7176925780077,0,0,1.3455413330078123,0,0,0.84084
2.72078859602334,0,0,1.1923124267578125,0,0,0.91728
2.723933057015529,0,0,1.2497732666015624,0,0,0.53508
2.7270460380241275,0,0,1.2593500732421874,0,0,0.7644
2.7301885920169298,0,0,1.0821791503906248,0,0,0.45864
2.733300443011103,0,0,1.0797849487304687,0,0,0.68796
2.73641346002114,0,0,1.350329736328125,0,0,0.99372
2.73952573700808,0,0,1.4149731811523436,0,0,0.7644
2.742657754017273,0,0,1.1611878051757811,0,0,0.45864
2.7457792720233556,0,0,1.2880804931640624,0,0,0.45864
2.7488934560096823,0,0,1.4796166259765624,0,0,0.45864
2.75203206500737,0,0,0.9624690673828125,0,0,0.7644
2.755135676008649,0,0,1.1851298217773436,0,0,0.84084
2.758245526027167,0,0,1.455674609375,0,0,0.7644
2.7613964320044033,0,0,1.4508862060546874,0,0,0.91728
2.7645105610135943,0,0,1.0917559570312498,0,0,0.91728
2.767624430009164,0,0,1.369483349609375,0,0,0.7644
2.7707315030274913,0,0,1.5155296508789062,0,0,0.84084
2.773879169020802,0,0,1.3215993164062498,0,0,0.68796
2.776993705017958,0,0,1.2521674682617188,0,0,1.1465999999999998
2.7801052590075415,0,0,1.4341267944335936,0,0,0.99372
2.7832179430115502,0,0,1.2306196533203124,0,0,1.07016
2.786331331008114,0,0,1.216254443359375,0,0,0.45864
2.7894405520055443,0,0,1.448492004394531,0,0,0.99372
2.792552107013762,0,0,1.2713210815429687,0,0,0.6115200000000001
2.795661291020224,0,0,1.3311761230468748,0,0,0.45864
2.7988164930138737,0,0,1.2569558715820313,0,0,0.6115200000000001
2.8019279180152807,0,0,1.3455413330078123,0,0,0.91728
2.805022120999638,0,0,1.2497732666015624,0,0,0.91728
2.8081193060206715,0,0,1.1348515869140625,0,0,0.53508
2.8112733410089277,0,0,1.6400281372070311,0,0,0.7644
2.814376174006611,0,0,1.484405029296875,0,0,0.6115200000000001
2.817471654008841,0,0,1.20667763671875,0,0,0.7644
2.820568135008216,0,0,1.2976572998046874,0,0,0.45864
2.823859761003405,0,0,1.4221557861328125,0,0,0.68796
2.827071722014807,0,0,1.1540052001953125,0,0,0.6115200000000001
2.8302866270241793,0,0,1.3263877197265623,0,0,0.7644
2.833407682017423,0,0,1.4939818359375,0,0,0.84084
2.8365237550169695,0,0,1.3024457031249999,0,0,0.7644
2.8396284570044372,0,0,1.2880804931640624,0,0,0.45864
2.842738827021094,0,0,1.4891934326171874,0,0,0.91728
2.8458645480277482,0,0,1.4867992309570313,0,0,0.91728
2.8490621939999983,0,0,1.3359645263671873,0,0,0.91728
2.852183582028374,0,0,1.2641384765625,0,0,0.7644
2.8552883580268826,0,0,1.4820108276367188,0,0,1.2230400000000001
2.8584044500021264,0,0,1.2593500732421874,0,0,0.68796
2.861554282018915,0,0,1.197100830078125,0,0,0.53508
2.8646670960006304,0,0,1.484405029296875,0,0,0.84084
2.8678122610144783,0,0,1.5035586425781249,0,0,0.84084
2.870925001014257,0,0,1.2665326782226562,0,0,0.84084
2.8740379070222843,0,0,1.2593500732421874,0,0,0.53508
2.8774186620139517,0,0,1.3239935180664062,0,0,0.45864
2.8807926580193453,0,0,1.2808978881835937,0,0,0.84084
2.8839674340269994,0,0,1.3383587280273437,0,0,0.84084
2.8870793220121413,0,0,1.484405029296875,0,0,1.1465999999999998
2.890218487009406,0,0,1.2880804931640624,0,0,1.07016
2.8933357450005133,0,0,1.0749965454101562,0,0,0.45864
2.8964349290181417,0,0,1.2928688964843749,0,0,0.68796
2.8995497430150863,0,0,1.3623007446289062,0,0,0.68796
2.90266655702726,0,0,1.218648645019531,0,0,0.68796
2.905782389017986,0,0,1.3192051147460937,0,0,0.68796
2.908896610024385,0,0,1.2808978881835937,0,0,0.91728
2.9119973320048302,0,0,1.0941501586914062,0,0,0.68796
2.9151110160164535,0,0,1.1923124267578125,0,0,0.7644
2.9182270520250313,0,0,1.4341267944335936,0,0,2.2931999999999997
2.921338440006366,0,0,1.3862427612304686,0,0,0.6115200000000001
2.924450754013378,0,0,1.1851298217773436,0,0,0.91728
2.9276602510071825,0,0,1.2330138549804688,0,0,0.7644
2.930778824025765,0,0,1.369483349609375,0,0,0.99372
2.9339204900024924,0,0,1.3551181396484375,0,0,0.68796
2.9370328960067127,0,0,1.2018892333984375,0,0,0.84084
2.9402024680166505,0,0,1.3551181396484375,0,0,0.99372
2.943376559007447,0,0,1.39821376953125,0,0,1.07016
2.9464801320282277,0,0,1.3718775512695311,0,0,0.84084
2.9495782240119297,0,0,1.3910311645507811,0,0,-9.09636
2.9526805940258782,0,0,1.4772224243164063,0,0,0.7644
2.9558117400156334,0,0,1.1444283935546875,0,0,0.68796
2.959192440001061,0,0,1.1563994018554686,0,0,0.53508
2.9623512350081,0,0,1.419761584472656,0,0,1.1465999999999998
2.9654660480155144,0,0,1.3287819213867187,0,0,0.7644
2.9685803620086517,0,0,1.177947216796875,0,0,0.68796
2.971683435025625,0,0,1.5179238525390624,0,0,0.6115200000000001
2.9747952860197984,0,0,1.4604630126953124,0,0,0.84084
2.9779127660149243,0,0,1.149216796875,0,0,0.84084
2.981026321009267,0,0,1.3024457031249999,0,0,0.45864
2.984139246022096,0,0,1.3407529296874998,0,0,0.53508
2.9872528000269085,0,0,1.1109095703125,0,0,0.91728
2.9903837620222475,0,0,1.3120225097656248,0,0,0.99372
2.993497761024628,0,0,1.3910311645507811,0,0,1.07016
2.996606390021043,0,0,1.2617442749023438,0,0,0.7644
2.999755240016384,0,0,1.2018892333984375,0,0,0.6115200000000001
3.002895609010011,0,0,1.4101847778320311,0,0,0.7644
3.005992831022013,0,0,1.2282254516601563,0,0,0.84084
3.0091260890185367,0,0,1.2378022583007813,0,0,0.6115200000000001
3.0122568840160966,0,0,1.177947216796875,0,0,0.84084
3.015387179009849,0,0,1.2641384765625,0,0,0.53508
3.018484641012037,0,0,1.1755530151367186,0,0,0.84084
3.0215778810088523,0,0,1.0773907470703123,0,0,0.7644
3.0246757870190777,0,0,1.4508862060546874,0,0,0.7644
3.0278107860067394,0,0,1.5275006591796874,0,0,0.91728
3.030906767002307,0,0,1.1563994018554686,0,0,0.68796
3.034002636006335,0,0,1.1611878051757811,0,0,0.45864
3.0370955240214244,0,0,1.4030021728515625,0,0,0.7644
3.040212894004071,0,0,1.0845733520507812,0,0,0.7644
3.0433259300189093,0,0,1.197100830078125,0,0,-9.24924
3.046443614002783,0,0,1.4604630126953124,0,0,0.91728
3.0495554090011865,0,0,1.4101847778320311,0,0,0.53508
3.0526685930090025,0,0,1.3670891479492187,0,0,0.68796
3.0558101840142626,0,0,1.0749965454101562,0,0,0.99372
3.0589225540170446,0,0,1.3646949462890625,0,0,0.68796
3.0620693860109895,0,0,1.1061211669921875,0,0,0.68796
3.0651804770168383,0,0,1.254561669921875,0,0,1.37592
3.068292198004201,0,0,1.429338391113281,0,0,0.6115200000000001
3.071405623020837,0,0,1.2785036865234374,0,0,0.91728
3.074567140021827,0,0,1.0941501586914062,0,0,0.68796
3.077683158015134,0,0,1.5227122558593749,0,0,0.91728
3.080795712012332,0,0,1.2832920898437499,0,0,0.91728
3.0839072480157483,0,0,1.2282254516601563,0,0,0.6115200000000001
3.087020562001271,0,0,1.3479355346679687,0,0,0.68796
3.0901349680207204,0,0,1.426944189453125,0,0,0.45864
3.093243727023946,0,0,1.4053963745117186,0,0,0.68796
3.0963563550030813,0,0,1.20667763671875,0,0,0.3822
3.099468169006286,0,0,1.4125789794921875,0,0,0.68796
3.1025836120243184,0,0,1.4245499877929686,0,0,1.07016
3.1056964450108353,0,0,1.3359645263671873,0,0,0.99372
3.108815425017383,0,0,1.2114660400390624,0,0,0.45864
3.111927943013143,0,0,1.4867992309570313,0,0,1.07016
3.1150402940111235,0,0,1.2018892333984375,0,0,0.7644
3.11815336701693,0,0,1.1228805786132812,0,0,0.6115200000000001
3.1212642730097286,0,0,1.4939818359375,0,0,2.2931999999999997
3.1243988090136554,0,0,1.3072341064453123,0,0,0.7644
3.127512197010219,0,0,1.1875240234375,0,0,0.68796
3.1306258070108015,0,0,1.2976572998046874,0,0,0.68796
3.133773175999522,0,0,1.2976572998046874,0,0,0.53508
3.1368867120181676,0,0,1.158793603515625,0,0,0.53508
3.139999229024397,0,0,1.1875240234375,0,0,1.07016
3.143110876000719,0,0,1.448492004394531,0,0,1.1465999999999998
3.146259801025735,0,0,1.5035586425781249,0,0,0.7644
3.149371929001063,0,0,1.1731588134765625,0,0,0.53508
3.1524840210040566,0,0,1.4867992309570313,0,0,0.45864
3.1555963720020372,0,0,1.446097802734375,0,0,0.7644
3.1587096850271337,0,0,1.158793603515625,0,0,0.45864
3.161852240009466,0,0,1.209071838378906,0,0,0.6115200000000001
3.16496581301908,0,0,1.39821376953125,0,0,0.7644
3.16807803401025,0,0,1.3000515014648437,0,0,0.68796
3.171189940010663,0,0,1.1947066284179686,0,0,0.3822
3.1743028100172523,0,0,1.3910311645507811,0,0,0.68796
3.177469826012384,0,0,1.4628572143554686,0,0,0.91728
3.1805866960203275,0,0,1.197100830078125,0,0,0.68796
3.1836997870123014,0,0,1.2976572998046874,0,0,0.45864
3.186818990012398,0,0,1.3431471313476562,0,0,0.7644
3.189953063003486,0,0,1.199495031738281,0,0,0.6115200000000001
3.1933265210245736,0,0,1.1540052001953125,0,0,1.1465999999999998
3.1964465390192345,0,0,1.4341267944335936,0,0,0.84084
3.199762869015103,0,0,1.3120225097656248,0,0,1.07016
3.202865646017017,0,0,1.13006318359375,0,0,20
3.2059627930284478,0,0,1.2928688964843749,0,0,0.0
3.209115940000629,0,0,1.2593500732421874,0,0,1.1465999999999998
3.2122649750090204,0,0,1.2593500732421874,0,0,0.7644
3.2153638260206208,0,0,1.139639990234375,0,0,0.22932
3.2184618440223858,0,0,1.2425906616210938,0,0,1.07016
3.2221763910201844,0,0,1.1540052001953125,0,0,0.7644
3.2253275380062405,0,0,1.2928688964843749,0,0,0.7644
3.228448481007945,0,0,1.4053963745117186,0,0,0.7644
3.231563258013921,0,0,1.3838485595703125,0,0,0.84084
3.2346799050283153,0,0,1.1755530151367186,0,0,0.7644
3.2377908110211138,0,0,1.3527239379882812,0,0,0.53508
3.240906069026096,0,0,1.2521674682617188,0,0,0.6115200000000001
3.2440154570213053,0,0,1.0941501586914062,0,0,0.6115200000000001
3.247158993006451,0,0,1.2497732666015624,0,0,0.68796
3.250276566017419,0,0,1.3670891479492187,0,0,0.91728
3.253389491001144,0,0,1.1516109985351561,0,0,0.53508
3.2565043050271925,0,0,1.0917559570312498,0,0,0.53508
3.2596286550106015,0,0,1.2785036865234374,0,0,0.6115200000000001
3.262779061013134,0,0,1.5514426757812498,0,0,0.7644
3.2659258560161106,0,0,1.3168109130859373,0,0,2.14032
3.2690396700054407,0,0,1.1180921752929687,0,0,0.3822
3.2721582430240232,0,0,1.3814543579101561,0,0,0.7644
3.2752705570019316,0,0,1.2425906616210938,0,0,0.6115200000000001
3.27841425902443,0,0,1.0869675537109373,0,0,0.6115200000000001
3.2815245360252447,0,0,1.4125789794921875,0,0,0.84084
3.2846378490212373,0,0,1.5083470458984374,0,0,-9.09636
3.287754904013127,0,0,1.180341418457031,0,0,0.7644
3.29086816200288,0,0,1.2569558715820313,0,0,0.68796
3.2939815310237464,0,0,1.2689268798828124,0,0,0.68796
3.2970923270040657,0,0,1.0749965454101562,0,0,0.6115200000000001
3.300203289021738,0,0,1.209071838378906,0,0,1.1465999999999998
3.3033161950006615,0,0,1.4796166259765624,0,0,0.84084
3.3064293790084776,0,0,1.3718775512695311,0,0,1.07016
3.309539712005062,0,0,1.0989385620117187,0,0,0.53508
3.3126513220195193,0,0,1.5203180541992187,0,0,0.68796
3.315768376021879,0,0,1.3144167114257812,0,0,0.91728
3.318890412017936,0,0,1.2497732666015624,0,0,0.6115200000000001
3.3220208920247387,0,0,1.2808978881835937,0,0,0.68796
3.3251335580134764,0,0,1.3838485595703125,0,0,1.07016
3.328244890028145,0,0,1.0965443603515623,0,0,0.6115200000000001
3.3313576300279237,0,0,1.1827356201171875,0,0,0.6115200000000001
3.3344712590042036,0,0,1.4700398193359374,0,0,0.91728
3.3375800350040663,0,0,1.3862427612304686,0,0,0.99372
3.3406914970255457,0,0,1.2832920898437499,0,0,0.7644
3.3438943660003133,0,0,1.2425906616210938,0,0,0.3822
3.347010716010118,0,0,1.4915876342773438,0,0,1.83456
3.350132604013197,0,0,1.24498486328125,0,0,0.84084
3.3532427880272735,0,0,1.216254443359375,0,0,0.7644
3.356355343014002,0,0,1.4772224243164063,0,0,1.07016
3.3594664720003493,0,0,1.2713210815429687,0,0,1.07016
3.362614822020987,0,0,1.1851298217773436,0,0,0.7644
3.3658004870230798,0,0,1.24498486328125,0,0,0.7644
3.368913986021653,0,0,1.3407529296874998,0,0,0.7644
3.3720266700256616,0,0,1.189918225097656,0,0,0.68796
3.3751384839997627,0,0,1.3192051147460937,0,0,0.99372
3.378287501021987,0,0,1.4532804077148436,0,0,1.07016
3.381411537004169,0,0,1.1420341918945311,0,0,0.6115200000000001
3.384588998014806,0,0,1.0726023437499999,0,0,0.6115200000000001
3.387702997017186,0,0,1.24498486328125,0,0,0.53508
3.3908471060276497,0,0,1.3455413330078123,0,0,0.91728
3.3939618650183547,0,0,1.3766659545898436,0,0,0.68796
3.3970690670248587,0,0,1.2641384765625,0,0,0.0
3.4002137330244295,0,0,1.2880804931640624,0,0,1.1465999999999998
3.4033128800219856,0,0,1.1420341918945311,0,0,0.68796
3.406410360010341,0,0,1.177947216796875,0,0,0.91728
3.4095342850196175,0,0,1.5083470458984374,0,0,0.91728
3.412672617007047,0,0,1.426944189453125,0,0,0.84084
3.415808857011143,0,0,1.20667763671875,0,0,1.07016
3.4189063560042996,0,0,1.2473790649414063,0,0,0.91728
3.422022670012666,0,0,1.5275006591796874,0,0,0.6115200000000001
3.4251152430078946,0,0,1.2713210815429687,0,0,0.68796
3.428211779013509,0,0,1.3766659545898436,0,0,1.07016
3.431307723018108,0,0,1.3575123413085937,0,0,0.99372
3.4344175000151154,0,0,1.2306196533203124,0,0,1.07016
3.4375308690068778,0,0,1.2306196533203124,0,0,0.7644
3.440631868026685,0,0,1.2497732666015624,0,0,0.68796
3.443831829004921,0,0,1.3718775512695311,0,0,0.7644
3.447090919013135,0,0,1.1372457885742187,0,0,0.7644
3.450211603019852,0,0,1.3263877197265623,0,0,0.30576000000000003
3.453323157009436,0,0,1.235408056640625,0,0,0.84084
3.456421175011201,0,0,1.2114660400390624,0,0,0.53508
3.4595358590013348,0,0,1.209071838378906,0,0,0.53508
3.4626530060195364,0,0,1.465251416015625,0,0,0.91728
3.465799245022936,0,0,1.3910311645507811,0,0,0.84084
3.468893041019328,0,0,1.1085153686523437,0,0,0.53508
3.4719894290028606,0,0,1.2641384765625,0,0,0.68796
3.475102502008667,0,0,1.458068811035156,0,0,0.7644
3.478316500026267,0,0,1.3623007446289062,0,0,0.84084
3.481428388011409,0,0,1.1468225952148436,0,0,1.1465999999999998
3.4845416830212343,0,0,1.4149731811523436,0,0,0.45864
3.4876532000198495,0,0,1.3000515014648437,0,0,0.99372
3.490766644012183,0,0,1.3575123413085937,0,0,0.6115200000000001
3.493915550003294,0,0,1.5107412475585937,0,0,0.84084
3.4970258270041086,0,0,1.4939818359375,0,0,0.7644
3.5001463620283175,0,0,1.2018892333984375,0,0,0.53508
3.503641820017947,0,0,1.1755530151367186,0,0,0.45864
3.5067665410169866,0,0,1.4413093994140624,0,0,0.84084
3.509921169024892,0,0,1.3335703247070312,0,0,0.53508
3.5130355750152376,0,0,1.2497732666015624,0,0,0.53508
3.51613544501015,0,0,1.484405029296875,0,0,0.99372
3.5192812210007105,0,0,1.4987702392578124,0,0,0.99372
3.522399220004445,0,0,1.0749965454101562,0,0,0.91728
3.525512238004012,0,0,1.2928688964843749,0,0,0.68796
3.5286253110098187,0,0,1.2401964599609374,0,0,0.53508
3.5317269760125782,0,0,1.1276689819335937,0,0,0.68796
3.5348722340131644,0,0,1.197100830078125,0,0,1.1465999999999998
3.5379905850277282,0,0,1.4508862060546874,0,0,0.68796
3.5411263610003516,0,0,1.3527239379882812,0,0,1.2230400000000001
3.5442418420279864,0,0,1.2042834350585936,0,0,0.6115200000000001
3.5473546370049007,0,0,1.35990654296875,0,0,0.84084
3.5504672100069,0,0,1.448492004394531,0,0,0.91728
3.5541582760051824,0,0,1.1659762084960936,0,0,0.6115200000000001
3.557419403019594,0,0,1.3120225097656248,0,0,0.3822
3.5605222350277472,0,0,1.1923124267578125,0,0,0.68796
3.5636217720166314,0,0,1.1085153686523437,0,0,0.84084
3.566755826002918,0,0,1.0606313354492187,0,0,0.91728
3.5698979730077554,0,0,1.4149731811523436,0,0,0.84084
3.5730131010059267,0,0,1.2330138549804688,0,0,0.99372
3.5761296370183118,0,0,1.24498486328125,0,0,0.7644
3.579233025026042,0,0,1.2928688964843749,0,0,0.7644
3.582341024011839,0,0,1.5251064575195312,0,0,0.91728
3.5854538190178573,0,0,1.0965443603515623,0,0,0.68796
3.588566874008393,0,0,1.0797849487304687,0,0,0.68796
3.5916785210138187,0,0,1.4820108276367188,0,0,0.84084
3.5947886500216555,0,0,1.1731588134765625,0,0,0.99372
3.597989222005708,0,0,1.1037269653320312,0,0,0.53508
3.6010887950251345,0,0,1.235408056640625,0,0,0.91728
3.6041876830277033,0,0,1.5011644409179687,0,0,0.84084
3.6072841080022044,0,0,1.1707646118164061,0,0,0.84084
3.610389181005303,0,0,1.1947066284179686,0,0,0.30576000000000003
3.613527661014814,0,0,1.4125789794921875,0,0,0.7644
3.6166263640043326,0,0,1.3144167114257812,0,0,0.6115200000000001
3.6197441410040483,0,0,1.0965443603515623,0,0,0.53508
3.6228586950164754,0,0,1.4963760375976562,0,0,1.1465999999999998
3.625967843021499,0,0,1.4317325927734375,0,0,0.99372
3.6290793790249154,0,0,1.1228805786132812,0,0,0.53508
3.6321911920094863,0,0,1.1085153686523437,0,0,1.07016
3.6353028580197133,0,0,1.3239935180664062,0,0,0.3822
3.63841728301486,0,0,1.0965443603515623,0,0,0.84084
3.6415257260086946,0,0,1.16837041015625,0,0,1.37592
3.644637355027953,0,0,1.3766659545898436,0,0,0.91728
3.647750817006454,0,0,1.177947216796875,0,0,1.2230400000000001
3.650861853006063,0,0,1.0845733520507812,0,0,0.68796
3.6539748150098603,0,0,1.235408056640625,0,0,0.91728
3.657083592028357,0,0,1.5083470458984374,0,0,1.2994800000000002
3.6603005890210625,0,0,1.35990654296875,0,0,0.6115200000000001
3.663420107011916,0,0,1.2569558715820313,0,0,-9.32568
3.6665707350184675,0,0,1.39821376953125,0,0,0.91728
3.669683790009003,0,0,1.1276689819335937,0,0,0.7644
3.6728217510099057,0,0,1.2665326782226562,0,0,0.53508
3.6759353240195196,0,0,1.388636962890625,0,0,0.99372
3.6790463230281603,0,0,1.6639701538085936,0,0,0.6115200000000001
3.6821598220267333,0,0,1.1085153686523437,0,0,0.91728
3.6852697290014476,0,0,1.120486376953125,0,0,0.3822
3.688381265004864,0,0,1.3000515014648437,0,0,0.91728
3.691502597008366,0,0,1.2210428466796874,0,0,0.45864
3.6947073730116244,0,0,1.0797849487304687,0,0,0.84084
3.697859945008531,0,0,1.5777788940429687,0,0,0.6115200000000001
3.701127868000185,0,0,1.3527239379882812,0,0,0.99372
3.7043186990194954,0,0,1.2832920898437499,0,0,0.68796
3.7074361980194226,0,0,1.2569558715820313,0,0,0.53508
3.7105529200052842,0,0,1.3766659545898436,0,0,0.53508
3.7136671040207148,0,0,1.3048399047851562,0,0,0.84084
3.7167932690063026,0,0,1.1635820068359375,0,0,0.22932
3.71991071299999,0,0,1.3670891479492187,0,0,1.07016
3.7230283040262293,0,0,1.199495031738281,0,0,0.68796
3.7264701510139275,0,0,1.0917559570312498,0,0,0.99372
3.729668334010057,0,0,1.4149731811523436,0,0,1.1465999999999998
3.732785907021025,0,0,1.2330138549804688,0,0,0.7644
3.7358951100031845,0,0,1.0749965454101562,0,0,0.68796
3.73900092401891,0,0,1.2593500732421874,0,0,0.7644
3.74210523700458,0,0,1.3287819213867187,0,0,0.53508
3.745210848021088,0,0,1.1707646118164061,0,0,-9.09636
3.7483193470106926,0,0,1.2210428466796874,0,0,0.99372
3.751424105023034,0,0,1.675941162109375,0,0,0.68796
3.754529882018687,0,0,1.16837041015625,0,0,0.7644
3.7576740290096495,0,0,1.1947066284179686,0,0,0.53508
3.7607821940036956,0,0,1.4963760375976562,0,0,0.84084
3.763886953005567,0,0,1.5682020874023437,0,0,0.99372
3.7670226550253574,0,0,1.2401964599609374,0,0,0.30576000000000003
3.7701269130047876,0,0,1.1156979736328125,0,0,0.53508
3.7732302830263507,0,0,1.4053963745117186,0,0,0.99372
3.776333652000176,0,0,1.1133037719726562,0,0,-8.943480000000001
3.779482984013157,0,0,1.2018892333984375,0,0,0.68796
3.7825925390061457,0,0,1.5011644409179687,0,0,0.91728
3.7857210010115523,0,0,1.4915876342773438,0,0,0.91728
3.7888269440154545,0,0,1.3263877197265623,0,0,0.45864
3.7919321470253635,0,0,1.2928688964843749,0,0,0.30576000000000003
3.795036961004371,0,0,1.369483349609375,0,0,0.6115200000000001
3.798148960020626,0,0,1.0773907470703123,0,0,0.68796
3.801264366018586,0,0,1.13006318359375,0,0,0.91728
3.804399717017077,0,0,1.4245499877929686,0,0,0.7644
3.807505734002916,0,0,1.3623007446289062,0,0,0.84084
3.810610381013248,0,0,1.189918225097656,0,0,0.6115200000000001
3.8137173430004623,0,0,1.2808978881835937,0,0,0.68796
3.8168387680198066,0,0,1.5203180541992187,0,0,0.6115200000000001
3.8199434710259084,0,0,1.1851298217773436,0,0,0.53508
3.8231109880143777,0,0,1.0869675537109373,0,0,0.68796
3.8263808550254907,0,0,1.4700398193359374,0,0,1.07016
3.829906220023986,0,0,1.216254443359375,0,0,0.45864
3.8331096800102387,0,0,1.2282254516601563,0,0,0.84084
3.8362141610123217,0,0,1.5083470458984374,0,0,0.91728
3.8393177340039983,0,0,1.458068811035156,0,0,0.91728
3.84242084401194,0,0,1.2234370483398436,0,0,0.7644
3.8455219180032145,0,0,1.35990654296875,0,0,0.53508
3.8486262680089567,0,0,1.3383587280273437,0,0,0.7644
3.851728082023328,0,0,1.350329736328125,0,0,0.3822
3.8548685630084947,0,0,1.120486376953125,0,0,0.91728
3.858048301015515,0,0,1.4628572143554686,0,0,0.91728
3.861598221003078,0,0,1.1875240234375,0,0,0.53508
3.8647115160129033,0,0,1.2018892333984375,0,0,0.3822
3.867848200025037,0,0,1.4867992309570313,0,0,0.91728
3.8709506440209225,0,0,1.4437036010742186,0,0,1.07016
3.874053902021842,0,0,1.1085153686523437,0,0,0.91728
3.877189419028582,0,0,1.3335703247070312,0,0,0.3822
3.8802936780266464,0,0,1.484405029296875,0,0,0.91728
3.883395658020163,0,0,1.158793603515625,0,0,0.84084
3.886502046021633,0,0,1.1348515869140625,0,0,0.99372
3.889601360016968,0,0,1.43652099609375,0,0,0.91728
3.8928468570229597,0,0,1.4939818359375,0,0,0.84084
3.8959716710087378,0,0,1.0989385620117187,0,0,0.53508
3.899090929015074,0,0,1.3024457031249999,0,0,0.6115200000000001
3.9022016130038537,0,0,1.3072341064453123,0,0,0.91728
3.9052953900245484,0,0,1.2018892333984375,0,0,0.68796
3.9084147780085914,0,0,1.1468225952148436,0,0,1.1465999999999998
3.911527851014398,0,0,1.438915197753906,0,0,0.6115200000000001
3.9146627760201227,0,0,1.1755530151367186,0,0,0.68796
3.917781793017639,0,0,1.1540052001953125,0,0,0.68796
3.9208950890169945,0,0,1.2785036865234374,0,0,0.53508
3.9240089950035326,0,0,1.2330138549804688,0,0,0.7644
3.927122346009128,0,0,1.3000515014648437,0,0,0.53508
3.930236363026779,0,0,1.20667763671875,0,0,0.3822
3.9333472510043066,0,0,1.3263877197265623,0,0,1.1465999999999998
3.9364857680047862,0,0,1.1731588134765625,0,0,0.45864
3.9396023970039096,0,0,1.0869675537109373,0,0,0.7644
3.9428129870211706,0,0,1.618480322265625,0,0,1.2230400000000001
3.946025504003046,0,0,1.388636962890625,0,0,0.6115200000000001
3.9491480020224117,0,0,1.1324573852539062,0,0,0.6115200000000001
3.9522684270050377,0,0,1.3527239379882812,0,0,0.99372
3.955372945027193,0,0,1.2713210815429687,0,0,0.53508
3.9584851850231644,0,0,1.35990654296875,0,0,0.6115200000000001
3.9616003690171055,0,0,1.2976572998046874,0,0,0.99372
3.9647176270082127,0,0,1.5083470458984374,0,0,0.84084
3.9678695700131357,0,0,1.3646949462890625,0,0,0.91728
3.9709738650126383,0,0,1.0845733520507812,0,0,0.7644
3.9740818640275393,0,0,1.2641384765625,0,0,0.68796
3.9771951410220936,0,0,1.4820108276367188,0,0,0.84084
3.980307714024093,0,0,1.0821791503906248,0,0,0.68796
3.9834217130264733,0,0,1.1731588134765625,0,0,0.15288000000000002
3.9865371940250043,0,0,1.4772224243164063,0,0,0.91728
3.9896513410203625,0,0,1.209071838378906,0,0,0.68796
3.992763914022362,0,0,1.2114660400390624,0,0,0.53508
3.995876135013532,0,0,1.4317325927734375,0,0,0.91728
3.9993137780111283,0,0,1.484405029296875,0,0,0.99372
4.002434277004795,0,0,1.1875240234375,0,0,0.7644
4.00552964702365,0,0,1.2473790649414063,0,0,0.84084
4.008625516027678,0,0,1.2952630981445312,0,0,0.6115200000000001
4.0117679410032,0,0,1.1659762084960936,0,0,0.7644
4.014927346026525,0,0,1.2497732666015624,0,0,1.45236
4.018025938014034,0,0,1.4341267944335936,0,0,0.53508
4.021120141027495,0,0,1.4341267944335936,0,0,0.84084
4.024215418001404,0,0,1.2976572998046874,0,0,0.45864
4.027313362021232,0,0,1.4604630126953124,0,0,0.91728
4.030422768002609,0,0,1.5107412475585937,0,0,1.2230400000000001
4.033537823008373,0,0,1.2808978881835937,0,0,0.45864
4.036651525006164,0,0,1.3646949462890625,0,0,0.45864
4.039766432018951,0,0,1.4628572143554686,0,0,0.84084
4.042878875014139,0,0,1.3144167114257812,0,0,0.6115200000000001
4.04599422600586,0,0,1.3287819213867187,0,0,0.53508
4.049107206024928,0,0,1.43652099609375,0,0,0.84084
4.052220372017473,0,0,1.4987702392578124,0,0,1.07016
4.055342889012536,0,0,1.3192051147460937,0,0,0.53508
4.058455981023144,0,0,1.2880804931640624,0,0,0.45864
4.0615660910261795,0,0,1.2808978881835937,0,0,1.98744
4.064679533999879,0,0,1.0917559570312498,0,0,0.7644
4.067875921027735,0,0,1.1468225952148436,0,0,0.7644
4.070990180014633,0,0,1.465251416015625,0,0,0.53508
4.074159993004287,0,0,1.3168109130859373,0,0,1.07016
4.077552303002449,0,0,1.120486376953125,0,0,0.6115200000000001
4.08067380200373,0,0,1.350329736328125,0,0,0.6115200000000001
4.0838277820148505,0,0,1.3096283081054687,0,0,0.68796
4.086943133006571,0,0,1.2306196533203124,0,0,0.68796
4.090057021006942,0,0,1.3072341064453123,0,0,0.84084
4.093169890024001,0,0,1.369483349609375,0,0,0.99372
4.0962825560127385,0,0,1.1324573852539062,0,0,0.6115200000000001
4.099395795026794,0,0,1.2138602416992186,0,0,-9.40212
4.102512905024923,0,0,1.4341267944335936,0,0,0.84084
4.105658885004232,0,0,1.4125789794921875,0,0,0.68796
4.108774366002763,0,0,1.3335703247070312,0,0,0.99372
4.111914883018471,0,0,1.369483349609375,0,0,0.6115200000000001
4.115028123022057,0,0,1.2785036865234374,0,0,0.91728
4.11814167702687,0,0,1.2042834350585936,0,0,0.45864
4.1212526020244695,0,0,1.0941501586914062,0,0,0.84084
4.124365397001384,0,0,1.4101847778320311,0,0,0.7644
4.127477082016412,0,0,1.4963760375976562,0,0,1.07016
4.130591803026618,0,0,1.158793603515625,0,0,0.68796
4.1337043570238166,0,0,1.3407529296874998,0,0,0.84084
4.136817541002529,0,0,1.3407529296874998,0,0,1.98744
4.139930652017938,0,0,1.3311761230468748,0,0,0.7644
4.1430441880074795,0,0,1.3551181396484375,0,0,0.68796
4.146160594013054,0,0,1.235408056640625,0,0,0.91728
4.149272722017486,0,0,1.3239935180664062,0,0,0.99372
4.152384314016672,0,0,1.0773907470703123,0,0,0.22932
4.1554963320086244,0,0,1.3814543579101561,0,0,1.07016
4.158659515000181,0,0,1.37906015625,0,0,0.91728
4.161777866014745,0,0,1.1923124267578125,0,0,0.99372
4.164892180007882,0,0,1.1444283935546875,0,0,0.53508
4.168039771000622,0,0,1.22583125,0,0,0.68796
4.171163436025381,0,0,1.158793603515625,0,0,0.6115200000000001
4.174278472026344,0,0,1.2713210815429687,0,0,0.7644
4.177388119016541,0,0,1.3934253662109375,0,0,1.07016
4.180500767019112,0,0,1.5346832641601562,0,0,0.7644
4.18361302500125,0,0,1.3575123413085937,0,0,0.7644
4.186727950000204,0,0,1.235408056640625,0,0,0.30576000000000003
4.189841226005228,0,0,1.2330138549804688,0,0,0.68796
4.194281302014133,0,0,1.158793603515625,0,0,0.68796
4.197536095016403,0,0,1.2808978881835937,0,0,0.91728
4.201048775023082,0,0,1.35990654296875,0,0,0.99372
4.204178236017469,0,0,1.3575123413085937,0,0,0.68796
4.20729684602702,0,0,1.254561669921875,0,0,0.84084
4.210412549000466,0,0,1.39821376953125,0,0,0.99372
4.21355984400725,0,0,1.2521674682617188,0,0,0.68796
4.216674880008213,0,0,1.0869675537109373,0,0,0.68796
4.219829508016119,0,0,1.429338391113281,0,0,0.84084
4.222943859000225,0,0,1.484405029296875,0,0,1.1465999999999998
4.226060136017622,0,0,1.209071838378906,0,0,1.07016
4.229174949025037,0,0,1.2617442749023438,0,0,0.3822
4.232289467006922,0,0,1.3551181396484375,0,0,0.7644
4.235403632017551,0,0,1.216254443359375,0,0,0.84084
4.238519372011069,0,0,1.0941501586914062,0,0,0.6115200000000001
4.241664704022696,0,0,1.5227122558593749,0,0,0.91728
4.24478257301962,0,0,1.4437036010742186,0,0,1.07016
4.247906628006604,0,0,1.149216796875,0,0,0.7644
4.251022738026222,0,0,1.2737152832031249,0,0,0.68796
4.254137200012337,0,0,1.5179238525390624,0,0,0.53508
4.257248291018186,0,0,1.0797849487304687,0,0,0.45864
4.260364068002673,0,0,1.3311761230468748,0,0,1.37592
4.263476326013915,0,0,1.426944189453125,0,0,0.6115200000000001
4.266591955005424,0,0,1.4724340209960938,0,0,0.99372
4.269808804005152,0,0,1.1180921752929687,0,0,0.68796
4.272930025006644,0,0,1.4772224243164063,0,0,0.53508
4.276044543017633,0,0,1.438915197753906,0,0,0.7644
4.2791592640278395,0,0,1.13006318359375,0,0,0.6115200000000001
4.282275374018354,0,0,1.2856862915039062,0,0,0.30576000000000003
4.285386058007134,0,0,1.3551181396484375,0,0,0.91728
4.28862076002406,0,0,1.2114660400390624,0,0,0.68796
4.291733462014236,0,0,1.0749965454101562,0,0,0.53508
4.294870202022139,0,0,1.2880804931640624,0,0,0.84084
4.297976775007555,0,0,1.4915876342773438,0,0,0.7644
4.301076885021757,0,0,1.1659762084960936,0,0,0.6115200000000001
4.304182457999559,0,0,1.2832920898437499,0,0,0.53508
4.307285494025564,0,0,1.0965443603515623,0,0,0.7644
4.310418475011829,0,0,1.1276689819335937,0,0,0.6115200000000001
4.313519696006551,0,0,1.3407529296874998,0,0,0.91728
4.316622491023736,0,0,1.4006079711914061,0,0,0.68796
4.319724694010802,0,0,1.4101847778320311,0,0,0.6115200000000001
4.322871989017585,0,0,1.1875240234375,0,0,0.6115200000000001
4.325977025000611,0,0,1.235408056640625,0,0,0.84084
4.329074969020439,0,0,1.254561669921875,0,0,0.6115200000000001
4.3321978750173,0,0,1.1851298217773436,0,0,0.53508
4.335298763005994,0,0,1.35990654296875,0,0,1.1465999999999998
4.338401688000886,0,0,1.5083470458984374,0,0,0.99372
4.341805795003893,0,0,1.1420341918945311,0,0,0.6115200000000001
4.34491103401524,0,0,1.2378022583007813,0,0,0.6115200000000001
4.348015145020327,0,0,1.4030021728515625,0,0,0.91728
4.3511189770069905,0,0,1.5155296508789062,0,0,0.53508
4.354223624017322,0,0,1.1540052001953125,0,0,0.7644
4.357323771022493,0,0,1.350329736328125,0,0,0.30576000000000003
4.3604261970031075,0,0,1.5203180541992187,0,0,0.84084
4.363556769007118,0,0,1.1085153686523437,0,0,2.06388
4.366663139022421,0,0,1.2210428466796874,0,0,0.68796
4.369800619024318,0,0,1.4820108276367188,0,0,0.91728
4.372902470000554,0,0,1.3623007446289062,0,0,0.91728
4.376004913006909,0,0,1.1420341918945311,0,0,0.53508
4.379150116001256,0,0,1.4915876342773438,0,0,0.6115200000000001
4.3822555410151836,0,0,1.3168109130859373,0,0,0.68796
4.386375694011804,0,0,1.0749965454101562,0,0,0.6115200000000001
4.389498526026728,0,0,1.0965443603515623,0,0,0.99372
4.39260115500656,0,0,1.2641384765625,0,0,0.68796
4.3957179870049,0,0,1.0869675537109373,0,0,0.84084
4.3988673929998185,0,0,1.2641384765625,0,0,0.68796
4.402002262009773,0,0,1.4317325927734375,0,0,0.84084
4.405121817020699,0,0,1.2976572998046874,0,0,0.99372
4.408223223028472,0,0,1.13006318359375,0,0,0.99372
4.411367537017213,0,0,1.2713210815429687,0,0,0.68796
4.414488424023148,0,0,1.16837041015625,0,0,0.68796
4.41760368301766,0,0,1.2617442749023438,0,0,0.45864
4.420731867023278,0,0,1.2497732666015624,0,0,0.7644
4.423862421012018,0,0,1.2473790649414063,0,0,0.7644
4.426975864014821,0,0,1.1875240234375,0,0,0.6115200000000001
4.4300932890037075,0,0,1.1109095703125,0,0,0.45864
4.433203881024383,0,0,1.3742717529296875,0,0,0.7644
4.43631830601953,0,0,1.4891934326171874,0,0,0.6115200000000001
4.43943187900004,0,0,1.0989385620117187,0,0,0.68796
4.442546489008237,0,0,1.3646949462890625,0,0,0.30576000000000003
4.445848856004886,0,0,1.2569558715820313,0,0,0.99372
4.449071853014175,0,0,1.197100830078125,0,0,0.6115200000000001
4.452196630008984,0,0,1.1324573852539062,0,0,1.1465999999999998
4.4553117400209885,0,0,1.4915876342773438,0,0,0.99372
4.458441406022757,0,0,1.3862427612304686,0,0,0.7644
4.461553090019152,0,0,1.2808978881835937,0,0,0.53508
4.46470544001204,0,0,1.429338391113281,0,0,0.91728
4.4678211610007565,0,0,1.4006079711914061,0,0,0.7644
4.470974752010079,0,0,1.3359645263671873,0,0,0.3822
4.47409028801485,0,0,1.177947216796875,0,0,0.84084
4.4772450090094935,0,0,1.3814543579101561,0,0,0.7644
4.480359341017902,0,0,1.3024457031249999,0,0,0.6115200000000001
4.4834816550137475,0,0,1.197100830078125,0,0,0.7644
4.486602821009001,0,0,1.4245499877929686,0,0,1.07016
4.489713690010831,0,0,1.5107412475585937,0,0,0.7644
4.4928274110134225,0,0,1.3407529296874998,0,0,0.99372
4.49594191001961,0,0,1.3455413330078123,0,0,0.84084
4.499061279027956,0,0,1.3670891479492187,0,0,0.99372
