Time,AccelX1,AccelY1,AccelZ1,AccelX2,AccelY2,AccelZ2
2.333021257072687e-06,0,0,1.3215993164062498,0,0,1.07016
0.001471743016736582,0,0,1.2282254516601563,0,0,0.84084
0.002863246016204357,0,0,1.2928688964843749,0,0,0.7644
0.004260008019628003,0,0,1.2904746948242187,0,0,0.7644
0.005668660014634952,0,0,1.3551181396484375,0,0,0.91728
0.007106107019353658,0,0,1.465251416015625,0,0,0.6115200000000001
0.008533165004337206,0,0,1.4820108276367188,0,0,0.45864
0.009923724021064118,0,0,1.3575123413085937,0,0,1.1465999999999998
0.011314561008475721,0,0,1.1755530151367186,0,0,1.07016
0.012708398018730804,0,0,1.2856862915039062,0,0,0.84084
0.014096364000579342,0,0,1.1707646118164061,0,0,1.07016
0.015484663017559797,0,0,1.3168109130859373,0,0,1.2994800000000002
0.016872314998181537,0,0,1.3287819213867187,0,0,1.2230400000000001
0.018259689008118585,0,0,1.5203180541992187,0,0,0.7644
0.01966389501467347,0,0,1.3383587280273437,0,0,0.7644
0.021051158022601157,0,0,1.426944189453125,0,0,0.91728
0.02243895799620077,0,0,1.2473790649414063,0,0,0.68796
0.02382979402318597,0,0,1.2832920898437499,0,0,0.84084
0.025217372021870688,0,0,1.2689268798828124,0,0,0.68796
0.026605320017552003,0,0,1.2473790649414063,0,0,0.84084
0.027992656017886475,0,0,1.2785036865234374,0,0,0.84084
0.029447825014358386,0,0,1.4724340209960938,0,0,0.84084
0.03089367999928072,0,0,1.2617442749023438,0,0,0.91728
0.03234727500239387,0,0,1.2473790649414063,0,0,0.84084
0.033737908001057804,0,0,1.1707646118164061,0,0,1.07016
0.03512965200934559,0,0,1.2689268798828124,0,0,0.7644
0.03651456302031875,0,0,1.2306196533203124,0,0,1.07016
0.03790232600294985,0,0,1.4987702392578124,0,0,0.68796
0.039296144008403644,0,0,1.4963760375976562,0,0,0.68796
0.040681054000742733,0,0,1.3096283081054687,0,0,0.99372
0.04206742800306529,0,0,1.3239935180664062,0,0,0.99372
0.0434542830043938,0,0,1.1133037719726562,0,0,0.53508
0.04484008302097209,0,0,1.1228805786132812,0,0,1.07016
0.04622727201785892,0,0,1.2234370483398436,0,0,1.07016
0.04761421901639551,0,0,1.2880804931640624,0,0,0.84084
0.04900253700907342,0,0,1.4245499877929686,0,0,0.99372
0.05038915202021599,0,0,1.5251064575195312,0,0,1.1465999999999998
0.0517759149952326,0,0,1.2282254516601563,0,0,0.99372
0.05316151000442915,0,0,1.3431471313476562,0,0,0.45864
0.05454725501476787,0,0,1.0965443603515623,0,0,1.1465999999999998
0.055935036012670025,0,0,1.22583125,0,0,0.99372
0.0573223720130045,0,0,1.1875240234375,0,0,0.84084
0.058708246011519805,0,0,1.2761094848632812,0,0,0.45864
0.06009600902325474,0,0,1.3958195678710936,0,0,0.84084
0.06148436400690116,0,0,1.4221557861328125,0,0,0.53508
0.06287060800241306,0,0,1.2330138549804688,0,0,0.99372
0.06425855599809438,0,0,1.2641384765625,0,0,0.84084
0.06564437400083989,0,0,1.1444283935546875,0,0,1.07016
0.06703139599994756,0,0,1.2617442749023438,0,0,0.7644
0.06841813999926671,0,0,1.1827356201171875,0,0,0.84084
0.0698038840200752,0,0,1.2952630981445312,0,0,1.07016
0.07118938700295985,0,0,1.446097802734375,0,0,0.6115200000000001
0.07262294599786401,0,0,1.22583125,0,0,0.68796
0.07401389299775474,0,0,1.4508862060546874,0,0,1.1465999999999998
0.07540097102173604,0,0,1.2330138549804688,0,0,0.7644
0.07678765899618156,0,0,1.2904746948242187,0,0,0.91728
0.07818790301098488,0,0,1.197100830078125,0,0,0.91728
0.07957951800199226,0,0,1.2952630981445312,0,0,0.7644
0.0810444280214142,0,0,1.438915197753906,0,0,1.1465999999999998
0.08251639301306568,0,0,1.4413093994140624,0,0,1.2230400000000001
0.08391087802010588,0,0,1.2952630981445312,0,0,0.99372
0.08529854801599868,0,0,1.39821376953125,0,0,0.68796
0.08668521800427698,0,0,1.3168109130859373,0,0,1.07016
0.08807190600782633,0,0,1.2832920898437499,0,0,0.68796
0.08945905801374465,0,0,1.3000515014648437,0,0,0.84084
0.09084754300420173,0,0,1.2928688964843749,0,0,-9.24924
0.09223741601454094,0,0,1.43652099609375,0,0,0.6115200000000001
0.09362493801745586,0,0,1.4963760375976562,0,0,0.6115200000000001
0.09501251601614058,0,0,1.4221557861328125,0,0,0.53508
0.09639890800463036,0,0,1.2785036865234374,0,0,0.68796
0.09778615200775675,0,0,1.0893617553710937,0,0,0.84084
0.09917363701970316,0,0,1.2569558715820313,0,0,0.99372
0.10055923301842995,0,0,1.369483349609375,0,0,0.84084
0.10194584701093845,0,0,1.2904746948242187,0,0,0.6115200000000001
0.10333305402309634,0,0,1.4437036010742186,0,0,0.3822
0.10471874300856143,0,0,1.5251064575195312,0,0,0.7644
0.1061053020239342,0,0,1.4149731811523436,0,0,1.07016
0.10749643499730155,0,0,1.218648645019531,0,0,0.68796
0.10888210500706919,0,0,1.3000515014648437,0,0,0.99372
0.11026855200179853,0,0,1.24498486328125,0,0,0.3822
0.11165622199769132,0,0,1.2473790649414063,0,0,0.99372
0.11306989201693796,0,0,1.3048399047851562,0,0,0.91728
0.11445663601625711,0,0,1.5059528442382812,0,0,0.68796
0.11584354701335542,0,0,1.3383587280273437,0,0,0.84084
0.1172431239974685,0,0,1.4413093994140624,0,0,0.84084
0.11862997899879701,0,0,1.24498486328125,0,0,0.99372
0.12001611202140339,0,0,1.3192051147460937,0,0,0.84084
0.12140324502252042,0,0,1.2521674682617188,0,0,0.84084
0.12279034100356512,0,0,1.2521674682617188,0,0,0.7644
0.12417727100546472,0,0,1.3575123413085937,0,0,1.07016
0.1255636069981847,0,0,1.4053963745117186,0,0,0.99372
0.12694977701175958,0,0,1.4006079711914061,0,0,1.1465999999999998
0.12833615101408213,0,0,1.3934253662109375,0,0,0.84084
0.12972346899914555,0,0,1.1659762084960936,0,0,1.1465999999999998
0.13111304701305926,0,0,1.2713210815429687,0,0,0.7644
0.13250005000736564,0,0,1.2234370483398436,0,0,0.84084
0.1338863870187197,0,0,1.2737152832031249,0,0,0.45864
0.13527320499997586,0,0,1.4149731811523436,0,0,0.84084
0.13666087499586865,0,0,1.4604630126953124,0,0,0.84084
0.13805047099594958,0,0,1.429338391113281,0,0,0.68796
0.13944043702213094,0,0,1.3766659545898436,0,0,0.91728
0.14084857000852935,0,0,1.3335703247070312,0,0,-8.867040000000001
0.1422397580172401,0,0,1.177947216796875,0,0,0.91728
0.1436318170162849,0,0,1.350329736328125,0,0,0.99372
0.14501926500815898,0,0,1.37906015625,0,0,1.2994800000000002
0.146409194014268,0,0,1.4006079711914061,0,0,0.53508
0.14779719701618887,0,0,1.2425906616210938,0,0,0.99372
0.14918323801248334,0,0,1.4341267944335936,0,0,0.68796
0.15056909300619736,0,0,1.216254443359375,0,0,1.07016
0.15198413300095126,0,0,1.2569558715820313,0,0,0.84084
0.1533709329960402,0,0,1.2018892333984375,0,0,0.30576000000000003
0.15475686200079508,0,0,1.20667763671875,0,0,0.6115200000000001
0.15614497600472532,0,0,1.3766659545898436,0,0,0.91728
0.1575315910158679,0,0,1.3814543579101561,0,0,0.7644
0.1589178720023483,0,0,1.3479355346679687,0,0,0.7644
0.1603127830021549,0,0,1.438915197753906,0,0,0.99372
0.1616983230051119,0,0,1.1468225952148436,0,0,0.99372
0.16311773299821652,0,0,1.2928688964843749,0,0,0.91728
0.16450712599908002,0,0,1.1563994018554686,0,0,0.7644
0.1658951290010009,0,0,1.3359645263671873,0,0,1.37592
0.16728266901918687,0,0,1.35990654296875,0,0,0.6115200000000001
0.16866939500323497,0,0,1.426944189453125,0,0,0.7644
0.17005599100957625,0,0,1.4006079711914061,0,0,0.68796
0.17144325299886987,0,0,1.3311761230468748,0,0,1.1465999999999998
0.17282984900521114,0,0,1.2713210815429687,0,0,0.99372
0.17421703800209798,0,0,1.2521674682617188,0,0,0.91728
0.17560402301023714,0,0,1.3766659545898436,0,0,0.3822
0.17699069299851544,0,0,1.3766659545898436,0,0,1.2994800000000002
0.17837780702393502,0,0,1.4245499877929686,0,0,0.99372
0.17976568100857548,0,0,1.3958195678710936,0,0,0.7644
0.1811525730008725,0,0,1.4101847778320311,0,0,0.7644
0.18254050202085637,0,0,1.2042834350585936,0,0,1.07016
0.18398095000884496,0,0,1.3455413330078123,0,0,-8.943480000000001
0.18542393401730806,0,0,1.0917559570312498,0,0,0.68796
0.1868137520214077,0,0,1.2401964599609374,0,0,0.91728
0.18820043999585323,0,0,1.3862427612304686,0,0,1.07016
0.1895863880054094,0,0,1.5610194824218748,0,0,1.07016
0.19097229902399704,0,0,1.4030021728515625,0,0,0.91728
0.19236741302302107,0,0,1.4724340209960938,0,0,0.68796
0.19375400900025852,0,0,1.2880804931640624,0,0,0.84084
0.19514260502182879,0,0,1.2880804931640624,0,0,0.84084
0.19652655301615596,0,0,1.3096283081054687,0,0,0.91728
0.19791261199861765,0,0,1.2808978881835937,0,0,0.6115200000000001
0.19932128200889565,0,0,1.3766659545898436,0,0,0.84084
0.20071182202082127,0,0,1.2928688964843749,0,0,1.07016
0.20209778801654465,0,0,1.407790576171875,0,0,0.99372
0.20348410701262765,0,0,1.3311761230468748,0,0,0.99372
0.2048773690185044,0,0,1.2976572998046874,0,0,0.68796
0.20626346502103843,0,0,1.235408056640625,0,0,0.7644
0.20765080201090313,0,0,1.3623007446289062,0,0,0.7644
0.2090371010126546,0,0,1.2641384765625,0,0,0.91728
0.21042277102242224,0,0,1.4125789794921875,0,0,0.3822
0.2118081640219316,0,0,1.3287819213867187,0,0,0.7644
0.21319450001465157,0,0,1.4820108276367188,0,0,0.84084
0.21458020701538771,0,0,1.35990654296875,0,0,0.99372
0.21596741399844177,0,0,1.2808978881835937,0,0,0.68796
0.21735354702104814,0,0,1.0917559570312498,0,0,0.7644
0.21873903201776557,0,0,1.2952630981445312,0,0,0.99372
0.22012459099642,0,0,1.3742717529296875,0,0,0.68796
0.22151061301701702,0,0,1.5298948608398437,0,0,1.07016
0.222896153019974,0,0,1.2737152832031249,0,0,1.07016
0.22428213802049868,0,0,1.4030021728515625,0,0,0.7644
0.225668086000951,0,0,1.1228805786132812,0,0,1.07016
0.22705536702414975,0,0,1.2210428466796874,0,0,0.91728
0.22844125900883228,0,0,1.1611878051757811,0,0,0.84084
0.2298269290185999,0,0,1.3455413330078123,0,0,0.7644
0.2312133770028595,0,0,1.3958195678710936,0,0,0.68796
0.23260099202161655,0,0,1.465251416015625,0,0,0.91728
0.23398690202157013,0,0,1.2785036865234374,0,0,0.99372
0.2353766840242315,0,0,1.3263877197265623,0,0,1.37592
0.23676140900352038,0,0,1.2904746948242187,0,0,0.7644
0.2381476529990323,0,0,1.2617442749023438,0,0,0.91728
0.23953499001800083,0,0,1.2880804931640624,0,0,0.84084
0.24092121599824168,0,0,1.3838485595703125,0,0,0.84084
0.24230675600119866,0,0,1.455674609375,0,0,0.45864
0.24369250002200715,0,0,1.5059528442382812,0,0,0.91728
0.2450780399958603,0,0,1.465251416015625,0,0,1.1465999999999998
0.24646369201946072,0,0,1.2497732666015624,0,0,0.84084
0.24785926900221966,0,0,1.2473790649414063,0,0,0.91728
0.24924545802059583,0,0,1.1923124267578125,0,0,1.07016
0.2506315350183286,0,0,1.2593500732421874,0,0,0.68796
0.2520176870166324,0,0,1.2761094848632812,0,0,1.2230400000000001
0.25340324599528685,0,0,1.5275006591796874,0,0,0.84084
0.2547886749962345,0,0,1.3311761230468748,0,0,1.2230400000000001
0.25617551201139577,0,0,1.426944189453125,0,0,0.99372
0.25756912599899806,0,0,1.1635820068359375,0,0,0.99372
0.25895499999751337,0,0,1.218648645019531,0,0,0.6115200000000001
0.26034083601552993,0,0,1.0749965454101562,0,0,0.53508
0.2617270990158431,0,0,1.2880804931640624,0,0,0.6115200000000001
0.2631163990008645,0,0,1.4173673828125,0,0,0.99372
0.26449940202292055,0,0,1.4963760375976562,0,0,0.84084
0.2658855160116218,0,0,1.3335703247070312,0,0,1.07016
0.2672712610219605,0,0,1.4772224243164063,0,0,0.99372
0.26865733801969327,0,0,1.0773907470703123,0,0,0.91728
0.2700492489966564,0,0,1.3311761230468748,0,0,0.68796
0.2714356220094487,0,0,1.0845733520507812,0,0,0.68796
0.272820459009381,0,0,1.1947066284179686,0,0,1.07016
0.2742063880141359,0,0,1.4053963745117186,0,0,0.53508
0.2755922990036197,0,0,1.4628572143554686,0,0,0.99372
0.276978099020198,0,0,1.407790576171875,0,0,0.84084
0.27836345401010476,0,0,1.3168109130859373,0,0,0.7644
0.27974999402067624,0,0,1.2689268798828124,0,0,1.1465999999999998
0.2811364789959043,0,0,1.1707646118164061,0,0,0.7644
0.28252207502373494,0,0,1.3670891479492187,0,0,0.7644
0.2839080410194583,0,0,1.1516109985351561,0,0,1.07016
0.2852937860006932,0,0,1.2306196533203124,0,0,0.6115200000000001
0.2866792520217132,0,0,1.2138602416992186,0,0,1.07016
0.28806562602403574,0,0,1.448492004394531,0,0,1.2230400000000001
0.289451018004911,0,0,1.2737152832031249,0,0,0.7644
0.29083672500564717,0,0,1.2234370483398436,0,0,0.6115200000000001
0.29222969099646434,0,0,1.0989385620117187,0,0,0.7644
0.2936153059999924,0,0,1.2497732666015624,0,0,0.68796
0.2950026790203992,0,0,1.2928688964843749,0,0,1.1465999999999998
0.2963884790078737,0,0,1.5083470458984374,0,0,0.7644
0.29777418600860983,0,0,1.3144167114257812,0,0,0.91728
0.299161171016749,0,0,1.4437036010742186,0,0,0.91728
0.30054626701166853,0,0,1.1827356201171875,0,0,0.84084
0.30193165902164765,0,0,1.2569558715820313,0,0,0.7644
0.3033177550241817,0,0,1.3431471313476562,0,0,0.99372
0.30470274001709186,0,0,1.4006079711914061,0,0,0.84084
0.3060882429999765,0,0,1.4245499877929686,0,0,0.99372
0.30747428399627097,0,0,1.4628572143554686,0,0,0.7644
0.3088599909970071,0,0,1.4221557861328125,0,0,0.91728
0.3102454940089956,0,0,1.4437036010742186,0,0,0.68796
0.3116317570093088,0,0,1.0941501586914062,0,0,1.1465999999999998
0.31301705600344576,0,0,1.1731588134765625,0,0,0.99372
0.3144027260132134,0,0,1.1180921752929687,0,0,0.99372
0.31579713700921275,0,0,1.3431471313476562,0,0,0.84084
0.3171833259984851,0,0,1.4532804077148436,0,0,0.53508
0.3185691440012306,0,0,1.4532804077148436,0,0,0.7644
0.3199562400113791,0,0,1.4508862060546874,0,0,0.84084
0.3213421130203642,0,0,1.2378022583007813,0,0,1.1465999999999998
0.3227276170218829,0,0,1.369483349609375,0,0,0.84084
0.3241133420087863,0,0,1.2282254516601563,0,0,0.91728
0.32549725301214494,0,0,1.4508862060546874,0,0,0.84084
0.32690514501882717,0,0,1.2832920898437499,0,0,1.1465999999999998
0.32829329700325616,0,0,1.3814543579101561,0,0,0.99372
0.3296798560186289,0,0,1.2425906616210938,0,0,1.1465999999999998
0.33106717400369234,0,0,1.4437036010742186,0,0,0.7644
0.33245323301525787,0,0,1.16837041015625,0,0,0.68796
0.3338397170009557,0,0,1.369483349609375,0,0,0.6115200000000001
0.33523549800156616,0,0,1.3335703247070312,0,0,0.6115200000000001
0.3366215570131317,0,0,1.2138602416992186,0,0,0.53508
0.3380124499963131,0,0,1.3096283081054687,0,0,0.45864
0.3394002490094863,0,0,1.47482822265625,0,0,0.99372
0.34094173202174716,0,0,1.4101847778320311,0,0,0.99372
0.3423319760186132,0,0,1.4963760375976562,0,0,1.1465999999999998
0.3437256460019853,0,0,1.177947216796875,0,0,1.07016
0.3451146309962496,0,0,1.0989385620117187,0,0,1.1465999999999998
0.34650148599757813,0,0,1.0869675537109373,0,0,0.7644
0.34788900800049305,0,0,1.2306196533203124,0,0,0.91728
0.3496680259995628,0,0,1.467645617675781,0,0,0.99372
0.3510851030005142,0,0,1.2713210815429687,0,0,1.1465999999999998
0.3524737170082517,0,0,1.4532804077148436,0,0,0.91728
0.3538610170071479,0,0,1.2018892333984375,0,0,0.7644
0.3552508169959765,0,0,1.2569558715820313,0,0,1.2230400000000001
0.35663765302160755,0,0,1.2569558715820313,0,0,0.7644
0.3580244340118952,0,0,1.2665326782226562,0,0,0.68796
0.3594119190238416,0,0,1.2880804931640624,0,0,0.84084
0.3607982190151233,0,0,1.455674609375,0,0,0.91728
0.36218509200261906,0,0,1.5155296508789062,0,0,0.91728
0.36357339200912975,0,0,1.5107412475585937,0,0,0.84084
0.36496111800079234,0,0,1.2018892333984375,0,0,0.99372
0.36634862099890597,0,0,1.2018892333984375,0,0,0.7644
0.36773592099780217,0,0,1.2904746948242187,0,0,0.84084
0.36912264602142386,0,0,1.2761094848632812,0,0,0.84084
0.37050970501150005,0,0,1.3024457031249999,0,0,0.6115200000000001
0.3718967270106077,0,0,1.3670891479492187,0,0,0.53508
0.37328319301013835,0,0,1.4341267944335936,0,0,0.91728
0.3746724190132227,0,0,1.1013327636718748,0,0,0.99372
0.37605984800029546,0,0,1.2497732666015624,0,0,1.07016
0.3774468510237057,0,0,1.3144167114257812,0,0,0.99372
0.37883372500073165,0,0,1.2378022583007813,0,0,0.84084
0.3802211360016372,0,0,1.1659762084960936,0,0,0.99372
0.38160845401580445,0,0,1.4149731811523436,0,0,0.68796
0.38302345701958984,0,0,1.24498486328125,0,0,0.91728
0.3844174790137913,0,0,1.3814543579101561,0,0,0.84084
0.3858051669958513,0,0,1.1875240234375,0,0,0.7644
0.3871944110142067,0,0,1.3766659545898436,0,0,0.84084
0.38858023000648245,0,0,1.2880804931640624,0,0,0.7644
0.38996790000237525,0,0,1.3192051147460937,0,0,0.68796
0.3913560700020753,0,0,1.3072341064453123,0,0,1.2230400000000001
0.3927425910078455,0,0,1.3359645263671873,0,0,0.91728
0.3941295580007136,0,0,1.216254443359375,0,0,0.91728
0.3955177830066532,0,0,1.4915876342773438,0,0,0.91728
0.396904898021603,0,0,1.3096283081054687,0,0,0.7644
0.39829243801068515,0,0,1.3215993164062498,0,0,0.99372
0.3996798669977579,0,0,1.2114660400390624,0,0,0.91728
0.4010668520058971,0,0,1.2282254516601563,0,0,0.7644
0.40245383701403625,0,0,1.3383587280273437,0,0,0.84084
0.4038409330241848,0,0,1.3431471313476562,0,0,0.99372
0.4052278989984188,0,0,1.3263877197265623,0,0,1.1465999999999998
0.40661462501157075,0,0,1.158793603515625,0,0,0.91728
0.4080017580126878,0,0,1.2785036865234374,0,0,0.91728
0.40938881700276397,0,0,1.2952630981445312,0,0,0.91728
0.41077583900187165,0,0,1.3215993164062498,0,0,1.1465999999999998
0.4121681200049352,0,0,1.2976572998046874,0,0,0.53508
0.4135564010066446,0,0,1.4772224243164063,0,0,0.6115200000000001
0.41494342300575227,0,0,1.3551181396484375,0,0,1.2230400000000001
0.4163309260038659,0,0,1.4963760375976562,0,0,0.6115200000000001
0.41771811500075273,0,0,1.0989385620117187,0,0,0.84084
0.4191233210149221,0,0,1.1133037719726562,0,0,1.07016
0.4205104360007681,0,0,1.3024457031249999,0,0,0.84084
0.42189738401793875,0,0,1.3048399047851562,0,0,1.07016
0.42328522002208047,0,0,1.3120225097656248,0,0,1.2230400000000001
0.4246713900065515,0,0,1.3718775512695311,0,0,1.1465999999999998
0.4260586710006464,0,0,1.3287819213867187,0,0,1.07016
0.42744643401238136,0,0,1.419761584472656,0,0,0.84084
0.42883221502415836,0,0,1.1420341918945311,0,0,0.68796
0.43022094102343544,0,0,1.3479355346679687,0,0,0.68796
0.4316083140147384,0,0,1.209071838378906,0,0,0.68796
0.43299509602366015,0,0,1.2689268798828124,0,0,0.53508
0.43440396900405176,0,0,1.3168109130859373,0,0,1.1465999999999998
0.43586667501949705,0,0,1.3527239379882812,0,0,0.91728
0.4372590860002674,0,0,1.3383587280273437,0,0,0.7644
0.43864581201341935,0,0,1.2473790649414063,0,0,0.99372
0.4400412219983991,0,0,1.2737152832031249,0,0,1.07016
0.44142724401899613,0,0,1.3335703247070312,0,0,0.7644
0.4428133589972276,0,0,1.1755530151367186,0,0,0.84084
0.44419958401704207,0,0,1.3455413330078123,0,0,1.07016
0.44558542099548504,0,0,1.4413093994140624,0,0,0.68796
0.4469721089990344,0,0,1.388636962890625,0,0,0.99372
0.4483603900007438,0,0,1.47482822265625,0,0,0.7644
0.4497465970052872,0,0,1.1731588134765625,0,0,0.6115200000000001
0.45113339700037614,0,0,1.2952630981445312,0,0,1.1465999999999998
0.4525464370090049,0,0,1.3455413330078123,0,0,0.68796
0.4539347550016828,0,0,1.2928688964843749,0,0,0.45864
0.45532307302346453,0,0,1.2521674682617188,0,0,0.91728
0.4567107990151271,0,0,1.3646949462890625,0,0,0.84084
0.45809798801201396,0,0,1.3383587280273437,0,0,1.1465999999999998
0.4594888980209362,0,0,1.3000515014648437,0,0,0.7644
0.46087540200096555,0,0,1.189918225097656,0,0,0.6115200000000001
0.4622623120085336,0,0,1.3407529296874998,0,0,0.3822
0.46364964899839833,0,0,1.2617442749023438,0,0,0.68796
0.4650364300177898,0,0,1.2928688964843749,0,0,0.7644
0.46642313699703664,0,0,1.2641384765625,0,0,0.99372
0.46781064101378433,0,0,1.2832920898437499,0,0,1.1465999999999998
0.4691979960189201,0,0,1.235408056640625,0,0,0.91728
0.4705847029981669,0,0,1.2832920898437499,0,0,0.7644
0.471971927996492,0,0,1.2497732666015624,0,0,1.1465999999999998
0.4733589130046312,0,0,1.2401964599609374,0,0,0.68796
0.47474523101118393,0,0,1.3000515014648437,0,0,0.99372
0.476132124022115,0,0,1.0917559570312498,0,0,0.91728
0.47752033101278357,0,0,1.4053963745117186,0,0,0.91728
0.47890668601030484,0,0,1.3814543579101561,0,0,0.91728
0.4802994299971033,0,0,1.4604630126953124,0,0,0.7644
0.48168702601105906,0,0,1.1348515869140625,0,0,0.91728
0.4830758070165757,0,0,1.2808978881835937,0,0,1.07016
0.48446306900586933,0,0,1.3311761230468748,0,0,0.68796
0.48585025800275616,0,0,1.3168109130859373,0,0,0.68796
0.48723807602073066,0,0,1.3311761230468748,0,0,0.99372
0.488624265010003,0,0,1.369483349609375,0,0,0.7644
0.49001182400388643,0,0,1.2497732666015624,0,0,1.2994800000000002
0.4914026790065691,0,0,1.4700398193359374,0,0,0.84084
0.4927954970044084,0,0,1.2617442749023438,0,0,1.1465999999999998
0.4941831670003012,0,0,1.2330138549804688,0,0,0.99372
0.49557115201605484,0,0,1.3024457031249999,0,0,0.7644
0.49695782200433314,0,0,1.3096283081054687,0,0,0.6115200000000001
0.4983447510167025,0,0,1.216254443359375,0,0,0.99372
0.4997320690017659,0,0,1.4437036010742186,0,0,0.84084
0.5011231460084673,0,0,1.4724340209960938,0,0,1.07016
0.5072914680058602,0,0,1.0749965454101562,0,0,0.68796
0.5089090800029226,0,0,1.3742717529296875,0,0,0.99372
0.5106367090193089,0,0,1.4245499877929686,0,0,0.68796
0.512028323020786,0,0,1.3168109130859373,0,0,0.91728
0.5134176790015772,0,0,1.4987702392578124,0,0,0.91728
0.5148223480209708,0,0,1.2856862915039062,0,0,1.2230400000000001
0.5162490550137591,0,0,1.3383587280273437,0,0,0.91728
0.5176353360002395,0,0,1.2641384765625,0,0,0.68796
0.5190286910219584,0,0,1.1516109985351561,0,0,0.91728
0.5204121760034468,0,0,1.235408056640625,0,0,0.6115200000000001
0.5217914390086662,0,0,1.2282254516601563,0,0,1.07016
0.5231972380133811,0,0,1.3311761230468748,0,0,0.99372
0.5245850380160846,0,0,1.1875240234375,0,0,0.84084
0.5259719120222144,0,0,1.3239935180664062,0,0,0.84084
0.5273585450195242,0,0,1.2497732666015624,0,0,0.7644
0.5288392880174797,0,0,1.2976572998046874,0,0,0.6115200000000001
0.5303268080169801,0,0,1.2593500732421874,0,0,0.91728
0.5317933479964267,0,0,1.3934253662109375,0,0,0.84084
0.5332669060153421,0,0,1.189918225097656,0,0,0.99372
0.5347183340054471,0,0,1.2330138549804688,0,0,0.99372
0.5361870780179743,0,0,1.3407529296874998,0,0,0.84084
0.5381565749994479,0,0,1.3192051147460937,0,0,1.2994800000000002
0.5396694469964132,0,0,1.3168109130859373,0,0,0.68796
0.5411789490026422,0,0,1.3120225097656248,0,0,1.1465999999999998
0.5426278030208778,0,0,1.3407529296874998,0,0,0.68796
0.5445339860161766,0,0,1.4891934326171874,0,0,1.07016
0.5460391740198247,0,0,1.2521674682617188,0,0,0.91728
0.5475059910095297,0,0,1.254561669921875,0,0,0.45864
0.54895536400727,0,0,1.158793603515625,0,0,0.99372
0.5504211439983919,0,0,1.2713210815429687,0,0,0.68796
0.5519512390019372,0,0,1.22583125,0,0,0.99372
0.5534321300219744,0,0,1.2617442749023438,0,0,0.91728
0.5549285580054857,0,0,1.4437036010742186,0,0,1.07016
0.5563836530200206,0,0,1.2042834350585936,0,0,0.99372
0.5578561550064478,0,0,1.254561669921875,0,0,0.68796
0.5594086199998856,0,0,1.2856862915039062,0,0,0.99372
0.5608263270114549,0,0,1.3359645263671873,0,0,0.30576000000000003
0.5622066630166955,0,0,1.3287819213867187,0,0,1.1465999999999998
0.5635964810207952,0,0,1.5251064575195312,0,0,1.1465999999999998
0.5673876439977903,0,0,1.199495031738281,0,0,0.7644
0.568903516017599,0,0,1.3287819213867187,0,0,0.53508
0.5703762040066067,0,0,1.3096283081054687,0,0,0.91728
0.5718962800165173,0,0,1.2761094848632812,0,0,0.68796
0.573447244009003,0,0,1.4508862060546874,0,0,0.68796
0.5749408020055853,0,0,1.5035586425781249,0,0,0.3822
0.5766770420013927,0,0,1.4317325927734375,0,0,0.91728
0.5781588960089721,0,0,1.2401964599609374,0,0,0.68796
0.5796356580103748,0,0,1.2234370483398436,0,0,0.6115200000000001
0.5811181790195405,0,0,1.24498486328125,0,0,2.36964
0.5825844030187,0,0,1.2904746948242187,0,0,0.7644
0.584046906005824,0,0,1.2713210815429687,0,0,0.91728
0.5854373720067088,0,0,1.3527239379882812,0,0,0.53508
0.5868264310120139,0,0,1.3934253662109375,0,0,1.07016
0.5882153230195399,0,0,1.5179238525390624,0,0,1.1465999999999998
0.5896030669973698,0,0,1.3000515014648437,0,0,1.2994800000000002
0.5910061820177361,0,0,1.1444283935546875,0,0,0.91728
0.5923960920190439,0,0,1.2425906616210938,0,0,0.99372
0.5937838359968737,0,0,1.2497732666015624,0,0,0.6115200000000001
0.5951712469977792,0,0,1.5107412475585937,0,0,0.30576000000000003
0.5965582320059184,0,0,1.2330138549804688,0,0,0.7644
0.5979448650032282,0,0,1.5011644409179687,0,0,0.91728
0.5993322569993325,0,0,1.3623007446289062,0,0,0.99372
0.6007197790022474,0,0,1.2856862915039062,0,0,0.91728
0.602107523009181,0,0,1.0917559570312498,0,0,0.91728
0.6034921749960631,0,0,1.22583125,0,0,0.91728
0.6048708629969042,0,0,1.2952630981445312,0,0,0.91728
0.6062500890111551,0,0,1.4508862060546874,0,0,0.91728
0.6076467400125694,0,0,1.2952630981445312,0,0,1.07016
0.6090449100011028,0,0,1.5011644409179687,0,0,0.7644
0.6104323390172794,0,0,1.1707646118164061,0,0,0.7644
0.6118208430125378,0,0,1.209071838378906,0,0,0.6115200000000001
0.6132093280029949,0,0,1.1420341918945311,0,0,0.45864
0.6145956639957149,0,0,1.3120225097656248,0,0,0.84084
0.6160008709994145,0,0,1.3168109130859373,0,0,0.68796
0.6173887260083575,0,0,1.3287819213867187,0,0,0.84084
0.6187840439961292,0,0,1.3120225097656248,0,0,1.2230400000000001
0.6202087880228646,0,0,1.4772224243164063,0,0,0.53508
0.6218649000220466,0,0,1.1156979736328125,0,0,1.2230400000000001
0.6233700129960198,0,0,1.189918225097656,0,0,0.68796
0.6250345500011463,0,0,1.22583125,0,0,0.7644
0.6264392570010386,0,0,1.3096283081054687,0,0,1.07016
0.628056554007344,0,0,1.39821376953125,0,0,0.99372
0.6294793160050176,0,0,1.3575123413085937,0,0,1.07016
0.6309131150192115,0,0,1.2306196533203124,0,0,0.68796
0.6322942850238178,0,0,1.3551181396484375,0,0,0.99372
0.6336692699987907,0,0,1.209071838378906,0,0,0.91728
0.6350653850240633,0,0,1.1468225952148436,0,0,1.1465999999999998
0.6364434620190877,0,0,1.24498486328125,0,0,1.07016
0.6378172620024998,0,0,1.3958195678710936,0,0,0.30576000000000003
0.6391948030213825,0,0,1.5251064575195312,0,0,0.68796
0.6405709359969478,0,0,1.448492004394531,0,0,0.68796
0.6419476610026322,0,0,1.2378022583007813,0,0,1.07016
0.6433294610178564,0,0,1.3215993164062498,0,0,0.84084
0.6447137049981393,0,0,1.2497732666015624,0,0,0.7644
0.6460965050209779,0,0,1.3479355346679687,0,0,0.7644
0.647481396998046,0,0,1.3670891479492187,0,0,0.99372
0.6488677340094,0,0,1.4413093994140624,0,0,0.45864
0.6502514960011467,0,0,1.438915197753906,0,0,0.91728
0.6516349440207705,0,0,1.3168109130859373,0,0,0.7644
0.6530185030132998,0,0,1.0797849487304687,0,0,0.6115200000000001
0.6544013770180754,0,0,1.2928688964843749,0,0,0.7644
0.6557875470025465,0,0,1.0869675537109373,0,0,0.7644
0.6571613650012296,0,0,1.0773907470703123,0,0,0.91728
0.6585342580219731,0,0,1.2952630981445312,0,0,0.99372
0.6599175390147138,0,0,1.5011644409179687,0,0,1.1465999999999998
0.661301264015492,0,0,1.2880804931640624,0,0,0.99372
0.6626844900019933,0,0,1.4221557861328125,0,0,1.1465999999999998
0.6640679929987527,0,0,1.0869675537109373,0,0,0.84084
0.6654514230031054,0,0,1.3263877197265623,0,0,1.07016
0.6668349259998649,0,0,1.2880804931640624,0,0,0.84084
0.6682181890064385,0,0,1.4939818359375,0,0,0.53508
0.6696012290194631,0,0,1.388636962890625,0,0,0.68796
0.6709844180149958,0,0,1.4604630126953124,0,0,0.84084
0.6723909020074643,0,0,1.4413093994140624,0,0,0.91728
0.673774091002997,0,0,1.35990654296875,0,0,1.07016
0.6751594460220076,0,0,1.149216796875,0,0,1.07016
0.67654109801515,0,0,1.2904746948242187,0,0,0.84084
0.6779244159988593,0,0,1.3000515014648437,0,0,1.07016
0.6793087530240882,0,0,1.2880804931640624,0,0,0.84084
0.6806907000136562,0,0,1.465251416015625,0,0,0.22932
0.6820793520018924,0,0,1.458068811035156,0,0,0.7644
0.683465484995395,0,0,1.455674609375,0,0,1.1465999999999998
0.684851507015992,0,0,1.1611878051757811,0,0,0.84084
0.6862897500104737,0,0,1.3239935180664062,0,0,0.91728
0.6877368460118305,0,0,1.22583125,0,0,0.91728
0.6891204790154006,0,0,1.3048399047851562,0,0,0.91728
0.6905039080011193,0,0,1.3479355346679687,0,0,1.1465999999999998
0.6918872630049009,0,0,1.4245499877929686,0,0,1.07016
0.6932708410022315,0,0,1.3335703247070312,0,0,0.99372
0.6946556030015927,0,0,1.3479355346679687,0,0,0.84084
0.6960322730010375,0,0,1.1109095703125,0,0,0.84084
0.697405166021781,0,0,1.2330138549804688,0,0,0.91728
0.6987785770033952,0,0,1.1563994018554686,0,0,0.7644
0.700164191017393,0,0,1.3575123413085937,0,0,0.68796
0.7015477870008908,0,0,1.4101847778320311,0,0,1.07016
0.702930939005455,0,0,1.5179238525390624,0,0,1.1465999999999998
0.7043149420060217,0,0,1.4724340209960938,0,0,0.99372
0.7056985190138221,0,0,1.2976572998046874,0,0,0.91728
0.7070820780063514,0,0,1.1851298217773436,0,0,1.1465999999999998
0.7084652300109155,0,0,1.218648645019531,0,0,0.99372
0.7098484370217193,0,0,1.3766659545898436,0,0,1.45236
0.7112298660213128,0,0,1.2808978881835937,0,0,0.7644
0.7126168510003481,0,0,1.4820108276367188,0,0,0.3822
0.7139917059976142,0,0,1.3263877197265623,0,0,0.84084
0.715373951010406,0,0,1.5107412475585937,0,0,0.45864
0.7167575840139762,0,0,1.2234370483398436,0,0,0.84084
0.7181409200129565,0,0,1.2641384765625,0,0,0.84084
0.7195357200107537,0,0,1.1755530151367186,0,0,0.6115200000000001
0.7209186490217689,0,0,1.3215993164062498,0,0,0.45864
0.7223021899990272,0,0,1.3407529296874998,0,0,1.2230400000000001
0.7236854520160705,0,0,1.4173673828125,0,0,0.45864
0.7250689740176313,0,0,1.3144167114257812,0,0,0.84084
0.7264523850171827,0,0,1.455674609375,0,0,0.53508
0.7278356100141536,0,0,1.2521674682617188,0,0,0.84084
0.7292187620187178,0,0,1.2617442749023438,0,0,0.84084
0.7306364870164543,0,0,1.2042834350585936,0,0,0.6115200000000001
0.7324022270040587,0,0,1.2761094848632812,0,0,0.68796
0.7338507109961938,0,0,1.43652099609375,0,0,0.84084
0.7353574540175032,0,0,1.2928688964843749,0,0,0.6115200000000001
0.7367324950173497,0,0,1.4125789794921875,0,0,0.53508
0.7381156650080811,0,0,1.3192051147460937,0,0,0.6115200000000001
0.7395007610030007,0,0,1.3575123413085937,0,0,0.99372
0.7408842639997602,0,0,1.1827356201171875,0,0,0.7644
0.7423180260229856,0,0,1.2785036865234374,0,0,0.84084
0.7437179179978557,0,0,1.3168109130859373,0,0,0.91728
0.7451105329964776,0,0,1.4508862060546874,0,0,0.68796
0.7464943510130979,0,0,1.2713210815429687,0,0,0.99372
0.7478788169973996,0,0,1.39821376953125,0,0,1.07016
0.7492618210089859,0,0,1.1875240234375,0,0,0.7644
0.7506454910035245,0,0,1.2952630981445312,0,0,0.7644
0.752022790024057,0,0,1.1133037719726562,0,0,0.68796
0.7533960530126933,0,0,1.2378022583007813,0,0,0.99372
0.7547701309958939,0,0,1.2665326782226562,0,0,0.7644
0.7561565969954245,0,0,1.467645617675781,0,0,0.99372
0.7575399519992061,0,0,1.2497732666015624,0,0,0.91728
0.7589231780148111,0,0,1.438915197753906,0,0,0.91728
0.7603064030117821,0,0,1.3000515014648437,0,0,0.91728
0.7616894990205765,0,0,1.3383587280273437,0,0,0.84084
0.7630734100239351,0,0,1.2976572998046874,0,0,0.68796
0.7644565619993955,0,0,1.3024457031249999,0,0,1.07016
0.7658398060011677,0,0,1.2593500732421874,0,0,0.7644
0.7672205310082063,0,0,1.3407529296874998,0,0,1.07016
0.7685930530133191,0,0,1.4006079711914061,0,0,0.91728
0.7699662980157882,0,0,1.4700398193359374,0,0,0.7644
0.7713482640101574,0,0,1.2569558715820313,0,0,0.99372
0.7727314340008888,0,0,1.149216796875,0,0,0.99372
0.7741143820167053,0,0,1.2210428466796874,0,0,0.6115200000000001
0.775497571012238,0,0,1.197100830078125,0,0,0.84084
0.7768807219981682,0,0,1.3623007446289062,0,0,0.91728
0.7782540589978453,0,0,1.2737152832031249,0,0,0.6115200000000001
0.7796366550028324,0,0,1.455674609375,0,0,0.84084
0.7810199920204468,0,0,1.3718775512695311,0,0,1.1465999999999998
0.7824024020228535,0,0,1.3383587280273437,0,0,0.91728
0.7837962570192758,0,0,1.2689268798828124,0,0,0.99372
0.7851795199967455,0,0,1.3000515014648437,0,0,0.68796
0.7865619490039535,0,0,1.3311761230468748,0,0,1.2994800000000002
0.7879601379972883,0,0,1.419761584472656,0,0,0.91728
0.7893432709970511,0,0,1.3934253662109375,0,0,0.91728
0.790725608007051,0,0,1.4772224243164063,0,0,0.7644
0.7921158329991158,0,0,1.3742717529296875,0,0,0.68796
0.7935037249990273,0,0,1.3192051147460937,0,0,0.7644
0.7948864689969923,0,0,1.3527239379882812,0,0,0.68796
0.7962632320122793,0,0,1.3215993164062498,0,0,0.6115200000000001
0.797637088020565,0,0,1.4053963745117186,0,0,1.07016
0.7990593870053999,0,0,1.5227122558593749,0,0,0.84084
0.800445020024199,0,0,1.3527239379882812,0,0,0.99372
0.8018288380117156,0,0,1.3838485595703125,0,0,0.68796
0.803213378007058,0,0,1.2330138549804688,0,0,1.07016
0.8045959190058056,0,0,1.2042834350585936,0,0,1.07016
0.8059848110133316,0,0,1.2904746948242187,0,0,1.2230400000000001
0.8073697030195035,0,0,1.2593500732421874,0,0,0.6115200000000001
0.8087516140076332,0,0,1.47482822265625,0,0,0.22932
0.8101355620019604,0,0,1.3479355346679687,0,0,0.84084
0.8115145100164227,0,0,1.4891934326171874,0,0,0.7644
0.8128876980044879,0,0,1.2713210815429687,0,0,0.91728
0.814261276012985,0,0,1.3383587280273437,0,0,1.1465999999999998
0.8156445019994862,0,0,1.20667763671875,0,0,0.7644
0.8170279120095074,0,0,1.3551181396484375,0,0,0.7644
0.8184111379960086,0,0,1.235408056640625,0,0,0.91728
0.81979479000438,0,0,1.37906015625,0,0,0.68796
0.8211776630196255,0,0,1.216254443359375,0,0,0.84084
0.8225608700013254,0,0,1.388636962890625,0,0,0.99372
0.8239453739952296,0,0,1.0821791503906248,0,0,0.6115200000000001
0.8253285620012321,0,0,1.3239935180664062,0,0,1.07016
0.8267120100208558,0,0,1.3096283081054687,0,0,0.6115200000000001
0.8280959760013502,0,0,1.2521674682617188,0,0,0.45864
0.8294792210217565,0,0,1.3646949462890625,0,0,0.99372
0.8308631500112824,0,0,1.407790576171875,0,0,0.91728
0.8322471900028177,0,0,1.3575123413085937,0,0,1.07016
0.8336303420073818,0,0,1.458068811035156,0,0,0.99372
0.835014771000715,0,0,1.0941501586914062,0,0,0.91728
0.8364046630158555,0,0,1.2593500732421874,0,0,1.07016
0.8377897780155763,0,0,1.3407529296874998,0,0,0.84084
0.8391746889974456,0,0,1.2737152832031249,0,0,0.84084
0.8405573960044421,0,0,1.3958195678710936,0,0,0.6115200000000001
0.8419405660242774,0,0,1.4915876342773438,0,0,0.7644
0.8433246799977496,0,0,1.458068811035156,0,0,1.07016
0.844706980016781,0,0,1.2282254516601563,0,0,0.68796
0.8460900020145345,0,0,1.3263877197265623,0,0,1.45236
0.8474741160171106,0,0,1.2138602416992186,0,0,0.68796
0.8488562120182905,0,0,1.3670891479492187,0,0,0.84084
0.8502398820128292,0,0,1.3000515014648437,0,0,0.99372
0.851622996997321,0,0,1.3215993164062498,0,0,0.07644000000000001
0.8530062040081248,0,0,1.3479355346679687,0,0,0.91728
0.8543897810159251,0,0,1.5083470458984374,0,0,0.84084
0.8557732850022148,0,0,1.2521674682617188,0,0,0.91728
0.8571563069999684,0,0,1.2593500732421874,0,0,0.84084
0.8585411250242032,0,0,1.2114660400390624,0,0,0.91728
0.8599251650157385,0,0,1.3000515014648437,0,0,0.7644
0.861310502019478,0,0,1.4413093994140624,0,0,1.1465999999999998
0.8626939310051966,0,0,1.4867992309570313,0,0,0.84084
0.8640768979967106,0,0,1.2617442749023438,0,0,1.07016
0.865459994005505,0,0,1.3718775512695311,0,0,0.68796
0.866843460011296,0,0,1.1133037719726562,0,0,1.2994800000000002
0.8682274630118627,0,0,1.2617442749023438,0,0,0.99372
0.869610467023449,0,0,1.8291700683593748,0,0,2.2931999999999997
0.8710072480025701,0,0,1.7621324218749999,0,0,1.75812
0.8723907700041309,0,0,2.3918074584960936,0,0,2.36964
0.8737749209976755,0,0,2.2170307373046874,0,0,2.2931999999999997
0.8751604620192666,0,0,2.779668127441406,0,0,1.98744
0.876542928017443,0,0,3.1028853515624997,0,0,2.52252
0.8779262280149851,0,0,2.7341782958984373,0,0,1.07016
0.8793104350042995,0,0,1.8555062866210936,0,0,0.91728
0.8806933450105134,0,0,1.5322890624999999,0,0,1.07016
0.8820762380200904,0,0,1.7214309936523438,0,0,1.07016
0.8834604080184363,0,0,1.5658078857421873,0,0,1.07016
0.8848431330116,0,0,1.66636435546875,0,0,0.91728
0.8862264700001106,0,0,1.5705962890624998,0,0,1.75812
0.887609899014933,0,0,1.5131354492187499,0,0,1.5288
0.8889934580074623,0,0,1.8363526733398436,0,0,1.83456
0.8903770729957614,0,0,1.927332336425781,0,0,1.83456
0.8917605580063537,0,0,2.128445275878906,0,0,1.60524
0.8931440800079145,0,0,2.185906115722656,0,0,1.45236
0.8945271760167088,0,0,2.166752502441406,0,0,1.1465999999999998
0.8959104010136798,0,0,1.886630908203125,0,0,1.2994800000000002
0.8972933490003925,0,0,1.9632453613281249,0,0,1.37592
0.8986762230051681,0,0,1.7477672119140624,0,0,1.2230400000000001
0.9000594300159719,0,0,1.7908628417968748,0,0,1.2994800000000002
0.9014427670044824,0,0,1.6615759521484375,0,0,1.2230400000000001
0.9028259000042453,0,0,1.7286135986328124,0,0,1.07016
0.9042093100142665,0,0,1.7956512451171873,0,0,1.37592
0.9055921469989698,0,0,1.8746598999023436,0,0,1.5288
0.906974984012777,0,0,1.8626888916015625,0,0,1.68168
0.9083581540035084,0,0,2.0661960327148434,0,0,1.68168
0.9097411569964606,0,0,1.8411410766601561,0,0,1.2230400000000001
0.9111251420108601,0,0,1.675941162109375,0,0,1.45236
0.9125073860050179,0,0,1.6232687255859375,0,0,1.2994800000000002
0.9138903710118029,0,0,1.687912170410156,0,0,0.91728
0.9152748560009059,0,0,2.1068974609374997,0,0,1.5288
0.916657470021164,0,0,2.437297290039062,0,0,1.68168
0.9180400659970473,0,0,2.1547814941406247,0,0,1.83456
0.9194246440019924,0,0,1.6807295654296874,0,0,1.83456
0.9208070180029608,0,0,1.0989385620117187,0,0,0.84084
0.922189947013976,0,0,1.4437036010742186,0,0,0.99372
0.923573395004496,0,0,1.9728221679687499,0,0,1.07016
0.9249556760187261,0,0,1.9704279663085937,0,0,0.68796
0.9263558270176873,0,0,1.8818425048828125,0,0,0.99372
0.9277403120067902,0,0,1.4030021728515625,0,0,1.45236
0.9291234640113544,0,0,1.7669208251953124,0,0,1.68168
0.9305065600201488,0,0,1.7262193969726563,0,0,1.45236
0.9318899330100976,0,0,1.89620771484375,0,0,2.36964
0.9332731960166711,0,0,1.8818425048828125,0,0,1.45236
0.9346564220031723,0,0,2.133233679199219,0,0,1.83456
0.9360842210007831,0,0,2.300827795410156,0,0,1.98744
0.9376013709988911,0,0,2.013523596191406,0,0,1.5288
0.9390162439958658,0,0,1.7764976318359373,0,0,1.07016
0.9404064880218357,0,0,2.2098481323242187,0,0,1.5288
0.9417893810023088,0,0,2.0183119995117185,0,0,1.37592
0.9431729770149104,0,0,1.4341267944335936,0,0,1.07016
0.944559202005621,0,0,1.2976572998046874,0,0,1.2994800000000002
0.9459439650236163,0,0,1.2282254516601563,0,0,0.15288000000000002
0.9473240610095672,0,0,1.3239935180664062,0,0,1.07016
0.948699287022464,0,0,1.4987702392578124,0,0,0.7644
0.9500726050173398,0,0,2.578555187988281,0,0,2.2167600000000003
0.9514542010147125,0,0,2.2457611572265623,0,0,2.6754
0.9528375189984217,0,0,1.9728221679687499,0,0,2.2167600000000003
0.9542179109994322,0,0,1.8914193115234375,0,0,1.911
0.9556021930184215,0,0,1.9656395629882812,0,0,0.99372
0.9569853070133831,0,0,1.8052280517578123,0,0,0.6115200000000001
0.9583683850069065,0,0,2.3391350219726563,0,0,1.07016
0.9597512210020795,0,0,2.81558115234375,0,0,1.911
0.9611347430036403,0,0,2.0973206542968748,0,0,1.83456
0.9625336909957696,0,0,1.675941162109375,0,0,1.07016
0.9639133610180579,0,0,0.6871358764648438,0,0,1.2230400000000001
0.9652864750241861,0,0,0.7924807495117187,0,0,0.30576000000000003
0.9666598120238632,0,0,1.4796166259765624,0,0,1.37592
0.9680347230168991,0,0,2.403778466796875,0,0,2.06388
0.9694075419974979,0,0,2.8227637573242186,0,0,2.2931999999999997
0.970781045005424,0,0,2.655169641113281,0,0,2.4460800000000003
0.9721664560202044,0,0,1.13006318359375,0,0,1.1465999999999998
0.9735497370129451,0,0,1.5203180541992187,0,0,0.91728
0.9749332220235374,0,0,2.224213342285156,0,0,1.2230400000000001
0.9763170770020224,0,0,2.3535002319335936,0,0,0.91728
0.9777058400213718,0,0,2.4349030883789062,0,0,0.99372
0.9790925100096501,0,0,0.852335791015625,0,0,0.84084
0.9804761980194598,0,0,0.9624690673828125,0,0,1.45236
0.9818595160031691,0,0,1.1516109985351561,0,0,1.75812
0.983242649002932,0,0,2.099714855957031,0,0,1.75812
0.9846453930076677,0,0,2.205059729003906,0,0,2.06388
0.9860311740194447,0,0,1.7094599853515624,0,0,1.45236
0.9874218440090772,0,0,1.917755529785156,0,0,2.14032
0.9888053110043984,0,0,2.023100402832031,0,0,0.99372
0.9901886840234511,0,0,2.73896669921875,0,0,1.5288
0.9915722430159803,0,0,2.2385785522460937,0,0,0.0
0.993010394013254,0,0,2.013523596191406,0,0,1.68168
0.9943963420228101,0,0,1.5011644409179687,0,0,0.3822
0.995780420023948,0,0,1.6424223388671875,0,0,1.75812
0.997163960011676,0,0,1.687912170410156,0,0,1.2994800000000002
0.9985475930152461,0,0,1.1827356201171875,0,0,2.06388
0.9999316150206141,0,0,1.8698714965820311,0,0,1.98744
1.0013244330184534,0,0,2.0063409912109376,0,0,1.45236
1.0028394350083545,0,0,1.7286135986328124,0,0,0.91728
1.0043037150171585,0,0,1.6328455322265625,0,0,1.45236
1.0057761070202105,0,0,1.707065783691406,0,0,0.0
1.0072329420072492,0,0,1.927332336425781,0,0,2.2931999999999997
1.0086954630096443,0,0,2.24097275390625,0,0,0.68796
1.0105617759982124,0,0,1.6112977172851561,0,0,1.75812
1.0121304439962842,0,0,1.4221557861328125,0,0,1.07016
1.0135931319964584,0,0,1.9225439331054686,0,0,0.7644
1.0150336899969261,0,0,1.8459294799804686,0,0,1.60524
1.0164731190016028,0,0,1.8052280517578123,0,0,0.53508
1.0179383070208132,0,0,2.85388837890625,0,0,2.5989600000000004
1.0193362169957254,0,0,2.224213342285156,0,0,1.5288
1.0207184060127474,0,0,2.0733786376953125,0,0,2.36964
1.0221005210187286,0,0,1.1228805786132812,0,0,0.7644
1.0235018570092507,0,0,1.9800047729492187,0,0,20
1.0248952120018657,0,0,1.5538368774414062,0,0,0.99372
1.0263155860011466,0,0,2.3151930053710936,0,0,-0.3822
1.0277212920191232,0,0,1.6543933471679686,0,0,3.66912
1.0291215180186555,0,0,2.1547814941406247,0,0,0.99372
1.0305370950081851,0,0,1.649604943847656,0,0,2.6754
1.0319346350152045,0,0,0.7517793212890624,0,0,0.68796
1.0333806380222086,0,0,1.3766659545898436,0,0,-1.2994800000000002
1.0348411590093747,0,0,1.4245499877929686,0,0,0.68796
1.0363121240225155,0,0,2.2673089721679687,0,0,1.07016
1.0377862750028726,0,0,2.7653029174804686,0,0,3.51624
1.0392604990047403,0,0,2.834734765625,0,0,3.4398000000000004
1.0407144089986105,0,0,1.9943699829101562,0,0,0.68796
1.0429482000181451,0,0,-0.14125789794921875,0,0,-0.53508
1.0443780360219534,0,0,0.7661445312499999,0,0,-9.24924
1.0458218170097098,0,0,3.009511486816406,0,0,1.911
1.0476819070172496,0,0,3.7134067749023436,0,0,2.90472
1.0491296320105903,0,0,2.7150246826171873,0,0,2.4460800000000003
1.050567394006066,0,0,1.5035586425781249,0,0,0.3822
1.0525844460062217,0,0,-0.29448680419921874,0,0,0.15288000000000002
1.054071393009508,0,0,1.656787548828125,0,0,-9.47856
1.0555582840170246,0,0,3.864241479492187,0,0,2.4460800000000003
1.057028731011087,0,0,4.168305090332031,0,0,2.90472
1.0584210680099204,0,0,2.664746447753906,0,0,2.6754
1.0598080710042268,0,0,0.1005564697265625,0,0,0.53508
1.0611885560210794,0,0,-0.5339069702148437,0,0,-0.3822
1.062572688999353,0,0,0.13168109130859373,0,0,-0.53508
1.0639790070126764,0,0,2.5474305664062498,0,0,0.91728
1.0653583810199052,0,0,2.77727392578125,0,0,0.68796
1.0667377170175314,0,0,2.31758720703125,0,0,0.99372
1.0681188130110968,0,0,0.2154781494140625,0,0,0.99372
1.069497557997238,0,0,-1.0582371337890624,0,0,-0.30576000000000003
1.0708783760201186,0,0,0.5602431884765625,0,0,0.15288000000000002
1.0722613609977998,0,0,1.8315642700195311,0,0,1.75812
1.07364021599642,0,0,2.4947581298828125,0,0,1.1465999999999998
1.0750299410137814,0,0,2.221819140625,0,0,1.2994800000000002
1.0764210740162525,0,0,1.0941501586914062,0,0,1.5288
1.0778086150239687,0,0,0.00239420166015625,0,0,0.07644000000000001
1.079193211015081,0,0,1.6639701538085936,0,0,0.99372
1.0805716770119034,0,0,2.252943762207031,0,0,1.60524
1.0819502730155364,0,0,2.607285607910156,0,0,1.83456
1.0833353140042163,0,0,1.7549498168945312,0,0,0.6115200000000001
1.0847224089957308,0,0,0.5434837768554687,0,0,-0.22932
1.0861102650233079,0,0,-0.689530078125,0,0,-0.6115200000000001
1.087495972024044,0,0,1.1731588134765625,0,0,0.15288000000000002
1.0888744750118349,0,0,3.1938650146484373,0,0,1.98744
1.09025292302249,0,0,2.786850732421875,0,0,2.4460800000000003
1.0916402970033232,0,0,1.8459294799804686,0,0,1.60524
1.0931110030214768,0,0,-0.5410895751953124,0,0,-0.15288000000000002
1.0945020060171373,0,0,-0.8547299926757812,0,0,0.07644000000000001
1.0958871020120569,0,0,2.2098481323242187,0,0,1.37592
1.0972811790124979,0,0,3.1794998046874996,0,0,0.99372
1.0986606090154964,0,0,2.9664158569335934,0,0,1.68168
1.1000495570187923,0,0,1.2617442749023438,0,0,1.60524
1.1014372080098838,0,0,-0.16041151123046873,0,0,-0.68796
1.1028251190145966,0,0,0.8188169677734375,0,0,0.07644000000000001
1.1042123259976506,0,0,1.3910311645507811,0,0,1.1465999999999998
1.1055990880122408,0,0,2.3678654418945313,0,0,1.07016
1.1070090730208904,0,0,1.8650830932617186,0,0,1.37592
1.1083980020193849,0,0,1.0366893188476562,0,0,1.911
1.1097851539961994,0,0,-0.07422025146484375,0,0,0.22932
1.1111743049987126,0,0,1.5729904907226562,0,0,0.84084
1.1125605679990258,0,0,2.147598889160156,0,0,2.2931999999999997
1.1139476080134045,0,0,2.2481553588867187,0,0,1.75812
1.1153350929962471,0,0,1.6208745239257811,0,0,0.84084
1.1167214850138407,0,0,0.33039982910156246,0,0,0.3822
1.1181081920221914,0,0,0.08140285644531249,0,0,0.0
1.119494973012479,0,0,1.7669208251953124,0,0,0.99372
1.1208806619979441,0,0,2.528276953125,0,0,1.2230400000000001
1.1222667760157492,0,0,2.0087351928710935,0,0,1.07016
1.1236535019997973,0,0,1.2880804931640624,0,0,0.3822
1.1250405980099458,0,0,-0.36631285400390623,0,0,-1.2994800000000002
1.126428935007425,0,0,-0.34237083740234375,0,0,0.30576000000000003
1.1278159939975012,0,0,1.7262193969726563,0,0,0.68796
1.1292026260052808,0,0,2.4684219116210935,0,0,1.911
1.1305894080142025,0,0,2.3965958618164063,0,0,2.2931999999999997
1.1319774480070919,0,0,1.1827356201171875,0,0,2.2167600000000003
1.133363785018446,0,0,0.0430956298828125,0,0,-9.784320000000001
1.134750602999702,0,0,1.3168109130859373,0,0,0.22932
1.1361380320158787,0,0,2.1164742675781247,0,0,1.2230400000000001
1.137525405996712,0,0,2.9496564453125,0,0,1.68168
1.138917408999987,0,0,2.3582886352539063,0,0,1.68168
1.1402965419983957,0,0,1.2976572998046874,0,0,1.5288
1.1416841199970804,0,0,-0.6655880615234374,0,0,-0.3822
1.1430735670146532,0,0,0.5410895751953124,0,0,-0.30576000000000003
1.1444564039993566,0,0,0.9552864624023437,0,0,0.91728
1.1458364450081717,0,0,1.9225439331054686,0,0,0.7644
1.147216189012397,0,0,1.6807295654296874,0,0,1.07016
1.1485947110049892,0,0,1.0917559570312498,0,0,1.45236
1.1499732510128524,0,0,0.36631285400390623,0,0,0.7644
1.1513586060027592,0,0,1.388636962890625,0,0,1.1465999999999998
1.1527459430217277,0,0,2.090138049316406,0,0,1.68168
1.1541325760190375,0,0,2.1308394775390624,0,0,1.2994800000000002
1.1555163570155855,0,0,1.7118541870117185,0,0,1.2230400000000001
1.1568949530192185,0,0,0.8714894042968749,0,0,0.0
1.1582728830107953,0,0,0.19393033447265623,0,0,0.53508
1.1596593120193575,0,0,1.6807295654296874,0,0,0.30576000000000003
1.1610459630028345,0,0,1.9728221679687499,0,0,0.30576000000000003
1.1624314110085834,0,0,1.6831237670898436,0,0,0.84084
1.163817081018351,0,0,0.8906430175781249,0,0,0.99372
1.1652117880003061,0,0,-0.02154781494140625,0,0,-0.53508
1.1665998650132678,0,0,-0.3064578125,0,0,0.6115200000000001
1.1679866280173883,0,0,2.051830822753906,0,0,1.83456
1.169372372009093,0,0,2.3056161987304686,0,0,1.68168
1.1707575420150533,0,0,1.9512743530273435,0,0,2.36964
1.1721431010228116,0,0,1.3766659545898436,0,0,1.5288
1.1735283640155103,0,0,0.44053310546874996,0,0,0.0
1.1749135340214707,0,0,1.7884686401367187,0,0,0.7644
1.1762987410183996,0,0,1.9967641845703124,0,0,1.911
1.177683522022562,0,0,2.0087351928710935,0,0,0.7644
1.1790696920070332,0,0,1.3838485595703125,0,0,0.7644
1.1804548439977225,0,0,0.7924807495117187,0,0,1.07016
1.1818395320151467,0,0,-0.06703764648437499,0,0,0.0
1.1832260719966143,0,0,1.39821376953125,0,0,0.0
1.1846170939970762,0,0,1.946485949707031,0,0,1.5288
1.1860136160103139,0,0,1.448492004394531,0,0,0.84084
1.1877709300024435,0,0,0.842758984375,0,0,1.83456
1.1891771930095274,0,0,0.33039982910156246,0,0,0.15288000000000002
1.1905657880124636,0,0,0.35673604736328124,0,0,2.14032
1.1919790510146413,0,0,2.7365724975585937,0,0,2.36964
1.193367350002518,0,0,2.839523168945312,0,0,1.37592
1.1947541690024082,0,0,1.0773907470703123,0,0,-8.71416
1.1961427460191771,0,0,0.9816226806640624,0,0,0.68796
1.197529786004452,0,0,0.40462008056640625,0,0,-0.99372
1.1989289010234643,0,0,2.1691467041015624,0,0,0.68796
1.2003154779959004,0,0,2.0829554443359375,0,0,2.4460800000000003
1.2017020549974404,0,0,1.388636962890625,0,0,1.2230400000000001
1.203091447998304,0,0,0.5291185668945312,0,0,0.30576000000000003
1.204479636013275,0,0,0.11252747802734374,0,0,-9.09636
1.2058813250041567,0,0,0.031124621582031248,0,0,0.0
1.2072954940085765,0,0,2.068590234375,0,0,0.91728
1.208681312011322,0,0,2.9975404785156248,0,0,2.5989600000000004
1.2100677050184458,0,0,2.47081611328125,0,0,2.2167600000000003
1.211454782023793,0,0,1.4820108276367188,0,0,1.1465999999999998
1.2128400079964194,0,0,-0.38786066894531246,0,0,-0.22932
1.2142305110173766,0,0,-0.39743747558593745,0,0,-0.15288000000000002
1.2156190140231047,0,0,2.0925322509765625,0,0,0.6115200000000001
1.2170046660176013,0,0,2.959233251953125,0,0,1.68168
1.2183906320133246,0,0,2.549824768066406,0,0,1.07016
1.2197773210064042,0,0,0.699106884765625,0,0,1.5288
1.2211628060031217,0,0,-0.35673604736328124,0,0,-1.2230400000000001
1.2225508830160834,0,0,-0.5722141967773438,0,0,0.91728
1.22395481201238,0,0,2.0446482177734375,0,0,1.75812
1.2253727220231667,0,0,2.8036101440429686,0,0,0.7644
1.2267668740241788,0,0,1.4820108276367188,0,0,0.84084
1.2281538399984129,0,0,1.1276689819335937,0,0,1.1465999999999998
1.2295487509982195,0,0,0.1484405029296875,0,0,0.15288000000000002
1.230935125000542,0,0,2.2864625854492187,0,0,1.1465999999999998
1.2323221280239522,0,0,2.4109610717773435,0,0,2.2167600000000003
1.233707945997594,0,0,1.649604943847656,0,0,0.99372
1.2351121530227829,0,0,0.6272808349609375,0,0,0.15288000000000002
1.2364985269960016,0,0,0.07422025146484375,0,0,-0.3822
1.2378853450063616,0,0,0.2657563842773437,0,0,9.40212
1.2392751630104613,0,0,2.3535002319335936,0,0,1.2230400000000001
1.2406654250225984,0,0,3.2632968627929686,0,0,2.82828
1.2420513179968111,0,0,2.1021090576171875,0,0,1.75812
1.2434379510232247,0,0,0.7015010864257812,0,0,0.91728
1.2448231580201536,0,0,-1.2497732666015624,0,0,-1.2994800000000002
1.2462110500200652,0,0,-0.6679822631835937,0,0,-0.53508
1.2475992389954627,0,0,2.7940333374023436,0,0,0.84084
1.2489849640114699,0,0,3.9695863525390624,0,0,2.2167600000000003
1.2503705970011652,0,0,3.361459130859375,0,0,2.36964
1.2517566190217622,0,0,0.7422025146484375,0,0,2.06388
1.2531427150242962,0,0,-1.1156979736328125,0,0,-1.1465999999999998
1.2545360140211415,0,0,0.8643067993164062,0,0,-0.3822
1.2559255920059513,0,0,2.147598889160156,0,0,1.07016
1.257311891997233,0,0,3.8139632446289062,0,0,1.1465999999999998
1.258697839017259,0,0,1.8770541015625,0,0,1.911
1.2600834720069543,0,0,0.9935936889648437,0,0,1.2230400000000001
1.2614686790038832,0,0,-0.8690952026367187,0,0,-1.1465999999999998
1.2628559230070096,0,0,0.8571241943359375,0,0,0.07644000000000001
1.2642419449985027,0,0,1.7717092285156248,0,0,1.60524
1.2656272820022423,0,0,2.480392919921875,0,0,0.84084
1.2670158780238125,0,0,1.6543933471679686,0,0,1.37592
1.268402159010293,0,0,0.9696516723632812,0,0,0.91728
1.269787866011029,0,0,-0.24660277099609373,0,0,0.30576000000000003
1.2711757399956696,0,0,1.3910311645507811,0,0,0.84084
1.2725731499958783,0,0,3.028665100097656,0,0,2.5989600000000004
1.2739592459984124,0,0,2.3726538452148436,0,0,1.5288
1.2753456940117758,0,0,1.5155296508789062,0,0,0.99372
1.2767303270229604,0,0,-0.5865794067382812,0,0,-0.30576000000000003
1.2781179599987809,0,0,-0.46208092041015625,0,0,0.0
1.2795051670109387,0,0,2.1260510742187497,0,0,1.2994800000000002
1.2808904109988362,0,0,3.4428619873046875,0,0,2.14032
1.2822834700054955,0,0,3.0214824951171875,0,0,2.14032
1.2836695480218623,0,0,0.7996633544921875,0,0,1.68168
1.2850552550225984,0,0,-1.0702081420898437,0,0,-1.37592
1.2864418320241384,0,0,-1.7405846069335937,0,0,-0.84084
1.2878287430212367,0,0,1.7836802368164062,0,0,0.53508
1.2892144130019005,0,0,3.4811692138671875,0,0,1.75812
1.2906240270240232,0,0,2.480392919921875,0,0,2.14032
1.2920115670131054,0,0,1.7429788085937499,0,0,2.6754
1.2933979780063964,0,0,-0.3854664672851562,0,0,-0.45864
1.29478596302215,0,0,0.016759411621093748,0,0,-0.30576000000000003
1.296172763017239,0,0,1.3623007446289062,0,0,1.45236
1.2975594699964859,0,0,2.9640216552734375,0,0,0.91728
1.2989455290080514,0,0,2.3295582153320313,0,0,1.45236
1.3003321250143927,0,0,1.8818425048828125,0,0,0.99372
1.3017183690099046,0,0,-0.5578489868164063,0,0,0.0
1.3031262980075553,0,0,0.7900865478515624,0,0,9.631440000000001
1.3045126710203476,0,0,2.281674182128906,0,0,1.75812
1.305898304010043,0,0,2.059013427734375,0,0,1.07016
1.3072853260091506,0,0,1.7118541870117185,0,0,0.99372
1.3086702559958212,0,0,-0.17238251953125,0,0,-0.53508
1.310057221999159,0,0,-0.19393033447265623,0,0,-0.15288000000000002
1.3114461330114864,0,0,1.0845733520507812,0,0,0.3822
1.3128415620012674,0,0,2.9759926635742184,0,0,1.98744
1.3142290280084126,0,0,2.3247698120117186,0,0,1.98744
1.315615568018984,0,0,1.1707646118164061,0,0,1.60524
1.317016646004049,0,0,-0.16998831787109375,0,0,-0.30576000000000003
1.3184047230170108,0,0,-0.5961562133789062,0,0,-0.99372
1.319792115013115,0,0,2.2002713256835937,0,0,1.1465999999999998
1.3211782300204504,0,0,3.2130186279296873,0,0,0.99372
1.3225639000011142,0,0,2.001552587890625,0,0,1.83456
1.323967439995613,0,0,1.2114660400390624,0,0,1.2994800000000002
1.3253530360234436,0,0,-0.33518823242187495,0,0,-0.99372
1.3267400019976776,0,0,0.4572925170898437,0,0,-0.22932
1.3281266170088202,0,0,1.4221557861328125,0,0,0.53508
1.3295125830045436,0,0,2.473210314941406,0,0,1.45236
1.330898401007289,0,0,2.3247698120117186,0,0,2.36964
1.3322846080118325,0,0,1.9129671264648436,0,0,2.4460800000000003
1.333670649008127,0,0,-0.5865794067382812,0,0,0.15288000000000002
1.3350579850084614,0,0,0.201112939453125,0,0,-0.6115200000000001
1.3364427110063843,0,0,2.291250988769531,0,0,1.1465999999999998
1.3378265850187745,0,0,2.8945898071289062,0,0,1.60524
1.3394994920236059,0,0,2.1116858642578125,0,0,1.68168
1.3409431620093528,0,0,0.5291185668945312,0,0,0.30576000000000003
1.3423300540016498,0,0,-0.5315127685546874,0,0,0.0
1.34374281601049,0,0,0.9337386474609375,0,0,0.84084
1.3451404490042478,0,0,1.9105729248046874,0,0,0.7644
1.3465226010011975,0,0,1.8914193115234375,0,0,1.37592
1.3479043260158505,0,0,1.4915876342773438,0,0,1.2994800000000002
1.3492834220232908,0,0,0.44532150878906246,0,0,-0.45864
1.350664185010828,0,0,1.0654197387695312,0,0,0.7644
1.3520437070110347,0,0,2.042254016113281,0,0,2.4460800000000003
1.3534221550216898,0,0,2.032677209472656,0,0,1.2230400000000001
1.354803232010454,0,0,1.369483349609375,0,0,0.99372
1.356186865014024,0,0,1.2569558715820313,0,0,1.2994800000000002
1.357565850019455,0,0,0.13168109130859373,0,0,-0.7644
1.3589455760084093,0,0,1.3048399047851562,0,0,0.45864
1.3603672640165314,0,0,2.0350714111328125,0,0,1.911
1.361747729999479,0,0,2.0566192260742184,0,0,1.45236
1.3631277340173256,0,0,1.2330138549804688,0,0,1.2230400000000001
1.364506848010933,0,0,-0.24660277099609373,0,0,0.91728
1.3658869810169563,0,0,-0.4429273071289062,0,0,-0.45864
1.3672730030084495,0,0,0.97683427734375,0,0,0.15288000000000002
1.3686602470115758,0,0,2.741360900878906,0,0,2.14032
1.3700484730070457,0,0,2.3918074584960936,0,0,1.75812
1.371436421002727,0,0,1.1468225952148436,0,0,1.5288
1.3728222570207436,0,0,0.5602431884765625,0,0,0.84084
1.374208761000773,0,0,0.07422025146484375,0,0,0.15288000000000002
1.375595505000092,0,0,1.9009961181640624,0,0,1.07016
1.3769821379974019,0,0,2.8107927490234372,0,0,0.91728
1.3783684560039546,0,0,2.6048914062499997,0,0,1.37592
1.3797551630123053,0,0,1.1731588134765625,0,0,0.99372
1.3811417219985742,0,0,0.18435352783203124,0,0,-0.3822
1.3825288549996912,0,0,0.6272808349609375,0,0,0.6115200000000001
1.3839161170180887,0,0,1.484405029296875,0,0,1.07016
1.3853032320039347,0,0,2.0278888061523435,0,0,0.45864
1.3866893280064687,0,0,1.3215993164062498,0,0,1.5288
1.3880762940098066,0,0,1.3958195678710936,0,0,1.83456
1.3894630200229585,0,0,0.7589619262695312,0,0,-9.784320000000001
1.3908497640222777,0,0,1.3120225097656248,0,0,1.07016
1.3922448780213017,0,0,1.5586252807617187,0,0,1.45236
1.393632826016983,0,0,1.4149731811523436,0,0,0.22932
1.3950199400132988,0,0,1.209071838378906,0,0,-9.47856
1.3964070730144158,0,0,0.689530078125,0,0,0.68796
1.3977939470205456,0,0,0.699106884765625,0,0,0.0
1.399192839016905,0,0,1.5658078857421873,0,0,0.53508
1.4005786199995782,0,0,2.3918074584960936,0,0,2.5989600000000004
1.4019657160097267,0,0,1.7477672119140624,0,0,1.83456
1.4033536270144396,0,0,0.8834604125976562,0,0,0.45864
1.4047467230120674,0,0,-0.4525041137695312,0,0,-9.555
1.406134948018007,0,0,-0.296881005859375,0,0,0.53508
1.407526691997191,0,0,2.999934680175781,0,0,0.91728
1.4089270850236062,0,0,3.6080619018554687,0,0,2.4460800000000003
1.4103133660100866,0,0,3.2225954345703123,0,0,2.2931999999999997
1.4117006470041815,0,0,0.6081272216796875,0,0,1.45236
1.4130874650145415,0,0,-1.0031704956054688,0,0,-0.7644
1.4144757280009799,0,0,0.1580173095703125,0,0,0.0
1.4158626200223807,0,0,1.9776105712890624,0,0,0.7644
1.4172492159996182,0,0,3.1004911499023438,0,0,0.84084
1.4186359040031675,0,0,2.003946789550781,0,0,1.2994800000000002
1.4200234260060824,0,0,1.2138602416992186,0,0,1.60524
1.4214098369993735,0,0,-0.5363011718749999,0,0,-0.45864
1.422796933009522,0,0,0.5985504150390625,0,0,0.7644
1.4241838059970178,0,0,1.678335363769531,0,0,1.2994800000000002
1.4255697909975424,0,0,2.1452046874999997,0,0,0.68796
1.4269561840046663,0,0,1.7573440185546874,0,0,0.68796
1.4283430940122344,0,0,0.49799394531249996,0,0,1.37592
1.4297291350085288,0,0,0.3280056274414062,0,0,9.555
1.431116360006854,0,0,1.9847931762695312,0,0,1.07016
1.4325021600234322,0,0,2.8467057739257813,0,0,2.2167600000000003
1.4338882740121335,0,0,1.9129671264648436,0,0,1.37592
1.4352722780022305,0,0,0.6392518432617187,0,0,-0.72618
1.4366510590189137,0,0,-1.0271125122070313,0,0,-0.99372
1.4381273760227486,0,0,-0.18435352783203124,0,0,0.15288000000000002
1.4397383769974113,0,0,3.3973721557617185,0,0,1.2230400000000001
1.4411315280012786,0,0,3.536235852050781,0,0,1.68168
1.442517957999371,0,0,1.1851298217773436,0,0,2.2931999999999997
1.4439041090081446,0,0,-0.13168109130859373,0,0,1.1465999999999998
1.445291353011271,0,0,-1.4101847778320311,0,0,-1.60524
1.4466793200117536,0,0,0.7278373046875,0,0,0.07644000000000001
1.4481002110114787,0,0,3.1699229980468746,0,0,2.14032
1.4494870670023374,0,0,4.074931225585937,0,0,1.37592
1.4508798850001767,0,0,2.7437551025390623,0,0,2.2167600000000003
1.4522859250137117,0,0,1.158793603515625,0,0,2.06388
1.453673242998775,0,0,-1.9943699829101562,0,0,-1.45236
1.4550707830057945,0,0,-0.033518823242187495,0,0,-0.53508
1.4564697120222263,0,0,3.746925598144531,0,0,1.75812
1.4578605680144392,0,0,3.5027170288085934,0,0,1.2994800000000002
1.4592476270045154,0,0,2.3774422485351563,0,0,1.37592
1.4606325560016558,0,0,-0.6943184814453125,0,0,0.30576000000000003
1.4620193740120158,0,0,-1.5394716674804687,0,0,0.15288000000000002
1.4634059140225872,0,0,1.4173673828125,0,0,0.0
1.4647905660094693,0,0,2.5641899780273434,0,0,2.2931999999999997
1.4661761620081961,0,0,2.849099975585937,0,0,1.83456
1.4675615730229765,0,0,1.649604943847656,0,0,1.75812
1.4689472610189114,0,0,0.28012159423828126,0,0,0.91728
1.4703335420053918,0,0,0.36391865234375,0,0,0.22932
1.471719823020976,0,0,1.7405846069335937,0,0,1.07016
1.4731050860136747,0,0,2.7748797241210936,0,0,1.1465999999999998
1.4744904230174143,0,0,2.2170307373046874,0,0,1.5288
1.4758762040000875,0,0,1.7262193969726563,0,0,1.45236
1.477262022002833,0,0,-0.7302315063476562,0,0,-0.99372
1.4786489700200036,0,0,0.201112939453125,0,0,0.15288000000000002
1.4800349730066955,0,0,1.7573440185546874,0,0,1.60524
1.4814199020038359,0,0,2.789244934082031,0,0,1.37592
1.4828057020204142,0,0,1.8818425048828125,0,0,1.5288
1.484191372001078,0,0,1.3048399047851562,0,0,1.45236
1.4855767090048175,0,0,-1.659181750488281,0,0,-1.07016
1.4869691010098904,0,0,-0.10773907470703124,0,0,0.0
1.4883582339971326,0,0,3.019088293457031,0,0,1.83456
1.489744922000682,0,0,3.4332851806640625,0,0,1.83456
1.4911316670186352,0,0,2.636016027832031,0,0,1.83456
1.492528761998983,0,0,0.21787235107421873,0,0,2.2167600000000003
1.4939155809988733,0,0,-1.6256629272460936,0,0,-1.68168
1.4953029730240814,0,0,1.8626888916015625,0,0,-1.2230400000000001
1.496689179999521,0,0,3.706224169921875,0,0,1.911
1.4980749980022665,0,0,4.237736938476562,0,0,2.36964
1.4994614270108286,0,0,1.426944189453125,0,0,1.60524
1.5008466900035273,0,0,-0.5291185668945312,0,0,-0.53508
1.5022333600209095,0,0,-1.1180921752929687,0,0,-0.22932
1.5036211780097801,0,0,0.6967126831054687,0,0,-0.53508
1.505007255997043,0,0,2.27927998046875,0,0,0.84084
1.5063934630015865,0,0,2.877830395507812,0,0,1.68168
1.5077795590041205,0,0,2.6192566162109374,0,0,2.4460800000000003
1.5091653210110962,0,0,1.2138602416992186,0,0,1.2230400000000001
1.5105505280080251,0,0,-0.7350199096679687,0,0,0.30576000000000003
1.5119369570165873,0,0,1.1923124267578125,0,0,1.60524
1.5133227390178945,0,0,3.450044592285156,0,0,1.2230400000000001
1.5147148340183776,0,0,2.5354595581054684,0,0,1.75812
1.5161012269963976,0,0,2.085349645996094,0,0,2.14032
1.5174871369963512,0,0,-0.5267243652343749,0,0,-0.84084
1.5188736410054844,0,0,-0.258573779296875,0,0,-0.3822
1.520260348013835,0,0,1.89620771484375,0,0,1.07016
1.5216462220123503,0,0,2.24097275390625,0,0,1.1465999999999998
1.5230323180148844,0,0,1.9393033447265624,0,0,0.91728
1.5244181730085984,0,0,0.6153098266601562,0,0,1.911
1.5258033800055273,0,0,-0.5793968017578125,0,0,9.24924
1.5271900310181081,0,0,0.30885201416015623,0,0,0.84084
1.5285748870228417,0,0,2.389413256835937,0,0,2.2931999999999997
1.529960445011966,0,0,2.858676782226562,0,0,1.68168
1.5313466530060396,0,0,1.8818425048828125,0,0,1.2230400000000001
1.5327314150054008,0,0,0.7876923461914062,0,0,0.0
1.5341170850151684,0,0,-0.7565677246093749,0,0,-0.7644
1.5355100510059856,0,0,1.5346832641601562,0,0,9.40212
1.5368930179974996,0,0,2.540247961425781,0,0,1.2994800000000002
1.5382765210233629,0,0,2.0829554443359375,0,0,2.36964
1.5397433750040364,0,0,1.5418658691406248,0,0,1.37592
1.5411230270110536,0,0,0.34715924072265625,0,0,-0.7644
1.5425030300102662,0,0,-0.5674257934570313,0,0,0.22932
1.5439018110046163,0,0,1.1611878051757811,0,0,0.53508
1.5452980740228668,0,0,3.1555577880859373,0,0,1.07016
1.546677559003001,0,0,2.5641899780273434,0,0,2.14032
1.5480600809969474,0,0,2.521094348144531,0,0,2.6754
1.5494387510116212,0,0,-0.00239420166015625,0,0,-0.30576000000000003
1.5508188100066036,0,0,-0.05985504150390625,0,0,0.22932
1.552199202007614,0,0,1.2689268798828124,0,0,0.84084
1.5536035020195413,0,0,2.032677209472656,0,0,-0.22932
1.5550532820052467,0,0,1.9895815795898437,0,0,0.0
1.556482785003027,0,0,1.5227122558593749,0,0,1.5288
1.5578642330074217,0,0,0.27293898925781246,0,0,0.30576000000000003
1.5592449399991892,0,0,1.2282254516601563,0,0,0.91728
1.5606237400206737,0,0,0.9959878906249999,0,0,1.83456
1.5620028730190825,0,0,1.254561669921875,0,0,0.99372
1.563388042995939,0,0,0.9744400756835937,0,0,0.22932
1.5647753240191378,0,0,0.9361328491210937,0,0,-0.30576000000000003
1.566163512005005,0,0,1.9488801513671874,0,0,0.45864
1.5675505899998825,0,0,3.124433166503906,0,0,1.45236
1.5689377410162706,0,0,3.0238766967773434,0,0,2.4460800000000003
1.5703243370226119,0,0,1.235408056640625,0,0,1.98744
1.5717110440018587,0,0,0.5003881469726562,0,0,1.1465999999999998
1.5731149180210195,0,0,-0.33758243408203126,0,0,-1.2230400000000001
1.5745049400138669,0,0,0.3806780639648437,0,0,-0.7644
1.5758922210079618,0,0,2.31758720703125,0,0,1.37592
1.5772791130002588,0,0,2.9831752685546875,0,0,1.07016
1.5786657459975686,0,0,1.5873557006835937,0,0,1.911
1.5800602310046088,0,0,0.7254431030273437,0,0,1.83456
1.5814472530037165,0,0,-0.86191259765625,0,0,-0.84084
1.5828356630227063,0,0,0.5410895751953124,0,0,0.7644
1.5842223520157859,0,0,2.6623522460937497,0,0,2.06388
1.5856086880085059,0,0,2.877830395507812,0,0,1.37592
1.5870100810134318,0,0,1.8531120849609375,0,0,1.75812
1.5883982880041003,0,0,0.46686932373046874,0,0,1.911
1.5897848840104416,0,0,-0.16759411621093748,0,0,-0.15288000000000002
1.5911731829983182,0,0,2.1619640991210938,0,0,0.0
1.5925587980018463,0,0,2.212242333984375,0,0,1.83456
1.593945357017219,0,0,2.3439234252929686,0,0,1.2994800000000002
1.5953322300047148,0,0,0.9864110839843749,0,0,0.84084
1.5967179000144824,0,0,0.3016694091796875,0,0,0.45864
1.5981042550120037,0,0,-0.45010991210937495,0,0,0.45864
1.5994915000046603,0,0,2.166752502441406,0,0,0.84084
1.6008781880082097,0,0,2.3965958618164063,0,0,1.75812
1.6022647280187812,0,0,1.407790576171875,0,0,1.83456
1.6036518430046272,0,0,0.9265560424804687,0,0,0.91728
1.6050381980021484,0,0,0.05985504150390625,0,0,-1.2230400000000001
1.6064250720082782,0,0,1.0893617553710937,0,0,0.91728
1.6078121309983544,0,0,2.616862414550781,0,0,1.07016
1.6091983380028978,0,0,2.806004345703125,0,0,1.5288
1.6105842110118829,0,0,1.5298948608398437,0,0,1.83456
1.6120410470175557,0,0,1.1037269653320312,0,0,1.60524
1.6134433100232854,0,0,-1.1611878051757811,0,0,-1.2230400000000001
1.6148334059980698,0,0,0.36631285400390623,0,0,-0.3822
1.616221354022855,0,0,3.1387983764648437,0,0,1.68168
1.617608561005909,0,0,3.1483751831054687,0,0,0.91728
1.6190121929976158,0,0,1.7621324218749999,0,0,1.2994800000000002
1.6204007340129465,0,0,-0.28730419921875,0,0,0.99372
1.6217951810103841,0,0,-1.3287819213867187,0,0,9.631440000000001
1.6233174980152398,0,0,2.099714855957031,0,0,0.0
1.6247831119981129,0,0,2.786850732421875,0,0,1.83456
1.626256577001186,0,0,1.9512743530273435,0,0,1.37592
1.6277127280191053,0,0,1.3335703247070312,0,0,1.45236
1.6292133970127907,0,0,-1.120486376953125,0,0,-0.84084
1.6307343610096723,0,0,0.43574470214843747,0,0,0.68796
1.6322731219988782,0,0,3.1220389648437497,0,0,2.14032
1.6337783100025263,0,0,3.0214824951171875,0,0,1.60524
1.6353315699961968,0,0,0.373495458984375,0,0,0.7644
1.6367981840157881,0,0,-0.86191259765625,0,0,-0.91728
1.6382787420006935,0,0,0.45489831542968745,0,0,0.7644
1.6397302630066406,0,0,2.583343591308594,0,0,1.68168
1.6411403030215297,0,0,3.6248213134765623,0,0,1.83456
1.642527677002363,0,0,1.9823989746093749,0,0,2.4460800000000003
1.6439154389954638,0,0,1.1707646118164061,0,0,1.911
1.6453013319987804,0,0,-1.6472107421875,0,0,-1.75812
1.646690131019568,0,0,0.28490999755859375,0,0,0.0
1.6480769860208966,0,0,3.2824504760742186,0,0,1.1465999999999998
1.6494623229955323,0,0,3.4261025756835934,0,0,0.68796
1.6508480670163408,0,0,2.185906115722656,0,0,1.68168
1.6522337930218782,0,0,0.296881005859375,0,0,2.14032
1.6536190549959429,0,0,-1.5442600708007812,0,0,-0.7644
1.6550080029992387,0,0,-0.5363011718749999,0,0,-0.84084
1.6563987660047133,0,0,2.863465185546875,0,0,1.911
1.6577839360106736,0,0,3.289633081054687,0,0,1.75812
1.6591704949969426,0,0,1.6232687255859375,0,0,1.68168
1.6605557760049123,0,0,-0.016759411621093748,0,0,0.3822
1.6619418350164779,0,0,-1.4053963745117186,0,0,0.0
1.6633391530194785,0,0,1.2976572998046874,0,0,-0.84084
1.6647245450003538,0,0,2.308010400390625,0,0,1.75812
1.6661100299970713,0,0,2.379836450195312,0,0,1.911
1.6674986809957772,0,0,2.365471240234375,0,0,1.60524
1.6688994810101576,0,0,0.7972691528320313,0,0,1.2994800000000002
1.6702848730201367,0,0,-0.39983167724609375,0,0,0.91728
1.6716723580029793,0,0,1.4532804077148436,0,0,0.3822
1.6730581760057248,0,0,3.1555577880859373,0,0,0.84084
1.674443735013483,0,0,1.879448303222656,0,0,1.98744
1.6758350350137334,0,0,2.3511060302734372,0,0,1.911
1.6772209640184883,0,0,-0.7517793212890624,0,0,-1.2230400000000001
1.6786083379993215,0,0,-0.40462008056640625,0,0,0.45864
1.6799954710004386,0,0,0.93852705078125,0,0,1.911
1.6813806779973675,0,0,2.712630480957031,0,0,0.7644
1.6827666250173934,0,0,2.4947581298828125,0,0,2.14032
1.6841526290227193,0,0,0.5770026000976562,0,0,1.98744
1.6855383170186542,0,0,-0.8786720092773437,0,0,-0.6115200000000001
1.6869248020229861,0,0,-0.33039982910156246,0,0,-0.7644
1.6883535090018995,0,0,2.549824768066406,0,0,1.60524
1.689913787995465,0,0,3.5984850952148437,0,0,1.45236
1.6913427720137406,0,0,2.123656872558594,0,0,1.75812
1.6927531640103552,0,0,0.30406361083984373,0,0,0.45864
1.694139557017479,0,0,-1.5131354492187499,0,0,-0.91728
1.6955705959990155,0,0,0.9744400756835937,0,0,0.07644000000000001
1.6969571550143883,0,0,2.427720483398437,0,0,1.2230400000000001
1.6983431590197142,0,0,2.583343591308594,0,0,2.2167600000000003
1.6997290690196678,0,0,2.4061726684570313,0,0,1.911
1.7011147770099342,0,0,-0.7015010864257812,0,0,-0.68796
1.702502465021098,0,0,-1.189918225097656,0,0,0.22932
1.7038895610021427,0,0,0.45489831542968745,0,0,0.7644
1.7052753980096895,0,0,3.31357509765625,0,0,0.91728
1.7066611790214665,0,0,2.887407202148437,0,0,2.06388
1.708046829997329,0,0,1.2952630981445312,0,0,2.90472
1.7094326670048758,0,0,-0.26815058593749996,0,0,-0.53508
1.7108191330044065,0,0,-0.6751648681640625,0,0,-0.99372
1.712219544016989,0,0,1.5873557006835937,0,0,1.45236
1.7136055470036808,0,0,2.9664158569335934,0,0,0.30576000000000003
1.7150025879964232,0,0,2.4588451049804685,0,0,1.98744
1.7163893690158147,0,0,1.177947216796875,0,0,1.911
1.7177749830007087,0,0,-0.21787235107421873,0,0,-0.30576000000000003
1.719162209017668,0,0,0.7852981445312499,0,0,-0.68796
1.7205481010023504,0,0,1.5825672973632812,0,0,1.2230400000000001
1.7219339559960645,0,0,2.473210314941406,0,0,1.2994800000000002
1.7233207930112258,0,0,2.1835119140624997,0,0,1.37592
1.724705778004136,0,0,0.93852705078125,0,0,-8.943480000000001
1.7260920590197202,0,0,-0.3016694091796875,0,0,0.45864
1.7274791180097964,0,0,1.158793603515625,0,0,-0.68796
1.728864862001501,0,0,1.70467158203125,0,0,1.45236
1.7302505870175082,0,0,2.090138049316406,0,0,1.911
1.7316681460069958,0,0,2.1739351074218747,0,0,1.75812
1.733056260010926,0,0,-0.3112462158203125,0,0,-0.30576000000000003
1.7344458190200385,0,0,-0.6153098266601562,0,0,-9.631440000000001
1.7358319890045095,0,0,0.8571241943359375,0,0,0.6115200000000001
1.7372160300146788,0,0,3.1747114013671873,0,0,0.7644
1.7385995149961673,0,0,2.5067291381835934,0,0,2.5989600000000004
1.740010814013658,0,0,1.24498486328125,0,0,2.4460800000000003
1.7413905770226847,0,0,-0.35194764404296874,0,0,-0.3822
1.7427716910024174,0,0,-1.0606313354492187,0,0,0.0
1.7442152310104575,0,0,1.7286135986328124,0,0,1.60524
1.7455969570146408,0,0,3.27526787109375,0,0,0.3822
1.7469824599975254,0,0,3.0119056884765625,0,0,1.83456
1.7483626860193908,0,0,1.649604943847656,0,0,2.90472
1.749757484998554,0,0,0.21308394775390624,0,0,0.0
1.7511378590133972,0,0,0.13168109130859373,0,0,-0.7644
1.7525184180121869,0,0,1.0989385620117187,0,0,1.1465999999999998
1.7538971989997663,0,0,1.9967641845703124,0,0,0.15288000000000002
1.7552777770033572,0,0,2.291250988769531,0,0,0.6115200000000001
1.7566646689956542,0,0,1.4508862060546874,0,0,1.45236
1.758043024019571,0,0,-0.19632453613281248,0,0,0.0
1.7594240269972943,0,0,0.9074024291992187,0,0,0.0
1.7608024200017098,0,0,1.4867992309570313,0,0,1.2230400000000001
1.7621807570103556,0,0,1.8315642700195311,0,0,1.60524
1.7635664270201232,0,0,1.8842367065429686,0,0,1.07016
1.76495202301885,0,0,0.1771709228515625,0,0,-8.867040000000001
1.7663388780201785,0,0,-0.32082302246093747,0,0,0.99372
1.7677258440235164,0,0,1.4437036010742186,0,0,0.6115200000000001
1.769111347006401,0,0,3.1028853515624997,0,0,0.99372
1.770502202998614,0,0,1.9584569580078124,0,0,1.5288
1.771887984010391,0,0,0.44532150878906246,0,0,1.68168
1.7732738199993037,0,0,-0.7757213378906249,0,0,-1.68168
1.7746615640062373,0,0,-0.5817910034179687,0,0,0.6115200000000001
1.7760480860015377,0,0,2.4564509033203126,0,0,1.75812
1.7774336820002645,0,0,3.0550013183593747,0,0,0.3822
1.778819260012824,0,0,1.9201497314453124,0,0,2.5989600000000004
1.780205115006538,0,0,0.7398083129882812,0,0,1.83456
1.7815906000032555,0,0,-0.565031591796875,0,0,-1.45236
1.7829773249977734,0,0,1.5682020874023437,0,0,0.07644000000000001
1.784363384009339,0,0,2.6886884643554687,0,0,2.2931999999999997
1.7857486650173087,0,0,3.2704794677734372,0,0,0.99372
1.78713526102365,0,0,1.9321207397460936,0,0,1.2230400000000001
1.7885195790149737,0,0,0.8978256225585937,0,0,1.75812
1.7899051010026596,0,0,-0.6751648681640625,0,0,-0.68796
1.7912927900033537,0,0,1.1252747802734375,0,0,-0.3822
1.7926782750000712,0,0,2.43250888671875,0,0,1.45236
1.7940638340078294,0,0,1.924938134765625,0,0,1.37592
1.7954501700005494,0,0,1.62805712890625,0,0,0.45864
1.796834951004712,0,0,-0.1867477294921875,0,0,0.22932
1.7982211210182868,0,0,-0.5698199951171875,0,0,0.84084
1.7996178100001998,0,0,1.1923124267578125,0,0,-0.22932
1.8010042210225947,0,0,2.607285607910156,0,0,0.15288000000000002
1.80238985401229,0,0,1.8602946899414061,0,0,1.83456
1.8037763379979879,0,0,1.7166425903320313,0,0,1.1465999999999998
1.8051624530053232,0,0,0.0047884033203125,0,0,-0.6115200000000001
1.8065496040217113,0,0,0.1005564697265625,0,0,1.45236
1.8079663300013635,0,0,2.4684219116210935,0,0,1.5288
1.8093510740145575,0,0,2.839523168945312,0,0,0.7644
1.8107374850078486,0,0,1.6352397338867186,0,0,1.83456
1.8121241360204294,0,0,0.0909796630859375,0,0,1.75812
1.8135124540131073,0,0,-1.0414777221679687,0,0,-2.14032
1.8149010320194066,0,0,1.8531120849609375,0,0,-9.555
1.8162880900199525,0,0,3.0980969482421874,0,0,2.36964
1.817674131016247,0,0,3.7229835815429686,0,0,0.6115200000000001
1.8190610790043138,0,0,1.4724340209960938,0,0,1.2230400000000001
1.8204469520132989,0,0,0.29448680419921874,0,0,0.91728
1.8218333080003504,0,0,-1.189918225097656,0,0,-1.2994800000000002
1.8232217550103087,0,0,1.1923124267578125,0,0,-0.68796
1.8246077219955623,0,0,3.095702746582031,0,0,2.4460800000000003
1.825993318023393,0,0,3.0980969482421874,0,0,2.06388
1.8273802280018572,0,0,2.1499930908203124,0,0,1.68168
1.8287652500148397,0,0,-1.426944189453125,0,0,1.75812
1.8301531239994802,0,0,-2.039859814453125,0,0,-0.68796
1.8315406090114266,0,0,0.05746083984375,0,0,-1.07016
1.8329268340021372,0,0,4.201823913574218,0,0,0.53508
1.8343129669956397,0,0,3.3973721557617185,0,0,1.83456
1.835699229995953,0,0,2.43250888671875,0,0,1.83456
1.8370846960169729,0,0,-0.9337386474609375,0,0,0.0
1.8384712920233142,0,0,-1.6041151123046875,0,0,0.0
1.8398573879967444,0,0,2.068590234375,0,0,9.47856
1.8412432800105307,0,0,3.31357509765625,0,0,0.45864
1.8426294500241056,0,0,2.8323405639648436,0,0,2.2931999999999997
1.844023601996014,0,0,0.86191259765625,0,0,1.98744
1.8454093460168224,0,0,-0.7661445312499999,0,0,-1.07016
1.8467966089956462,0,0,1.0630255371093749,0,0,0.7644
1.8481822420144454,0,0,2.6001030029296874,0,0,1.2230400000000001
1.8495685600209981,0,0,3.718195178222656,0,0,0.91728
1.8509543040127028,0,0,2.0063409912109376,0,0,1.2230400000000001
1.852339937002398,0,0,0.28969840087890625,0,0,2.06388
1.8537256810232066,0,0,-1.8363526733398436,0,0,-1.911
1.8551142950018402,0,0,0.6488286499023437,0,0,-1.2994800000000002
1.8565010390011594,0,0,3.1076737548828124,0,0,1.60524
1.8578867460018955,0,0,3.3303345092773435,0,0,1.45236
1.8592738980078138,0,0,2.2290017456054687,0,0,1.37592
1.8606586050009355,0,0,0.3064578125,0,0,0.91728
1.862044089997653,0,0,-2.8802245971679685,0,0,-0.7644
1.8634311670030002,0,0,-1.22583125,0,0,6.95604
1.8648169850057457,0,0,4.2329485351562495,0,0,-8.867040000000001
1.8662110260047484,0,0,3.8283284545898435,0,0,1.98744
1.8675986400048714,0,0,3.0550013183593747,0,0,0.91728
1.868984291999368,0,0,-1.0366893188476562,0,0,2.14032
1.8703709060209803,0,0,-2.7461493041992187,0,0,8.943480000000001
1.8717574280162808,0,0,0.258573779296875,0,0,-1.83456
1.8731439500115812,0,0,2.5713725830078125,0,0,0.45864
1.874529787019128,0,0,2.9185318237304685,0,0,0.91728
1.8759156050218735,0,0,1.3623007446289062,0,0,-0.30576000000000003
1.877301830012584,0,0,-0.5482721801757812,0,0,1.60524
1.8786893890064675,0,0,-1.5155296508789062,0,0,-2.14032
1.8800757260178216,0,0,0.4908113403320312,0,0,-0.7644
1.8814626740058884,0,0,1.39821376953125,0,0,2.75184
1.8828486400016118,0,0,2.04943662109375,0,0,0.07644000000000001
1.884234588011168,0,0,1.9632453613281249,0,0,2.6754
1.885620684013702,0,0,0.4477157104492187,0,0,2.2931999999999997
1.8870138540223707,0,0,-1.2425906616210938,0,0,6.6502799999999995
1.8884033570066094,0,0,-0.8116343627929687,0,0,1.45236
1.8897898050199728,0,0,3.071760729980469,0,0,8.0262
1.891175586002646,0,0,4.311957189941406,0,0,2.06388
1.892560645006597,0,0,2.731784094238281,0,0,1.2994800000000002
1.8939467040181626,0,0,-0.6057330200195312,0,0,0.22932
1.895332985004643,0,0,-2.6982652709960937,0,0,0.0
1.8967188960232306,0,0,-1.8842367065429686,0,0,-4.28064
1.8981057509954553,0,0,1.6639701538085936,0,0,0.30576000000000003
1.8994928650208749,0,0,2.942473840332031,0,0,-0.30576000000000003
1.9008784799952991,0,0,2.3151930053710936,0,0,2.52252
1.9022639830072876,0,0,0.3806780639648437,0,0,2.36964
1.9036499680078123,0,0,0.29927520751953124,0,0,0.45864
1.905035878997296,0,0,-1.8076222534179687,0,0,0.3822
1.9064229190116748,0,0,-0.30885201416015623,0,0,-3.13404
1.9078100339975208,0,0,4.352658618164062,0,0,2.4460800000000003
1.9091961670201272,0,0,4.170699291992188,0,0,-0.45864
1.9105825959995855,0,0,3.399766357421875,0,0,4.815720000000001
1.9119913580070715,0,0,-0.36152445068359373,0,0,-0.30576000000000003
1.9133826210163534,0,0,-1.0295067138671874,0,0,2.06388
1.9147694389976095,0,0,-2.1116858642578125,0,0,-4.50996
1.9161568870185874,0,0,0.3495534423828125,0,0,-2.2167600000000003
1.9175431490002666,0,0,1.2761094848632812,0,0,-1.2994800000000002
1.9189297450066078,0,0,3.308786694335937,0,0,2.36964
1.9203166560037062,0,0,1.956062756347656,0,0,1.2230400000000001
1.9217025480174925,0,0,-0.6153098266601562,0,0,2.06388
1.9230912550119683,0,0,-1.6352397338867186,0,0,0.3822
1.9244897770113312,0,0,-0.8595183959960937,0,0,-9.784320000000001
1.9258772620232776,0,0,1.0342951171875,0,0,-0.99372
1.9272643020085525,0,0,2.2385785522460937,0,0,-0.30576000000000003
1.9286498060100712,0,0,2.6216508178710938,0,0,0.0
1.9300354389997665,0,0,2.059013427734375,0,0,1.07016
1.9314277940138709,0,0,0.9816226806640624,0,0,0.91728
1.9328141860023607,0,0,-0.7445967163085937,0,0,0.07644000000000001
1.9342004299978726,0,0,-0.7685387329101562,0,0,-0.6115200000000001
1.9355858780036215,0,0,-0.4165910888671875,0,0,-0.84084
1.936970677023055,0,0,1.4628572143554686,0,0,-0.45864
1.9386269560200162,0,0,0.9888052856445312,0,0,1.37592
1.9400755140231922,0,0,0.6679822631835937,0,0,0.6115200000000001
1.9415077940211631,0,0,0.507570751953125,0,0,0.22932
1.9428879090119153,0,0,0.8571241943359375,0,0,0.3822
1.9443489120167214,0,0,1.1468225952148436,0,0,1.2994800000000002
1.9457453590002842,0,0,1.1635820068359375,0,0,0.99372
1.947148751001805,0,0,0.74699091796875,0,0,0.68796
1.9485275140032172,0,0,0.6919242797851562,0,0,0.6115200000000001
1.9499054799962323,0,0,0.4213794921875,0,0,-1.07016
1.9512872060004156,0,0,0.9696516723632812,0,0,-0.7644
1.952666635013884,0,0,1.3431471313476562,0,0,0.0
1.9540452130022459,0,0,0.584185205078125,0,0,0.0
1.9554279570002109,0,0,0.6655880615234374,0,0,0.15288000000000002
1.9568839780113194,0,0,-0.031124621582031248,0,0,0.7644
1.9582674260018393,0,0,-0.26815058593749996,0,0,0.0
1.9596479480096605,0,0,0.55545478515625,0,0,0.7644
1.9610270810080692,0,0,0.6368576416015624,0,0,0.15288000000000002
1.962405491998652,0,0,1.0223241088867188,0,0,0.0
1.9637855690089054,0,0,2.360682836914062,0,0,1.2230400000000001
1.9651645540143363,0,0,1.697488977050781,0,0,0.68796
1.966542723996099,0,0,1.465251416015625,0,0,0.99372
1.9679296720132697,0,0,0.28730419921875,0,0,0.91728
1.9693276199977845,0,0,-0.3902548706054687,0,0,-1.911
1.970716790005099,0,0,0.4477157104492187,0,0,-0.15288000000000002
1.9721142560010776,0,0,1.5370774658203123,0,0,-0.68796
1.9735015559999738,0,0,1.89620771484375,0,0,1.2994800000000002
1.9749012810061686,0,0,0.45010991210937495,0,0,0.3822
1.9762883399962448,0,0,0.5602431884765625,0,0,0.91728
1.9776743430120405,0,0,0.00239420166015625,0,0,0.91728
1.9790611430071294,0,0,0.0430956298828125,0,0,-0.68796
1.9804472390096635,0,0,0.9050082275390624,0,0,1.07016
1.9818400380027015,0,0,1.8195932617187498,0,0,0.0
1.9832334120001178,0,0,1.5682020874023437,0,0,0.91728
1.9846185260103084,0,0,0.6871358764648438,0,0,0.6115200000000001
1.9860047890106216,0,0,0.41419688720703124,0,0,-0.3822
1.987396885000635,0,0,0.09576806640624999,0,0,0.0
1.9887823330063839,0,0,0.277727392578125,0,0,-0.30576000000000003
1.9901679470203817,0,0,0.8499415893554687,0,0,0.3822
1.9915546910197008,0,0,1.3646949462890625,0,0,0.0
1.992944787023589,0,0,1.024718310546875,0,0,0.6115200000000001
1.9943305680062622,0,0,0.3806780639648437,0,0,0.30576000000000003
1.995716478995746,0,0,0.105344873046875,0,0,0.0
1.9971019820077345,0,0,0.6655880615234374,0,0,0.07644000000000001
1.9984875780064613,0,0,1.2473790649414063,0,0,-9.555
1.999875174020417,0,0,1.235408056640625,0,0,0.68796
2.0012608999968506,0,0,0.928950244140625,0,0,0.7644
2.0026464959955774,0,0,0.6631938598632812,0,0,0.45864
2.0040327580063604,0,0,1.0414777221679687,0,0,0.45864
2.005418595013907,0,0,1.149216796875,0,0,0.6115200000000001
2.006804599019233,0,0,0.8164227661132812,0,0,0.22932
2.008190343010938,0,0,0.46208092041015625,0,0,0.15288000000000002
2.0095792720094323,0,0,0.5123591552734374,0,0,-0.22932
2.010965349007165,0,0,0.7852981445312499,0,0,0.15288000000000002
2.012351297016721,0,0,0.9217676391601562,0,0,0.0
2.0137403740081936,0,0,0.8403647827148437,0,0,0.3822
2.0151325810002163,0,0,0.40222587890625,0,0,0.0
2.0165189180115703,0,0,0.19153613281249998,0,0,-0.30576000000000003
2.017905921995407,0,0,0.5386953735351562,0,0,9.631440000000001
2.0193067580112256,0,0,1.1731588134765625,0,0,0.91728
2.0206919470219873,0,0,1.4030021728515625,0,0,0.7644
2.02207802401972,0,0,1.1540052001953125,0,0,0.99372
2.0234640830021817,0,0,0.679953271484375,0,0,0.68796
2.0248493640101515,0,0,0.28730419921875,0,0,0.0
2.0262356080056634,0,0,0.32082302246093747,0,0,-0.3822
2.027622074005194,0,0,1.608903515625,0,0,0.0
2.0290073930227663,0,0,1.6208745239257811,0,0,0.53508
2.0303938029974233,0,0,1.4149731811523436,0,0,0.7644
2.0317799920157995,0,0,0.3687070556640625,0,0,0.45864
2.0331657550123055,0,0,0.08140285644531249,0,0,0.07644000000000001
2.0345519249967765,0,0,0.14604630126953125,0,0,-0.15288000000000002
2.035936558007961,0,0,0.8595183959960937,0,0,-0.22932
2.037332135019824,0,0,1.1827356201171875,0,0,0.30576000000000003
2.0388845250126906,0,0,1.4006079711914061,0,0,0.53508
2.040310620999662,0,0,0.9888052856445312,0,0,0.84084
2.0417112720024306,0,0,0.28730419921875,0,0,0.6115200000000001
2.0431208680092823,0,0,0.2657563842773437,0,0,0.53508
2.0445072050206363,0,0,0.9504980590820312,0,0,0.07644000000000001
2.045892708003521,0,0,1.3263877197265623,0,0,0.07644000000000001
2.0472787670150865,0,0,1.4532804077148436,0,0,0.30576000000000003
2.0486639740120154,0,0,1.2761094848632812,0,0,0.68796
2.050049865996698,0,0,0.9026140258789062,0,0,0.22932
2.0514361660170835,0,0,0.5410895751953124,0,0,0.0
2.052821668999968,0,0,0.3232172241210937,0,0,0.0
2.054207117005717,0,0,0.679953271484375,0,0,0.0
2.055593861005036,0,0,0.6296750366210937,0,0,0.15288000000000002
2.056978124019224,0,0,0.852335791015625,0,0,0.0
2.058579180011293,0,0,1.4437036010742186,0,0,0.84084
2.0600451460049953,0,0,1.218648645019531,0,0,0.45864
2.061618998995982,0,0,0.40222587890625,0,0,0.7644
2.0631073340191506,0,0,0.45968671875,0,0,0.22932
2.064593632996548,0,0,1.1156979736328125,0,0,0.30576000000000003
2.0660353580024093,0,0,1.3814543579101561,0,0,2.2167600000000003
2.067685857997276,0,0,1.68551796875,0,0,1.1465999999999998
2.069128768023802,0,0,1.3359645263671873,0,0,0.99372
2.070891786017455,0,0,1.0127473022460938,0,0,0.84084
2.072399344004225,0,0,0.93852705078125,0,0,0.84084
2.073880365001969,0,0,1.5945383056640625,0,0,0.7644
2.0753857000090647,0,0,1.62805712890625,0,0,0.6115200000000001
2.07687446201453,0,0,1.426944189453125,0,0,0.99372
2.0782697609975003,0,0,1.3239935180664062,0,0,0.68796
2.0798023550014477,0,0,1.1851298217773436,0,0,0.68796
2.08118902501883,0,0,1.5083470458984374,0,0,0.7644
2.0825690840138122,0,0,1.3742717529296875,0,0,0.53508
2.08396512499894,0,0,1.3766659545898436,0,0,0.84084
2.0853441650106106,0,0,1.189918225097656,0,0,0.91728
2.086724927998148,0,0,1.0845733520507812,0,0,0.45864
2.0881061530089937,0,0,1.1061211669921875,0,0,0.6115200000000001
2.089484675001586,0,0,1.446097802734375,0,0,0.3822
2.0908637160027865,0,0,1.5394716674804687,0,0,0.91728
2.092247053020401,0,0,1.4891934326171874,0,0,0.68796
2.093625797017012,0,0,1.1156979736328125,0,0,0.91728
2.095030170021346,0,0,1.158793603515625,0,0,0.6115200000000001
2.0964115440146998,0,0,1.1611878051757811,0,0,0.7644
2.097790380998049,0,0,1.2282254516601563,0,0,0.99372
2.0991788470128085,0,0,1.5298948608398437,0,0,0.3822
2.100555073004216,0,0,1.22583125,0,0,0.6115200000000001
2.1019526320160367,0,0,1.3527239379882812,0,0,2.06388
2.1033334679959808,0,0,1.2785036865234374,0,0,0.68796
2.1047128979989793,0,0,1.1707646118164061,0,0,0.91728
2.1060914380068425,0,0,1.2114660400390624,0,0,0.6115200000000001
2.107471682014875,0,0,1.388636962890625,0,0,0.84084
2.1088573890156113,0,0,1.3934253662109375,0,0,1.2230400000000001
2.110235947999172,0,0,1.467645617675781,0,0,0.68796
2.111616211012006,0,0,1.1851298217773436,0,0,0.6115200000000001
2.112994085007813,0,0,1.5227122558593749,0,0,0.45864
2.1143725140136667,0,0,1.216254443359375,0,0,0.6115200000000001
2.115753351012245,0,0,1.4245499877929686,0,0,0.91728
2.117131577018881,0,0,1.3718775512695311,0,0,0.7644
2.1185096359986346,0,0,1.1133037719726562,0,0,0.45864
2.1198898059956264,0,0,1.197100830078125,0,0,0.3822
2.1212678830197547,0,0,1.4221557861328125,0,0,0.45864
2.1226460900215898,0,0,1.4173673828125,0,0,0.99372
2.1240363710094243,0,0,1.4628572143554686,0,0,0.68796
2.1254233380022924,0,0,1.2569558715820313,0,0,0.91728
2.1268106370116584,0,0,1.2713210815429687,0,0,0.68796
2.128202029998647,0,0,1.1372457885742187,0,0,0.84084
2.1295891070039943,0,0,1.2306196533203124,0,0,0.53508
2.130977573018754,0,0,1.484405029296875,0,0,0.22932
2.132366132020252,0,0,1.2928688964843749,0,0,0.7644
2.1337528389994986,0,0,1.446097802734375,0,0,0.68796
2.135139824007638,0,0,1.3527239379882812,0,0,0.91728
2.1365262900071684,0,0,1.3838485595703125,0,0,1.2230400000000001
2.1379132570000365,0,0,1.35990654296875,0,0,0.84084
2.13930418601376,0,0,1.3120225097656248,0,0,0.84084
2.140691485023126,0,0,1.1444283935546875,0,0,1.1465999999999998
2.1420782300119754,0,0,1.2808978881835937,0,0,0.45864
2.143463251006324,0,0,1.3527239379882812,0,0,0.6115200000000001
2.1448419770167675,0,0,1.6208745239257811,0,0,0.68796
2.146220999013167,0,0,1.465251416015625,0,0,0.7644
2.147601447009947,0,0,1.3551181396484375,0,0,0.84084
2.1489796540117823,0,0,1.2114660400390624,0,0,0.99372
2.1503577130206395,0,0,1.0031704956054688,0,0,0.7644
2.1517546609975398,0,0,1.2282254516601563,0,0,0.84084
2.1531422010157257,0,0,1.2665326782226562,0,0,0.99372
2.1545293710078113,0,0,1.465251416015625,0,0,0.45864
2.1559119670127984,0,0,1.5658078857421873,0,0,0.68796
2.157290285016643,0,0,1.369483349609375,0,0,0.99372
2.158668326010229,0,0,1.1061211669921875,0,0,0.91728
2.1600634590140544,0,0,1.0366893188476562,0,0,0.99372
2.161450314015383,0,0,1.1156979736328125,0,0,0.6115200000000001
2.1628357430163305,0,0,1.2713210815429687,0,0,0.30576000000000003
2.164221487008035,0,0,1.5777788940429687,0,0,0.68796
2.165607008995721,0,0,1.5897499023437498,0,0,0.68796
2.167007623007521,0,0,1.5275006591796874,0,0,0.91728
2.1683951640152372,0,0,1.2306196533203124,0,0,-8.71416
2.169783556018956,0,0,1.0773907470703123,0,0,0.68796
2.1711702450120356,0,0,1.0845733520507812,0,0,0.84084
2.172554933000356,0,0,1.2378022583007813,0,0,0.53508
2.1739405289990827,0,0,1.5035586425781249,0,0,0.07644000000000001
2.1753263660066295,0,0,1.5346832641601562,0,0,0.84084
2.1767113690148108,0,0,1.62805712890625,0,0,0.99372
2.1780975950241555,0,0,1.2785036865234374,0,0,1.1465999999999998
2.1794842460076325,0,0,1.1851298217773436,0,0,0.84084
2.180868787021609,0,0,1.0127473022460938,0,0,0.91728
2.1822540310095064,0,0,1.0654197387695312,0,0,0.30576000000000003
2.1836395710124634,0,0,1.2665326782226562,0,0,1.2994800000000002
2.18502540802001,0,0,1.448492004394531,0,0,0.45864
2.1864106330031063,0,0,1.446097802734375,0,0,0.68796
2.1877965070016216,0,0,1.5658078857421873,0,0,0.7644
2.1891922329959925,0,0,1.3670891479492187,0,0,0.91728
2.1914003569982015,0,0,1.0845733520507812,0,0,0.53508
2.192793193011312,0,0,1.0965443603515623,0,0,0.45864
2.1941808450210374,0,0,1.0821791503906248,0,0,1.07016
2.1955679780221544,0,0,1.446097802734375,0,0,0.45864
2.196973665995756,0,0,1.2306196533203124,0,0,0.84084
2.1983602620020974,0,0,1.448492004394531,0,0,0.84084
2.1997471360082272,0,0,1.2880804931640624,0,0,0.7644
2.2011335650167894,0,0,1.3215993164062498,0,0,0.68796
2.202519715996459,0,0,1.199495031738281,0,0,0.91728
2.2039063310076017,0,0,1.1013327636718748,0,0,0.7644
2.205292760016164,0,0,1.4245499877929686,0,0,0.7644
2.206679188995622,0,0,1.5394716674804687,0,0,0.84084
2.2080652300210204,0,0,1.4101847778320311,0,0,0.53508
2.2094516410143115,0,0,1.3000515014648437,0,0,0.91728
2.2108379029959906,0,0,1.0893617553710937,0,0,0.91728
2.2122317400062457,0,0,1.3646949462890625,0,0,0.84084
2.2136206880095415,0,0,1.0821791503906248,0,0,0.6115200000000001
2.215008819999639,0,0,1.1133037719726562,0,0,0.6115200000000001
2.216395324008772,0,0,1.4700398193359374,0,0,0.22932
2.2177812720183283,0,0,1.4867992309570313,0,0,0.84084
2.2191808860225137,0,0,1.4245499877929686,0,0,0.7644
2.220567481999751,0,0,1.1923124267578125,0,0,0.7644
2.2219533000024967,0,0,1.3000515014648437,0,0,0.68796
2.223340877011651,0,0,1.0845733520507812,0,0,0.7644
2.22472743599792,0,0,1.0271125122070313,0,0,0.91728
2.226117125013843,0,0,1.0702081420898437,0,0,0.7644
2.2275040539971087,0,0,1.429338391113281,0,0,0.68796
2.228889557009097,0,0,1.3551181396484375,0,0,0.68796
2.2302752830146346,0,0,1.4221557861328125,0,0,0.6115200000000001
2.2316615090239793,0,0,1.2976572998046874,0,0,0.84084
2.233047179004643,0,0,1.3670891479492187,0,0,0.91728
2.2344378670095466,0,0,1.235408056640625,0,0,0.91728
2.2358416299975943,0,0,1.0893617553710937,0,0,0.7644
2.2372280770214275,0,0,1.4125789794921875,0,0,0.30576000000000003
2.238613729015924,0,0,1.4413093994140624,0,0,0.68796
2.240009158005705,0,0,1.4772224243164063,0,0,0.91728
2.2413952730130404,0,0,1.3215993164062498,0,0,0.68796
2.2427807570202276,0,0,1.3958195678710936,0,0,0.99372
2.2441668160026893,0,0,1.2761094848632812,0,0,0.91728
2.245552246022271,0,0,1.1540052001953125,0,0,0.91728
2.246937618998345,0,0,1.0749965454101562,0,0,0.99372
2.2483240860165097,0,0,1.2952630981445312,0,0,0.07644000000000001
2.2497093850106467,0,0,1.3311761230468748,0,0,0.68796
2.251118387997849,0,0,1.5275006591796874,0,0,0.91728
2.2525050030089915,0,0,1.2330138549804688,0,0,0.6115200000000001
2.25389026501216,0,0,1.3311761230468748,0,0,0.99372
2.255276732001221,0,0,0.9864110839843749,0,0,0.84084
2.256662383006187,0,0,1.0702081420898437,0,0,0.6115200000000001
2.2580482750199735,0,0,1.0749965454101562,0,0,1.2994800000000002
2.259434631007025,0,0,1.5035586425781249,0,0,0.6115200000000001
2.2608199120149948,0,0,1.4173673828125,0,0,0.84084
2.26220578601351,0,0,1.465251416015625,0,0,0.84084
2.2635919190070126,0,0,1.3048399047851562,0,0,1.2230400000000001
2.2649773660232313,0,0,1.3192051147460937,0,0,0.84084
2.266363018017728,0,0,1.0773907470703123,0,0,0.53508
2.2677488180052023,0,0,1.1348515869140625,0,0,0.30576000000000003
2.269134506001137,0,0,1.2904746948242187,0,0,0.53508
2.2705200830241665,0,0,1.3958195678710936,0,0,0.45864
2.271906124020461,0,0,1.2282254516601563,0,0,0.7644
2.2732913860236295,0,0,1.4030021728515625,0,0,0.91728
2.2746772789978422,0,0,1.216254443359375,0,0,1.07016
2.27606289301184,0,0,1.0773907470703123,0,0,0.53508
2.2774565820000134,0,0,1.0941501586914062,0,0,0.84084
2.278843511012383,0,0,0.9457096557617187,0,0,0.53508
2.280229680996854,0,0,1.5251064575195312,0,0,0.15288000000000002
2.281615220999811,0,0,1.407790576171875,0,0,0.6115200000000001
2.2830020770197734,0,0,1.4724340209960938,0,0,0.7644
2.284394524001982,0,0,1.2282254516601563,0,0,0.91728
2.2857799540215638,0,0,1.3575123413085937,0,0,1.2230400000000001
2.2871666610008106,0,0,1.1228805786132812,0,0,0.45864
2.288551775011001,0,0,1.2569558715820313,0,0,0.53508
2.2899378340225667,0,0,1.0797849487304687,0,0,0.99372
2.2913240600028075,0,0,1.5203180541992187,0,0,0.45864
2.2927139890089165,0,0,1.3742717529296875,0,0,0.53508
2.2940996770048514,0,0,1.4006079711914061,0,0,0.84084
2.295486458024243,0,0,1.24498486328125,0,0,0.84084
2.296870962018147,0,0,1.3383587280273437,0,0,0.91728
2.298256317008054,0,0,1.1133037719726562,0,0,1.07016
2.2996422460128088,0,0,1.2401964599609374,0,0,0.7644
2.301027398003498,0,0,1.24498486328125,0,0,0.91728
2.3024129570112564,0,0,1.4030021728515625,0,0,0.6115200000000001
2.3037986080162227,0,0,1.3646949462890625,0,0,0.6115200000000001
2.30518433402176,0,0,1.4101847778320311,0,0,0.68796
2.3065697450074367,0,0,1.3646949462890625,0,0,0.91728
2.307956433010986,0,0,1.0797849487304687,0,0,0.99372
2.309341807005694,0,0,1.120486376953125,0,0,0.6115200000000001
2.3107273100176826,0,0,1.0749965454101562,0,0,0.53508
2.3121131650113966,0,0,1.4125789794921875,0,0,0.30576000000000003
2.3134990020189434,0,0,1.426944189453125,0,0,0.68796
2.31488435700885,0,0,1.4101847778320311,0,0,0.7644
2.3163777480076533,0,0,1.2306196533203124,0,0,0.68796
2.317969638010254,0,0,1.3479355346679687,0,0,0.7644
2.319368568016216,0,0,1.0606313354492187,0,0,0.6115200000000001
2.320756571018137,0,0,1.2880804931640624,0,0,0.3822
2.322141851997003,0,0,1.3024457031249999,0,0,0.99372
2.323551948007662,0,0,1.467645617675781,0,0,0.7644
2.3249381180212367,0,0,1.2473790649414063,0,0,0.53508
2.3263236400089227,0,0,1.5418658691406248,0,0,0.84084
2.3277276610024273,0,0,1.2617442749023438,0,0,0.99372
2.3291137760097627,0,0,1.0534487304687499,0,0,0.7644
2.330499427014729,0,0,1.0295067138671874,0,0,0.84084
2.3318857820122503,0,0,1.1109095703125,0,0,0.45864
2.3332719519967213,0,0,1.458068811035156,0,0,0.15288000000000002
2.334657326020533,0,0,1.6017209106445311,0,0,0.68796
2.3360519410052802,0,0,1.4700398193359374,0,0,1.07016
2.337438499002019,0,0,1.3215993164062498,0,0,0.84084
2.3388241690117866,0,0,1.235408056640625,0,0,0.99372
2.340226339001674,0,0,1.139639990234375,0,0,0.7644
2.3417092120216694,0,0,1.1468225952148436,0,0,0.3822
2.343129084998509,0,0,1.2330138549804688,0,0,0.91728
2.344714531005593,0,0,1.484405029296875,0,0,0.68796
2.346094405016629,0,0,1.3479355346679687,0,0,0.7644
2.3474748530134093,0,0,1.4413093994140624,0,0,0.6115200000000001
2.3488647820195183,0,0,1.2234370483398436,0,0,0.68796
2.350243674009107,0,0,1.2282254516601563,0,0,0.68796
2.3516246960207354,0,0,1.1635820068359375,0,0,0.7644
2.3530028290115297,0,0,1.1324573852539062,0,0,0.7644
2.3543816470191814,0,0,1.3263877197265623,0,0,0.45864
2.3557637250050902,0,0,1.4006079711914061,0,0,0.53508
2.3571417100029066,0,0,1.5275006591796874,0,0,0.68796
2.3585209540033247,0,0,1.3862427612304686,0,0,0.7644
2.3599186050123535,0,0,1.24498486328125,0,0,0.99372
2.361297868017573,0,0,1.1276689819335937,0,0,0.30576000000000003
2.362676723016193,0,0,1.1156979736328125,0,0,0.6115200000000001
2.364055782003561,0,0,1.2282254516601563,0,0,0.7644
2.365434230014216,0,0,1.4820108276367188,0,0,0.30576000000000003
2.366812641004799,0,0,1.5203180541992187,0,0,0.68796
2.36820088501554,0,0,1.5466542724609373,0,0,0.6115200000000001
2.369587296008831,0,0,1.3144167114257812,0,0,1.07016
2.370973651006352,0,0,1.1276689819335937,0,0,0.99372
2.3723764510068577,0,0,1.0797849487304687,0,0,0.68796
2.373762564995559,0,0,1.1228805786132812,0,0,0.68796
2.3751491240109317,0,0,1.407790576171875,0,0,0.99372
2.3765348860179074,0,0,1.4413093994140624,0,0,0.6115200000000001
2.3779203160083853,0,0,1.35990654296875,0,0,0.84084
2.3793078750022687,0,0,1.426944189453125,0,0,0.7644
2.3806933410232887,0,0,1.2976572998046874,0,0,0.84084
2.3820795479987282,0,0,1.1707646118164061,0,0,0.84084
2.383466051018331,0,0,1.0893617553710937,0,0,0.68796
2.3848512030090205,0,0,1.0965443603515623,0,0,0.45864
2.3862372430157848,0,0,1.4030021728515625,0,0,0.6115200000000001
2.387623432005057,0,0,1.5035586425781249,0,0,0.84084
2.3890098060073797,0,0,1.6065093139648436,0,0,0.84084
2.390395605005324,0,0,1.429338391113281,0,0,0.6115200000000001
2.3917823859956115,0,0,1.0965443603515623,0,0,0.7644
2.393168742011767,0,0,1.0893617553710937,0,0,0.7644
2.394561949011404,0,0,1.1133037719726562,0,0,0.53508
2.395962155016605,0,0,1.0965443603515623,0,0,0.68796
2.397351991996402,0,0,1.4772224243164063,0,0,0.45864
2.3987378470192198,0,0,1.5610194824218748,0,0,0.30576000000000003
2.400123777013505,0,0,1.5969325073242187,0,0,0.91728
2.4015099840180483,0,0,1.3263877197265623,0,0,0.84084
2.40289598700474,0,0,1.3335703247070312,0,0,0.91728
2.404281657014508,0,0,1.1540052001953125,0,0,0.45864
2.405667771003209,0,0,1.1109095703125,0,0,0.6115200000000001
2.4070547010051087,0,0,1.254561669921875,0,0,0.53508
2.408440408005845,0,0,1.429338391113281,0,0,0.68796
2.409826504008379,0,0,1.4987702392578124,0,0,0.68796
2.4112132290028967,0,0,1.467645617675781,0,0,1.07016
2.412598121998599,0,0,1.1252747802734375,0,0,0.68796
2.4139842730073724,0,0,1.1851298217773436,0,0,0.68796
2.415377924015047,0,0,1.1228805786132812,0,0,0.68796
2.41676400200231,0,0,1.3718775512695311,0,0,0.45864
2.418149950011866,0,0,1.3958195678710936,0,0,0.84084
2.419536822999362,0,0,1.4604630126953124,0,0,0.6115200000000001
2.42092262301594,0,0,1.3670891479492187,0,0,0.91728
2.4223785329959355,0,0,1.3383587280273437,0,0,0.84084
2.4237702770042233,0,0,1.3311761230468748,0,0,0.68796
2.425157058023615,0,0,1.1133037719726562,0,0,0.91728
2.426544117013691,0,0,1.216254443359375,0,0,0.91728
2.42793086101301,0,0,1.199495031738281,0,0,0.53508
2.4293172350153327,0,0,1.3120225097656248,0,0,0.15288000000000002
2.4307043309963774,0,0,1.4317325927734375,0,0,0.7644
2.4320961119956337,0,0,1.599326708984375,0,0,0.68796
2.433484225999564,0,0,1.3455413330078123,0,0,0.91728
2.4348717110115103,0,0,1.158793603515625,0,0,0.91728
2.4362588259973563,0,0,1.0654197387695312,0,0,0.7644
2.4376459030027036,0,0,1.197100830078125,0,0,0.53508
2.4390327950241044,0,0,1.3287819213867187,0,0,1.07016
2.4404641130240634,0,0,1.5418658691406248,0,0,0.6115200000000001
2.4419190600165166,0,0,1.407790576171875,0,0,0.7644
2.443312285002321,0,0,1.4317325927734375,0,0,0.84084
2.444695826008683,0,0,1.1468225952148436,0,0,0.7644
2.446083051007008,0,0,1.0917559570312498,0,0,0.68796
2.447470629005693,0,0,1.0295067138671874,0,0,1.07016
2.44885641001747,0,0,1.1707646118164061,0,0,0.45864
2.45024274699972,0,0,1.3335703247070312,0,0,0.68796
2.451630416995613,0,0,1.448492004394531,0,0,0.7644
2.453032420016825,0,0,1.5298948608398437,0,0,0.91728
2.4544202940014657,0,0,1.4173673828125,0,0,0.7644
2.4558090750069823,0,0,1.1851298217773436,0,0,0.7644
2.4571963930211496,0,0,1.0534487304687499,0,0,0.6115200000000001
2.4585831180156674,0,0,1.2042834350585936,0,0,0.45864
2.4599775850074366,0,0,1.3239935180664062,0,0,0.7644
2.461364440008765,0,0,1.4341267944335936,0,0,0.45864
2.462751017010305,0,0,1.4772224243164063,0,0,0.99372
2.4641373720078263,0,0,1.484405029296875,0,0,0.99372
2.4655241720029153,0,0,1.2497732666015624,0,0,0.91728
2.4669106750225183,0,0,1.1540052001953125,0,0,0.99372
2.4682973269955255,0,0,1.0678139404296874,0,0,0.84084
2.4696843120036647,0,0,1.199495031738281,0,0,0.53508
2.471072111016838,0,0,1.3431471313476562,0,0,0.84084
2.4724593370046932,0,0,1.4915876342773438,0,0,0.6115200000000001
2.473846063017845,0,0,1.4939818359375,0,0,0.7644
2.47523334401194,0,0,1.5059528442382812,0,0,0.68796
2.4766194580006413,0,0,1.1276689819335937,0,0,0.68796
2.4780058870092034,0,0,1.1468225952148436,0,0,0.68796
2.4793935570050962,0,0,1.0989385620117187,0,0,0.91728
2.4807795789965894,0,0,1.2234370483398436,0,0,0.30576000000000003
2.4821660640009213,0,0,1.3383587280273437,0,0,0.53508
2.48355291900225,0,0,1.5107412475585937,0,0,0.68796
2.484938923007576,0,0,1.5873557006835937,0,0,0.7644
2.486325444013346,0,0,1.37906015625,0,0,0.7644
2.487711948022479,0,0,1.199495031738281,0,0,1.07016
2.4890981180069502,0,0,1.0127473022460938,0,0,0.7644
2.4904850290040486,0,0,1.2234370483398436,0,0,0.7644
2.4918717730033677,0,0,1.2713210815429687,0,0,1.07016
2.4932585910137277,0,0,1.4532804077148436,0,0,0.45864
2.4946453900192864,0,0,1.455674609375,0,0,0.68796
2.496031912014587,0,0,1.5011644409179687,0,0,0.91728
2.4974186190229375,0,0,1.2928688964843749,0,0,0.84084
2.4988092520216014,0,0,1.2689268798828124,0,0,0.84084
2.500196422013687,0,0,0.9840168823242187,0,0,0.45864
2.5015830369957257,0,0,1.216254443359375,0,0,0.3822
2.502977447002195,0,0,1.3287819213867187,0,0,1.37592
2.5043649510189425,0,0,1.4628572143554686,0,0,0.7644
2.5057515100052115,0,0,1.47482822265625,0,0,0.68796
2.5071387170173693,0,0,1.455674609375,0,0,0.68796
2.5085270720010158,0,0,1.1252747802734375,0,0,0.53508
2.5099138719961047,0,0,1.149216796875,0,0,-9.01992
2.511309579014778,0,0,1.1444283935546875,0,0,0.91728
2.512706581997918,0,0,1.20667763671875,0,0,0.53508
2.5140946590108797,0,0,1.4173673828125,0,0,0.45864
2.5154834220011253,0,0,1.426944189453125,0,0,0.53508
2.5168689810088836,0,0,1.6065093139648436,0,0,0.6115200000000001
2.5182554100174457,0,0,1.3527239379882812,0,0,0.91728
2.519642154016765,0,0,1.1707646118164061,0,0,1.07016
2.521028971998021,0,0,1.0199299072265624,0,0,0.7644
2.522414827020839,0,0,1.149216796875,0,0,0.6115200000000001
2.5238015340000857,0,0,1.1085153686523437,0,0,0.68796
2.5251884820172563,0,0,1.5179238525390624,0,0,0.3822
2.5265750040125567,0,0,1.4101847778320311,0,0,0.7644
2.5279701740073506,0,0,1.426944189453125,0,0,0.91728
2.5293569920177106,0,0,1.197100830078125,0,0,1.07016
2.5307472179993056,0,0,1.3287819213867187,0,0,0.68796
2.5321276290051173,0,0,1.0749965454101562,0,0,0.91728
2.5335060950019397,0,0,1.0845733520507812,0,0,0.6115200000000001
2.534884171996964,0,0,1.3838485595703125,0,0,0.99372
2.536272657016525,0,0,1.5729904907226562,0,0,0.68796
2.537658087007003,0,0,1.3934253662109375,0,0,0.68796
2.5390560899977572,0,0,1.3215993164062498,0,0,0.91728
2.5405660179967526,0,0,1.1420341918945311,0,0,0.91728
2.5419466140156146,0,0,1.1372457885742187,0,0,0.7644
2.5433268019987736,0,0,1.1348515869140625,0,0,0.91728
2.5447224719973747,0,0,1.1875240234375,0,0,0.84084
2.5461162720166612,0,0,1.3766659545898436,0,0,0.53508
2.547519108018605,0,0,1.39821376953125,0,0,0.45864
2.5488975930202287,0,0,1.5849614990234373,0,0,0.99372
2.550276448018849,0,0,1.3862427612304686,0,0,0.91728
2.5516563410055824,0,0,1.1540052001953125,0,0,0.91728
2.553034418000607,0,0,1.2138602416992186,0,0,0.68796
2.5544125699962024,0,0,1.197100830078125,0,0,0.68796
2.555792647006456,0,0,1.218648645019531,0,0,0.91728
2.5571708170173224,0,0,1.2928688964843749,0,0,0.45864
2.5585509130032733,0,0,1.3239935180664062,0,0,0.84084
2.5599323060014285,0,0,1.5634136840820312,0,0,0.6115200000000001
2.561311272002058,0,0,1.3096283081054687,0,0,0.7644
2.562689479003893,0,0,1.3263877197265623,0,0,0.91728
2.564078094001161,0,0,1.0271125122070313,0,0,0.68796
2.5654645600006916,0,0,1.0342951171875,0,0,0.6115200000000001
2.566851489013061,0,0,1.2808978881835937,0,0,0.99372
2.5682388819986954,0,0,1.5849614990234373,0,0,0.84084
2.5696353660023306,0,0,1.4149731811523436,0,0,0.91728
2.5710234250000212,0,0,1.4437036010742186,0,0,0.68796
2.5724106510169804,0,0,1.2042834350585936,0,0,0.99372
2.573797173012281,0,0,1.0678139404296874,0,0,0.6115200000000001
2.5751846200146247,0,0,1.1755530151367186,0,0,0.53508
2.576571124023758,0,0,1.1420341918945311,0,0,0.53508
2.577956997003639,0,0,1.4149731811523436,0,0,0.22932
2.57934389001457,0,0,1.4867992309570313,0,0,0.3822
2.5807299860171042,0,0,1.3144167114257812,0,0,0.7644
2.5821168959955685,0,0,1.2737152832031249,0,0,0.84084
2.583504085021559,0,0,1.2497732666015624,0,0,1.07016
2.5848903660080396,0,0,1.0893617553710937,0,0,0.91728
2.5862767579965293,0,0,1.1324573852539062,0,0,0.7644
2.587663558020722,0,0,1.1851298217773436,0,0,0.91728
2.5890501539979596,0,0,1.4867992309570313,0,0,0.30576000000000003
2.590442509012064,0,0,1.3934253662109375,0,0,0.84084
2.591862419008976,0,0,1.4987702392578124,0,0,0.99372
2.593254571023863,0,0,1.2521674682617188,0,0,0.84084
2.5946412780031096,0,0,1.2761094848632812,0,0,0.6115200000000001
2.5960283919994254,0,0,1.0965443603515623,0,0,0.53508
2.597415192023618,0,0,1.1061211669921875,0,0,0.3822
2.5988016400078777,0,0,1.4437036010742186,0,0,0.99372
2.6001884580182377,0,0,1.465251416015625,0,0,0.6115200000000001
2.6015743130119517,0,0,1.4221557861328125,0,0,0.91728
2.6029610200203024,0,0,1.2928688964843749,0,0,0.91728
2.6043474310135935,0,0,0.9911994873046874,0,0,0.99372
2.6057332119962666,0,0,1.177947216796875,0,0,0.84084
2.6071204750041943,0,0,1.2234370483398436,0,0,0.7644
2.608507088996703,0,0,1.2473790649414063,0,0,0.53508
2.609893204004038,0,0,1.5275006591796874,0,0,0.53508
2.6112805960001424,0,0,1.4101847778320311,0,0,0.84084
2.612668265996035,0,0,1.4532804077148436,0,0,0.7644
2.614054658013629,0,0,1.3670891479492187,0,0,0.7644
2.6154420870007016,0,0,1.2808978881835937,0,0,0.6115200000000001
2.6168282570142765,0,0,1.1875240234375,0,0,0.53508
2.6182141870085616,0,0,1.1875240234375,0,0,0.53508
2.6196006160171237,0,0,1.1180921752929687,0,0,0.84084
2.620986656023888,0,0,1.4173673828125,0,0,0.53508
2.6223728629993275,0,0,1.3431471313476562,0,0,0.91728
2.623833496007137,0,0,1.4628572143554686,0,0,0.7644
2.6253369050100446,0,0,1.1180921752929687,0,0,0.84084
2.6267733340209816,0,0,1.1180921752929687,0,0,0.68796
2.6282413550070487,0,0,1.0702081420898437,0,0,0.68796
2.629629802017007,0,0,1.0917559570312498,0,0,0.53508
2.631016750005074,0,0,1.5035586425781249,0,0,0.22932
2.632402531016851,0,0,1.3838485595703125,0,0,0.68796
2.6337878680205904,0,0,1.5298948608398437,0,0,0.68796
2.6351810010091867,0,0,1.467645617675781,0,0,0.84084
2.6365666150231846,0,0,1.2569558715820313,0,0,1.07016
2.6379525079973973,0,0,1.0486603271484374,0,0,0.7644
2.63933906701277,0,0,1.1851298217773436,0,0,0.84084
2.6407251070195343,0,0,1.3215993164062498,0,0,0.7644
2.6421110730152577,0,0,1.4963760375976562,0,0,0.53508
2.6434982430073433,0,0,1.4245499877929686,0,0,0.7644
2.644882950000465,0,0,1.4891934326171874,0,0,0.84084
2.646268398006214,0,0,1.235408056640625,0,0,0.91728
2.6476541419979185,0,0,1.3311761230468748,0,0,0.7644
2.649040257005254,0,0,1.0079588989257813,0,0,0.68796
2.650425890024053,0,0,1.139639990234375,0,0,0.45864
2.6518129670002963,0,0,1.3383587280273437,0,0,0.91728
2.653198637010064,0,0,1.5203180541992187,0,0,0.68796
2.654584659001557,0,0,1.3934253662109375,0,0,0.91728
2.6559710330038797,0,0,1.4796166259765624,0,0,0.53508
2.657357462012442,0,0,1.2497732666015624,0,0,0.91728
2.658743725012755,0,0,1.22583125,0,0,0.84084
2.660130117001245,0,0,1.2234370483398436,0,0,1.07016
2.6615159540087916,0,0,1.1013327636718748,0,0,0.53508
2.662901605013758,0,0,1.3168109130859373,0,0,0.22932
2.6642875710094813,0,0,1.2856862915039062,0,0,0.6115200000000001
2.665673630021047,0,0,1.5466542724609373,0,0,0.84084
2.667059800005518,0,0,1.3335703247070312,0,0,0.7644
2.6684450810134877,0,0,1.3096283081054687,0,0,0.84084
2.6698310110077728,0,0,1.1420341918945311,0,0,0.7644
2.6712172550032847,0,0,1.1540052001953125,0,0,0.7644
2.6726024429954123,0,0,1.1324573852539062,0,0,0.68796
2.673991390998708,0,0,1.4149731811523436,0,0,0.30576000000000003
2.675378191022901,0,0,1.465251416015625,0,0,0.91728
2.676762527000392,0,0,1.6065093139648436,0,0,1.1465999999999998
2.6781571970204823,0,0,1.2785036865234374,0,0,0.68796
2.6795440160203725,0,0,1.2138602416992186,0,0,-8.867040000000001
2.6809312230034266,0,0,1.0342951171875,0,0,0.91728
2.6823173740122,0,0,0.9361328491210937,0,0,0.6115200000000001
2.6837030260066967,0,0,1.3575123413085937,0,0,1.2230400000000001
2.6850887140026316,0,0,1.4772224243164063,0,0,0.84084
2.686488717008615,0,0,1.3383587280273437,0,0,0.99372
2.687875924020773,0,0,1.5083470458984374,0,0,0.7644
2.689262020023307,0,0,1.3359645263671873,0,0,0.68796
2.690688394010067,0,0,1.197100830078125,0,0,0.68796
2.692133748001652,0,0,1.0941501586914062,0,0,0.68796
2.6935212520183995,0,0,1.1635820068359375,0,0,0.30576000000000003
2.694907385011902,0,0,1.4053963745117186,0,0,0.15288000000000002
2.6962995170033537,0,0,1.6807295654296874,0,0,0.68796
2.6976851320068818,0,0,1.5873557006835937,0,0,0.84084
2.6990720060130116,0,0,1.35990654296875,0,0,0.84084
2.70045867600129,0,0,1.158793603515625,0,0,1.07016
2.7018444380082656,0,0,0.9624690673828125,0,0,0.45864
2.703231127001345,0,0,1.0103531005859374,0,0,0.91728
2.704616500996053,0,0,1.3766659545898436,0,0,0.91728
2.7060023000231013,0,0,1.4987702392578124,0,0,0.6115200000000001
2.7073896180081647,0,0,1.2761094848632812,0,0,0.6115200000000001
2.7087749920028728,0,0,1.4772224243164063,0,0,0.68796
2.7101607360236812,0,0,1.1061211669921875,0,0,0.6115200000000001
2.7115466649993323,0,0,1.2330138549804688,0,0,0.84084
2.712932816997636,0,0,1.0965443603515623,0,0,0.6115200000000001
2.714318339014426,0,0,1.0821791503906248,0,0,0.84084
2.7157041570171714,0,0,1.1827356201171875,0,0,0.53508
2.717089957004646,0,0,1.3958195678710936,0,0,0.53508
2.7184752380126156,0,0,1.4341267944335936,0,0,0.68796
2.719860648998292,0,0,1.5251064575195312,0,0,0.7644
2.721246337023331,0,0,1.3718775512695311,0,0,0.91728
2.7226503400015645,0,0,1.0917559570312498,0,0,0.7644
2.7240365290199406,0,0,1.0510545288085937,0,0,0.6115200000000001
2.72542273599538,0,0,1.1659762084960936,0,0,0.45864
2.7268084429961164,0,0,1.5298948608398437,0,0,0.53508
2.7281940940010827,0,0,1.4820108276367188,0,0,-8.943480000000001
2.729582024010597,0,0,1.4820108276367188,0,0,0.53508
2.7309679159952793,0,0,1.3024457031249999,0,0,1.07016
2.7323836970026605,0,0,1.3000515014648437,0,0,1.1465999999999998
2.7337967370112892,0,0,1.1563994018554686,0,0,0.7644
2.7351862960204016,0,0,1.1061211669921875,0,0,0.68796
2.7365720400121063,0,0,1.3144167114257812,0,0,0.7644
2.737959468999179,0,0,1.419761584472656,0,0,0.68796
2.7393508609966375,0,0,1.2401964599609374,0,0,0.7644
2.7408071420213673,0,0,1.5251064575195312,0,0,0.91728
2.7421876449952833,0,0,1.2737152832031249,0,0,0.68796
2.743585278018145,0,0,1.218648645019531,0,0,0.7644
2.7450733730220236,0,0,1.0869675537109373,0,0,0.6115200000000001
2.746455506014172,0,0,1.1851298217773436,0,0,0.53508
2.747855342022376,0,0,1.369483349609375,0,0,0.7644
2.749255068018101,0,0,1.39821376953125,0,0,0.53508
2.7506373490032274,0,0,1.448492004394531,0,0,0.45864
2.752043111016974,0,0,1.43652099609375,0,0,0.84084
2.753458948020125,0,0,1.3670891479492187,0,0,0.84084
2.754924356995616,0,0,1.1276689819335937,0,0,0.7644
2.7563188420026563,0,0,1.2234370483398436,0,0,0.91728
2.757702938019065,0,0,1.3096283081054687,0,0,0.53508
2.7590833300200757,0,0,1.4891934326171874,0,0,0.45864
2.760469704022398,0,0,1.4317325927734375,0,0,0.6115200000000001
2.761864226020407,0,0,1.5969325073242187,0,0,0.99372
2.7632460440217983,0,0,1.2425906616210938,0,0,0.84084
2.764625159004936,0,0,1.2114660400390624,0,0,0.91728
2.7660129950090777,0,0,1.0127473022460938,0,0,0.6115200000000001
2.7673955360078253,0,0,1.218648645019531,0,0,0.68796
2.768774113006657,0,0,1.2497732666015624,0,0,0.6115200000000001
2.7701525239972398,0,0,1.4628572143554686,0,0,0.84084
2.7715465270157438,0,0,1.4508862060546874,0,0,0.91728
2.772932697000215,0,0,1.4891934326171874,0,0,0.7644
2.7743183860147838,0,0,1.0821791503906248,0,0,0.91728
2.7757048520143144,0,0,1.1444283935546875,0,0,0.84084
2.7770902820047922,0,0,1.0773907470703123,0,0,0.91728
2.7784757850167807,0,0,1.3455413330078123,0,0,0.3822
2.779862399009289,0,0,1.2018892333984375,0,0,0.30576000000000003
2.7812487360206433,0,0,1.3311761230468748,0,0,0.30576000000000003
2.782634406001307,0,0,1.5298948608398437,0,0,0.7644
2.7840204650128726,0,0,1.4532804077148436,0,0,0.84084
2.7854061720136087,0,0,1.16837041015625,0,0,0.7644
2.7867917499970645,0,0,1.13006318359375,0,0,0.68796
2.788177883019671,0,0,1.139639990234375,0,0,1.07016
2.7895640900242142,0,0,1.2401964599609374,0,0,0.7644
2.7909496480133384,0,0,1.4628572143554686,0,0,0.30576000000000003
2.7923368560150266,0,0,1.6112977172851561,0,0,0.84084
2.7937251180119347,0,0,1.5634136840820312,0,0,0.84084
2.795112899009837,0,0,1.35990654296875,0,0,0.99372
2.796498773008352,0,0,1.2306196533203124,0,0,1.2994800000000002
2.797885072999634,0,0,1.0462661254882812,0,0,0.6115200000000001
2.7992719280009624,0,0,1.2713210815429687,0,0,0.84084
2.8006568569981027,0,0,1.3623007446289062,0,0,1.2230400000000001
2.8020426200237125,0,0,1.4963760375976562,0,0,0.6115200000000001
2.8034595120116137,0,0,1.5083470458984374,0,0,0.91728
2.8048459040001035,0,0,1.4867992309570313,0,0,0.91728
2.806231869995827,0,0,1.3359645263671873,0,0,0.7644
2.8076177990005817,0,0,1.2210428466796874,0,0,0.84084
2.809003766014939,0,0,1.1228805786132812,0,0,0.6115200000000001
2.8103968990035355,0,0,1.1372457885742187,0,0,0.22932
2.81178264299524,0,0,1.3263877197265623,0,0,0.45864
2.8132026640232652,0,0,1.6017209106445311,0,0,1.07016
2.8145887790014967,0,0,1.6112977172851561,0,0,0.53508
2.815975004021311,0,0,1.419761584472656,0,0,0.84084
2.81736050802283,0,0,1.216254443359375,0,0,0.91728
2.81874660399626,0,0,1.1085153686523437,0,0,0.6115200000000001
2.8201332000026014,0,0,1.1276689819335937,0,0,0.30576000000000003
2.8215189070033375,0,0,1.235408056640625,0,0,0.3822
2.822905114007881,0,0,1.35990654296875,0,0,0.15288000000000002
2.8242912650166545,0,0,1.5083470458984374,0,0,0.7644
2.8256793430191465,0,0,1.5897499023437498,0,0,0.99372
2.82706636399962,0,0,1.2497732666015624,0,0,0.6115200000000001
2.8284519420121796,0,0,1.209071838378906,0,0,0.99372
2.8298378530016635,0,0,1.1707646118164061,0,0,0.53508
2.831224467023276,0,0,1.3168109130859373,0,0,0.68796
2.8326101929997094,0,0,1.3120225097656248,0,0,0.91728
2.833996418019524,0,0,1.4437036010742186,0,0,0.45864
2.835383310011821,0,0,1.4915876342773438,0,0,0.99372
2.836768609995488,0,0,1.484405029296875,0,0,0.91728
2.8381545020092744,0,0,1.1324573852539062,0,0,0.91728
2.839540395012591,0,0,1.2114660400390624,0,0,0.6115200000000001
2.840925879019778,0,0,1.1156979736328125,0,0,0.7644
2.842311957007041,0,0,1.2569558715820313,0,0,0.45864
2.843697719014017,0,0,1.3239935180664062,0,0,0.6115200000000001
2.845083593012532,0,0,1.5083470458984374,0,0,0.6115200000000001
2.8464692080160603,0,0,1.484405029296875,0,0,0.68796
2.8478558589995373,0,0,1.2928688964843749,0,0,0.68796
2.8492418999958318,0,0,1.0845733520507812,0,0,0.99372
2.8506276810076088,0,0,1.1228805786132812,0,0,0.53508
2.8520139430183917,0,0,1.0941501586914062,0,0,0.84084
2.8534106870065443,0,0,1.180341418457031,0,0,0.53508
2.8547963940072805,0,0,1.419761584472656,0,0,0.53508
2.8561830639955588,0,0,1.5275006591796874,0,0,0.7644
2.857568938023178,0,0,1.5179238525390624,0,0,0.7644
2.8589545900176745,0,0,1.3096283081054687,0,0,0.99372
2.8603403890156187,0,0,1.1013327636718748,0,0,0.84084
2.8617335410090163,0,0,1.0989385620117187,0,0,0.7644
2.863120396010345,0,0,1.1611878051757811,0,0,0.45864
2.8645060840062797,0,0,1.3144167114257812,0,0,0.99372
2.865892105997773,0,0,1.419761584472656,0,0,0.91728
2.867278387013357,0,0,1.4053963745117186,0,0,0.7644
2.868663594010286,0,0,1.3096283081054687,0,0,0.91728
2.870049282995751,0,0,1.0917559570312498,0,0,0.84084
2.871435786015354,0,0,1.2569558715820313,0,0,0.53508
2.8728210300032515,0,0,1.13006318359375,0,0,0.7644
2.8742064970138017,0,0,1.0534487304687499,0,0,0.45864
2.875593093020143,0,0,1.4700398193359374,0,0,0.84084
2.8769786700140685,0,0,1.3814543579101561,0,0,0.84084
2.878364488016814,0,0,1.6160861206054686,0,0,0.91728
2.8797504359972663,0,0,1.35990654296875,0,0,0.84084
2.8811364760040306,0,0,1.1851298217773436,0,0,0.91728
2.882521795021603,0,0,1.218648645019531,0,0,0.91728
2.883908039017115,0,0,1.2689268798828124,0,0,0.7644
2.8852936160110403,0,0,1.3431471313476562,0,0,0.7644
2.886681675008731,0,0,1.4245499877929686,0,0,0.3822
2.888068086002022,0,0,1.446097802734375,0,0,0.68796
2.8894540710025467,0,0,1.4963760375976562,0,0,0.84084
2.89084003699827,0,0,1.235408056640625,0,0,0.91728
2.892230744007975,0,0,1.0869675537109373,0,0,0.6115200000000001
2.8936164879996795,0,0,1.20667763671875,0,0,0.68796
2.8950036210007966,0,0,1.1563994018554686,0,0,0.68796
2.89638982800534,0,0,1.2761094848632812,0,0,0.99372
2.897784146014601,0,0,1.3910311645507811,0,0,0.84084
2.8991708160028793,0,0,1.24498486328125,0,0,0.68796
2.900557190005202,0,0,1.4987702392578124,0,0,0.84084
2.901943064003717,0,0,1.2497732666015624,0,0,0.68796
2.9033297520072665,0,0,1.0797849487304687,0,0,-9.09636
2.9047165700176265,0,0,1.0630255371093749,0,0,0.84084
2.9061028330179397,0,0,1.1875240234375,0,0,0.68796
2.9074892440112308,0,0,1.426944189453125,0,0,0.6115200000000001
2.908874895016197,0,0,1.5155296508789062,0,0,0.84084
2.9102611020207405,0,0,1.2689268798828124,0,0,0.84084
2.911647087021265,0,0,1.2665326782226562,0,0,0.53508
2.913032683019992,0,0,1.0965443603515623,0,0,0.99372
2.9144184830074664,0,0,1.2665326782226562,0,0,0.6115200000000001
2.915804375021253,0,0,1.2282254516601563,0,0,0.91728
2.9171894710161723,0,0,1.3000515014648437,0,0,0.6115200000000001
2.918574973999057,0,0,1.4149731811523436,0,0,0.53508
2.919976774021052,0,0,1.4101847778320311,0,0,0.68796
2.9213759069971275,0,0,1.4939818359375,0,0,0.84084
2.9227618360018823,0,0,1.2737152832031249,0,0,0.91728
2.924147654004628,0,0,1.2018892333984375,0,0,0.68796
2.9255334910121746,0,0,1.0845733520507812,0,0,0.6115200000000001
2.926918994024163,0,0,1.1611878051757811,0,0,0.53508
2.9283049600198865,0,0,1.369483349609375,0,0,1.07016
2.9296907230163924,0,0,1.458068811035156,0,0,0.68796
2.931077818997437,0,0,1.438915197753906,0,0,1.07016
2.932463433011435,0,0,1.429338391113281,0,0,1.1465999999999998
2.9338493070099503,0,0,1.2593500732421874,0,0,0.91728
2.935236329009058,0,0,1.3215993164062498,0,0,0.91728
2.9366216100170277,0,0,1.2282254516601563,0,0,0.91728
2.9380072799976915,0,0,1.2593500732421874,0,0,0.53508
2.9393933580140583,0,0,1.4437036010742186,0,0,0.6115200000000001
2.9410724870103877,0,0,1.37906015625,0,0,0.68796
2.942522509023547,0,0,1.4724340209960938,0,0,0.68796
2.943962993012974,0,0,1.3575123413085937,0,0,0.68796
2.945381866011303,0,0,1.2713210815429687,0,0,0.7644
2.946762072999263,0,0,1.1276689819335937,0,0,0.53508
2.9481422990211286,0,0,1.139639990234375,0,0,0.84084
2.949521005997667,0,0,1.3120225097656248,0,0,0.3822
2.9508997870143503,0,0,1.4053963745117186,0,0,0.45864
2.952279290999286,0,0,1.419761584472656,0,0,0.84084
2.953662515996257,0,0,1.5346832641601562,0,0,0.84084
2.9550633710168768,0,0,1.2497732666015624,0,0,0.84084
2.9564604490005877,0,0,1.149216796875,0,0,0.84084
